"consent","trial_type","trial_index","time_elapsed","internal_node_id","subjID","study","MID","cond","drift","rt","responses","button_pressed","key_press","like","value","connected","gems","bombs","no_reward","GemPrChosen","BombPrChosen","GainOverPainPr_0","GainOverPainPr_1","GainOverPainPr_2","GainOverPainPr_3","LosePr_0","LosePr_1","LosePr_2","LosePr_3","WinPr_0","WinPr_1","WinPr_2","WinPr_3","Q0","Q1","Q2","gender","age","ethnicity","label","expt_phase","target","respCharCode","respKey","respChoiceNum","respChoice","practice","trial_counter","trial_label","Q0_index"
"GDM/GDM_behavioral_consent_30min_online.html","consent","0","8615","0.0-0.0","00063711","wem/bandit_party_2","AUGZWSMBBO8U1","either","7","","","","","","","","","","","","","","","","","","","","","","","","","","","","","","","","","","","","","","","","",""
"","survey-text","1","17964","0.0-1.0","00063711","wem/bandit_party_2","AUGZWSMBBO8U1","either","7","8332","{""Q0"":""AUGZWSMBBO8U1""}","","","","","","","","","","","","","","","","","","","","","","","","","","","","","","","","","","","","","","",""
"","button-response","2","22240","0.0-2.0","00063711","wem/bandit_party_2","AUGZWSMBBO8U1","either","7","3267","","1","","","","","","","","","","","","","","","","","","","","","","","","","","","","","","","","","","","","","",""
"","text-replacement","3","42176","0.0-3.0","00063711","wem/bandit_party_2","AUGZWSMBBO8U1","either","7","18927","","","32","","","","","","","","","","","","","","","","","","","","","","","","","","","","","","","","","","","","",""
"","text-replacement","4","58979","0.0-4.0","00063711","wem/bandit_party_2","AUGZWSMBBO8U1","either","7","16800","","","32","","","","","","","","","","","","","","","","","","","","","","","","","","","","","","","","","","","","",""
"","identification","5","75287","0.0-6.0-0.0","00063711","wem/bandit_party_2","AUGZWSMBBO8U1","either","7","16289","","","","3","4","4","","","","","","","","","","","","","","","","","","","","","","","","pre","identification_pre","the Democratic Party","","","","","","","",""
"","identification","6","91896","0.0-6.0-1.0","00063711","wem/bandit_party_2","AUGZWSMBBO8U1","either","7","15583","","","","1","3","1","","","","","","","","","","","","","","","","","","","","","","","","pre","identification_pre","the Republican Party","","","","","","","",""
"","text-replacement","7","255173","0.0-7.0","00063711","wem/bandit_party_2","AUGZWSMBBO8U1","either","7","162268","","","32","","","","","","","","","","","","","","","","","","","","","","","","","","","","","","","","","","","","",""
"","text-replacement","8","267467","0.0-8.0","00063711","wem/bandit_party_2","AUGZWSMBBO8U1","either","7","12291","","","32","","","","","","","","","","","","","","","","","","","","","","","","","","","","","","","","","","","","",""
"","text-replacement","9","286844","0.0-9.0","00063711","wem/bandit_party_2","AUGZWSMBBO8U1","either","7","19373","","","32","","","","","","","","","","","","","","","","","","","","","","","","","","","","","","","","","","","","",""
"","text-replacement","10","292802","0.0-10.0","00063711","wem/bandit_party_2","AUGZWSMBBO8U1","either","7","5955","","","32","","","","","","","","","","","","","","","","","","","","","","","","","","","","","","","","","","","","",""
"","text-replacement","11","299427","0.0-11.0","00063711","wem/bandit_party_2","AUGZWSMBBO8U1","either","7","6623","","","32","","","","","","","","","","","","","","","","","","","","","","","","","","","","","","","","","","","","",""
"","bandit","12","302696","0.0-12.0-0.0","00063711","wem/bandit_party_2","AUGZWSMBBO8U1","either","7","1751","","","","","","","0","0","1","0","0","","","","","0","","","","0","","","","","","","","","","","","","74","J","0","img/none_selected_demo.jpg","true","0","",""
"","bandit","13","306399","0.0-13.0-0.0","00063711","wem/bandit_party_2","AUGZWSMBBO8U1","either","7","2187","","","","","","","0","0","1","0","0","","","","","0","","","","0","","","","","","","","","","","","","75","K","0","img/none_selected_demo.jpg","true","0","",""
"","text-replacement","14","313450","0.0-14.0","00063711","wem/bandit_party_2","AUGZWSMBBO8U1","either","7","7048","","","32","","","","","","","","","","","","","","","","","","","","","","","","","","","","","","","","","","","","",""
"","text-replacement","15","323104","0.0-15.0","00063711","wem/bandit_party_2","AUGZWSMBBO8U1","either","7","9652","","","32","","","","","","","","","","","","","","","","","","","","","","","","","","","","","","","","","","","","",""
"","text-replacement","16","334186","0.0-16.0","00063711","wem/bandit_party_2","AUGZWSMBBO8U1","either","7","11079","","","32","","","","","","","","","","","","","","","","","","","","","","","","","","","","","","","","","","","","",""
"","text-replacement","17","344905","0.0-17.0","00063711","wem/bandit_party_2","AUGZWSMBBO8U1","either","7","10717","","","32","","","","","","","","","","","","","","","","","","","","","","","","","","","","","","","","","","","","",""
"","bandit","18","347896","0.0-18.0-0.0","00063711","wem/bandit_party_2","AUGZWSMBBO8U1","either","7","1474","","","","","","","0","0","1","0.2","","0.5","0.5","","","","","","","0.8","0.2","","","","","","","","","","","","75","K","1","","true","0","80_20_practice",""
"","bandit","19","349790","0.0-18.0-1.0","00063711","wem/bandit_party_2","AUGZWSMBBO8U1","either","7","377","","","","","","","0","0","1","0.8","","0.5","0.5","","","","","","","0.8","0.2","","","","","","","","","","","","74","J","0","img/none_selected_demo.jpg","true","0","80_20_practice",""
"","bandit","20","351590","0.0-18.0-2.0","00063711","wem/bandit_party_2","AUGZWSMBBO8U1","either","7","286","","","","","","","0","0","1","0.2","","0.5","0.5","","","","","","","0.8","0.2","","","","","","","","","","","","75","K","1","","true","0","80_20_practice",""
"","bandit","21","353404","0.0-18.0-3.0","00063711","wem/bandit_party_2","AUGZWSMBBO8U1","either","7","301","","","","","","","0","0","1","0.8","","0.5","0.5","","","","","","","0.8","0.2","","","","","","","","","","","","74","J","0","img/none_selected_demo.jpg","true","0","80_20_practice",""
"","bandit","22","355290","0.0-18.0-4.0","00063711","wem/bandit_party_2","AUGZWSMBBO8U1","either","7","310","","","","","","","0","0","1","0.2","","0.5","0.5","","","","","","","0.8","0.2","","","","","","","","","","","","75","K","1","","true","0","80_20_practice",""
"","bandit","23","357073","0.0-18.0-5.0","00063711","wem/bandit_party_2","AUGZWSMBBO8U1","either","7","268","","","","","","","0","1","0","","0.8","0.5","0.5","","","0.8","0.2","","","","","","","","","","","","","","","","74","J","0","img/none_selected_demo.jpg","true","0","80_20_practice",""
"","bandit","24","358918","0.0-18.0-6.0","00063711","wem/bandit_party_2","AUGZWSMBBO8U1","either","7","330","","","","","","","1","0","0","0.8","","0.5","0.5","","","","","","","0.8","0.2","","","","","","","","","","","","74","J","0","img/none_selected_demo.jpg","true","0","80_20_practice",""
"","bandit","25","360682","0.0-18.0-7.0","00063711","wem/bandit_party_2","AUGZWSMBBO8U1","either","7","253","","","","","","","0","1","0","","0.8","0.5","0.5","","","0.8","0.2","","","","","","","","","","","","","","","","74","J","0","img/none_selected_demo.jpg","true","0","80_20_practice",""
"","bandit","26","362458","0.0-18.0-8.0","00063711","wem/bandit_party_2","AUGZWSMBBO8U1","either","7","263","","","","","","","1","0","0","0.8","","0.5","0.5","","","","","","","0.8","0.2","","","","","","","","","","","","74","J","0","img/none_selected_demo.jpg","true","0","80_20_practice",""
"","bandit","27","364217","0.0-18.0-9.0","00063711","wem/bandit_party_2","AUGZWSMBBO8U1","either","7","248","","","","","","","1","0","0","0.8","","0.5","0.5","","","","","","","0.8","0.2","","","","","","","","","","","","74","J","0","img/none_selected_demo.jpg","true","0","80_20_practice",""
"","bandit","28","366097","0.0-18.0-10.0","00063711","wem/bandit_party_2","AUGZWSMBBO8U1","either","7","370","","","","","","","1","0","0","0.8","","0.5","0.5","","","","","","","0.8","0.2","","","","","","","","","","","","74","J","0","img/none_selected_demo.jpg","true","0","80_20_practice",""
"","bandit","29","367885","0.0-18.0-11.0","00063711","wem/bandit_party_2","AUGZWSMBBO8U1","either","7","274","","","","","","","1","0","0","0.8","","0.5","0.5","","","","","","","0.8","0.2","","","","","","","","","","","","74","J","0","img/none_selected_demo.jpg","true","0","80_20_practice",""
"","bandit","30","369579","0.0-18.0-12.0","00063711","wem/bandit_party_2","AUGZWSMBBO8U1","either","7","182","","","","","","","1","0","0","0.8","","0.5","0.5","","","","","","","0.8","0.2","","","","","","","","","","","","74","J","0","img/none_selected_demo.jpg","true","0","80_20_practice",""
"","bandit","31","371193","0.0-18.0-13.0","00063711","wem/bandit_party_2","AUGZWSMBBO8U1","either","7","103","","","","","","","1","0","0","0.8","","0.5","0.5","","","","","","","0.8","0.2","","","","","","","","","","","","74","J","0","img/none_selected_demo.jpg","true","0","80_20_practice",""
"","bandit","32","372957","0.0-18.0-14.0","00063711","wem/bandit_party_2","AUGZWSMBBO8U1","either","7","248","","","","","","","0","1","0","","0.8","0.5","0.5","","","0.8","0.2","","","","","","","","","","","","","","","","74","J","0","img/none_selected_demo.jpg","true","0","80_20_practice",""
"","bandit","33","374704","0.0-18.0-15.0","00063711","wem/bandit_party_2","AUGZWSMBBO8U1","either","7","237","","","","","","","0","1","0","","0.8","0.5","0.5","","","0.8","0.2","","","","","","","","","","","","","","","","74","J","0","img/none_selected_demo.jpg","true","0","80_20_practice",""
"","bandit","34","376509","0.0-18.0-16.0","00063711","wem/bandit_party_2","AUGZWSMBBO8U1","either","7","290","","","","","","","1","0","0","0.8","","0.5","0.5","","","","","","","0.8","0.2","","","","","","","","","","","","74","J","0","img/none_selected_demo.jpg","true","0","80_20_practice",""
"","bandit","35","378321","0.0-18.0-17.0","00063711","wem/bandit_party_2","AUGZWSMBBO8U1","either","7","295","","","","","","","0","1","0","","0.8","0.5","0.5","","","0.8","0.2","","","","","","","","","","","","","","","","74","J","0","img/none_selected_demo.jpg","true","0","80_20_practice",""
"","bandit","36","380114","0.0-18.0-18.0","00063711","wem/bandit_party_2","AUGZWSMBBO8U1","either","7","280","","","","","","","1","0","0","0.8","","0.5","0.5","","","","","","","0.8","0.2","","","","","","","","","","","","74","J","0","img/none_selected_demo.jpg","true","0","80_20_practice",""
"","bandit","37","381866","0.0-18.0-19.0","00063711","wem/bandit_party_2","AUGZWSMBBO8U1","either","7","240","","","","","","","0","1","0","","0.8","0.5","0.5","","","0.8","0.2","","","","","","","","","","","","","","","","74","J","0","img/none_selected_demo.jpg","true","0","80_20_practice",""
"","text-replacement","38","389329","0.0-19.0","00063711","wem/bandit_party_2","AUGZWSMBBO8U1","either","7","7460","","","32","","","","","","","","","","","","","","","","","","","","","","","","","","","","","","","","","","","","",""
"","bandit","39","391873","0.0-20.0-0.0","00063711","wem/bandit_party_2","AUGZWSMBBO8U1","either","7","1034","","","","","","","1","0","0","1","0","","","","","0","1","","","1","0","","","","","","","","","","","","74","J","0","img/none_selected_demo.jpg","true","0","",""
"","text-replacement","40","397607","0.0-21.0","00063711","wem/bandit_party_2","AUGZWSMBBO8U1","either","7","5730","","","32","","","","","","","","","","","","","","","","","","","","","","","","","","","","","","","","","","","","",""
"","text-replacement","41","401105","0.0-22.0","00063711","wem/bandit_party_2","AUGZWSMBBO8U1","either","7","3494","","","32","","","","","","","","","","","","","","","","","","","","","","","","","","","","","","","","","","","","",""
"","text-replacement","42","404222","0.0-23.0","00063711","wem/bandit_party_2","AUGZWSMBBO8U1","either","7","3114","","","32","","","","","","","","","","","","","","","","","","","","","","","","","","","","","","","","","","","","",""
"","text-replacement","43","407310","0.0-24.0","00063711","wem/bandit_party_2","AUGZWSMBBO8U1","either","7","3085","","","32","","","","","","","","","","","","","","","","","","","","","","","","","","","","","","","","","","","","",""
"","text-replacement","44","411760","0.0-25.0","00063711","wem/bandit_party_2","AUGZWSMBBO8U1","either","7","4447","","","32","","","","","","","","","","","","","","","","","","","","","","","","","","","","","","","","","","","","",""
"","text-replacement","45","414278","0.0-26.0","00063711","wem/bandit_party_2","AUGZWSMBBO8U1","either","7","2515","","","32","","","","","","","","","","","","","","","","","","","","","","","","","","","","","","","","","","","","",""
"","text-replacement","46","418149","0.0-27.0","00063711","wem/bandit_party_2","AUGZWSMBBO8U1","either","7","3868","","","32","","","","","","","","","","","","","","","","","","","","","","","","","","","","","","","","","","","","",""
"","text-replacement","47","424231","0.0-28.0","00063711","wem/bandit_party_2","AUGZWSMBBO8U1","either","7","6079","","","32","","","","","","","","","","","","","","","","","","","","","","","","","","","","","","","","","","","","",""
"","text-replacement","48","431589","0.0-29.0","00063711","wem/bandit_party_2","AUGZWSMBBO8U1","either","7","7355","","","32","","","","","","","","","","","","","","","","","","","","","","","","","","","","","","","","","","","","",""
"","text-replacement","49","434311","0.0-30.0","00063711","wem/bandit_party_2","AUGZWSMBBO8U1","either","7","2719","","","32","","","","","","","","","","","","","","","","","","","","","","","","","","","","","","","","","","","","",""
"","text-replacement","50","437621","0.0-31.0","00063711","wem/bandit_party_2","AUGZWSMBBO8U1","either","7","3307","","","32","","","","","","","","","","","","","","","","","","","","","","","","","","","","","","","","","","","","",""
"","bandit","51","439811","0.0-32.0-0.0","00063711","wem/bandit_party_2","AUGZWSMBBO8U1","either","7","674","","","","","","","0","1","0","","0.8","0.5","0.5","0.5","0.5","0.8","0.2","0.6","0.2","","","","","","","","","","","","","","72","H","0","img/none_selected.jpg","true","0","full_practice",""
"","bandit","52","441612","0.0-32.0-1.0","00063711","wem/bandit_party_2","AUGZWSMBBO8U1","either","7","284","","","","","","","1","0","0","0.8","","0.5","0.5","0.5","0.5","","","","","0.8","0.2","0.6","0.2","","","","","","","","","","72","H","0","img/none_selected.jpg","true","0","full_practice",""
"","bandit","53","443370","0.0-32.0-2.0","00063711","wem/bandit_party_2","AUGZWSMBBO8U1","either","7","244","","","","","","","0","0","1","","0.8","0.5","0.5","0.5","0.5","0.8","0.2","0.6","0.2","","","","","","","","","","","","","","72","H","0","img/none_selected.jpg","true","0","full_practice",""
"","bandit","54","445135","0.0-32.0-3.0","00063711","wem/bandit_party_2","AUGZWSMBBO8U1","either","7","254","","","","","","","0","0","1","0.2","","0.5","0.5","0.5","0.5","","","","","0.8","0.2","0.6","0.2","","","","","","","","","","74","J","1","","true","0","full_practice",""
"","bandit","55","446777","0.0-32.0-4.0","00063711","wem/bandit_party_2","AUGZWSMBBO8U1","either","7","131","","","","","","","0","1","0","","0.6","0.5","0.5","0.5","0.5","0.8","0.2","0.6","0.2","","","","","","","","","","","","","","75","K","2","","true","0","full_practice",""
"","bandit","56","450940","0.0-32.0-5.0","00063711","wem/bandit_party_2","AUGZWSMBBO8U1","either","7","2647","","","","","","","0","0","1","0.2","","0.5","0.5","0.5","0.5","","","","","0.8","0.2","0.6","0.2","","","","","","","","","","76","L","3","","true","0","full_practice",""
"","bandit","57","453370","0.0-32.0-6.0","00063711","wem/bandit_party_2","AUGZWSMBBO8U1","either","7","915","","","","","","","1","0","0","0.8","","0.5","0.5","0.5","0.5","","","","","0.8","0.2","0.6","0.2","","","","","","","","","","72","H","0","img/none_selected.jpg","true","0","full_practice",""
"","bandit","58","455088","0.0-32.0-7.0","00063711","wem/bandit_party_2","AUGZWSMBBO8U1","either","7","204","","","","","","","1","0","0","0.8","","0.5","0.5","0.5","0.5","","","","","0.8","0.2","0.6","0.2","","","","","","","","","","72","H","0","img/none_selected.jpg","true","0","full_practice",""
"","bandit","59","456899","0.0-32.0-8.0","00063711","wem/bandit_party_2","AUGZWSMBBO8U1","either","7","298","","","","","","","0","1","0","","0.8","0.5","0.5","0.5","0.5","0.8","0.2","0.6","0.2","","","","","","","","","","","","","","72","H","0","img/none_selected.jpg","true","0","full_practice",""
"","bandit","60","458704","0.0-32.0-9.0","00063711","wem/bandit_party_2","AUGZWSMBBO8U1","either","7","293","","","","","","","0","1","0","","0.8","0.5","0.5","0.5","0.5","0.8","0.2","0.6","0.2","","","","","","","","","","","","","","72","H","0","img/none_selected.jpg","true","0","full_practice",""
"","bandit","61","460503","0.0-32.0-10.0","00063711","wem/bandit_party_2","AUGZWSMBBO8U1","either","7","285","","","","","","","1","0","0","0.8","","0.5","0.5","0.5","0.5","","","","","0.8","0.2","0.6","0.2","","","","","","","","","","72","H","0","img/none_selected.jpg","true","0","full_practice",""
"","bandit","62","462401","0.0-32.0-11.0","00063711","wem/bandit_party_2","AUGZWSMBBO8U1","either","7","383","","","","","","","0","1","0","","0.8","0.5","0.5","0.5","0.5","0.8","0.2","0.6","0.2","","","","","","","","","","","","","","72","H","0","img/none_selected.jpg","true","0","full_practice",""
"","bandit","63","464592","0.0-32.0-12.0","00063711","wem/bandit_party_2","AUGZWSMBBO8U1","either","7","670","","","","","","","0","0","1","0.8","","0.5","0.5","0.5","0.5","","","","","0.8","0.2","0.6","0.2","","","","","","","","","","72","H","0","img/none_selected.jpg","true","0","full_practice",""
"","bandit","64","466464","0.0-32.0-13.0","00063711","wem/bandit_party_2","AUGZWSMBBO8U1","either","7","359","","","","","","","0","0","1","0.2","","0.5","0.5","0.5","0.5","","","","","0.8","0.2","0.6","0.2","","","","","","","","","","74","J","1","","true","0","full_practice",""
"","bandit","65","468339","0.0-32.0-14.0","00063711","wem/bandit_party_2","AUGZWSMBBO8U1","either","7","360","","","","","","","0","0","1","0.6","","0.5","0.5","0.5","0.5","","","","","0.8","0.2","0.6","0.2","","","","","","","","","","75","K","2","","true","0","full_practice",""
"","bandit","66","469854","0.0-32.0-15.0","00063711","wem/bandit_party_2","AUGZWSMBBO8U1","either","7","1","","","","","","","1","0","0","0.2","","0.5","0.5","0.5","0.5","","","","","0.8","0.2","0.6","0.2","","","","","","","","","","76","L","3","","true","0","full_practice",""
"","bandit","67","471711","0.0-32.0-16.0","00063711","wem/bandit_party_2","AUGZWSMBBO8U1","either","7","345","","","","","","","0","0","1","","0.2","0.5","0.5","0.5","0.5","0.8","0.2","0.6","0.2","","","","","","","","","","","","","","76","L","3","","true","0","full_practice",""
"","bandit","68","473498","0.0-32.0-17.0","00063711","wem/bandit_party_2","AUGZWSMBBO8U1","either","7","272","","","","","","","0","1","0","","0.6","0.5","0.5","0.5","0.5","0.8","0.2","0.6","0.2","","","","","","","","","","","","","","75","K","2","","true","0","full_practice",""
"","bandit","69","475287","0.0-32.0-18.0","00063711","wem/bandit_party_2","AUGZWSMBBO8U1","either","7","277","","","","","","","1","0","0","0.6","","0.5","0.5","0.5","0.5","","","","","0.8","0.2","0.6","0.2","","","","","","","","","","75","K","2","","true","0","full_practice",""
"","bandit","70","477091","0.0-32.0-19.0","00063711","wem/bandit_party_2","AUGZWSMBBO8U1","either","7","287","","","","","","","1","0","0","0.6","","0.5","0.5","0.5","0.5","","","","","0.8","0.2","0.6","0.2","","","","","","","","","","75","K","2","","true","0","full_practice",""
"","text","71","481516","0.0-33.0","00063711","wem/bandit_party_2","AUGZWSMBBO8U1","either","7","4415","","","32","","","","","","","","","","","","","","","","","","","","","","","","","","","","","","","","","","","","",""
"","text-replacement","72","504495","0.0-34.0","00063711","wem/bandit_party_2","AUGZWSMBBO8U1","either","7","21971","","","32","","","","","","","","","","","","","","","","","","","","","","","","","","","","","","","","","","","","",""
"","text-replacement","73","516639","0.0-35.0","00063711","wem/bandit_party_2","AUGZWSMBBO8U1","either","7","12139","","","32","","","","","","","","","","","","","","","","","","","","","","","","","","","","","","","","","","","","",""
"","text-replacement","74","525940","0.0-36.0","00063711","wem/bandit_party_2","AUGZWSMBBO8U1","either","7","9298","","","32","","","","","","","","","","","","","","","","","","","","","","","","","","","","","","","","","","","","",""
"","text-replacement","75","535660","0.0-37.0","00063711","wem/bandit_party_2","AUGZWSMBBO8U1","either","7","9716","","","32","","","","","","","","","","","","","","","","","","","","","","","","","","","","","","","","","","","","",""
"","text-replacement","76","547062","0.0-38.0","00063711","wem/bandit_party_2","AUGZWSMBBO8U1","either","7","11398","","","32","","","","","","","","","","","","","","","","","","","","","","","","","","","","","","","","","","","","",""
"","survey-multi-choice-replacement","77","556639","0.0-39.0-0.0","00063711","wem/bandit_party_2","AUGZWSMBBO8U1","either","7","9567","","","","","","","","","","","","","","","","","","","","","","","","Money will be added to the pool for <span style='color:blue;'>DEMOCRATS</span>","","","","","","","attn_check","","","","","","","","","0"
"","survey-multi-choice-replacement","78","569374","0.0-40.0-0.0","00063711","wem/bandit_party_2","AUGZWSMBBO8U1","either","7","11723","","","","","","","","","","","","","","","","","","","","","","","","Equal amounts of money will be added to the pool for <span style='color:blue;'>DEMOCRATS</span> and subtracted from the pool for <span style='color:red;'>REPUBLICANS</span>","","","","","","","attn_check","","","","","","","","","2"
"","survey-multi-choice-replacement","79","574121","0.0-41.0-0.0","00063711","wem/bandit_party_2","AUGZWSMBBO8U1","either","7","3729","","","","","","","","","","","","","","","","","","","","","","","","No money will be added to either pool","","","","","","","attn_check","","","","","","","","","3"
"","bandit","80","581259","0.0-42.0-0.0","00063711","wem/bandit_party_2","AUGZWSMBBO8U1","either","7","4611","","","","","","","0","1","0","","0.7088318221","0.6","0.4","0.8","0.2","0.2888626749","0.5514722813","0.1731741302","0.7088318221","","","","","","","","","","","","","","76","L","3","","","1","main_expt",""
"","bandit","81","583040","0.0-43.0-0.0","00063711","wem/bandit_party_2","AUGZWSMBBO8U1","either","7","265","","","","","","","0","1","0","","0.6292935488","0.6","0.4","0.8","0.2","0.3999538902","0.5039303977","0.2874485847","0.6292935488","","","","","","","","","","","","","","76","L","3","","","2","main_expt",""
"","bandit","82","584741","0.0-44.0-0.0","00063711","wem/bandit_party_2","AUGZWSMBBO8U1","either","7","192","","","","","","","0","0","1","","0.5285482983","0.6","0.4","0.8","0.2","0.4126831114","0.5527877924","0.2683250969","0.5285482983","","","","","","","","","","","","","","76","L","3","","","3","main_expt",""
"","bandit","83","586511","0.0-45.0-0.0","00063711","wem/bandit_party_2","AUGZWSMBBO8U1","either","7","257","","","","","","","0","0","1","0.3923803367","","0.6","0.4","0.8","0.2","","","","","0.3923803367","0.6336700584","0.3988631097","0.6744491701","","","","","","","","","","72","H","0","img/none_selected.jpg","","4","main_expt",""
"","bandit","84","588049","0.0-46.0-0.0","00063711","wem/bandit_party_2","AUGZWSMBBO8U1","either","7","22","","","","","","","0","0","1","","0.6340088104","0.6","0.4","0.8","0.2","0.3803283439","0.6340088104","0.3568799457","0.7922285807","","","","","","","","","","","","","","74","J","1","","","5","main_expt",""
"","bandit","85","589878","0.0-47.0-0.0","00063711","wem/bandit_party_2","AUGZWSMBBO8U1","either","7","317","","","","","","","0","0","1","0.3188731731","","0.6","0.4","0.8","0.2","","","","","0.4214296899","0.5784181907","0.3188731731","0.7459441126","","","","","","","","","","75","K","2","","","6","main_expt",""
"","bandit","86","591625","0.0-48.0-0.0","00063711","wem/bandit_party_2","AUGZWSMBBO8U1","either","7","232","","","","","","","1","0","0","0.7681481668","","0.6","0.4","0.8","0.2","","","","","0.4755968838","0.6727083857","0.4574196012","0.7681481668","","","","","","","","","","76","L","3","","","7","main_expt",""
"","bandit","87","593366","0.0-49.0-0.0","00063711","wem/bandit_party_2","AUGZWSMBBO8U1","either","7","230","","","","","","","0","1","0","","0.7251609313","0.6","0.4","0.8","0.2","0.5353568537","0.7574508858","0.5037884951","0.7251609313","","","","","","","","","","","","","","76","L","3","","","8","main_expt",""
"","bandit","88","595130","0.0-50.0-0.0","00063711","wem/bandit_party_2","AUGZWSMBBO8U1","either","7","251","","","","","","","1","0","0","0.7403055102","","0.6","0.4","0.8","0.2","","","","","0.6246831942","0.8280759311","0.5750013994","0.7403055102","","","","","","","","","","76","L","3","","","9","main_expt",""
"","bandit","89","596895","0.0-51.0-0.0","00063711","wem/bandit_party_2","AUGZWSMBBO8U1","either","7","250","","","","","","","0","0","1","0.722944265","","0.6","0.4","0.8","0.2","","","","","0.4475954046","0.859726102","0.5399040382","0.722944265","","","","","","","","","","76","L","3","","","10","main_expt",""
"","bandit","90","599808","0.0-52.0-0.0","00063711","wem/bandit_party_2","AUGZWSMBBO8U1","either","7","1399","","","","","","","1","0","0","0.4514702697","","0.6","0.4","0.8","0.2","","","","","0.4514702697","0.877956501","0.5181098662","0.6833847698","","","","","","","","","","72","H","0","img/none_selected.jpg","","11","main_expt",""
"","bandit","91","601642","0.0-53.0-0.0","00063711","wem/bandit_party_2","AUGZWSMBBO8U1","either","7","317","","","","","","","0","1","0","","0.4873058782","0.6","0.4","0.8","0.2","0.4873058782","0.8883669707","0.5489165229","0.689227163","","","","","","","","","","","","","","72","H","0","img/none_selected.jpg","","12","main_expt",""
"","bandit","92","603778","0.0-54.0-0.0","00063711","wem/bandit_party_2","AUGZWSMBBO8U1","either","7","620","","","","","","","0","0","1","0.4862469224","","0.6","0.4","0.8","0.2","","","","","0.4862469224","0.817149195","0.6186986429","0.5178623456","","","","","","","","","","72","H","0","img/none_selected.jpg","","13","main_expt",""
"","bandit","93","605531","0.0-55.0-0.0","00063711","wem/bandit_party_2","AUGZWSMBBO8U1","either","7","238","","","","","","","0","0","1","0.8589139609","","0.6","0.4","0.8","0.2","","","","","0.360908092","0.8589139609","0.4944095791","0.4768489018","","","","","","","","","","74","J","1","","","14","main_expt",""
"","bandit","94","607353","0.0-56.0-0.0","00063711","wem/bandit_party_2","AUGZWSMBBO8U1","either","7","306","","","","","","","1","0","0","0.4820951366","","0.6","0.4","0.8","0.2","","","","","0.4126647893","0.7955781648","0.4820951366","0.5201849276","","","","","","","","","","75","K","2","","","15","main_expt",""
"","bandit","95","609313","0.0-57.0-0.0","00063711","wem/bandit_party_2","AUGZWSMBBO8U1","either","7","444","","","","","","","0","0","1","0.4888848296","","0.6","0.4","0.8","0.2","","","","","0.4930686601","0.8864445785","0.4888848296","0.6862231469","","","","","","","","","","75","K","2","","","16","main_expt",""
"","bandit","96","611131","0.0-58.0-0.0","00063711","wem/bandit_party_2","AUGZWSMBBO8U1","either","7","306","","","","","","","0","1","0","","0.7297328357","0.6","0.4","0.8","0.2","0.5162343008","0.8746062981","0.381306026","0.7297328357","","","","","","","","","","","","","","76","L","3","","","17","main_expt",""
"","bandit","97","612890","0.0-59.0-0.0","00063711","wem/bandit_party_2","AUGZWSMBBO8U1","either","7","241","","","","","","","0","1","0","","0.6686287009","0.6","0.4","0.8","0.2","0.5627456494","0.8910236512","0.3537135189","0.6686287009","","","","","","","","","","","","","","76","L","3","","","18","main_expt",""
"","bandit","98","614731","0.0-60.0-0.0","00063711","wem/bandit_party_2","AUGZWSMBBO8U1","either","7","322","","","","","","","0","0","1","","0.7885428456","0.6","0.4","0.8","0.2","0.4478227807","0.8932054573","0.4891458502","0.7885428456","","","","","","","","","","","","","","76","L","3","","","19","main_expt",""
"","bandit","99","616512","0.0-61.0-0.0","00063711","wem/bandit_party_2","AUGZWSMBBO8U1","either","7","268","","","","","","","0","0","1","0.5306796692","","0.6","0.4","0.8","0.2","","","","","0.5306796692","0.8900063933","0.5440957398","0.7442236049","","","","","","","","","","72","H","0","img/none_selected.jpg","","20","main_expt",""
"","bandit","100","618284","0.0-62.0-0.0","00063711","wem/bandit_party_2","AUGZWSMBBO8U1","either","7","252","","","","","","","0","1","0","","0.8748704397","0.6","0.4","0.8","0.2","0.5423611418","0.8748704397","0.5621313733","0.7908218503","","","","","","","","","","","","","","74","J","1","","","21","main_expt",""
"","bandit","101","620168","0.0-63.0-0.0","00063711","wem/bandit_party_2","AUGZWSMBBO8U1","either","7","368","","","","","","","0","0","1","0.8498769136","","0.6","0.4","0.8","0.2","","","","","0.4190568807","0.8498769136","0.5296345876","0.7163236006","","","","","","","","","","74","J","1","","","22","main_expt",""
"","bandit","102","621935","0.0-64.0-0.0","00063711","wem/bandit_party_2","AUGZWSMBBO8U1","either","7","251","","","","","","","0","0","1","","0.5187107172","0.6","0.4","0.8","0.2","0.4329937009","0.8357449374","0.5187107172","0.7061190667","","","","","","","","","","","","","","75","K","2","","","23","main_expt",""
"","bandit","103","623743","0.0-65.0-0.0","00063711","wem/bandit_party_2","AUGZWSMBBO8U1","either","7","294","","","","","","","0","0","1","","0.7470556917","0.6","0.4","0.8","0.2","0.4298879426","0.8431908073","0.6000521927","0.7470556917","","","","","","","","","","","","","","76","L","3","","","24","main_expt",""
"","bandit","104","625543","0.0-66.0-0.0","00063711","wem/bandit_party_2","AUGZWSMBBO8U1","either","7","285","","","","","","","0","0","1","","0.2992323157","0.6","0.4","0.8","0.2","0.2992323157","0.8741885854","0.5443047256","0.8154180688","","","","","","","","","","","","","","72","H","0","img/none_selected.jpg","","25","main_expt",""
"","bandit","105","627371","0.0-67.0-0.0","00063711","wem/bandit_party_2","AUGZWSMBBO8U1","either","7","312","","","","","","","0","1","0","","0.8940719671","0.6","0.4","0.8","0.2","0.3857263224","0.8940719671","0.592493964","0.8395379789","","","","","","","","","","","","","","74","J","1","","","26","main_expt",""
"","bandit","106","629205","0.0-68.0-0.0","00063711","wem/bandit_party_2","AUGZWSMBBO8U1","either","7","322","","","","","","","1","0","0","0.8733378856","","0.6","0.4","0.8","0.2","","","","","0.3715251318","0.8733378856","0.5779569403","0.8023078409","","","","","","","","","","74","J","1","","","27","main_expt",""
"","bandit","107","631039","0.0-69.0-0.0","00063711","wem/bandit_party_2","AUGZWSMBBO8U1","either","7","320","","","","","","","0","1","0","","0.8695586723","0.6","0.4","0.8","0.2","0.3387808014","0.8695586723","0.7077223562","0.8248968235","","","","","","","","","","","","","","74","J","1","","","28","main_expt",""
"","bandit","108","632977","0.0-70.0-0.0","00063711","wem/bandit_party_2","AUGZWSMBBO8U1","either","7","420","","","","","","","0","1","0","","0.7908290088","0.6","0.4","0.8","0.2","0.3737397218","0.7908290088","0.7070353494","0.8621011303","","","","","","","","","","","","","","74","J","1","","","29","main_expt",""
"","bandit","109","634881","0.0-71.0-0.0","00063711","wem/bandit_party_2","AUGZWSMBBO8U1","either","7","387","","","","","","","1","0","0","0.8518997755","","0.6","0.4","0.8","0.2","","","","","0.3232047389","0.8518997755","0.6585428656","0.8873668535","","","","","","","","","","74","J","1","","","30","main_expt",""
"","bandit","110","637121","0.0-72.0-0.0","00063711","wem/bandit_party_2","AUGZWSMBBO8U1","either","7","721","","","","","","","0","0","1","0.8509842625","","0.6","0.4","0.8","0.2","","","","","0.4130267239","0.8509842625","0.6724088618","0.9318975106","","","","","","","","","","74","J","1","","","31","main_expt",""
"","bandit","111","639199","0.0-73.0-0.0","00063711","wem/bandit_party_2","AUGZWSMBBO8U1","either","7","565","","","","","","","0","0","1","","0.6416581209","0.6","0.4","0.8","0.2","0.4167758813","0.872996121","0.6416581209","0.9013609786","","","","","","","","","","","","","","75","K","2","","","32","main_expt",""
"","bandit","112","641021","0.0-74.0-0.0","00063711","wem/bandit_party_2","AUGZWSMBBO8U1","either","7","308","","","","","","","0","1","0","","0.9041531295","0.6","0.4","0.8","0.2","0.4546052232","0.8571046391","0.7055802426","0.9041531295","","","","","","","","","","","","","","76","L","3","","","33","main_expt",""
"","bandit","113","642797","0.0-75.0-0.0","00063711","wem/bandit_party_2","AUGZWSMBBO8U1","either","7","263","","","","","","","0","1","0","","0.9386104272","0.6","0.4","0.8","0.2","0.5231803088","0.9175819521","0.7554114371","0.9386104272","","","","","","","","","","","","","","76","L","3","","","34","main_expt",""
"","bandit","114","644741","0.0-76.0-0.0","00063711","wem/bandit_party_2","AUGZWSMBBO8U1","either","7","431","","","","","","","0","1","0","","0.9180645683","0.6","0.4","0.8","0.2","0.4661188593","0.9503165686","0.8008095759","0.9180645683","","","","","","","","","","","","","","76","L","3","","","35","main_expt",""
"","bandit","115","646808","0.0-77.0-0.0","00063711","wem/bandit_party_2","AUGZWSMBBO8U1","either","7","550","","","","","","","0","0","1","","0.9095107155","0.6","0.4","0.8","0.2","0.4106027186","0.9327615424","0.6925109639","0.9095107155","","","","","","","","","","","","","","76","L","3","","","36","main_expt",""
"","bandit","116","648615","0.0-78.0-0.0","00063711","wem/bandit_party_2","AUGZWSMBBO8U1","either","7","267","","","","","","","0","0","1","","0.5021263718","0.6","0.4","0.8","0.2","0.5021263718","0.9196494001","0.7764255689","0.9405648028","","","","","","","","","","","","","","72","H","0","img/none_selected.jpg","","37","main_expt",""
"","bandit","117","650377","0.0-79.0-0.0","00063711","wem/bandit_party_2","AUGZWSMBBO8U1","either","7","247","","","","","","","1","0","0","0.928530414","","0.6","0.4","0.8","0.2","","","","","0.5065313343","0.928530414","0.8392953971","0.9058459248","","","","","","","","","","74","J","1","","","38","main_expt",""
"","bandit","118","652258","0.0-80.0-0.0","00063711","wem/bandit_party_2","AUGZWSMBBO8U1","either","7","363","","","","","","","0","1","0","","0.9001545702","0.6","0.4","0.8","0.2","0.6098243774","0.9001545702","0.7614495855","0.8784462517","","","","","","","","","","","","","","74","J","1","","","39","main_expt",""
"","bandit","119","654713","0.0-81.0-0.0","00063711","wem/bandit_party_2","AUGZWSMBBO8U1","either","7","937","","","","","","","0","1","0","","0.8432481254","0.6","0.4","0.8","0.2","0.679699592","0.8432481254","0.8060705796","0.8408568766","","","","","","","","","","","","","","74","J","1","","","40","main_expt",""
"","bandit","120","656918","0.0-82.0-0.0","00063711","wem/bandit_party_2","AUGZWSMBBO8U1","either","7","689","","","","","","","0","1","0","","0.8326479564","0.6","0.4","0.8","0.2","0.616488607","0.8326479564","0.7539991053","0.811342849","","","","","","","","","","","","","","74","J","1","","","41","main_expt",""
"","bandit","121","659008","0.0-83.0-0.0","00063711","wem/bandit_party_2","AUGZWSMBBO8U1","either","7","573","","","","","","","1","0","0","0.8602810298","","0.6","0.4","0.8","0.2","","","","","0.6307104111","0.8602810298","0.7717369324","0.8058808774","","","","","","","","","","74","J","1","","","42","main_expt",""
"","bandit","122","660883","0.0-84.0-0.0","00063711","wem/bandit_party_2","AUGZWSMBBO8U1","either","7","356","","","","","","","0","0","1","","0.894365654","0.6","0.4","0.8","0.2","0.554567591","0.894365654","0.7625968551","0.7899844578","","","","","","","","","","","","","","74","J","1","","","43","main_expt",""
"","bandit","123","662711","0.0-85.0-0.0","00063711","wem/bandit_party_2","AUGZWSMBBO8U1","either","7","316","","","","","","","1","0","0","0.8488621298","","0.6","0.4","0.8","0.2","","","","","0.5281861223","0.9033664713","0.8488621298","0.7654486741","","","","","","","","","","75","K","2","","","44","main_expt",""
"","bandit","124","664510","0.0-86.0-0.0","00063711","wem/bandit_party_2","AUGZWSMBBO8U1","either","7","282","","","","","","","1","0","0","0.8522077325","","0.6","0.4","0.8","0.2","","","","","0.5043334007","0.8829964613","0.8522077325","0.7674111825","","","","","","","","","","75","K","2","","","45","main_expt",""
"","bandit","125","666349","0.0-87.0-0.0","00063711","wem/bandit_party_2","AUGZWSMBBO8U1","either","7","325","","","","","","","1","0","0","0.8618589195","","0.6","0.4","0.8","0.2","","","","","0.5426256613","0.8674694879","0.8618589195","0.6301273516","","","","","","","","","","75","K","2","","","46","main_expt",""
"","bandit","126","668581","0.0-88.0-0.0","00063711","wem/bandit_party_2","AUGZWSMBBO8U1","either","7","685","","","","","","","1","0","0","0.905897833","","0.6","0.4","0.8","0.2","","","","","0.5024796093","0.8886720039","0.905897833","0.7885969413","","","","","","","","","","75","K","2","","","47","main_expt",""
"","bandit","127","670633","0.0-89.0-0.0","00063711","wem/bandit_party_2","AUGZWSMBBO8U1","either","7","534","","","","","","","1","0","0","0.8929468812","","0.6","0.4","0.8","0.2","","","","","0.4689138593","0.9229902905","0.8929468812","0.7983786211","","","","","","","","","","75","K","2","","","48","main_expt",""
"","bandit","128","672687","0.0-90.0-0.0","00063711","wem/bandit_party_2","AUGZWSMBBO8U1","either","7","539","","","","","","","1","0","0","0.854905512","","0.6","0.4","0.8","0.2","","","","","0.4439560463","0.9141434128","0.854905512","0.8249867574","","","","","","","","","","75","K","2","","","49","main_expt",""
"","bandit","129","674632","0.0-91.0-0.0","00063711","wem/bandit_party_2","AUGZWSMBBO8U1","either","7","427","","","","","","","1","0","0","0.8363103738","","0.6","0.4","0.8","0.2","","","","","0.4079842927","0.9181160336","0.8363103738","0.7532301684","","","","","","","","","","75","K","2","","","50","main_expt",""
"","bandit","130","676582","0.0-92.0-0.0","00063711","wem/bandit_party_2","AUGZWSMBBO8U1","either","7","435","","","","","","","0","0","1","0.7168506975","","0.6","0.4","0.8","0.2","","","","","0.4675199832","0.9266489825","0.7168506975","0.6750909554","","","","","","","","","","75","K","2","","","51","main_expt",""
"","bandit","131","678416","0.0-93.0-0.0","00063711","wem/bandit_party_2","AUGZWSMBBO8U1","either","7","316","","","","","","","0","1","0","","0.6762079337","0.6","0.4","0.8","0.2","0.4368052975","0.9285581488","0.6507986152","0.6762079337","","","","","","","","","","","","","","76","L","3","","","52","main_expt",""
"","bandit","132","680256","0.0-94.0-0.0","00063711","wem/bandit_party_2","AUGZWSMBBO8U1","either","7","322","","","","","","","0","1","0","","0.7882030045","0.6","0.4","0.8","0.2","0.4967902672","0.9171724481","0.6531867096","0.7882030045","","","","","","","","","","","","","","76","L","3","","","53","main_expt",""
"","bandit","133","682142","0.0-95.0-0.0","00063711","wem/bandit_party_2","AUGZWSMBBO8U1","either","7","371","","","","","","","1","0","0","0.8759533557","","0.6","0.4","0.8","0.2","","","","","0.5321533453","0.8709862684","0.6178049746","0.8759533557","","","","","","","","","","76","L","3","","","54","main_expt",""
"","bandit","134","683999","0.0-96.0-0.0","00063711","wem/bandit_party_2","AUGZWSMBBO8U1","either","7","343","","","","","","","0","1","0","","0.9307112091","0.6","0.4","0.8","0.2","0.593251847","0.9016108676","0.5501477499","0.9307112091","","","","","","","","","","","","","","76","L","3","","","55","main_expt",""
"","bandit","135","685793","0.0-97.0-0.0","00063711","wem/bandit_party_2","AUGZWSMBBO8U1","either","7","275","","","","","","","1","0","0","0.9486344027","","0.6","0.4","0.8","0.2","","","","","0.602347159","0.9123335035","0.5181914202","0.9486344027","","","","","","","","","","76","L","3","","","56","main_expt",""
"","bandit","136","687650","0.0-98.0-0.0","00063711","wem/bandit_party_2","AUGZWSMBBO8U1","either","7","338","","","","","","","0","0","1","","0.9450559811","0.6","0.4","0.8","0.2","0.736851976","0.9338523698","0.5052283364","0.9450559811","","","","","","","","","","","","","","76","L","3","","","57","main_expt",""
"","bandit","137","689438","0.0-99.0-0.0","00063711","wem/bandit_party_2","AUGZWSMBBO8U1","either","7","271","","","","","","","0","0","1","","0.7112026436","0.6","0.4","0.8","0.2","0.7112026436","0.9023069914","0.4494585665","0.960587128","","","","","","","","","","","","","","72","H","0","img/none_selected.jpg","","58","main_expt",""
"","bandit","138","691277","0.0-100.0-0.0","00063711","wem/bandit_party_2","AUGZWSMBBO8U1","either","7","325","","","","","","","0","0","1","","0.903153386","0.6","0.4","0.8","0.2","0.7605469626","0.903153386","0.4431029696","0.9272570312","","","","","","","","","","","","","","74","J","1","","","59","main_expt",""
"","bandit","139","693134","0.0-101.0-0.0","00063711","wem/bandit_party_2","AUGZWSMBBO8U1","either","7","340","","","","","","","0","1","0","","0.4213069188","0.6","0.4","0.8","0.2","0.6504737249","0.8975643475","0.4213069188","0.9075075979","","","","","","","","","","","","","","75","K","2","","","60","main_expt",""
"","bandit","140","694951","0.0-102.0-0.0","00063711","wem/bandit_party_2","AUGZWSMBBO8U1","either","7","302","","","","","","","0","0","1","0.4735464544","","0.6","0.4","0.8","0.2","","","","","0.7417300409","0.8455107238","0.4735464544","0.9011961695","","","","","","","","","","75","K","2","","","61","main_expt",""
"","bandit","141","697116","0.0-103.0-0.0","00063711","wem/bandit_party_2","AUGZWSMBBO8U1","either","7","649","","","","","","","1","0","0","0.9025442902","","0.6","0.4","0.8","0.2","","","","","0.6889655243","0.8423106617","0.4260239588","0.9025442902","","","","","","","","","","76","L","3","","","62","main_expt",""
"","bandit","142","698928","0.0-104.0-0.0","00063711","wem/bandit_party_2","AUGZWSMBBO8U1","either","7","295","","","","","","","0","1","0","","0.900711875","0.6","0.4","0.8","0.2","0.7532165261","0.6997676278","0.4048641732","0.900711875","","","","","","","","","","","","","","76","L","3","","","63","main_expt",""
"","bandit","143","700819","0.0-105.0-0.0","00063711","wem/bandit_party_2","AUGZWSMBBO8U1","either","7","379","","","","","","","0","1","0","","0.8445511995","0.6","0.4","0.8","0.2","0.7614619666","0.8033841581","0.261135461","0.8445511995","","","","","","","","","","","","","","76","L","3","","","64","main_expt",""
"","bandit","144","702607","0.0-106.0-0.0","00063711","wem/bandit_party_2","AUGZWSMBBO8U1","either","7","271","","","","","","","0","1","0","","0.7838665633","0.6","0.4","0.8","0.2","0.7474824059","0.8458775523","0.4398785507","0.7838665633","","","","","","","","","","","","","","76","L","3","","","65","main_expt",""
"","bandit","145","704638","0.0-107.0-0.0","00063711","wem/bandit_party_2","AUGZWSMBBO8U1","either","7","513","","","","","","","0","0","1","","0.8399866527","0.6","0.4","0.8","0.2","0.7083026918","0.8612648572","0.4549930047","0.8399866527","","","","","","","","","","","","","","76","L","3","","","66","main_expt",""
"","bandit","146","706478","0.0-108.0-0.0","00063711","wem/bandit_party_2","AUGZWSMBBO8U1","either","7","326","","","","","","","0","0","1","","0.6535093674","0.6","0.4","0.8","0.2","0.6535093674","0.8686018104","0.5565794079","0.9109535201","","","","","","","","","","","","","","72","H","0","img/none_selected.jpg","","67","main_expt",""
"","bandit","147","708238","0.0-109.0-0.0","00063711","wem/bandit_party_2","AUGZWSMBBO8U1","either","7","243","","","","","","","1","0","0","0.8693437115","","0.6","0.4","0.8","0.2","","","","","0.4923739087","0.8693437115","0.4211802827","0.9064065477","","","","","","","","","","74","J","1","","","68","main_expt",""
"","bandit","148","710065","0.0-110.0-0.0","00063711","wem/bandit_party_2","AUGZWSMBBO8U1","either","7","305","","","","","","","0","1","0","","0.9168970181","0.6","0.4","0.8","0.2","0.4898097669","0.9168970181","0.3687693293","0.9315833469","","","","","","","","","","","","","","74","J","1","","","69","main_expt",""
"","bandit","149","711876","0.0-111.0-0.0","00063711","wem/bandit_party_2","AUGZWSMBBO8U1","either","7","296","","","","","","","0","1","0","","0.9293527272","0.6","0.4","0.8","0.2","0.4369614599","0.9293527272","0.3460903474","0.9393923483","","","","","","","","","","","","","","74","J","1","","","70","main_expt",""
"","bandit","150","713889","0.0-112.0-0.0","00063711","wem/bandit_party_2","AUGZWSMBBO8U1","either","7","493","","","","","","","1","0","0","0.949087413","","0.6","0.4","0.8","0.2","","","","","0.5031037484","0.949087413","0.3278112836","0.9568343035","","","","","","","","","","74","J","1","","","71","main_expt",""
"","bandit","151","715909","0.0-113.0-0.0","00063711","wem/bandit_party_2","AUGZWSMBBO8U1","either","7","504","","","","","","","1","0","0","0.906373323","","0.6","0.4","0.8","0.2","","","","","0.5397903688","0.906373323","0.2720469766","0.947758434","","","","","","","","","","74","J","1","","","72","main_expt",""
"","bandit","152","717778","0.0-114.0-0.0","00063711","wem/bandit_party_2","AUGZWSMBBO8U1","either","7","350","","","","","","","0","1","0","","0.93965919","0.6","0.4","0.8","0.2","0.5540652028","0.93965919","0.2451019773","0.9052010222","","","","","","","","","","","","","","74","J","1","","","73","main_expt",""
"","bandit","153","719722","0.0-115.0-0.0","00063711","wem/bandit_party_2","AUGZWSMBBO8U1","either","7","423","","","","","","","1","0","0","0.9416319858","","0.6","0.4","0.8","0.2","","","","","0.61733434","0.9416319858","0.2645862521","0.927704936","","","","","","","","","","74","J","1","","","74","main_expt",""
"","bandit","154","721771","0.0-116.0-0.0","00063711","wem/bandit_party_2","AUGZWSMBBO8U1","either","7","536","","","","","","","1","0","0","0.9535384208","","0.6","0.4","0.8","0.2","","","","","0.6341908543","0.9535384208","0.2298582","0.8769567517","","","","","","","","","","74","J","1","","","75","main_expt",""
"","bandit","155","723756","0.0-117.0-0.0","00063711","wem/bandit_party_2","AUGZWSMBBO8U1","either","7","470","","","","","","","1","0","0","0.9585479729","","0.6","0.4","0.8","0.2","","","","","0.6355577018","0.9585479729","0.3460043445","0.8456064169","","","","","","","","","","74","J","1","","","76","main_expt",""
"","bandit","156","725758","0.0-118.0-0.0","00063711","wem/bandit_party_2","AUGZWSMBBO8U1","either","7","486","","","","","","","0","1","0","","0.9610253773","0.6","0.4","0.8","0.2","0.7055426269","0.9610253773","0.2526488818","0.8325595713","","","","","","","","","","","","","","74","J","1","","","77","main_expt",""
"","bandit","157","727801","0.0-119.0-0.0","00063711","wem/bandit_party_2","AUGZWSMBBO8U1","either","7","524","","","","","","","1","0","0","0.9580320452","","0.6","0.4","0.8","0.2","","","","","0.6137882531","0.9580320452","0.2625396382","0.9128982172","","","","","","","","","","74","J","1","","","78","main_expt",""
"","bandit","158","729792","0.0-120.0-0.0","00063711","wem/bandit_party_2","AUGZWSMBBO8U1","either","7","471","","","","","","","0","1","0","","0.9403834825","0.6","0.4","0.8","0.2","0.668392527","0.9403834825","0.2957535945","0.9213349282","","","","","","","","","","","","","","74","J","1","","","79","main_expt",""
"","bandit","159","731852","0.0-121.0-0.0","00063711","wem/bandit_party_2","AUGZWSMBBO8U1","either","7","546","","","","","","","1","0","0","0.946171157","","0.6","0.4","0.8","0.2","","","","","0.7457361895","0.946171157","0.1831261498","0.8935563746","","","","","","","","","","74","J","1","","","80","main_expt",""
"","bandit","160","733798","0.0-122.0-0.0","00063711","wem/bandit_party_2","AUGZWSMBBO8U1","either","7","428","","","","","","","0","1","0","","0.9800092583","0.6","0.4","0.8","0.2","0.8028050151","0.9800092583","0.1450659425","0.932831263","","","","","","","","","","","","","","74","J","1","","","81","main_expt",""
"","bandit","161","735991","0.0-123.0-0.0","00063711","wem/bandit_party_2","AUGZWSMBBO8U1","either","7","674","","","","","","","0","0","1","","0.9666397243","0.6","0.4","0.8","0.2","0.8727424511","0.9666397243","0.1486641529","0.9403650082","","","","","","","","","","","","","","74","J","1","","","82","main_expt",""
"","bandit","162","737790","0.0-124.0-0.0","00063711","wem/bandit_party_2","AUGZWSMBBO8U1","either","7","282","","","","","","","1","0","0","0.1567811066","","0.6","0.4","0.8","0.2","","","","","0.8283068274","0.9637330664","0.1567811066","0.9066396881","","","","","","","","","","75","K","2","","","83","main_expt",""
"","bandit","163","739647","0.0-125.0-0.0","00063711","wem/bandit_party_2","AUGZWSMBBO8U1","either","7","307","","","","","","","1","0","0","0.196091916","","0.6","0.4","0.8","0.2","","","","","0.8030064341","0.9617949183","0.196091916","0.8962006295","","","","","","","","","","75","K","2","","","84","main_expt",""
"","bandit","164","741463","0.0-126.0-0.0","00063711","wem/bandit_party_2","AUGZWSMBBO8U1","either","7","297","","","","","","","0","0","1","0.1512390112","","0.6","0.4","0.8","0.2","","","","","0.8622567251","0.9561985801","0.1512390112","0.9093999993","","","","","","","","","","75","K","2","","","85","main_expt",""
"","bandit","165","743303","0.0-127.0-0.0","00063711","wem/bandit_party_2","AUGZWSMBBO8U1","either","7","321","","","","","","","1","0","0","0.9326862648","","0.6","0.4","0.8","0.2","","","","","0.896584634","0.9422505668","0.1486491559","0.9326862648","","","","","","","","","","76","L","3","","","86","main_expt",""
"","bandit","166","745103","0.0-128.0-0.0","00063711","wem/bandit_party_2","AUGZWSMBBO8U1","either","7","281","","","","","","","1","0","0","0.9039434857","","0.6","0.4","0.8","0.2","","","","","0.9208758521","0.926711091","0.1047878604","0.9039434857","","","","","","","","","","76","L","3","","","87","main_expt",""
"","bandit","167","746931","0.0-129.0-0.0","00063711","wem/bandit_party_2","AUGZWSMBBO8U1","either","7","312","","","","","","","0","1","0","","0.9195127861","0.6","0.4","0.8","0.2","0.9266301883","0.9092576496","0.07038149384","0.9195127861","","","","","","","","","","","","","","76","L","3","","","88","main_expt",""
"","bandit","168","749237","0.0-130.0-0.0","00063711","wem/bandit_party_2","AUGZWSMBBO8U1","either","7","789","","","","","","","0","1","0","","0.9225053559","0.6","0.4","0.8","0.2","0.9259215542","0.8948591238","0.1311535074","0.9225053559","","","","","","","","","","","","","","76","L","3","","","89","main_expt",""
"","bandit","169","751191","0.0-131.0-0.0","00063711","wem/bandit_party_2","AUGZWSMBBO8U1","either","7","437","","","","","","","0","1","0","","0.9014563988","0.6","0.4","0.8","0.2","0.9400480964","0.8716727139","0.1241310956","0.9014563988","","","","","","","","","","","","","","76","L","3","","","90","main_expt",""
"","bandit","170","753292","0.0-132.0-0.0","00063711","wem/bandit_party_2","AUGZWSMBBO8U1","either","7","553","","","","","","","0","1","0","","0.9162570652","0.6","0.4","0.8","0.2","0.8961855863","0.8969144331","0.09664170694","0.9162570652","","","","","","","","","","","","","","76","L","3","","","91","main_expt",""
"","bandit","171","755294","0.0-133.0-0.0","00063711","wem/bandit_party_2","AUGZWSMBBO8U1","either","7","483","","","","","","","0","1","0","","0.9171553871","0.6","0.4","0.8","0.2","0.9211437923","0.9171199264","0.09586364307","0.9171553871","","","","","","","","","","","","","","76","L","3","","","92","main_expt",""
"","bandit","172","757181","0.0-134.0-0.0","00063711","wem/bandit_party_2","AUGZWSMBBO8U1","either","7","370","","","","","","","0","1","0","","0.9463284029","0.6","0.4","0.8","0.2","0.8947860396","0.9593171332","0.08304118766","0.9463284029","","","","","","","","","","","","","","76","L","3","","","93","main_expt",""
"","bandit","173","759137","0.0-135.0-0.0","00063711","wem/bandit_party_2","AUGZWSMBBO8U1","either","7","433","","","","","","","0","1","0","","0.9477079066","0.6","0.4","0.8","0.2","0.822540961","0.959226596","0.1222865453","0.9477079066","","","","","","","","","","","","","","76","L","3","","","94","main_expt",""
"","bandit","174","761029","0.0-136.0-0.0","00063711","wem/bandit_party_2","AUGZWSMBBO8U1","either","7","374","","","","","","","1","0","0","0.9474919074","","0.6","0.4","0.8","0.2","","","","","0.8288041746","0.947105423","0.211460517","0.9474919074","","","","","","","","","","76","L","3","","","95","main_expt",""
"","bandit","175","762865","0.0-137.0-0.0","00063711","wem/bandit_party_2","AUGZWSMBBO8U1","either","7","315","","","","","","","0","1","0","","0.9722490369","0.6","0.4","0.8","0.2","0.8217366877","0.937205139","0.2757920232","0.9722490369","","","","","","","","","","","","","","76","L","3","","","96","main_expt",""
"","bandit","176","764795","0.0-138.0-0.0","00063711","wem/bandit_party_2","AUGZWSMBBO8U1","either","7","415","","","","","","","0","1","0","","0.980822097","0.6","0.4","0.8","0.2","0.725285089","0.9472767204","0.2646876298","0.980822097","","","","","","","","","","","","","","76","L","3","","","97","main_expt",""
"","bandit","177","766635","0.0-139.0-0.0","00063711","wem/bandit_party_2","AUGZWSMBBO8U1","either","7","324","","","","","","","1","0","0","0.9761591307","","0.6","0.4","0.8","0.2","","","","","0.7958966199","0.962959595","0.3278454636","0.9761591307","","","","","","","","","","76","L","3","","","98","main_expt",""
"","bandit","178","768510","0.0-140.0-0.0","00063711","wem/bandit_party_2","AUGZWSMBBO8U1","either","7","355","","","","","","","0","1","0","","0.9597391097","0.6","0.4","0.8","0.2","0.7741840332","0.9720903607","0.4641870332","0.9597391097","","","","","","","","","","","","","","76","L","3","","","99","main_expt",""
"","bandit","179","770651","0.0-141.0-0.0","00063711","wem/bandit_party_2","AUGZWSMBBO8U1","either","7","626","","","","","","","1","0","0","0.9557148533","","0.6","0.4","0.8","0.2","","","","","0.7934767162","0.9737169538","0.3972344865","0.9557148533","","","","","","","","","","76","L","3","","","100","main_expt",""
"","bandit","180","772567","0.0-142.0-0.0","00063711","wem/bandit_party_2","AUGZWSMBBO8U1","either","7","395","","","","","","","0","0","1","","0.9687934467","0.6","0.4","0.8","0.2","0.8307638242","0.986468331","0.4395304924","0.9687934467","","","","","","","","","","","","","","76","L","3","","","101","main_expt",""
"","bandit","181","774411","0.0-143.0-0.0","00063711","wem/bandit_party_2","AUGZWSMBBO8U1","either","7","331","","","","","","","1","0","0","0.7737236933","","0.6","0.4","0.8","0.2","","","","","0.7737236933","0.9859557102","0.5248298482","0.9713318577","","","","","","","","","","72","H","0","img/none_selected.jpg","","102","main_expt",""
"","bandit","182","776264","0.0-144.0-0.0","00063711","wem/bandit_party_2","AUGZWSMBBO8U1","either","7","334","","","","","","","1","0","0","0.8168427084","","0.6","0.4","0.8","0.2","","","","","0.8168427084","0.9828698412","0.6218364577","0.9768128314","","","","","","","","","","72","H","0","img/none_selected.jpg","","103","main_expt",""
"","bandit","183","778150","0.0-145.0-0.0","00063711","wem/bandit_party_2","AUGZWSMBBO8U1","either","7","368","","","","","","","1","0","0","0.7020104164","","0.6","0.4","0.8","0.2","","","","","0.7020104164","0.9655029871","0.5528563194","0.9566706727","","","","","","","","","","72","H","0","img/none_selected.jpg","","104","main_expt",""
"","bandit","184","780054","0.0-146.0-0.0","00063711","wem/bandit_party_2","AUGZWSMBBO8U1","either","7","383","","","","","","","0","0","1","0.6750414237","","0.6","0.4","0.8","0.2","","","","","0.6750414237","0.9587067199","0.515821512","0.9352711559","","","","","","","","","","72","H","0","img/none_selected.jpg","","105","main_expt",""
"","bandit","185","782045","0.0-147.0-0.0","00063711","wem/bandit_party_2","AUGZWSMBBO8U1","either","7","473","","","","","","","1","0","0","0.5886413089","","0.6","0.4","0.8","0.2","","","","","0.5886413089","0.9358961366","0.5380341879","0.8980036198","","","","","","","","","","72","H","0","img/none_selected.jpg","","106","main_expt",""
"","bandit","186","783931","0.0-148.0-0.0","00063711","wem/bandit_party_2","AUGZWSMBBO8U1","either","7","370","","","","","","","0","0","1","0.5507707533","","0.6","0.4","0.8","0.2","","","","","0.5507707533","0.8829949032","0.3291998873","0.9175797088","","","","","","","","","","72","H","0","img/none_selected.jpg","","107","main_expt",""
"","bandit","187","785741","0.0-149.0-0.0","00063711","wem/bandit_party_2","AUGZWSMBBO8U1","either","7","294","","","","","","","0","1","0","","0.7668100276","0.6","0.4","0.8","0.2","0.4325904974","0.7668100276","0.3608627265","0.8966825343","","","","","","","","","","","","","","74","J","1","","","108","main_expt",""
"","bandit","188","787517","0.0-150.0-0.0","00063711","wem/bandit_party_2","AUGZWSMBBO8U1","either","7","258","","","","","","","0","1","0","","0.7652463225","0.6","0.4","0.8","0.2","0.3735159861","0.7652463225","0.3837942066","0.8883819791","","","","","","","","","","","","","","74","J","1","","","109","main_expt",""
"","bandit","189","789317","0.0-151.0-0.0","00063711","wem/bandit_party_2","AUGZWSMBBO8U1","either","7","281","","","","","","","1","0","0","0.7974745759","","0.6","0.4","0.8","0.2","","","","","0.3704440872","0.7974745759","0.3019365294","0.9087011364","","","","","","","","","","74","J","1","","","110","main_expt",""
"","bandit","190","791174","0.0-152.0-0.0","00063711","wem/bandit_party_2","AUGZWSMBBO8U1","either","7","338","","","","","","","0","1","0","","0.812352323","0.6","0.4","0.8","0.2","0.2749067499","0.812352323","0.3483008865","0.9337026812","","","","","","","","","","","","","","74","J","1","","","111","main_expt",""
"","bandit","191","793182","0.0-153.0-0.0","00063711","wem/bandit_party_2","AUGZWSMBBO8U1","either","7","490","","","","","","","1","0","0","0.7428975936","","0.6","0.4","0.8","0.2","","","","","0.2734667401","0.7428975936","0.4342302697","0.9113388615","","","","","","","","","","74","J","1","","","112","main_expt",""
"","bandit","192","795202","0.0-154.0-0.0","00063711","wem/bandit_party_2","AUGZWSMBBO8U1","either","7","505","","","","","","","0","0","1","0.7139653514","","0.6","0.4","0.8","0.2","","","","","0.2291946885","0.7139653514","0.5187246657","0.8980528729","","","","","","","","","","74","J","1","","","113","main_expt",""
"","bandit","193","797094","0.0-155.0-0.0","00063711","wem/bandit_party_2","AUGZWSMBBO8U1","either","7","376","","","","","","","0","0","1","0.5381742134","","0.6","0.4","0.8","0.2","","","","","0.2413339081","0.7945657698","0.5381742134","0.8036326458","","","","","","","","","","75","K","2","","","114","main_expt",""
"","bandit","194","798910","0.0-156.0-0.0","00063711","wem/bandit_party_2","AUGZWSMBBO8U1","either","7","298","","","","","","","0","1","0","","0.8700945717","0.6","0.4","0.8","0.2","0.3092826039","0.8405588069","0.4785029821","0.8700945717","","","","","","","","","","","","","","76","L","3","","","115","main_expt",""
"","bandit","195","800646","0.0-157.0-0.0","00063711","wem/bandit_party_2","AUGZWSMBBO8U1","either","7","217","","","","","","","0","1","0","","0.8895114993","0.6","0.4","0.8","0.2","0.2361366225","0.8641798474","0.4654757386","0.8895114993","","","","","","","","","","","","","","76","L","3","","","116","main_expt",""
"","bandit","196","802468","0.0-158.0-0.0","00063711","wem/bandit_party_2","AUGZWSMBBO8U1","either","7","304","","","","","","","0","1","0","","0.8936856952","0.6","0.4","0.8","0.2","0.218402711","0.8756768431","0.4578633225","0.8936856952","","","","","","","","","","","","","","76","L","3","","","117","main_expt",""
"","bandit","197","804244","0.0-159.0-0.0","00063711","wem/bandit_party_2","AUGZWSMBBO8U1","either","7","257","","","","","","","1","0","0","0.8077127093","","0.6","0.4","0.8","0.2","","","","","0.2003641109","0.9015269718","0.4773941538","0.8077127093","","","","","","","","","","76","L","3","","","118","main_expt",""
"","bandit","198","806101","0.0-160.0-0.0","00063711","wem/bandit_party_2","AUGZWSMBBO8U1","either","7","338","","","","","","","0","1","0","","0.8901108642","0.6","0.4","0.8","0.2","0.1375137305","0.8709738884","0.508374463","0.8901108642","","","","","","","","","","","","","","76","L","3","","","119","main_expt",""
"","bandit","199","807993","0.0-161.0-0.0","00063711","wem/bandit_party_2","AUGZWSMBBO8U1","either","7","372","","","","","","","1","0","0","0.8731124259","","0.6","0.4","0.8","0.2","","","","","0.08656631556","0.8268338002","0.4294310012","0.8731124259","","","","","","","","","","76","L","3","","","120","main_expt",""
"","bandit","200","809828","0.0-162.0-0.0","00063711","wem/bandit_party_2","AUGZWSMBBO8U1","either","7","318","","","","","","","0","1","0","","0.8509174952","0.6","0.4","0.8","0.2","0.07812634859","0.8432616236","0.3933985885","0.8509174952","","","","","","","","","","","","","","76","L","3","","","121","main_expt",""
"","bandit","201","811592","0.0-163.0-0.0","00063711","wem/bandit_party_2","AUGZWSMBBO8U1","either","7","241","","","","","","","0","0","1","0.8707856005","","0.6","0.4","0.8","0.2","","","","","0.09046411854","0.8128728295","0.2641409089","0.8707856005","","","","","","","","","","76","L","3","","","122","main_expt",""
"","bandit","202","813484","0.0-164.0-0.0","00063711","wem/bandit_party_2","AUGZWSMBBO8U1","either","7","374","","","","","","","0","0","1","0.1132512529","","0.6","0.4","0.8","0.2","","","","","0.1132512529","0.752198112","0.2491349268","0.7592524618","","","","","","","","","","72","H","0","img/none_selected.jpg","","123","main_expt",""
"","bandit","203","815225","0.0-165.0-0.0","00063711","wem/bandit_party_2","AUGZWSMBBO8U1","either","7","226","","","","","","","0","1","0","","0.7117781612","0.6","0.4","0.8","0.2","0.09419269712","0.7117781612","0.2587226179","0.7330206325","","","","","","","","","","","","","","74","J","1","","","124","main_expt",""
"","bandit","204","816847","0.0-166.0-0.0","00063711","wem/bandit_party_2","AUGZWSMBBO8U1","either","7","100","","","","","","","0","1","0","","0.7177409252","0.6","0.4","0.8","0.2","0.110513045","0.7177409252","0.2925679814","0.6903693331","","","","","","","","","","","","","","74","J","1","","","125","main_expt",""
"","bandit","205","818644","0.0-167.0-0.0","00063711","wem/bandit_party_2","AUGZWSMBBO8U1","either","7","281","","","","","","","0","1","0","","0.7240917845","0.6","0.4","0.8","0.2","0.07088043536","0.7240917845","0.3997536411","0.6370641568","","","","","","","","","","","","","","74","J","1","","","126","main_expt",""
"","bandit","206","820402","0.0-168.0-0.0","00063711","wem/bandit_party_2","AUGZWSMBBO8U1","either","7","242","","","","","","","0","0","1","0.6788578752","","0.6","0.4","0.8","0.2","","","","","0.1041728595","0.6788578752","0.4120812041","0.6192694325","","","","","","","","","","74","J","1","","","127","main_expt",""
"","bandit","207","822149","0.0-169.0-0.0","00063711","wem/bandit_party_2","AUGZWSMBBO8U1","either","7","227","","","","","","","0","0","1","0.3731276689","","0.6","0.4","0.8","0.2","","","","","0.1006708935","0.6257789885","0.3731276689","0.559348281","","","","","","","","","","75","K","2","","","128","main_expt",""
"","bandit","208","823873","0.0-170.0-0.0","00063711","wem/bandit_party_2","AUGZWSMBBO8U1","either","7","209","","","","","","","0","1","0","","0.610360397","0.6","0.4","0.8","0.2","0.1336488566","0.4761868647","0.3263017501","0.610360397","","","","","","","","","","","","","","76","L","3","","","129","main_expt",""
"","bandit","209","825480","0.0-171.0-0.0","00063711","wem/bandit_party_2","AUGZWSMBBO8U1","either","7","88","","","","","","","0","1","0","","0.5737783772","0.6","0.4","0.8","0.2","0.1271550391","0.4745188583","0.3226142564","0.5737783772","","","","","","","","","","","","","","76","L","3","","","130","main_expt",""
"","bandit","210","827268","0.0-172.0-0.0","00063711","wem/bandit_party_2","AUGZWSMBBO8U1","either","7","269","","","","","","","0","0","1","","0.6252154127","0.6","0.4","0.8","0.2","0.1594360192","0.4674409752","0.3907136596","0.6252154127","","","","","","","","","","","","","","76","L","3","","","131","main_expt",""
"","bandit","211","829027","0.0-173.0-0.0","00063711","wem/bandit_party_2","AUGZWSMBBO8U1","either","7","243","","","","","","","0","0","1","0.1027658661","","0.6","0.4","0.8","0.2","","","","","0.1027658661","0.368649462","0.4983036492","0.6473056352","","","","","","","","","","72","H","0","img/none_selected.jpg","","132","main_expt",""
"","bandit","212","830698","0.0-174.0-0.0","00063711","wem/bandit_party_2","AUGZWSMBBO8U1","either","7","154","","","","","","","0","0","1","","0.4313577514","0.6","0.4","0.8","0.2","0.1223548883","0.4313577514","0.6347393695","0.4595123468","","","","","","","","","","","","","","74","J","1","","","133","main_expt",""
"","bandit","213","832486","0.0-175.0-0.0","00063711","wem/bandit_party_2","AUGZWSMBBO8U1","either","7","268","","","","","","","1","0","0","0.6037412299","","0.6","0.4","0.8","0.2","","","","","0.1063029331","0.3692150919","0.6037412299","0.3043385566","","","","","","","","","","75","K","2","","","134","main_expt",""
"","bandit","214","834140","0.0-176.0-0.0","00063711","wem/bandit_party_2","AUGZWSMBBO8U1","either","7","133","","","","","","","1","0","0","0.5511090861","","0.6","0.4","0.8","0.2","","","","","0.080644856","0.3077662431","0.5511090861","0.340857567","","","","","","","","","","75","K","2","","","135","main_expt",""
"","bandit","215","835899","0.0-177.0-0.0","00063711","wem/bandit_party_2","AUGZWSMBBO8U1","either","7","241","","","","","","","0","0","1","0.585911414","","0.6","0.4","0.8","0.2","","","","","0.1359867045","0.314969588","0.585911414","0.2655810755","","","","","","","","","","75","K","2","","","136","main_expt",""
"","bandit","216","837611","0.0-178.0-0.0","00063711","wem/bandit_party_2","AUGZWSMBBO8U1","either","7","194","","","","","","","0","1","0","","0.3025530854","0.6","0.4","0.8","0.2","0.168344283","0.3590847215","0.5805905743","0.3025530854","","","","","","","","","","","","","","76","L","3","","","137","main_expt",""
"","bandit","217","839311","0.0-179.0-0.0","00063711","wem/bandit_party_2","AUGZWSMBBO8U1","either","7","181","","","","","","","0","0","1","","0.2888348812","0.6","0.4","0.8","0.2","0.1867455324","0.3588584756","0.6357737786","0.2888348812","","","","","","","","","","","","","","76","L","3","","","138","main_expt",""
"","bandit","218","841058","0.0-180.0-0.0","00063711","wem/bandit_party_2","AUGZWSMBBO8U1","either","7","230","","","","","","","0","1","0","","0.2277874407","0.6","0.4","0.8","0.2","0.2277874407","0.4289761638","0.66639317","0.2463208975","","","","","","","","","","","","","","72","H","0","img/none_selected.jpg","","139","main_expt",""
"","bandit","219","842666","0.0-181.0-0.0","00063711","wem/bandit_party_2","AUGZWSMBBO8U1","either","7","91","","","","","","","0","0","1","","0.2577820179","0.6","0.4","0.8","0.2","0.2577820179","0.3801639999","0.6365789307","0.273109751","","","","","","","","","","","","","","72","H","0","img/none_selected.jpg","","140","main_expt",""
"","bandit","220","844349","0.0-182.0-0.0","00063711","wem/bandit_party_2","AUGZWSMBBO8U1","either","7","164","","","","","","","0","0","1","","0.2445936549","0.6","0.4","0.8","0.2","0.3674069736","0.2445936549","0.6045632144","0.3355442787","","","","","","","","","","","","","","74","J","1","","","141","main_expt",""
"","bandit","221","846108","0.0-183.0-0.0","00063711","wem/bandit_party_2","AUGZWSMBBO8U1","either","7","239","","","","","","","1","0","0","0.5148607161","","0.6","0.4","0.8","0.2","","","","","0.4345417514","0.3394066497","0.5148607161","0.2781999234","","","","","","","","","","75","K","2","","","142","main_expt",""
"","bandit","222","847913","0.0-184.0-0.0","00063711","wem/bandit_party_2","AUGZWSMBBO8U1","either","7","289","","","","","","","0","0","1","0.4754154836","","0.6","0.4","0.8","0.2","","","","","0.3811672827","0.2899754881","0.4754154836","0.2599467226","","","","","","","","","","75","K","2","","","143","main_expt",""
"","bandit","223","849580","0.0-185.0-0.0","00063711","wem/bandit_party_2","AUGZWSMBBO8U1","either","7","151","","","","","","","0","0","1","","0.2353144144","0.6","0.4","0.8","0.2","0.2754059391","0.3701332444","0.516029258","0.2353144144","","","","","","","","","","","","","","76","L","3","","","144","main_expt",""
"","bandit","224","851203","0.0-186.0-0.0","00063711","wem/bandit_party_2","AUGZWSMBBO8U1","either","7","105","","","","","","","0","0","1","","0.2773400324","0.6","0.4","0.8","0.2","0.2773400324","0.3322753171","0.6646605279","0.2120114759","","","","","","","","","","","","","","72","H","0","img/none_selected.jpg","","145","main_expt",""
"","bandit","225","852770","0.0-187.0-0.0","00063711","wem/bandit_party_2","AUGZWSMBBO8U1","either","7","48","","","","","","","0","0","1","","0.3203507811","0.6","0.4","0.8","0.2","0.2780426824","0.3203507811","0.6331546467","0.176067728","","","","","","","","","","","","","","74","J","1","","","146","main_expt",""
"","bandit","226","854413","0.0-188.0-0.0","00063711","wem/bandit_party_2","AUGZWSMBBO8U1","either","7","123","","","","","","","0","0","1","","0.6356747602","0.6","0.4","0.8","0.2","0.3373608721","0.304761248","0.6356747602","0.1329453439","","","","","","","","","","","","","","75","K","2","","","147","main_expt",""
"","bandit","227","856044","0.0-189.0-0.0","00063711","wem/bandit_party_2","AUGZWSMBBO8U1","either","7","111","","","","","","","0","0","1","0.1465103875","","0.6","0.4","0.8","0.2","","","","","0.3529594122","0.3809280674","0.6301772709","0.1465103875","","","","","","","","","","76","L","3","","","148","main_expt",""
"","bandit","228","857692","0.0-190.0-0.0","00063711","wem/bandit_party_2","AUGZWSMBBO8U1","either","7","129","","","","","","","0","1","0","","0.3878328211","0.6","0.4","0.8","0.2","0.3878328211","0.3997986218","0.6640591829","0.1190451538","","","","","","","","","","","","","","72","H","0","img/none_selected.jpg","","149","main_expt",""
"","bandit","229","859213","0.0-191.0-0.0","00063711","wem/bandit_party_2","AUGZWSMBBO8U1","either","7","0","","","","","","","0","0","1","0.42943501","","0.6","0.4","0.8","0.2","","","","","0.42943501","0.3159341416","0.6592717552","0.1195570164","","","","","","","","","","72","H","0","img/none_selected.jpg","","150","main_expt",""
"","bandit","230","861040","0.0-192.0-0.0","00063711","wem/bandit_party_2","AUGZWSMBBO8U1","either","7","311","","","","","","","0","0","1","0.3052853957","","0.6","0.4","0.8","0.2","","","","","0.5142681232","0.3052853957","0.5928743102","0.100492686","","","","","","","","","","74","J","1","","","151","main_expt",""
"","bandit","231","862858","0.0-193.0-0.0","00063711","wem/bandit_party_2","AUGZWSMBBO8U1","either","7","303","","","","","","","1","0","0","0.6822187145","","0.6","0.4","0.8","0.2","","","","","0.6321073962","0.1896018403","0.6822187145","0.1030367897","","","","","","","","","","75","K","2","","","152","main_expt",""
"","bandit","232","864629","0.0-194.0-0.0","00063711","wem/bandit_party_2","AUGZWSMBBO8U1","either","7","250","","","","","","","0","0","1","0.6832005509","","0.6","0.4","0.8","0.2","","","","","0.6965670792","0.2439656658","0.6832005509","0.2059045691","","","","","","","","","","75","K","2","","","153","main_expt",""
"","bandit","233","866195","0.0-195.0-0.0","00063711","wem/bandit_party_2","AUGZWSMBBO8U1","either","7","47","","","","","","","0","1","0","","0.2921647579","0.6","0.4","0.8","0.2","0.6516005735","0.3068434149","0.7109729062","0.2921647579","","","","","","","","","","","","","","76","L","3","","","154","main_expt",""
"","bandit","234","867994","0.0-196.0-0.0","00063711","wem/bandit_party_2","AUGZWSMBBO8U1","either","7","280","","","","","","","0","0","1","","0.1789694193","0.6","0.4","0.8","0.2","0.7291318088","0.2314644909","0.6975465092","0.1789694193","","","","","","","","","","","","","","76","L","3","","","155","main_expt",""
"","bandit","235","869770","0.0-197.0-0.0","00063711","wem/bandit_party_2","AUGZWSMBBO8U1","either","7","257","","","","","","","1","0","0","0.6273572288","","0.6","0.4","0.8","0.2","","","","","0.6273572288","0.2154001061","0.6580608271","0.2187195075","","","","","","","","","","72","H","0","img/none_selected.jpg","","156","main_expt",""
"","bandit","236","871575","0.0-198.0-0.0","00063711","wem/bandit_party_2","AUGZWSMBBO8U1","either","7","285","","","","","","","0","0","1","0.566197257","","0.6","0.4","0.8","0.2","","","","","0.566197257","0.1648135251","0.5695802138","0.2669834713","","","","","","","","","","72","H","0","img/none_selected.jpg","","157","main_expt",""
"","bandit","237","873329","0.0-199.0-0.0","00063711","wem/bandit_party_2","AUGZWSMBBO8U1","either","7","237","","","","","","","0","0","1","0.2215973425","","0.6","0.4","0.8","0.2","","","","","0.4523642269","0.2215973425","0.4733954301","0.4240307821","","","","","","","","","","74","J","1","","","158","main_expt",""
"","bandit","238","875104","0.0-200.0-0.0","00063711","wem/bandit_party_2","AUGZWSMBBO8U1","either","7","258","","","","","","","1","0","0","0.5619817243","","0.6","0.4","0.8","0.2","","","","","0.3991212054","0.2243274726","0.5619817243","0.3840951437","","","","","","","","","","75","K","2","","","159","main_expt",""
"","bandit","239","876891","0.0-201.0-0.0","00063711","wem/bandit_party_2","AUGZWSMBBO8U1","either","7","269","","","","","","","0","0","1","0.4701658979","","0.6","0.4","0.8","0.2","","","","","0.3566558104","0.2061161075","0.4701658979","0.4098147986","","","","","","","","","","75","K","2","","","160","main_expt",""
"","bandit","240","878729","0.0-202.0-0.0","00063711","wem/bandit_party_2","AUGZWSMBBO8U1","either","7","321","","","","","","","0","0","1","0.4027252302","","0.6","0.4","0.8","0.2","","","","","0.4430908041","0.209200141","0.5673671472","0.4027252302","","","","","","","","","","76","L","3","","","161","main_expt",""
"","bandit","241","880554","0.0-203.0-0.0","00063711","wem/bandit_party_2","AUGZWSMBBO8U1","either","7","307","","","","","","","0","0","1","","0.3966098285","0.6","0.4","0.8","0.2","0.3966098285","0.1477343718","0.4921809208","0.3824170733","","","","","","","","","","","","","","72","H","0","img/none_selected.jpg","","162","main_expt",""
"","bandit","242","882341","0.0-204.0-0.0","00063711","wem/bandit_party_2","AUGZWSMBBO8U1","either","7","268","","","","","","","0","0","1","","0.1525050104","0.6","0.4","0.8","0.2","0.3455868331","0.1525050104","0.4204505308","0.3352280924","","","","","","","","","","","","","","74","J","1","","","163","main_expt",""
"","bandit","243","884146","0.0-205.0-0.0","00063711","wem/bandit_party_2","AUGZWSMBBO8U1","either","7","287","","","","","","","1","0","0","0.534748173","","0.6","0.4","0.8","0.2","","","","","0.3368969945","0.08831047354","0.534748173","0.3379187571","","","","","","","","","","75","K","2","","","164","main_expt",""
"","bandit","244","885939","0.0-206.0-0.0","00063711","wem/bandit_party_2","AUGZWSMBBO8U1","either","7","274","","","","","","","0","1","0","","0.4724966102","0.6","0.4","0.8","0.2","0.3767562303","0.1035482763","0.4724966102","0.3160546663","","","","","","","","","","","","","","75","K","2","","","165","main_expt",""
"","bandit","245","887721","0.0-207.0-0.0","00063711","wem/bandit_party_2","AUGZWSMBBO8U1","either","7","264","","","","","","","0","0","1","0.5280505203","","0.6","0.4","0.8","0.2","","","","","0.4727650462","0.06888190676","0.5280505203","0.3058359067","","","","","","","","","","75","K","2","","","166","main_expt",""
"","bandit","246","889567","0.0-208.0-0.0","00063711","wem/bandit_party_2","AUGZWSMBBO8U1","either","7","330","","","","","","","0","0","1","","0.2561334246","0.6","0.4","0.8","0.2","0.6140635231","0.06051452263","0.589670135","0.2561334246","","","","","","","","","","","","","","76","L","3","","","167","main_expt",""
"","bandit","247","891163","0.0-209.0-0.0","00063711","wem/bandit_party_2","AUGZWSMBBO8U1","either","7","78","","","","","","","1","0","0","0.5629225295","","0.6","0.4","0.8","0.2","","","","","0.5629225295","0.07905307949","0.5058201204","0.2459084815","","","","","","","","","","72","H","0","img/none_selected.jpg","","168","main_expt",""
"","bandit","248","892951","0.0-210.0-0.0","00063711","wem/bandit_party_2","AUGZWSMBBO8U1","either","7","265","","","","","","","1","0","0","0.6456076899","","0.6","0.4","0.8","0.2","","","","","0.6456076899","0.07051596905","0.4102709571","0.2138460752","","","","","","","","","","72","H","0","img/none_selected.jpg","","169","main_expt",""
"","bandit","249","894744","0.0-211.0-0.0","00063711","wem/bandit_party_2","AUGZWSMBBO8U1","either","7","273","","","","","","","1","0","0","0.719827795","","0.6","0.4","0.8","0.2","","","","","0.719827795","0.1056762318","0.5061826445","0.1642406351","","","","","","","","","","72","H","0","img/none_selected.jpg","","170","main_expt",""
"","bandit","250","896648","0.0-212.0-0.0","00063711","wem/bandit_party_2","AUGZWSMBBO8U1","either","7","385","","","","","","","0","0","1","0.6716280274","","0.6","0.4","0.8","0.2","","","","","0.6716280274","0.1513980822","0.6092158501","0.2337150112","","","","","","","","","","72","H","0","img/none_selected.jpg","","171","main_expt",""
"","bandit","251","898473","0.0-213.0-0.0","00063711","wem/bandit_party_2","AUGZWSMBBO8U1","either","7","306","","","","","","","0","0","1","","0.1552293495","0.6","0.4","0.8","0.2","0.5683226388","0.1552293495","0.691496366","0.3128682212","","","","","","","","","","","","","","74","J","1","","","172","main_expt",""
"","bandit","252","900280","0.0-214.0-0.0","00063711","wem/bandit_party_2","AUGZWSMBBO8U1","either","7","290","","","","","","","0","0","1","0.7402253768","","0.6","0.4","0.8","0.2","","","","","0.4581357746","0.1325975083","0.7402253768","0.2775517843","","","","","","","","","","75","K","2","","","173","main_expt",""
"","bandit","253","902092","0.0-215.0-0.0","00063711","wem/bandit_party_2","AUGZWSMBBO8U1","either","7","293","","","","","","","0","0","1","0.4159305855","","0.6","0.4","0.8","0.2","","","","","0.5903479164","0.09024892351","0.6601004511","0.4159305855","","","","","","","","","","76","L","3","","","174","main_expt",""
"","bandit","254","904002","0.0-216.0-0.0","00063711","wem/bandit_party_2","AUGZWSMBBO8U1","either","7","392","","","","","","","1","0","0","0.5658285383","","0.6","0.4","0.8","0.2","","","","","0.5658285383","0.06963745108","0.6781732273","0.4471770837","","","","","","","","","","72","H","0","img/none_selected.jpg","","175","main_expt",""
"","bandit","255","906009","0.0-217.0-0.0","00063711","wem/bandit_party_2","AUGZWSMBBO8U1","either","7","488","","","","","","","0","0","1","","0.5313506173","0.6","0.4","0.8","0.2","0.5313506173","0.07897043431","0.6932650799","0.5162211083","","","","","","","","","","","","","","72","H","0","img/none_selected.jpg","","176","main_expt",""
"","bandit","256","907856","0.0-218.0-0.0","00063711","wem/bandit_party_2","AUGZWSMBBO8U1","either","7","329","","","","","","","0","0","1","0.09469685393","","0.6","0.4","0.8","0.2","","","","","0.4231289234","0.09469685393","0.6803850572","0.6372676231","","","","","","","","","","74","J","1","","","177","main_expt",""
"","bandit","257","909672","0.0-219.0-0.0","00063711","wem/bandit_party_2","AUGZWSMBBO8U1","either","7","296","","","","","","","1","0","0","0.5407017663","","0.6","0.4","0.8","0.2","","","","","0.580807006","0.1486386852","0.5407017663","0.6295749113","","","","","","","","","","75","K","2","","","178","main_expt",""
"","bandit","258","911598","0.0-220.0-0.0","00063711","wem/bandit_party_2","AUGZWSMBBO8U1","either","7","410","","","","","","","1","0","0","0.5931576708","","0.6","0.4","0.8","0.2","","","","","0.5499948007","0.1965095934","0.5931576708","0.4126066341","","","","","","","","","","75","K","2","","","179","main_expt",""
"","bandit","259","913433","0.0-221.0-0.0","00063711","wem/bandit_party_2","AUGZWSMBBO8U1","either","7","316","","","","","","","1","0","0","0.5390819372","","0.6","0.4","0.8","0.2","","","","","0.4918200669","0.1749048096","0.5390819372","0.516991344","","","","","","","","","","75","K","2","","","180","main_expt",""
"","bandit","260","915249","0.0-222.0-0.0","00063711","wem/bandit_party_2","AUGZWSMBBO8U1","either","7","300","","","","","","","1","0","0","0.4929910299","","0.6","0.4","0.8","0.2","","","","","0.5428702931","0.232896561","0.4929910299","0.4239603033","","","","","","","","","","75","K","2","","","181","main_expt",""
"","bandit","261","917217","0.0-223.0-0.0","00063711","wem/bandit_party_2","AUGZWSMBBO8U1","either","7","448","","","","","","","0","0","1","0.458433212","","0.6","0.4","0.8","0.2","","","","","0.5870547156","0.2561822725","0.458433212","0.3961891141","","","","","","","","","","75","K","2","","","182","main_expt",""
"","bandit","262","919085","0.0-224.0-0.0","00063711","wem/bandit_party_2","AUGZWSMBBO8U1","either","7","344","","","","","","","0","0","1","0.4364601233","","0.6","0.4","0.8","0.2","","","","","0.5031908535","0.2713883962","0.5725449786","0.4364601233","","","","","","","","","","76","L","3","","","183","main_expt",""
"","bandit","263","920920","0.0-225.0-0.0","00063711","wem/bandit_party_2","AUGZWSMBBO8U1","either","7","315","","","","","","","1","0","0","0.4239978994","","0.6","0.4","0.8","0.2","","","","","0.4239978994","0.3543557679","0.4878383732","0.4826964198","","","","","","","","","","72","H","0","img/none_selected.jpg","","184","main_expt",""
"","bandit","264","922754","0.0-226.0-0.0","00063711","wem/bandit_party_2","AUGZWSMBBO8U1","either","7","314","","","","","","","0","0","1","0.3425545299","","0.6","0.4","0.8","0.2","","","","","0.3425545299","0.2974533566","0.5189350158","0.4448789548","","","","","","","","","","72","H","0","img/none_selected.jpg","","185","main_expt",""
"","bandit","265","924965","0.0-227.0-0.0","00063711","wem/bandit_party_2","AUGZWSMBBO8U1","either","7","696","","","","","","","0","1","0","","0.3295130888","0.6","0.4","0.8","0.2","0.2594221554","0.3295130888","0.4310300585","0.4585835861","","","","","","","","","","","","","","74","J","1","","","186","main_expt",""
"","bandit","266","926718","0.0-228.0-0.0","00063711","wem/bandit_party_2","AUGZWSMBBO8U1","either","7","231","","","","","","","0","0","1","","0.3440574025","0.6","0.4","0.8","0.2","0.350747246","0.3440574025","0.4005994516","0.5470412386","","","","","","","","","","","","","","74","J","1","","","187","main_expt",""
"","bandit","267","928552","0.0-229.0-0.0","00063711","wem/bandit_party_2","AUGZWSMBBO8U1","either","7","316","","","","","","","1","0","0","0.5684333967","","0.6","0.4","0.8","0.2","","","","","0.3667816541","0.3176863717","0.5684333967","0.5485419855","","","","","","","","","","75","K","2","","","188","main_expt",""
"","bandit","268","930537","0.0-230.0-0.0","00063711","wem/bandit_party_2","AUGZWSMBBO8U1","either","7","466","","","","","","","0","0","1","","0.3194332301","0.6","0.4","0.8","0.2","0.3129240978","0.3194332301","0.5768443477","0.6161015427","","","","","","","","","","","","","","74","J","1","","","189","main_expt",""
"","bandit","269","932353","0.0-231.0-0.0","00063711","wem/bandit_party_2","AUGZWSMBBO8U1","either","7","297","","","","","","","0","0","1","","0.6091254975","0.6","0.4","0.8","0.2","0.3681084497","0.3585260795","0.6091254975","0.5145576236","","","","","","","","","","","","","","75","K","2","","","190","main_expt",""
"","bandit","270","934123","0.0-232.0-0.0","00063711","wem/bandit_party_2","AUGZWSMBBO8U1","either","7","246","","","","","","","0","1","0","","0.4447609651","0.6","0.4","0.8","0.2","0.3284994938","0.4438822556","0.6355225437","0.4447609651","","","","","","","","","","","","","","76","L","3","","","191","main_expt",""
"","bandit","271","935952","0.0-233.0-0.0","00063711","wem/bandit_party_2","AUGZWSMBBO8U1","either","7","311","","","","","","","0","0","1","","0.4273979598","0.6","0.4","0.8","0.2","0.2913335268","0.6336907385","0.7449996868","0.4273979598","","","","","","","","","","","","","","76","L","3","","","192","main_expt",""
"","bandit","272","937937","0.0-234.0-0.0","00063711","wem/bandit_party_2","AUGZWSMBBO8U1","either","7","468","","","","","","","1","0","0","0.3614904019","","0.6","0.4","0.8","0.2","","","","","0.3614904019","0.5871300795","0.7645281636","0.4382354048","","","","","","","","","","72","H","0","img/none_selected.jpg","","193","main_expt",""
"","bandit","273","939713","0.0-235.0-0.0","00063711","wem/bandit_party_2","AUGZWSMBBO8U1","either","7","255","","","","","","","0","0","1","","0.4180963095","0.6","0.4","0.8","0.2","0.4180963095","0.5919999684","0.7417458559","0.4367950698","","","","","","","","","","","","","","72","H","0","img/none_selected.jpg","","194","main_expt",""
"","bandit","274","941500","0.0-236.0-0.0","00063711","wem/bandit_party_2","AUGZWSMBBO8U1","either","7","265","","","","","","","0","1","0","","0.5599221581","0.6","0.4","0.8","0.2","0.4129416526","0.5599221581","0.7102393491","0.4306922929","","","","","","","","","","","","","","74","J","1","","","195","main_expt",""
"","bandit","275","943328","0.0-237.0-0.0","00063711","wem/bandit_party_2","AUGZWSMBBO8U1","either","7","309","","","","","","","0","0","1","0.4552797342","","0.6","0.4","0.8","0.2","","","","","0.6027995291","0.4552797342","0.6846894693","0.4436260943","","","","","","","","","","74","J","1","","","196","main_expt",""
"","bandit","276","945163","0.0-238.0-0.0","00063711","wem/bandit_party_2","AUGZWSMBBO8U1","either","7","314","","","","","","","0","0","1","","0.6573901597","0.6","0.4","0.8","0.2","0.6174547511","0.3045440077","0.6573901597","0.4547077395","","","","","","","","","","","","","","75","K","2","","","197","main_expt",""
"","bandit","277","946962","0.0-239.0-0.0","00063711","wem/bandit_party_2","AUGZWSMBBO8U1","either","7","278","","","","","","","0","1","0","","0.545148617","0.6","0.4","0.8","0.2","0.5727893511","0.4061180554","0.7020762336","0.545148617","","","","","","","","","","","","","","76","L","3","","","198","main_expt",""
"","bandit","278","948825","0.0-240.0-0.0","00063711","wem/bandit_party_2","AUGZWSMBBO8U1","either","7","346","","","","","","","0","0","1","","0.5838562778","0.6","0.4","0.8","0.2","0.5803616598","0.3406873398","0.7749867965","0.5838562778","","","","","","","","","","","","","","76","L","3","","","199","main_expt",""
"","bandit","279","950583","0.0-241.0-0.0","00063711","wem/bandit_party_2","AUGZWSMBBO8U1","either","7","239","","","","","","","0","0","1","","0.5109940584","0.6","0.4","0.8","0.2","0.5109940584","0.2810551981","0.7971262248","0.6569131065","","","","","","","","","","","","","","72","H","0","img/none_selected.jpg","","200","main_expt",""
"","bandit","280","952400","0.0-242.0-0.0","00063711","wem/bandit_party_2","AUGZWSMBBO8U1","either","7","298","","","","","","","0","0","1","0.2295892347","","0.6","0.4","0.8","0.2","","","","","0.444158281","0.2295892347","0.6431063495","0.6559739125","","","","","","","","","","74","J","1","","","201","main_expt",""
"","bandit","281","954106","0.0-243.0-0.0","00063711","wem/bandit_party_2","AUGZWSMBBO8U1","either","7","187","","","","","","","0","0","1","0.6153479028","","0.6","0.4","0.8","0.2","","","","","0.3774362348","0.2134833186","0.6153479028","0.5940698896","","","","","","","","","","75","K","2","","","202","main_expt",""
"","bandit","282","955940","0.0-244.0-0.0","00063711","wem/bandit_party_2","AUGZWSMBBO8U1","either","7","310","","","","","","","0","1","0","","0.6288005559","0.6","0.4","0.8","0.2","0.2852638898","0.1538434825","0.6107921693","0.6288005559","","","","","","","","","","","","","","76","L","3","","","203","main_expt",""
"","bandit","283","957890","0.0-245.0-0.0","00063711","wem/bandit_party_2","AUGZWSMBBO8U1","either","7","428","","","","","","","1","0","0","0.7483345684","","0.6","0.4","0.8","0.2","","","","","0.3900316507","0.08629221539","0.6364312764","0.7483345684","","","","","","","","","","76","L","3","","","204","main_expt",""
"","bandit","284","959818","0.0-246.0-0.0","00063711","wem/bandit_party_2","AUGZWSMBBO8U1","either","7","409","","","","","","","0","1","0","","0.7823609999","0.6","0.4","0.8","0.2","0.3334674042","0.1303029892","0.7098325313","0.7823609999","","","","","","","","","","","","","","76","L","3","","","205","main_expt",""
"","bandit","285","961651","0.0-247.0-0.0","00063711","wem/bandit_party_2","AUGZWSMBBO8U1","either","7","311","","","","","","","0","1","0","","0.7053347691","0.6","0.4","0.8","0.2","0.3997779834","0.1290793888","0.6423198407","0.7053347691","","","","","","","","","","","","","","76","L","3","","","206","main_expt",""
"","bandit","286","963462","0.0-248.0-0.0","00063711","wem/bandit_party_2","AUGZWSMBBO8U1","either","7","292","","","","","","","0","1","0","","0.692958529","0.6","0.4","0.8","0.2","0.2791746034","0.1471003053","0.7196337679","0.692958529","","","","","","","","","","","","","","76","L","3","","","207","main_expt",""
"","bandit","287","965290","0.0-249.0-0.0","00063711","wem/bandit_party_2","AUGZWSMBBO8U1","either","7","305","","","","","","","0","1","0","","0.5726600787","0.6","0.4","0.8","0.2","0.3447420344","0.1204476287","0.7273253538","0.5726600787","","","","","","","","","","","","","","76","L","3","","","208","main_expt",""
"","bandit","288","967287","0.0-250.0-0.0","00063711","wem/bandit_party_2","AUGZWSMBBO8U1","either","7","477","","","","","","","0","1","0","","0.7193759884","0.6","0.4","0.8","0.2","0.2106944101","0.1752658923","0.7701678217","0.7193759884","","","","","","","","","","","","","","76","L","3","","","209","main_expt",""
"","bandit","289","969307","0.0-251.0-0.0","00063711","wem/bandit_party_2","AUGZWSMBBO8U1","either","7","498","","","","","","","0","1","0","","0.5469619257","0.6","0.4","0.8","0.2","0.2609791638","0.2071456167","0.7673062315","0.5469619257","","","","","","","","","","","","","","76","L","3","","","210","main_expt",""
"","bandit","290","971263","0.0-252.0-0.0","00063711","wem/bandit_party_2","AUGZWSMBBO8U1","either","7","431","","","","","","","1","0","0","0.5432746348","","0.6","0.4","0.8","0.2","","","","","0.3702243554","0.1982577311","0.7733207599","0.5432746348","","","","","","","","","","76","L","3","","","211","main_expt",""
"","bandit","291","973102","0.0-253.0-0.0","00063711","wem/bandit_party_2","AUGZWSMBBO8U1","either","7","321","","","","","","","0","0","1","","0.4857525371","0.6","0.4","0.8","0.2","0.4070014152","0.2837026457","0.7176010575","0.4857525371","","","","","","","","","","","","","","76","L","3","","","212","main_expt",""
"","bandit","292","974931","0.0-254.0-0.0","00063711","wem/bandit_party_2","AUGZWSMBBO8U1","either","7","308","","","","","","","0","0","1","0.5001351259","","0.6","0.4","0.8","0.2","","","","","0.5001351259","0.2192955177","0.7241732444","0.4416723402","","","","","","","","","","72","H","0","img/none_selected.jpg","","213","main_expt",""
"","bandit","293","976695","0.0-255.0-0.0","00063711","wem/bandit_party_2","AUGZWSMBBO8U1","either","7","246","","","","","","","0","0","1","","0.2885853396","0.6","0.4","0.8","0.2","0.5667049056","0.2885853396","0.6696022014","0.4231083207","","","","","","","","","","","","","","74","J","1","","","214","main_expt",""
"","bandit","294","978483","0.0-256.0-0.0","00063711","wem/bandit_party_2","AUGZWSMBBO8U1","either","7","266","","","","","","","1","0","0","0.6255990046","","0.6","0.4","0.8","0.2","","","","","0.5259574602","0.2451296471","0.6255990046","0.329019478","","","","","","","","","","75","K","2","","","215","main_expt",""
"","bandit","295","980264","0.0-257.0-0.0","00063711","wem/bandit_party_2","AUGZWSMBBO8U1","either","7","262","","","","","","","1","0","0","0.6771362935","","0.6","0.4","0.8","0.2","","","","","0.5468860011","0.1946790852","0.6771362935","0.3469743373","","","","","","","","","","75","K","2","","","216","main_expt",""
"","bandit","296","982156","0.0-258.0-0.0","00063711","wem/bandit_party_2","AUGZWSMBBO8U1","either","7","367","","","","","","","1","0","0","0.6918953154","","0.6","0.4","0.8","0.2","","","","","0.6182745027","0.2497229096","0.6918953154","0.3618740044","","","","","","","","","","75","K","2","","","217","main_expt",""
"","bandit","297","983967","0.0-259.0-0.0","00063711","wem/bandit_party_2","AUGZWSMBBO8U1","either","7","292","","","","","","","1","0","0","0.5726390237","","0.6","0.4","0.8","0.2","","","","","0.5979125128","0.3076421025","0.5726390237","0.3574217595","","","","","","","","","","75","K","2","","","218","main_expt",""
"","bandit","298","985754","0.0-260.0-0.0","00063711","wem/bandit_party_2","AUGZWSMBBO8U1","either","7","265","","","","","","","0","0","1","","0.5179196303","0.6","0.4","0.8","0.2","0.5321687475","0.3488941347","0.5179196303","0.3862686792","","","","","","","","","","","","","","75","K","2","","","219","main_expt",""
"","bandit","299","987589","0.0-261.0-0.0","00063711","wem/bandit_party_2","AUGZWSMBBO8U1","either","7","319","","","","","","","1","0","0","0.4432846828","","0.6","0.4","0.8","0.2","","","","","0.6053830099","0.306784001","0.5578222379","0.4432846828","","","","","","","","","","76","L","3","","","220","main_expt",""
"","bandit","300","989359","0.0-262.0-0.0","00063711","wem/bandit_party_2","AUGZWSMBBO8U1","either","7","251","","","","","","","0","1","0","","0.432499938","0.6","0.4","0.8","0.2","0.69383498","0.3786925452","0.6640911266","0.432499938","","","","","","","","","","","","","","76","L","3","","","221","main_expt",""
"","bandit","301","991147","0.0-263.0-0.0","00063711","wem/bandit_party_2","AUGZWSMBBO8U1","either","7","265","","","","","","","0","0","1","","0.4050903391","0.6","0.4","0.8","0.2","0.783375317","0.5014801557","0.7340686256","0.4050903391","","","","","","","","","","","","","","76","L","3","","","222","main_expt",""
"","bandit","302","992979","0.0-264.0-0.0","00063711","wem/bandit_party_2","AUGZWSMBBO8U1","either","7","311","","","","","","","1","0","0","0.8374489269","","0.6","0.4","0.8","0.2","","","","","0.8374489269","0.4081704387","0.852862777","0.3282593462","","","","","","","","","","72","H","0","img/none_selected.jpg","","223","main_expt",""
"","bandit","303","994828","0.0-265.0-0.0","00063711","wem/bandit_party_2","AUGZWSMBBO8U1","either","7","328","","","","","","","0","1","0","","0.7801262993","0.6","0.4","0.8","0.2","0.7801262993","0.422296693","0.7830506485","0.2465370002","","","","","","","","","","","","","","72","H","0","img/none_selected.jpg","","224","main_expt",""
"","bandit","304","996666","0.0-266.0-0.0","00063711","wem/bandit_party_2","AUGZWSMBBO8U1","either","7","315","","","","","","","1","0","0","0.7438235551","","0.6","0.4","0.8","0.2","","","","","0.7438235551","0.3998144739","0.7447555501","0.2260872052","","","","","","","","","","72","H","0","img/none_selected.jpg","","225","main_expt",""
"","bandit","305","998489","0.0-267.0-0.0","00063711","wem/bandit_party_2","AUGZWSMBBO8U1","either","7","299","","","","","","","0","0","1","0.7561714458","","0.6","0.4","0.8","0.2","","","","","0.7561714458","0.2692780115","0.7331719472","0.2573895518","","","","","","","","","","72","H","0","img/none_selected.jpg","","226","main_expt",""
"","bandit","306","1000427","0.0-268.0-0.0","00063711","wem/bandit_party_2","AUGZWSMBBO8U1","either","7","415","","","","","","","0","0","1","","0.268728261","0.6","0.4","0.8","0.2","0.7527106072","0.268728261","0.6417259928","0.2134597582","","","","","","","","","","","","","","74","J","1","","","227","main_expt",""
"","bandit","307","1002255","0.0-269.0-0.0","00063711","wem/bandit_party_2","AUGZWSMBBO8U1","either","7","310","","","","","","","1","0","0","0.6050549784","","0.6","0.4","0.8","0.2","","","","","0.6315627418","0.2211951924","0.6050549784","0.348479141","","","","","","","","","","75","K","2","","","228","main_expt",""
"","bandit","308","1004084","0.0-270.0-0.0","00063711","wem/bandit_party_2","AUGZWSMBBO8U1","either","7","308","","","","","","","0","0","1","0.5962230341","","0.6","0.4","0.8","0.2","","","","","0.5564086662","0.219241791","0.5962230341","0.3250735223","","","","","","","","","","75","K","2","","","229","main_expt",""
"","bandit","309","1005912","0.0-271.0-0.0","00063711","wem/bandit_party_2","AUGZWSMBBO8U1","either","7","306","","","","","","","0","1","0","","0.3395219718","0.6","0.4","0.8","0.2","0.5895813861","0.291585141","0.5594933722","0.3395219718","","","","","","","","","","","","","","76","L","3","","","230","main_expt",""
"","bandit","310","1007821","0.0-272.0-0.0","00063711","wem/bandit_party_2","AUGZWSMBBO8U1","either","7","388","","","","","","","1","0","0","0.3315483329","","0.6","0.4","0.8","0.2","","","","","0.6148213975","0.2754541949","0.6411036761","0.3315483329","","","","","","","","","","76","L","3","","","231","main_expt",""
"","bandit","311","1010183","0.0-273.0-0.0","00063711","wem/bandit_party_2","AUGZWSMBBO8U1","either","7","842","","","","","","","0","1","0","","0.3876030756","0.6","0.4","0.8","0.2","0.5176988489","0.3055336503","0.6653930637","0.3876030756","","","","","","","","","","","","","","76","L","3","","","232","main_expt",""
"","bandit","312","1012070","0.0-274.0-0.0","00063711","wem/bandit_party_2","AUGZWSMBBO8U1","either","7","368","","","","","","","0","1","0","","0.3696248546","0.6","0.4","0.8","0.2","0.4505666118","0.3390100853","0.5426719569","0.3696248546","","","","","","","","","","","","","","76","L","3","","","233","main_expt",""
"","bandit","313","1013834","0.0-275.0-0.0","00063711","wem/bandit_party_2","AUGZWSMBBO8U1","either","7","239","","","","","","","0","0","1","","0.3927474605","0.6","0.4","0.8","0.2","0.4393496879","0.3165323161","0.5581360181","0.3927474605","","","","","","","","","","","","","","76","L","3","","","234","main_expt",""
"","bandit","314","1015628","0.0-276.0-0.0","00063711","wem/bandit_party_2","AUGZWSMBBO8U1","either","7","268","","","","","","","0","0","1","0.3542725407","","0.6","0.4","0.8","0.2","","","","","0.3542725407","0.2944333127","0.5299247183","0.4734072524","","","","","","","","","","72","H","0","img/none_selected.jpg","","235","main_expt",""
"","bandit","315","1017287","0.0-277.0-0.0","00063711","wem/bandit_party_2","AUGZWSMBBO8U1","either","7","137","","","","","","","0","0","1","0.4127469632","","0.6","0.4","0.8","0.2","","","","","0.452511288","0.4127469632","0.4709954077","0.5857320117","","","","","","","","","","74","J","1","","","236","main_expt",""
"","bandit","316","1018994","0.0-278.0-0.0","00063711","wem/bandit_party_2","AUGZWSMBBO8U1","either","7","183","","","","","","","0","0","1","0.4171051322","","0.6","0.4","0.8","0.2","","","","","0.4743784035","0.4353664578","0.4171051322","0.5208556897","","","","","","","","","","75","K","2","","","237","main_expt",""
"","bandit","317","1020683","0.0-279.0-0.0","00063711","wem/bandit_party_2","AUGZWSMBBO8U1","either","7","165","","","","","","","0","1","0","","0.4551370454","0.6","0.4","0.8","0.2","0.4666998134","0.3871798792","0.40722148","0.4551370454","","","","","","","","","","","","","","76","L","3","","","238","main_expt",""
"","bandit","318","1022511","0.0-280.0-0.0","00063711","wem/bandit_party_2","AUGZWSMBBO8U1","either","7","309","","","","","","","0","0","1","","0.2979137516","0.6","0.4","0.8","0.2","0.4916456171","0.3244704863","0.3113271407","0.2979137516","","","","","","","","","","","","","","76","L","3","","","239","main_expt",""
