"consent","trial_type","trial_index","time_elapsed","internal_node_id","subjID","study","MID","cond","drift","rt","responses","button_pressed","key_press","like","value","connected","gems","bombs","no_reward","GemPrChosen","BombPrChosen","GainOverPainPr_0","GainOverPainPr_1","GainOverPainPr_2","GainOverPainPr_3","LosePr_0","LosePr_1","LosePr_2","LosePr_3","WinPr_0","WinPr_1","WinPr_2","WinPr_3","Q0","Q1","Q2","gender","age","ethnicity","label","expt_phase","target","respCharCode","respKey","respChoiceNum","respChoice","practice","trial_counter","trial_label","Q0_index"
"GDM/GDM_behavioral_consent_30min_online.html","consent","0","8545","0.0-0.0","00129327","wem/bandit_party_2","A3A4EIML2KVC3D","either","6","","","","","","","","","","","","","","","","","","","","","","","","","","","","","","","","","","","","","","","","",""
"","survey-text","1","15087","0.0-1.0","00129327","wem/bandit_party_2","A3A4EIML2KVC3D","either","6","5495","{""Q0"":""A3A4EIML2KVC3D""}","","","","","","","","","","","","","","","","","","","","","","","","","","","","","","","","","","","","","","",""
"","button-response","2","17583","0.0-2.0","00129327","wem/bandit_party_2","A3A4EIML2KVC3D","either","6","1461","","1","","","","","","","","","","","","","","","","","","","","","","","","","","","","","","","","","","","","","",""
"","text-replacement","3","28324","0.0-3.0","00129327","wem/bandit_party_2","A3A4EIML2KVC3D","either","6","9723","","","32","","","","","","","","","","","","","","","","","","","","","","","","","","","","","","","","","","","","",""
"","text-replacement","4","41071","0.0-4.0","00129327","wem/bandit_party_2","A3A4EIML2KVC3D","either","6","12740","","","32","","","","","","","","","","","","","","","","","","","","","","","","","","","","","","","","","","","","",""
"","identification","5","48257","0.0-6.0-0.0","00129327","wem/bandit_party_2","A3A4EIML2KVC3D","either","6","7106","","","","0","0","0","","","","","","","","","","","","","","","","","","","","","","","","pre","identification_pre","the Republican Party","","","","","","","",""
"","identification","6","53084","0.0-6.0-1.0","00129327","wem/bandit_party_2","A3A4EIML2KVC3D","either","6","3723","","","","2","2","2","","","","","","","","","","","","","","","","","","","","","","","","pre","identification_pre","the Democratic Party","","","","","","","",""
"","text-replacement","7","61591","0.0-7.0","00129327","wem/bandit_party_2","A3A4EIML2KVC3D","either","6","7462","","","32","","","","","","","","","","","","","","","","","","","","","","","","","","","","","","","","","","","","",""
"","text-replacement","8","66696","0.0-8.0","00129327","wem/bandit_party_2","A3A4EIML2KVC3D","either","6","5086","","","32","","","","","","","","","","","","","","","","","","","","","","","","","","","","","","","","","","","","",""
"","text-replacement","9","72405","0.0-9.0","00129327","wem/bandit_party_2","A3A4EIML2KVC3D","either","6","5695","","","32","","","","","","","","","","","","","","","","","","","","","","","","","","","","","","","","","","","","",""
"","text-replacement","10","75359","0.0-10.0","00129327","wem/bandit_party_2","A3A4EIML2KVC3D","either","6","2945","","","32","","","","","","","","","","","","","","","","","","","","","","","","","","","","","","","","","","","","",""
"","text-replacement","11","78056","0.0-11.0","00129327","wem/bandit_party_2","A3A4EIML2KVC3D","either","6","2685","","","32","","","","","","","","","","","","","","","","","","","","","","","","","","","","","","","","","","","","",""
"","bandit","12","86842","0.0-12.0-0.0","00129327","wem/bandit_party_2","A3A4EIML2KVC3D","either","6","7224","","","","","","","0","0","1","0","0","","","","","0","","","","0","","","","","","","","","","","","","74","J","0","img/none_selected_demo.jpg","true","0","",""
"","bandit","13","89524","0.0-13.0-0.0","00129327","wem/bandit_party_2","A3A4EIML2KVC3D","either","6","1143","","","","","","","0","0","1","0","0","","","","","0","","","","0","","","","","","","","","","","","","75","K","0","img/none_selected_demo.jpg","true","0","",""
"","text-replacement","14","91677","0.0-14.0","00129327","wem/bandit_party_2","A3A4EIML2KVC3D","either","6","2147","","","32","","","","","","","","","","","","","","","","","","","","","","","","","","","","","","","","","","","","",""
"","text-replacement","15","92752","0.0-15.0","00129327","wem/bandit_party_2","A3A4EIML2KVC3D","either","6","1071","","","32","","","","","","","","","","","","","","","","","","","","","","","","","","","","","","","","","","","","",""
"","text-replacement","16","96559","0.0-16.0","00129327","wem/bandit_party_2","A3A4EIML2KVC3D","either","6","3802","","","32","","","","","","","","","","","","","","","","","","","","","","","","","","","","","","","","","","","","",""
"","text-replacement","17","98063","0.0-17.0","00129327","wem/bandit_party_2","A3A4EIML2KVC3D","either","6","1499","","","32","","","","","","","","","","","","","","","","","","","","","","","","","","","","","","","","","","","","",""
"","bandit","18","102144","0.0-18.0-0.0","00129327","wem/bandit_party_2","A3A4EIML2KVC3D","either","6","2535","","","","","","","0","1","0","","0.8","0.5","0.5","","","0.8","0.2","","","","","","","","","","","","","","","","74","J","0","img/none_selected_demo.jpg","true","0","80_20_practice",""
"","bandit","19","104142","0.0-18.0-1.0","00129327","wem/bandit_party_2","A3A4EIML2KVC3D","either","6","449","","","","","","","0","1","0","","0.2","0.5","0.5","","","0.8","0.2","","","","","","","","","","","","","","","","75","K","1","","true","0","80_20_practice",""
"","bandit","20","106075","0.0-18.0-2.0","00129327","wem/bandit_party_2","A3A4EIML2KVC3D","either","6","393","","","","","","","0","0","1","0.2","","0.5","0.5","","","","","","","0.8","0.2","","","","","","","","","","","","75","K","1","","true","0","80_20_practice",""
"","bandit","21","108025","0.0-18.0-3.0","00129327","wem/bandit_party_2","A3A4EIML2KVC3D","either","6","416","","","","","","","0","0","1","","0.8","0.5","0.5","","","0.8","0.2","","","","","","","","","","","","","","","","74","J","0","img/none_selected_demo.jpg","true","0","80_20_practice",""
"","bandit","22","110116","0.0-18.0-4.0","00129327","wem/bandit_party_2","A3A4EIML2KVC3D","either","6","553","","","","","","","0","1","0","","0.8","0.5","0.5","","","0.8","0.2","","","","","","","","","","","","","","","","74","J","0","img/none_selected_demo.jpg","true","0","80_20_practice",""
"","bandit","23","112175","0.0-18.0-5.0","00129327","wem/bandit_party_2","A3A4EIML2KVC3D","either","6","311","","","","","","","0","1","0","","0.8","0.5","0.5","","","0.8","0.2","","","","","","","","","","","","","","","","74","J","0","img/none_selected_demo.jpg","true","0","80_20_practice",""
"","bandit","24","114157","0.0-18.0-6.0","00129327","wem/bandit_party_2","A3A4EIML2KVC3D","either","6","444","","","","","","","0","0","1","0.2","","0.5","0.5","","","","","","","0.8","0.2","","","","","","","","","","","","75","K","1","","true","0","80_20_practice",""
"","bandit","25","117292","0.0-18.0-7.0","00129327","wem/bandit_party_2","A3A4EIML2KVC3D","either","6","1555","","","","","","","0","1","0","","0.2","0.5","0.5","","","0.8","0.2","","","","","","","","","","","","","","","","75","K","1","","true","0","80_20_practice",""
"","bandit","26","119151","0.0-18.0-8.0","00129327","wem/bandit_party_2","A3A4EIML2KVC3D","either","6","323","","","","","","","0","0","1","0.2","","0.5","0.5","","","","","","","0.8","0.2","","","","","","","","","","","","75","K","1","","true","0","80_20_practice",""
"","bandit","27","121209","0.0-18.0-9.0","00129327","wem/bandit_party_2","A3A4EIML2KVC3D","either","6","522","","","","","","","0","0","1","","0.2","0.5","0.5","","","0.8","0.2","","","","","","","","","","","","","","","","75","K","1","","true","0","80_20_practice",""
"","bandit","28","122961","0.0-18.0-10.0","00129327","wem/bandit_party_2","A3A4EIML2KVC3D","either","6","208","","","","","","","0","1","0","","0.8","0.5","0.5","","","0.8","0.2","","","","","","","","","","","","","","","","74","J","0","img/none_selected_demo.jpg","true","0","80_20_practice",""
"","bandit","29","124940","0.0-18.0-11.0","00129327","wem/bandit_party_2","A3A4EIML2KVC3D","either","6","355","","","","","","","1","0","0","0.8","","0.5","0.5","","","","","","","0.8","0.2","","","","","","","","","","","","74","J","0","img/none_selected_demo.jpg","true","0","80_20_practice",""
"","bandit","30","127033","0.0-18.0-12.0","00129327","wem/bandit_party_2","A3A4EIML2KVC3D","either","6","550","","","","","","","1","0","0","0.8","","0.5","0.5","","","","","","","0.8","0.2","","","","","","","","","","","","74","J","0","img/none_selected_demo.jpg","true","0","80_20_practice",""
"","bandit","31","128780","0.0-18.0-13.0","00129327","wem/bandit_party_2","A3A4EIML2KVC3D","either","6","172","","","","","","","1","0","0","0.8","","0.5","0.5","","","","","","","0.8","0.2","","","","","","","","","","","","74","J","0","img/none_selected_demo.jpg","true","0","80_20_practice",""
"","bandit","32","130385","0.0-18.0-14.0","00129327","wem/bandit_party_2","A3A4EIML2KVC3D","either","6","51","","","","","","","1","0","0","0.8","","0.5","0.5","","","","","","","0.8","0.2","","","","","","","","","","","","74","J","0","img/none_selected_demo.jpg","true","0","80_20_practice",""
"","bandit","33","132036","0.0-18.0-15.0","00129327","wem/bandit_party_2","A3A4EIML2KVC3D","either","6","27","","","","","","","0","1","0","","0.8","0.5","0.5","","","0.8","0.2","","","","","","","","","","","","","","","","74","J","0","img/none_selected_demo.jpg","true","0","80_20_practice",""
"","bandit","34","133939","0.0-18.0-16.0","00129327","wem/bandit_party_2","A3A4EIML2KVC3D","either","6","344","","","","","","","0","0","1","","0.2","0.5","0.5","","","0.8","0.2","","","","","","","","","","","","","","","","75","K","1","","true","0","80_20_practice",""
"","bandit","35","137954","0.0-18.0-17.0","00129327","wem/bandit_party_2","A3A4EIML2KVC3D","either","6","2403","","","","","","","0","0","1","","0.2","0.5","0.5","","","0.8","0.2","","","","","","","","","","","","","","","","75","K","1","","true","0","80_20_practice",""
"","bandit","36","140808","0.0-18.0-18.0","00129327","wem/bandit_party_2","A3A4EIML2KVC3D","either","6","1317","","","","","","","0","1","0","","0.8","0.5","0.5","","","0.8","0.2","","","","","","","","","","","","","","","","74","J","0","img/none_selected_demo.jpg","true","0","80_20_practice",""
"","bandit","37","143224","0.0-18.0-19.0","00129327","wem/bandit_party_2","A3A4EIML2KVC3D","either","6","880","","","","","","","1","0","0","0.8","","0.5","0.5","","","","","","","0.8","0.2","","","","","","","","","","","","74","J","0","img/none_selected_demo.jpg","true","0","80_20_practice",""
"","text-replacement","38","148484","0.0-19.0","00129327","wem/bandit_party_2","A3A4EIML2KVC3D","either","6","5250","","","32","","","","","","","","","","","","","","","","","","","","","","","","","","","","","","","","","","","","",""
"","bandit","39","151851","0.0-20.0-0.0","00129327","wem/bandit_party_2","A3A4EIML2KVC3D","either","6","1837","","","","","","","1","0","0","1","0","","","","","0","1","","","1","0","","","","","","","","","","","","74","J","0","img/none_selected_demo.jpg","true","0","",""
"","text-replacement","40","157171","0.0-21.0","00129327","wem/bandit_party_2","A3A4EIML2KVC3D","either","6","5310","","","32","","","","","","","","","","","","","","","","","","","","","","","","","","","","","","","","","","","","",""
"","text-replacement","41","159542","0.0-22.0","00129327","wem/bandit_party_2","A3A4EIML2KVC3D","either","6","2364","","","32","","","","","","","","","","","","","","","","","","","","","","","","","","","","","","","","","","","","",""
"","text-replacement","42","162169","0.0-23.0","00129327","wem/bandit_party_2","A3A4EIML2KVC3D","either","6","2618","","","32","","","","","","","","","","","","","","","","","","","","","","","","","","","","","","","","","","","","",""
"","text-replacement","43","165840","0.0-24.0","00129327","wem/bandit_party_2","A3A4EIML2KVC3D","either","6","3665","","","32","","","","","","","","","","","","","","","","","","","","","","","","","","","","","","","","","","","","",""
"","text-replacement","44","168536","0.0-25.0","00129327","wem/bandit_party_2","A3A4EIML2KVC3D","either","6","2689","","","32","","","","","","","","","","","","","","","","","","","","","","","","","","","","","","","","","","","","",""
"","text-replacement","45","171150","0.0-26.0","00129327","wem/bandit_party_2","A3A4EIML2KVC3D","either","6","2608","","","32","","","","","","","","","","","","","","","","","","","","","","","","","","","","","","","","","","","","",""
"","text-replacement","46","177981","0.0-27.0","00129327","wem/bandit_party_2","A3A4EIML2KVC3D","either","6","6825","","","32","","","","","","","","","","","","","","","","","","","","","","","","","","","","","","","","","","","","",""
"","text-replacement","47","180528","0.0-28.0","00129327","wem/bandit_party_2","A3A4EIML2KVC3D","either","6","2541","","","32","","","","","","","","","","","","","","","","","","","","","","","","","","","","","","","","","","","","",""
"","text-replacement","48","182198","0.0-29.0","00129327","wem/bandit_party_2","A3A4EIML2KVC3D","either","6","1664","","","32","","","","","","","","","","","","","","","","","","","","","","","","","","","","","","","","","","","","",""
"","text-replacement","49","184288","0.0-30.0","00129327","wem/bandit_party_2","A3A4EIML2KVC3D","either","6","2083","","","32","","","","","","","","","","","","","","","","","","","","","","","","","","","","","","","","","","","","",""
"","text-replacement","50","194600","0.0-31.0","00129327","wem/bandit_party_2","A3A4EIML2KVC3D","either","6","10301","","","32","","","","","","","","","","","","","","","","","","","","","","","","","","","","","","","","","","","","",""
"","bandit","51","196838","0.0-32.0-0.0","00129327","wem/bandit_party_2","A3A4EIML2KVC3D","either","6","670","","","","","","","0","0","1","0.8","","0.5","0.5","0.5","0.5","","","","","0.8","0.2","0.6","0.2","","","","","","","","","","72","H","0","img/none_selected.jpg","true","0","full_practice",""
"","bandit","52","199361","0.0-32.0-1.0","00129327","wem/bandit_party_2","A3A4EIML2KVC3D","either","6","968","","","","","","","0","1","0","","0.8","0.5","0.5","0.5","0.5","0.8","0.2","0.6","0.2","","","","","","","","","","","","","","72","H","0","img/none_selected.jpg","true","0","full_practice",""
"","bandit","53","201204","0.0-32.0-2.0","00129327","wem/bandit_party_2","A3A4EIML2KVC3D","either","6","317","","","","","","","0","0","1","","0.2","0.5","0.5","0.5","0.5","0.8","0.2","0.6","0.2","","","","","","","","","","","","","","74","J","1","","true","0","full_practice",""
"","bandit","54","203433","0.0-32.0-3.0","00129327","wem/bandit_party_2","A3A4EIML2KVC3D","either","6","687","","","","","","","1","0","0","0.6","","0.5","0.5","0.5","0.5","","","","","0.8","0.2","0.6","0.2","","","","","","","","","","75","K","2","","true","0","full_practice",""
"","bandit","55","205369","0.0-32.0-4.0","00129327","wem/bandit_party_2","A3A4EIML2KVC3D","either","6","389","","","","","","","0","0","1","","0.2","0.5","0.5","0.5","0.5","0.8","0.2","0.6","0.2","","","","","","","","","","","","","","76","L","3","","true","0","full_practice",""
"","bandit","56","207567","0.0-32.0-5.0","00129327","wem/bandit_party_2","A3A4EIML2KVC3D","either","6","670","","","","","","","0","0","1","0.2","","0.5","0.5","0.5","0.5","","","","","0.8","0.2","0.6","0.2","","","","","","","","","","74","J","1","","true","0","full_practice",""
"","bandit","57","209439","0.0-32.0-6.0","00129327","wem/bandit_party_2","A3A4EIML2KVC3D","either","6","319","","","","","","","0","0","1","0.2","","0.5","0.5","0.5","0.5","","","","","0.8","0.2","0.6","0.2","","","","","","","","","","74","J","1","","true","0","full_practice",""
"","bandit","58","211342","0.0-32.0-7.0","00129327","wem/bandit_party_2","A3A4EIML2KVC3D","either","6","359","","","","","","","1","0","0","0.6","","0.5","0.5","0.5","0.5","","","","","0.8","0.2","0.6","0.2","","","","","","","","","","75","K","2","","true","0","full_practice",""
"","bandit","59","213168","0.0-32.0-8.0","00129327","wem/bandit_party_2","A3A4EIML2KVC3D","either","6","181","","","","","","","0","0","1","0.6","","0.5","0.5","0.5","0.5","","","","","0.8","0.2","0.6","0.2","","","","","","","","","","75","K","2","","true","0","full_practice",""
"","bandit","60","215103","0.0-32.0-9.0","00129327","wem/bandit_party_2","A3A4EIML2KVC3D","either","6","387","","","","","","","0","0","1","","0.6","0.5","0.5","0.5","0.5","0.8","0.2","0.6","0.2","","","","","","","","","","","","","","75","K","2","","true","0","full_practice",""
"","bandit","61","216990","0.0-32.0-10.0","00129327","wem/bandit_party_2","A3A4EIML2KVC3D","either","6","349","","","","","","","0","0","1","","0.2","0.5","0.5","0.5","0.5","0.8","0.2","0.6","0.2","","","","","","","","","","","","","","76","L","3","","true","0","full_practice",""
"","bandit","62","219339","0.0-32.0-11.0","00129327","wem/bandit_party_2","A3A4EIML2KVC3D","either","6","573","","","","","","","1","0","0","0.6","","0.5","0.5","0.5","0.5","","","","","0.8","0.2","0.6","0.2","","","","","","","","","","75","K","2","","true","0","full_practice",""
"","bandit","63","221084","0.0-32.0-12.0","00129327","wem/bandit_party_2","A3A4EIML2KVC3D","either","6","143","","","","","","","0","0","1","","0.2","0.5","0.5","0.5","0.5","0.8","0.2","0.6","0.2","","","","","","","","","","","","","","74","J","1","","true","0","full_practice",""
"","bandit","64","223090","0.0-32.0-13.0","00129327","wem/bandit_party_2","A3A4EIML2KVC3D","either","6","484","","","","","","","0","0","1","0.8","","0.5","0.5","0.5","0.5","","","","","0.8","0.2","0.6","0.2","","","","","","","","","","72","H","0","img/none_selected.jpg","true","0","full_practice",""
"","bandit","65","224884","0.0-32.0-14.0","00129327","wem/bandit_party_2","A3A4EIML2KVC3D","either","6","247","","","","","","","0","0","1","0.6","","0.5","0.5","0.5","0.5","","","","","0.8","0.2","0.6","0.2","","","","","","","","","","75","K","2","","true","0","full_practice",""
"","bandit","66","226568","0.0-32.0-15.0","00129327","wem/bandit_party_2","A3A4EIML2KVC3D","either","6","136","","","","","","","0","0","1","0.2","","0.5","0.5","0.5","0.5","","","","","0.8","0.2","0.6","0.2","","","","","","","","","","74","J","1","","true","0","full_practice",""
"","bandit","67","228394","0.0-32.0-16.0","00129327","wem/bandit_party_2","A3A4EIML2KVC3D","either","6","277","","","","","","","0","1","0","","0.6","0.5","0.5","0.5","0.5","0.8","0.2","0.6","0.2","","","","","","","","","","","","","","75","K","2","","true","0","full_practice",""
"","bandit","68","230141","0.0-32.0-17.0","00129327","wem/bandit_party_2","A3A4EIML2KVC3D","either","6","207","","","","","","","0","0","1","","0.6","0.5","0.5","0.5","0.5","0.8","0.2","0.6","0.2","","","","","","","","","","","","","","75","K","2","","true","0","full_practice",""
"","bandit","69","232294","0.0-32.0-18.0","00129327","wem/bandit_party_2","A3A4EIML2KVC3D","either","6","609","","","","","","","0","1","0","","0.6","0.5","0.5","0.5","0.5","0.8","0.2","0.6","0.2","","","","","","","","","","","","","","75","K","2","","true","0","full_practice",""
"","bandit","70","233942","0.0-32.0-19.0","00129327","wem/bandit_party_2","A3A4EIML2KVC3D","either","6","108","","","","","","","0","1","0","","0.8","0.5","0.5","0.5","0.5","0.8","0.2","0.6","0.2","","","","","","","","","","","","","","72","H","0","img/none_selected.jpg","true","0","full_practice",""
"","text","71","244168","0.0-33.0","00129327","wem/bandit_party_2","A3A4EIML2KVC3D","either","6","10186","","","32","","","","","","","","","","","","","","","","","","","","","","","","","","","","","","","","","","","","",""
"","text-replacement","72","249499","0.0-34.0","00129327","wem/bandit_party_2","A3A4EIML2KVC3D","either","6","4315","","","32","","","","","","","","","","","","","","","","","","","","","","","","","","","","","","","","","","","","",""
"","text-replacement","73","252474","0.0-35.0","00129327","wem/bandit_party_2","A3A4EIML2KVC3D","either","6","2955","","","32","","","","","","","","","","","","","","","","","","","","","","","","","","","","","","","","","","","","",""
"","text-replacement","74","253780","0.0-36.0","00129327","wem/bandit_party_2","A3A4EIML2KVC3D","either","6","1289","","","32","","","","","","","","","","","","","","","","","","","","","","","","","","","","","","","","","","","","",""
"","text-replacement","75","256301","0.0-37.0","00129327","wem/bandit_party_2","A3A4EIML2KVC3D","either","6","2495","","","32","","","","","","","","","","","","","","","","","","","","","","","","","","","","","","","","","","","","",""
"","text-replacement","76","257880","0.0-38.0","00129327","wem/bandit_party_2","A3A4EIML2KVC3D","either","6","1552","","","32","","","","","","","","","","","","","","","","","","","","","","","","","","","","","","","","","","","","",""
"","survey-multi-choice-replacement","77","264941","0.0-39.0-0.0","00129327","wem/bandit_party_2","A3A4EIML2KVC3D","either","6","6980","","","","","","","","","","","","","","","","","","","","","","","","Money will be added to the pool for <span style='color:blue;'>DEMOCRATS</span>","","","","","","","attn_check","","","","","","","","","0"
"","survey-multi-choice-replacement","78","278173","0.0-40.0-0.0","00129327","wem/bandit_party_2","A3A4EIML2KVC3D","either","6","12137","","","","","","","","","","","","","","","","","","","","","","","","Equal amounts of money will be added to the pool for <span style='color:blue;'>DEMOCRATS</span> and subtracted from the pool for <span style='color:red;'>REPUBLICANS</span>","","","","","","","attn_check","","","","","","","","","2"
"","survey-multi-choice-replacement","79","283254","0.0-41.0-0.0","00129327","wem/bandit_party_2","A3A4EIML2KVC3D","either","6","4015","","","","","","","","","","","","","","","","","","","","","","","","No money will be added to either pool","","","","","","","attn_check","","","","","","","","","3"
"","bandit","80","287744","0.0-42.0-0.0","00129327","wem/bandit_party_2","A3A4EIML2KVC3D","either","6","1918","","","","","","","0","1","0","","0.2309914537","0.2","0.4","0.8","0.6","0.2309914537","0.1947351938","0.7197236342","0.3049938501","","","","","","","","","","","","","","72","H","0","img/none_selected.jpg","","1","main_expt",""
"","bandit","81","290646","0.0-43.0-0.0","00129327","wem/bandit_party_2","A3A4EIML2KVC3D","either","6","1313","","","","","","","0","0","1","0.1865171684","","0.2","0.4","0.8","0.6","","","","","0.2351366282","0.1865171684","0.7453792406","0.3105507028","","","","","","","","","","74","J","1","","","2","main_expt",""
"","bandit","82","292627","0.0-44.0-0.0","00129327","wem/bandit_party_2","A3A4EIML2KVC3D","either","6","436","","","","","","","0","0","1","0.7422746785","","0.2","0.4","0.8","0.6","","","","","0.3338792953","0.1578482069","0.7422746785","0.347932066","","","","","","","","","","75","K","2","","","3","main_expt",""
"","bandit","83","294250","0.0-45.0-0.0","00129327","wem/bandit_party_2","A3A4EIML2KVC3D","either","6","71","","","","","","","1","0","0","0.8152876082","","0.2","0.4","0.8","0.6","","","","","0.2578124611","0.1733557992","0.8152876082","0.294099503","","","","","","","","","","75","K","2","","","4","main_expt",""
"","bandit","84","296044","0.0-46.0-0.0","00129327","wem/bandit_party_2","A3A4EIML2KVC3D","either","6","263","","","","","","","0","0","1","0.256228135","","0.2","0.4","0.8","0.6","","","","","0.152782507","0.1275681293","0.8494846052","0.256228135","","","","","","","","","","76","L","3","","","5","main_expt",""
"","bandit","85","298040","0.0-47.0-0.0","00129327","wem/bandit_party_2","A3A4EIML2KVC3D","either","6","447","","","","","","","0","1","0","","0.1776351543","0.2","0.4","0.8","0.6","0.200224935","0.1776351543","0.8036792828","0.3142053347","","","","","","","","","","","","","","74","J","1","","","6","main_expt",""
"","bandit","86","299803","0.0-48.0-0.0","00129327","wem/bandit_party_2","A3A4EIML2KVC3D","either","6","225","","","","","","","1","0","0","0.8659664865","","0.2","0.4","0.8","0.6","","","","","0.2200442108","0.1412615145","0.8659664865","0.2382568898","","","","","","","","","","75","K","2","","","7","main_expt",""
"","bandit","87","301364","0.0-49.0-0.0","00129327","wem/bandit_party_2","A3A4EIML2KVC3D","either","6","13","","","","","","","1","0","0","0.8475436228","","0.2","0.4","0.8","0.6","","","","","0.1516915951","0.1508054742","0.8475436228","0.220471749","","","","","","","","","","75","K","2","","","8","main_expt",""
"","bandit","88","302939","0.0-50.0-0.0","00129327","wem/bandit_party_2","A3A4EIML2KVC3D","either","6","29","","","","","","","1","0","0","0.8034999265","","0.2","0.4","0.8","0.6","","","","","0.1468829212","0.1882404854","0.8034999265","0.2842820234","","","","","","","","","","75","K","2","","","9","main_expt",""
"","bandit","89","304873","0.0-51.0-0.0","00129327","wem/bandit_party_2","A3A4EIML2KVC3D","either","6","391","","","","","","","0","1","0","","0.7148412232","0.2","0.4","0.8","0.6","0.1507643719","0.1731305678","0.7148412232","0.3392415315","","","","","","","","","","","","","","75","K","2","","","10","main_expt",""
"","bandit","90","306871","0.0-52.0-0.0","00129327","wem/bandit_party_2","A3A4EIML2KVC3D","either","6","447","","","","","","","0","1","0","","0.2475279461","0.2","0.4","0.8","0.6","0.18301","0.2475279461","0.7213030285","0.4470346709","","","","","","","","","","","","","","74","J","1","","","11","main_expt",""
"","bandit","91","308680","0.0-53.0-0.0","00129327","wem/bandit_party_2","A3A4EIML2KVC3D","either","6","269","","","","","","","0","0","1","","0.209562337","0.2","0.4","0.8","0.6","0.209562337","0.2068792089","0.7396148754","0.5143820195","","","","","","","","","","","","","","72","H","0","img/none_selected.jpg","","12","main_expt",""
"","bandit","92","310287","0.0-54.0-0.0","00129327","wem/bandit_party_2","A3A4EIML2KVC3D","either","6","72","","","","","","","1","0","0","0.6870781676","","0.2","0.4","0.8","0.6","","","","","0.2133897639","0.1594062408","0.6870781676","0.4934308908","","","","","","","","","","75","K","2","","","13","main_expt",""
"","bandit","93","311846","0.0-55.0-0.0","00129327","wem/bandit_party_2","A3A4EIML2KVC3D","either","6","40","","","","","","","1","0","0","0.6561171826","","0.2","0.4","0.8","0.6","","","","","0.1865122749","0.1808320347","0.6561171826","0.5884397519","","","","","","","","","","75","K","2","","","14","main_expt",""
"","bandit","94","313610","0.0-56.0-0.0","00129327","wem/bandit_party_2","A3A4EIML2KVC3D","either","6","218","","","","","","","1","0","0","0.6255101569","","0.2","0.4","0.8","0.6","","","","","0.3169691733","0.2401125286","0.6255101569","0.425765204","","","","","","","","","","75","K","2","","","15","main_expt",""
"","bandit","95","315326","0.0-57.0-0.0","00129327","wem/bandit_party_2","A3A4EIML2KVC3D","either","6","174","","","","","","","0","1","0","","0.4458974369","0.2","0.4","0.8","0.6","0.3927767979","0.1823220599","0.6101220295","0.4458974369","","","","","","","","","","","","","","76","L","3","","","16","main_expt",""
"","bandit","96","316998","0.0-58.0-0.0","00129327","wem/bandit_party_2","A3A4EIML2KVC3D","either","6","131","","","","","","","0","0","1","0.6233337625","","0.2","0.4","0.8","0.6","","","","","0.2882183284","0.2076179308","0.6233337625","0.4907358526","","","","","","","","","","75","K","2","","","17","main_expt",""
"","bandit","97","318793","0.0-59.0-0.0","00129327","wem/bandit_party_2","A3A4EIML2KVC3D","either","6","256","","","","","","","0","0","1","","0.2310064443","0.2","0.4","0.8","0.6","0.3212622409","0.2310064443","0.598865074","0.4895096529","","","","","","","","","","","","","","74","J","1","","","18","main_expt",""
"","bandit","98","320356","0.0-60.0-0.0","00129327","wem/bandit_party_2","A3A4EIML2KVC3D","either","6","35","","","","","","","0","1","0","","0.3678238944","0.2","0.4","0.8","0.6","0.3678238944","0.1919199612","0.6318918302","0.5437378015","","","","","","","","","","","","","","72","H","0","img/none_selected.jpg","","19","main_expt",""
"","bandit","99","322247","0.0-61.0-0.0","00129327","wem/bandit_party_2","A3A4EIML2KVC3D","either","6","292","","","","","","","1","0","0","0.5667690756","","0.2","0.4","0.8","0.6","","","","","0.4357360734","0.2150176637","0.5667690756","0.543071052","","","","","","","","","","75","K","2","","","20","main_expt",""
"","bandit","100","324021","0.0-62.0-0.0","00129327","wem/bandit_party_2","A3A4EIML2KVC3D","either","6","99","","","","","","","0","0","1","0.6364396753","","0.2","0.4","0.8","0.6","","","","","0.4486518506","0.2980309021","0.6364396753","0.5457928974","","","","","","","","","","75","K","2","","","21","main_expt",""
"","bandit","101","325757","0.0-63.0-0.0","00129327","wem/bandit_party_2","A3A4EIML2KVC3D","either","6","153","","","","","","","0","0","1","0.5563436533","","0.2","0.4","0.8","0.6","","","","","0.5145372488","0.3238742104","0.5563436533","0.4531799458","","","","","","","","","","75","K","2","","","22","main_expt",""
"","bandit","102","327691","0.0-64.0-0.0","00129327","wem/bandit_party_2","A3A4EIML2KVC3D","either","6","384","","","","","","","0","0","1","","0.4158928209","0.2","0.4","0.8","0.6","0.6324996067","0.4158928209","0.4555064456","0.4321579995","","","","","","","","","","","","","","74","J","1","","","23","main_expt",""
"","bandit","103","329670","0.0-65.0-0.0","00129327","wem/bandit_party_2","A3A4EIML2KVC3D","either","6","385","","","","","","","0","0","1","0.2798670784","","0.2","0.4","0.8","0.6","","","","","0.6665025749","0.2798670784","0.4398961724","0.3892872195","","","","","","","","","","74","J","1","","","24","main_expt",""
"","bandit","104","331476","0.0-66.0-0.0","00129327","wem/bandit_party_2","A3A4EIML2KVC3D","either","6","233","","","","","","","0","0","1","0.3932164435","","0.2","0.4","0.8","0.6","","","","","0.5316582614","0.3932164435","0.3810464824","0.4322880781","","","","","","","","","","74","J","1","","","25","main_expt",""
"","bandit","105","333178","0.0-67.0-0.0","00129327","wem/bandit_party_2","A3A4EIML2KVC3D","either","6","134","","","","","","","0","1","0","","0.451695138","0.2","0.4","0.8","0.6","0.4282094451","0.3243459504","0.451695138","0.4560392573","","","","","","","","","","","","","","75","K","2","","","26","main_expt",""
"","bandit","106","334820","0.0-68.0-0.0","00129327","wem/bandit_party_2","A3A4EIML2KVC3D","either","6","83","","","","","","","1","0","0","0.4423729324","","0.2","0.4","0.8","0.6","","","","","0.4711380508","0.4266302179","0.4423729324","0.5372901799","","","","","","","","","","75","K","2","","","27","main_expt",""
"","bandit","107","336596","0.0-69.0-0.0","00129327","wem/bandit_party_2","A3A4EIML2KVC3D","either","6","195","","","","","","","0","0","1","","0.4221124674","0.2","0.4","0.8","0.6","0.4539290932","0.4206607535","0.4221124674","0.6619872032","","","","","","","","","","","","","","75","K","2","","","28","main_expt",""
"","bandit","108","338387","0.0-70.0-0.0","00129327","wem/bandit_party_2","A3A4EIML2KVC3D","either","6","155","","","","","","","0","0","1","0.489207998","","0.2","0.4","0.8","0.6","","","","","0.4378511583","0.440099583","0.489207998","0.5939885142","","","","","","","","","","75","K","2","","","29","main_expt",""
"","bandit","109","340182","0.0-71.0-0.0","00129327","wem/bandit_party_2","A3A4EIML2KVC3D","either","6","246","","","","","","","0","1","0","","0.5602145404","0.2","0.4","0.8","0.6","0.3425428874","0.3982168329","0.4406356357","0.5602145404","","","","","","","","","","","","","","76","L","3","","","30","main_expt",""
"","bandit","110","341961","0.0-72.0-0.0","00129327","wem/bandit_party_2","A3A4EIML2KVC3D","either","6","227","","","","","","","0","0","1","","0.484130952","0.2","0.4","0.8","0.6","0.2354865125","0.3573437221","0.484130952","0.5376870091","","","","","","","","","","","","","","75","K","2","","","31","main_expt",""
"","bandit","111","343693","0.0-73.0-0.0","00129327","wem/bandit_party_2","A3A4EIML2KVC3D","either","6","182","","","","","","","1","0","0","0.432294219","","0.2","0.4","0.8","0.6","","","","","0.2552437171","0.3712986889","0.432294219","0.6346195819","","","","","","","","","","75","K","2","","","32","main_expt",""
"","bandit","112","345425","0.0-74.0-0.0","00129327","wem/bandit_party_2","A3A4EIML2KVC3D","either","6","183","","","","","","","0","0","1","0.4821309474","","0.2","0.4","0.8","0.6","","","","","0.2470382599","0.45096985","0.4821309474","0.7540961955","","","","","","","","","","75","K","2","","","33","main_expt",""
"","bandit","113","347198","0.0-75.0-0.0","00129327","wem/bandit_party_2","A3A4EIML2KVC3D","either","6","148","","","","","","","0","0","1","","0.5559331637","0.2","0.4","0.8","0.6","0.2951894024","0.5559331637","0.4702474349","0.699797925","","","","","","","","","","","","","","74","J","1","","","34","main_expt",""
"","bandit","114","348857","0.0-76.0-0.0","00129327","wem/bandit_party_2","A3A4EIML2KVC3D","either","6","106","","","","","","","0","0","1","","0.5363697359","0.2","0.4","0.8","0.6","0.2596626779","0.7354386419","0.5363697359","0.7410295452","","","","","","","","","","","","","","75","K","2","","","35","main_expt",""
"","bandit","115","350418","0.0-77.0-0.0","00129327","wem/bandit_party_2","A3A4EIML2KVC3D","either","6","12","","","","","","","0","0","1","","0.3164764808","0.2","0.4","0.8","0.6","0.3164764808","0.6934166837","0.602250539","0.7332281969","","","","","","","","","","","","","","72","H","0","img/none_selected.jpg","","36","main_expt",""
"","bandit","116","352461","0.0-78.0-0.0","00129327","wem/bandit_party_2","A3A4EIML2KVC3D","either","6","503","","","","","","","0","0","1","0.5337433964","","0.2","0.4","0.8","0.6","","","","","0.3672962009","0.6311869688","0.5337433964","0.736713329","","","","","","","","","","75","K","2","","","37","main_expt",""
"","bandit","117","354207","0.0-79.0-0.0","00129327","wem/bandit_party_2","A3A4EIML2KVC3D","either","6","96","","","","","","","1","0","0","0.5970413872","","0.2","0.4","0.8","0.6","","","","","0.4056598401","0.6583504975","0.5970413872","0.6860808007","","","","","","","","","","75","K","2","","","38","main_expt",""
"","bandit","118","355892","0.0-80.0-0.0","00129327","wem/bandit_party_2","A3A4EIML2KVC3D","either","6","143","","","","","","","0","1","0","","0.5861321806","0.2","0.4","0.8","0.6","0.4236995386","0.5861321806","0.6529448079","0.7498761973","","","","","","","","","","","","","","74","J","1","","","39","main_expt",""
"","bandit","119","357531","0.0-81.0-0.0","00129327","wem/bandit_party_2","A3A4EIML2KVC3D","either","6","106","","","","","","","0","1","0","","0.4365163158","0.2","0.4","0.8","0.6","0.4365163158","0.4892836735","0.6612991154","0.7043283504","","","","","","","","","","","","","","72","H","0","img/none_selected.jpg","","40","main_expt",""
"","bandit","120","359214","0.0-82.0-0.0","00129327","wem/bandit_party_2","A3A4EIML2KVC3D","either","6","130","","","","","","","0","0","1","","0.3479900608","0.2","0.4","0.8","0.6","0.4854269132","0.3479900608","0.7390431107","0.6469690382","","","","","","","","","","","","","","74","J","1","","","41","main_expt",""
"","bandit","121","361055","0.0-83.0-0.0","00129327","wem/bandit_party_2","A3A4EIML2KVC3D","either","6","290","","","","","","","1","0","0","0.7609423287","","0.2","0.4","0.8","0.6","","","","","0.4753587859","0.376709287","0.7609423287","0.6388905256","","","","","","","","","","75","K","2","","","42","main_expt",""
"","bandit","122","363037","0.0-84.0-0.0","00129327","wem/bandit_party_2","A3A4EIML2KVC3D","either","6","430","","","","","","","1","0","0","0.4319300722","","0.2","0.4","0.8","0.6","","","","","0.452202747","0.4319300722","0.8039673949","0.6383372244","","","","","","","","","","74","J","1","","","43","main_expt",""
"","bandit","123","364895","0.0-85.0-0.0","00129327","wem/bandit_party_2","A3A4EIML2KVC3D","either","6","304","","","","","","","1","0","0","0.8216753652","","0.2","0.4","0.8","0.6","","","","","0.5522191005","0.4458636389","0.8216753652","0.6247854939","","","","","","","","","","75","K","2","","","44","main_expt",""
"","bandit","124","366547","0.0-86.0-0.0","00129327","wem/bandit_party_2","A3A4EIML2KVC3D","either","6","115","","","","","","","1","0","0","0.7636866317","","0.2","0.4","0.8","0.6","","","","","0.4878962787","0.4323480181","0.7636866317","0.6341880498","","","","","","","","","","75","K","2","","","45","main_expt",""
"","bandit","125","368154","0.0-87.0-0.0","00129327","wem/bandit_party_2","A3A4EIML2KVC3D","either","6","58","","","","","","","0","0","1","0.8203755575","","0.2","0.4","0.8","0.6","","","","","0.487595293","0.4348202433","0.8203755575","0.5081310512","","","","","","","","","","75","K","2","","","46","main_expt",""
"","bandit","126","369753","0.0-88.0-0.0","00129327","wem/bandit_party_2","A3A4EIML2KVC3D","either","6","48","","","","","","","1","0","0","0.8706375764","","0.2","0.4","0.8","0.6","","","","","0.444754188","0.3430847618","0.8706375764","0.4202927251","","","","","","","","","","75","K","2","","","47","main_expt",""
"","bandit","127","371540","0.0-89.0-0.0","00129327","wem/bandit_party_2","A3A4EIML2KVC3D","either","6","242","","","","","","","1","0","0","0.8019506245","","0.2","0.4","0.8","0.6","","","","","0.5044276746","0.2601977795","0.8019506245","0.4767868938","","","","","","","","","","75","K","2","","","48","main_expt",""
"","bandit","128","373132","0.0-90.0-0.0","00129327","wem/bandit_party_2","A3A4EIML2KVC3D","either","6","39","","","","","","","1","0","0","0.7331224435","","0.2","0.4","0.8","0.6","","","","","0.3766714482","0.2368144698","0.7331224435","0.3749468019","","","","","","","","","","75","K","2","","","49","main_expt",""
"","bandit","129","374723","0.0-91.0-0.0","00129327","wem/bandit_party_2","A3A4EIML2KVC3D","either","6","42","","","","","","","1","0","0","0.7908344101","","0.2","0.4","0.8","0.6","","","","","0.406992786","0.2484527115","0.7908344101","0.3532902347","","","","","","","","","","75","K","2","","","50","main_expt",""
"","bandit","130","376599","0.0-92.0-0.0","00129327","wem/bandit_party_2","A3A4EIML2KVC3D","either","6","313","","","","","","","1","0","0","0.2413466802","","0.2","0.4","0.8","0.6","","","","","0.3854505747","0.230268934","0.7922828235","0.2413466802","","","","","","","","","","76","L","3","","","51","main_expt",""
"","bandit","131","378362","0.0-93.0-0.0","00129327","wem/bandit_party_2","A3A4EIML2KVC3D","either","6","210","","","","","","","0","0","1","0.2673723166","","0.2","0.4","0.8","0.6","","","","","0.3956915145","0.3429002399","0.7485378942","0.2673723166","","","","","","","","","","76","L","3","","","52","main_expt",""
"","bandit","132","380281","0.0-94.0-0.0","00129327","wem/bandit_party_2","A3A4EIML2KVC3D","either","6","383","","","","","","","0","0","1","","0.3062348001","0.2","0.4","0.8","0.6","0.3062348001","0.2871029552","0.6603794952","0.2806035608","","","","","","","","","","","","","","72","H","0","img/none_selected.jpg","","53","main_expt",""
"","bandit","133","381856","0.0-95.0-0.0","00129327","wem/bandit_party_2","A3A4EIML2KVC3D","either","6","36","","","","","","","0","0","1","0.6931449795","","0.2","0.4","0.8","0.6","","","","","0.2996500993","0.2594444468","0.6931449795","0.2544312064","","","","","","","","","","75","K","2","","","54","main_expt",""
"","bandit","134","383603","0.0-96.0-0.0","00129327","wem/bandit_party_2","A3A4EIML2KVC3D","either","6","197","","","","","","","0","0","1","0.3333749245","","0.2","0.4","0.8","0.6","","","","","0.2518247787","0.3333749245","0.7553272845","0.3362815808","","","","","","","","","","74","J","1","","","55","main_expt",""
"","bandit","135","385202","0.0-97.0-0.0","00129327","wem/bandit_party_2","A3A4EIML2KVC3D","either","6","45","","","","","","","0","0","1","","0.3014763065","0.2","0.4","0.8","0.6","0.3014763065","0.3049104067","0.7231548626","0.3798256012","","","","","","","","","","","","","","72","H","0","img/none_selected.jpg","","56","main_expt",""
"","bandit","136","386820","0.0-98.0-0.0","00129327","wem/bandit_party_2","A3A4EIML2KVC3D","either","6","19","","","","","","","0","0","1","","0.2730843718","0.2","0.4","0.8","0.6","0.2730843718","0.3623273811","0.7485901337","0.3989549393","","","","","","","","","","","","","","72","H","0","img/none_selected.jpg","","57","main_expt",""
"","bandit","137","388492","0.0-99.0-0.0","00129327","wem/bandit_party_2","A3A4EIML2KVC3D","either","6","123","","","","","","","0","0","1","","0.3621169042","0.2","0.4","0.8","0.6","0.367239041","0.3621169042","0.797082508","0.3373398956","","","","","","","","","","","","","","74","J","1","","","58","main_expt",""
"","bandit","138","390252","0.0-100.0-0.0","00129327","wem/bandit_party_2","A3A4EIML2KVC3D","either","6","145","","","","","","","0","0","1","","0.3672848169","0.2","0.4","0.8","0.6","0.4005220403","0.3672848169","0.7466963627","0.3381045731","","","","","","","","","","","","","","74","J","1","","","59","main_expt",""
"","bandit","139","392188","0.0-101.0-0.0","00129327","wem/bandit_party_2","A3A4EIML2KVC3D","either","6","204","","","","","","","0","0","1","0.5123874715","","0.2","0.4","0.8","0.6","","","","","0.4863912708","0.5123874715","0.6359615323","0.4838111383","","","","","","","","","","74","J","1","","","60","main_expt",""
"","bandit","140","394156","0.0-102.0-0.0","00129327","wem/bandit_party_2","A3A4EIML2KVC3D","either","6","396","","","","","","","0","0","1","","0.7125939799","0.2","0.4","0.8","0.6","0.5220595343","0.5218319631","0.7125939799","0.4290776342","","","","","","","","","","","","","","75","K","2","","","61","main_expt",""
"","bandit","141","395822","0.0-103.0-0.0","00129327","wem/bandit_party_2","A3A4EIML2KVC3D","either","6","78","","","","","","","1","0","0","0.5978650666","","0.2","0.4","0.8","0.6","","","","","0.5447889898","0.6482151027","0.5978650666","0.4387439774","","","","","","","","","","75","K","2","","","62","main_expt",""
"","bandit","142","397443","0.0-104.0-0.0","00129327","wem/bandit_party_2","A3A4EIML2KVC3D","either","6","51","","","","","","","1","0","0","0.5166338879","","0.2","0.4","0.8","0.6","","","","","0.5517390004","0.6966290852","0.5166338879","0.3670418014","","","","","","","","","","75","K","2","","","63","main_expt",""
"","bandit","143","399221","0.0-105.0-0.0","00129327","wem/bandit_party_2","A3A4EIML2KVC3D","either","6","223","","","","","","","0","0","1","","0.6576188384","0.2","0.4","0.8","0.6","0.6576188384","0.6497033777","0.4901650138","0.3470393933","","","","","","","","","","","","","","72","H","0","img/none_selected.jpg","","64","main_expt",""
"","bandit","144","401219","0.0-106.0-0.0","00129327","wem/bandit_party_2","A3A4EIML2KVC3D","either","6","376","","","","","","","0","0","1","0.459365688","","0.2","0.4","0.8","0.6","","","","","0.5156176703","0.6925184903","0.459365688","0.3361574661","","","","","","","","","","75","K","2","","","65","main_expt",""
"","bandit","145","402827","0.0-107.0-0.0","00129327","wem/bandit_party_2","A3A4EIML2KVC3D","either","6","10","","","","","","","0","0","1","0.4666104807","","0.2","0.4","0.8","0.6","","","","","0.3851410914","0.8298767513","0.4666104807","0.34308242","","","","","","","","","","75","K","2","","","66","main_expt",""
"","bandit","146","404479","0.0-108.0-0.0","00129327","wem/bandit_party_2","A3A4EIML2KVC3D","either","6","83","","","","","","","0","1","0","","0.3730603492","0.2","0.4","0.8","0.6","0.3925250542","0.8506596021","0.5547259005","0.3730603492","","","","","","","","","","","","","","76","L","3","","","67","main_expt",""
"","bandit","147","406352","0.0-109.0-0.0","00129327","wem/bandit_party_2","A3A4EIML2KVC3D","either","6","315","","","","","","","0","0","1","0.6038719492","","0.2","0.4","0.8","0.6","","","","","0.3884113518","0.8536910832","0.6038719492","0.4089949532","","","","","","","","","","75","K","2","","","68","main_expt",""
"","bandit","148","408207","0.0-110.0-0.0","00129327","wem/bandit_party_2","A3A4EIML2KVC3D","either","6","296","","","","","","","1","0","0","0.6148283845","","0.2","0.4","0.8","0.6","","","","","0.3434478979","0.8642538991","0.6148283845","0.3749002533","","","","","","","","","","75","K","2","","","69","main_expt",""
"","bandit","149","410127","0.0-111.0-0.0","00129327","wem/bandit_party_2","A3A4EIML2KVC3D","either","6","365","","","","","","","0","1","0","","0.4426642051","0.2","0.4","0.8","0.6","0.4426642051","0.8073802352","0.6683283761","0.4133869845","","","","","","","","","","","","","","72","H","0","img/none_selected.jpg","","70","main_expt",""
"","bandit","150","411795","0.0-112.0-0.0","00129327","wem/bandit_party_2","A3A4EIML2KVC3D","either","6","114","","","","","","","0","1","0","","0.8059201048","0.2","0.4","0.8","0.6","0.4518046004","0.8059201048","0.738459761","0.3302164541","","","","","","","","","","","","","","74","J","1","","","71","main_expt",""
"","bandit","151","413605","0.0-113.0-0.0","00129327","wem/bandit_party_2","A3A4EIML2KVC3D","either","6","255","","","","","","","0","0","1","0.8262275011","","0.2","0.4","0.8","0.6","","","","","0.4903223245","0.8262275011","0.6525166508","0.2570952275","","","","","","","","","","74","J","1","","","72","main_expt",""
"","bandit","152","415352","0.0-114.0-0.0","00129327","wem/bandit_party_2","A3A4EIML2KVC3D","either","6","167","","","","","","","0","0","1","0.5715134512","","0.2","0.4","0.8","0.6","","","","","0.5296083002","0.7334390718","0.5715134512","0.2042885023","","","","","","","","","","75","K","2","","","73","main_expt",""
"","bandit","153","417223","0.0-115.0-0.0","00129327","wem/bandit_party_2","A3A4EIML2KVC3D","either","6","328","","","","","","","1","0","0","0.6228045854","","0.2","0.4","0.8","0.6","","","","","0.4883026933","0.7490977197","0.6228045854","0.2152837516","","","","","","","","","","75","K","2","","","74","main_expt",""
"","bandit","154","419097","0.0-116.0-0.0","00129327","wem/bandit_party_2","A3A4EIML2KVC3D","either","6","330","","","","","","","0","0","1","0.2044775694","","0.2","0.4","0.8","0.6","","","","","0.4914171484","0.7554087461","0.613630376","0.2044775694","","","","","","","","","","76","L","3","","","75","main_expt",""
"","bandit","155","420672","0.0-117.0-0.0","00129327","wem/bandit_party_2","A3A4EIML2KVC3D","either","6","19","","","","","","","0","1","0","","0.804443878","0.2","0.4","0.8","0.6","0.6059218973","0.804443878","0.7047266053","0.2247613499","","","","","","","","","","","","","","74","J","1","","","76","main_expt",""
"","bandit","156","422232","0.0-118.0-0.0","00129327","wem/bandit_party_2","A3A4EIML2KVC3D","either","6","7","","","","","","","1","0","0","0.6910360943","","0.2","0.4","0.8","0.6","","","","","0.553792366","0.6656620098","0.6910360943","0.2266335256","","","","","","","","","","75","K","2","","","77","main_expt",""
"","bandit","157","423917","0.0-119.0-0.0","00129327","wem/bandit_party_2","A3A4EIML2KVC3D","either","6","135","","","","","","","0","1","0","","0.6884193839","0.2","0.4","0.8","0.6","0.6884193839","0.5898140708","0.5515992215","0.1659731505","","","","","","","","","","","","","","72","H","0","img/none_selected.jpg","","78","main_expt",""
"","bandit","158","425727","0.0-120.0-0.0","00129327","wem/bandit_party_2","A3A4EIML2KVC3D","either","6","256","","","","","","","0","0","1","0.2343921172","","0.2","0.4","0.8","0.6","","","","","0.7214277645","0.613215191","0.6448399581","0.2343921172","","","","","","","","","","76","L","3","","","79","main_expt",""
"","bandit","159","427349","0.0-121.0-0.0","00129327","wem/bandit_party_2","A3A4EIML2KVC3D","either","6","61","","","","","","","0","1","0","","0.7328142644","0.2","0.4","0.8","0.6","0.7328142644","0.4605925783","0.739479497","0.2164054515","","","","","","","","","","","","","","72","H","0","img/none_selected.jpg","","80","main_expt",""
"","bandit","160","429097","0.0-122.0-0.0","00129327","wem/bandit_party_2","A3A4EIML2KVC3D","either","6","196","","","","","","","0","0","1","","0.7101675561","0.2","0.4","0.8","0.6","0.7101675561","0.5390789087","0.6956071838","0.1361232007","","","","","","","","","","","","","","72","H","0","img/none_selected.jpg","","81","main_expt",""
"","bandit","161","430875","0.0-123.0-0.0","00129327","wem/bandit_party_2","A3A4EIML2KVC3D","either","6","226","","","","","","","1","0","0","0.5886517937","","0.2","0.4","0.8","0.6","","","","","0.6984384541","0.621290364","0.5886517937","0.2275447725","","","","","","","","","","75","K","2","","","82","main_expt",""
"","bandit","162","432607","0.0-124.0-0.0","00129327","wem/bandit_party_2","A3A4EIML2KVC3D","either","6","199","","","","","","","0","1","0","","0.4764182235","0.2","0.4","0.8","0.6","0.7447883659","0.6359424421","0.4764182235","0.1900607051","","","","","","","","","","","","","","75","K","2","","","83","main_expt",""
"","bandit","163","434467","0.0-125.0-0.0","00129327","wem/bandit_party_2","A3A4EIML2KVC3D","either","6","128","","","","","","","0","0","1","0.5149027494","","0.2","0.4","0.8","0.6","","","","","0.6900592863","0.6133664729","0.5149027494","0.1306868958","","","","","","","","","","75","K","2","","","84","main_expt",""
"","bandit","164","436261","0.0-126.0-0.0","00129327","wem/bandit_party_2","A3A4EIML2KVC3D","either","6","244","","","","","","","1","0","0","0.4908067213","","0.2","0.4","0.8","0.6","","","","","0.7010597455","0.7815463305","0.4908067213","0.1683201849","","","","","","","","","","75","K","2","","","85","main_expt",""
"","bandit","165","437887","0.0-127.0-0.0","00129327","wem/bandit_party_2","A3A4EIML2KVC3D","either","6","52","","","","","","","1","0","0","0.4139472458","","0.2","0.4","0.8","0.6","","","","","0.6171062652","0.7355789231","0.4139472458","0.1290314955","","","","","","","","","","75","K","2","","","86","main_expt",""
"","bandit","166","439621","0.0-128.0-0.0","00129327","wem/bandit_party_2","A3A4EIML2KVC3D","either","6","168","","","","","","","0","1","0","","0.5629375242","0.2","0.4","0.8","0.6","0.5629375242","0.7267399876","0.4253818619","0.2297537383","","","","","","","","","","","","","","72","H","0","img/none_selected.jpg","","87","main_expt",""
"","bandit","167","441304","0.0-129.0-0.0","00129327","wem/bandit_party_2","A3A4EIML2KVC3D","either","6","97","","","","","","","0","1","0","","0.4448862761","0.2","0.4","0.8","0.6","0.6434443074","0.7703195612","0.4448862761","0.1878263516","","","","","","","","","","","","","","75","K","2","","","88","main_expt",""
"","bandit","168","442907","0.0-130.0-0.0","00129327","wem/bandit_party_2","A3A4EIML2KVC3D","either","6","28","","","","","","","0","1","0","","0.81872988","0.2","0.4","0.8","0.6","0.7296698787","0.81872988","0.4295642349","0.1896964823","","","","","","","","","","","","","","74","J","1","","","89","main_expt",""
"","bandit","169","444577","0.0-131.0-0.0","00129327","wem/bandit_party_2","A3A4EIML2KVC3D","either","6","108","","","","","","","0","1","0","","0.1614970172","0.2","0.4","0.8","0.6","0.7042864347","0.8032570632","0.3655203192","0.1614970172","","","","","","","","","","","","","","76","L","3","","","90","main_expt",""
"","bandit","170","446251","0.0-132.0-0.0","00129327","wem/bandit_party_2","A3A4EIML2KVC3D","either","6","113","","","","","","","0","0","1","0.402428746","","0.2","0.4","0.8","0.6","","","","","0.7606559624","0.8257352781","0.402428746","0.2107705911","","","","","","","","","","75","K","2","","","91","main_expt",""
"","bandit","171","447855","0.0-133.0-0.0","00129327","wem/bandit_party_2","A3A4EIML2KVC3D","either","6","10","","","","","","","0","0","1","0.452733603","","0.2","0.4","0.8","0.6","","","","","0.8466818248","0.7762210657","0.452733603","0.1317951273","","","","","","","","","","75","K","2","","","92","main_expt",""
"","bandit","172","449522","0.0-134.0-0.0","00129327","wem/bandit_party_2","A3A4EIML2KVC3D","either","6","96","","","","","","","0","0","1","","0.5416456901","0.2","0.4","0.8","0.6","0.8181600593","0.8293629201","0.5416456901","0.09268613222","","","","","","","","","","","","","","75","K","2","","","93","main_expt",""
"","bandit","173","451270","0.0-135.0-0.0","00129327","wem/bandit_party_2","A3A4EIML2KVC3D","either","6","182","","","","","","","0","0","1","0.5246039132","","0.2","0.4","0.8","0.6","","","","","0.7259749053","0.7849393417","0.5246039132","0.06418168538","","","","","","","","","","75","K","2","","","94","main_expt",""
"","bandit","174","453052","0.0-136.0-0.0","00129327","wem/bandit_party_2","A3A4EIML2KVC3D","either","6","216","","","","","","","1","0","0","0.606801291","","0.2","0.4","0.8","0.6","","","","","0.6538641892","0.7850226125","0.606801291","0.100072779","","","","","","","","","","75","K","2","","","95","main_expt",""
"","bandit","175","454877","0.0-137.0-0.0","00129327","wem/bandit_party_2","A3A4EIML2KVC3D","either","6","236","","","","","","","1","0","0","0.7175242067","","0.2","0.4","0.8","0.6","","","","","0.6384360591","0.8013150942","0.7175242067","0.09628221604","","","","","","","","","","75","K","2","","","96","main_expt",""
"","bandit","176","456888","0.0-138.0-0.0","00129327","wem/bandit_party_2","A3A4EIML2KVC3D","either","6","426","","","","","","","1","0","0","0.7706560561","","0.2","0.4","0.8","0.6","","","","","0.6836118029","0.70340399","0.7706560561","0.1335622201","","","","","","","","","","75","K","2","","","97","main_expt",""
"","bandit","177","458555","0.0-139.0-0.0","00129327","wem/bandit_party_2","A3A4EIML2KVC3D","either","6","121","","","","","","","1","0","0","0.7234704616","","0.2","0.4","0.8","0.6","","","","","0.659457158","0.7562517051","0.7234704616","0.167202632","","","","","","","","","","75","K","2","","","98","main_expt",""
"","bandit","178","460571","0.0-140.0-0.0","00129327","wem/bandit_party_2","A3A4EIML2KVC3D","either","6","388","","","","","","","1","0","0","0.6582042781","","0.2","0.4","0.8","0.6","","","","","0.7726162223","0.6514659141","0.6582042781","0.1216125457","","","","","","","","","","75","K","2","","","99","main_expt",""
"","bandit","179","462377","0.0-141.0-0.0","00129327","wem/bandit_party_2","A3A4EIML2KVC3D","either","6","257","","","","","","","0","1","0","","0.6530973887","0.2","0.4","0.8","0.6","0.8446518706","0.7112237606","0.6530973887","0.1163239148","","","","","","","","","","","","","","75","K","2","","","100","main_expt",""
"","bandit","180","463939","0.0-142.0-0.0","00129327","wem/bandit_party_2","A3A4EIML2KVC3D","either","6","17","","","","","","","0","0","1","0.1037928869","","0.2","0.4","0.8","0.6","","","","","0.8784151442","0.6865981462","0.6690961394","0.1037928869","","","","","","","","","","76","L","3","","","101","main_expt",""
"","bandit","181","465653","0.0-143.0-0.0","00129327","wem/bandit_party_2","A3A4EIML2KVC3D","either","6","181","","","","","","","0","0","1","","0.8781202538","0.2","0.4","0.8","0.6","0.8781202538","0.6663704066","0.6268844929","0.0991068806","","","","","","","","","","","","","","72","H","0","img/none_selected.jpg","","102","main_expt",""
"","bandit","182","467214","0.0-144.0-0.0","00129327","wem/bandit_party_2","A3A4EIML2KVC3D","either","6","7","","","","","","","0","1","0","","0.8123732176","0.2","0.4","0.8","0.6","0.8123732176","0.6006744832","0.6657789595","0.1226752409","","","","","","","","","","","","","","72","H","0","img/none_selected.jpg","","103","main_expt",""
"","bandit","183","468773","0.0-145.0-0.0","00129327","wem/bandit_party_2","A3A4EIML2KVC3D","either","6","7","","","","","","","1","0","0","0.8461937008","","0.2","0.4","0.8","0.6","","","","","0.8461937008","0.518723913","0.6951589836","0.1552466415","","","","","","","","","","72","H","0","img/none_selected.jpg","","104","main_expt",""
"","bandit","184","470724","0.0-146.0-0.0","00129327","wem/bandit_party_2","A3A4EIML2KVC3D","either","6","417","","","","","","","0","1","0","","0.8664825842","0.2","0.4","0.8","0.6","0.8664825842","0.5343999165","0.6382729445","0.1702138509","","","","","","","","","","","","","","72","H","0","img/none_selected.jpg","","105","main_expt",""
"","bandit","185","472424","0.0-147.0-0.0","00129327","wem/bandit_party_2","A3A4EIML2KVC3D","either","6","154","","","","","","","1","0","0","0.7139624249","","0.2","0.4","0.8","0.6","","","","","0.8703997655","0.4959998489","0.7139624249","0.2021425125","","","","","","","","","","75","K","2","","","106","main_expt",""
"","bandit","186","474186","0.0-148.0-0.0","00129327","wem/bandit_party_2","A3A4EIML2KVC3D","either","6","202","","","","","","","1","0","0","0.7718136471","","0.2","0.4","0.8","0.6","","","","","0.8964314806","0.5052663648","0.7718136471","0.2196373816","","","","","","","","","","75","K","2","","","107","main_expt",""
"","bandit","187","475951","0.0-149.0-0.0","00129327","wem/bandit_party_2","A3A4EIML2KVC3D","either","6","216","","","","","","","0","1","0","","0.8818715302","0.2","0.4","0.8","0.6","0.9080126319","0.4859582203","0.8818715302","0.2393661099","","","","","","","","","","","","","","75","K","2","","","108","main_expt",""
"","bandit","188","477557","0.0-150.0-0.0","00129327","wem/bandit_party_2","A3A4EIML2KVC3D","either","6","57","","","","","","","0","1","0","","0.523617738","0.2","0.4","0.8","0.6","0.8880845243","0.523617738","0.8757741924","0.2516352594","","","","","","","","","","","","","","74","J","1","","","109","main_expt",""
"","bandit","189","479180","0.0-151.0-0.0","00129327","wem/bandit_party_2","A3A4EIML2KVC3D","either","6","63","","","","","","","1","0","0","0.8657151097","","0.2","0.4","0.8","0.6","","","","","0.899251136","0.5492010791","0.8657151097","0.2424291788","","","","","","","","","","75","K","2","","","110","main_expt",""
"","bandit","190","480771","0.0-152.0-0.0","00129327","wem/bandit_party_2","A3A4EIML2KVC3D","either","6","25","","","","","","","1","0","0","0.8457624762","","0.2","0.4","0.8","0.6","","","","","0.9019514556","0.5467154696","0.8457624762","0.2033086481","","","","","","","","","","75","K","2","","","111","main_expt",""
"","bandit","191","482497","0.0-153.0-0.0","00129327","wem/bandit_party_2","A3A4EIML2KVC3D","either","6","152","","","","","","","1","0","0","0.8756116827","","0.2","0.4","0.8","0.6","","","","","0.9315537639","0.5396215981","0.8756116827","0.208613213","","","","","","","","","","75","K","2","","","112","main_expt",""
"","bandit","192","484097","0.0-154.0-0.0","00129327","wem/bandit_party_2","A3A4EIML2KVC3D","either","6","50","","","","","","","0","1","0","","0.8773181328","0.2","0.4","0.8","0.6","0.9254394702","0.5542875214","0.8773181328","0.2743958833","","","","","","","","","","","","","","75","K","2","","","113","main_expt",""
"","bandit","193","485950","0.0-155.0-0.0","00129327","wem/bandit_party_2","A3A4EIML2KVC3D","either","6","301","","","","","","","0","1","0","","0.6411428718","0.2","0.4","0.8","0.6","0.9394904604","0.6411428718","0.8842236373","0.2657329006","","","","","","","","","","","","","","74","J","1","","","114","main_expt",""
"","bandit","194","487541","0.0-156.0-0.0","00129327","wem/bandit_party_2","A3A4EIML2KVC3D","either","6","31","","","","","","","0","1","0","","0.8499121835","0.2","0.4","0.8","0.6","0.9533355239","0.7261400339","0.8499121835","0.3234316928","","","","","","","","","","","","","","75","K","2","","","115","main_expt",""
"","bandit","195","489342","0.0-157.0-0.0","00129327","wem/bandit_party_2","A3A4EIML2KVC3D","either","6","232","","","","","","","1","0","0","0.7890056153","","0.2","0.4","0.8","0.6","","","","","0.960842596","0.7395407697","0.7890056153","0.3625587123","","","","","","","","","","75","K","2","","","116","main_expt",""
"","bandit","196","491052","0.0-158.0-0.0","00129327","wem/bandit_party_2","A3A4EIML2KVC3D","either","6","162","","","","","","","1","0","0","0.7709890197","","0.2","0.4","0.8","0.6","","","","","0.937733065","0.8231731708","0.7709890197","0.4946904956","","","","","","","","","","75","K","2","","","117","main_expt",""
"","bandit","197","492665","0.0-159.0-0.0","00129327","wem/bandit_party_2","A3A4EIML2KVC3D","either","6","20","","","","","","","0","1","0","","0.7459937787","0.2","0.4","0.8","0.6","0.9561499645","0.8278750807","0.7459937787","0.6246330079","","","","","","","","","","","","","","75","K","2","","","118","main_expt",""
"","bandit","198","494550","0.0-160.0-0.0","00129327","wem/bandit_party_2","A3A4EIML2KVC3D","either","6","299","","","","","","","0","1","0","","0.9595118281","0.2","0.4","0.8","0.6","0.9595118281","0.8715827524","0.716881491","0.5818097722","","","","","","","","","","","","","","72","H","0","img/none_selected.jpg","","119","main_expt",""
"","bandit","199","496283","0.0-161.0-0.0","00129327","wem/bandit_party_2","A3A4EIML2KVC3D","either","6","167","","","","","","","0","1","0","","0.9548463758","0.2","0.4","0.8","0.6","0.9548463758","0.8522670476","0.6595649419","0.5990025551","","","","","","","","","","","","","","72","H","0","img/none_selected.jpg","","120","main_expt",""
"","bandit","200","497984","0.0-162.0-0.0","00129327","wem/bandit_party_2","A3A4EIML2KVC3D","either","6","144","","","","","","","1","0","0","0.6576447048","","0.2","0.4","0.8","0.6","","","","","0.958085665","0.8266542562","0.6576447048","0.6534424477","","","","","","","","","","75","K","2","","","121","main_expt",""
"","bandit","201","499863","0.0-163.0-0.0","00129327","wem/bandit_party_2","A3A4EIML2KVC3D","either","6","306","","","","","","","0","1","0","","0.6391957719","0.2","0.4","0.8","0.6","0.9630601427","0.81688531","0.6391957719","0.5952731017","","","","","","","","","","","","","","75","K","2","","","122","main_expt",""
"","bandit","202","501667","0.0-164.0-0.0","00129327","wem/bandit_party_2","A3A4EIML2KVC3D","either","6","215","","","","","","","0","1","0","","0.9790283764","0.2","0.4","0.8","0.6","0.9790283764","0.8307363081","0.5873908865","0.6469086187","","","","","","","","","","","","","","72","H","0","img/none_selected.jpg","","123","main_expt",""
"","bandit","203","503272","0.0-165.0-0.0","00129327","wem/bandit_party_2","A3A4EIML2KVC3D","either","6","29","","","","","","","1","0","0","0.6943824695","","0.2","0.4","0.8","0.6","","","","","0.9718765302","0.6943824695","0.6592760984","0.6911454426","","","","","","","","","","74","J","1","","","124","main_expt",""
"","bandit","204","505051","0.0-166.0-0.0","00129327","wem/bandit_party_2","A3A4EIML2KVC3D","either","6","218","","","","","","","0","0","1","0.6012083746","","0.2","0.4","0.8","0.6","","","","","0.9845173964","0.7137568944","0.6012083746","0.750572215","","","","","","","","","","75","K","2","","","125","main_expt",""
"","bandit","205","506610","0.0-167.0-0.0","00129327","wem/bandit_party_2","A3A4EIML2KVC3D","either","6","8","","","","","","","0","1","0","","0.9804670004","0.2","0.4","0.8","0.6","0.9804670004","0.6878742658","0.6043440275","0.8108432581","","","","","","","","","","","","","","72","H","0","img/none_selected.jpg","","126","main_expt",""
"","bandit","206","508249","0.0-168.0-0.0","00129327","wem/bandit_party_2","A3A4EIML2KVC3D","either","6","88","","","","","","","0","1","0","","0.9792667249","0.2","0.4","0.8","0.6","0.9792667249","0.6175454059","0.5043142332","0.8338196277","","","","","","","","","","","","","","72","H","0","img/none_selected.jpg","","127","main_expt",""
"","bandit","207","509818","0.0-169.0-0.0","00129327","wem/bandit_party_2","A3A4EIML2KVC3D","either","6","10","","","","","","","0","1","0","","0.5556505876","0.2","0.4","0.8","0.6","0.9853815399","0.5556505876","0.5778209799","0.8624128669","","","","","","","","","","","","","","74","J","1","","","128","main_expt",""
"","bandit","208","511649","0.0-170.0-0.0","00129327","wem/bandit_party_2","A3A4EIML2KVC3D","either","6","292","","","","","","","1","0","0","0.5806273004","","0.2","0.4","0.8","0.6","","","","","0.9838319732","0.5948532478","0.5806273004","0.9026068167","","","","","","","","","","75","K","2","","","129","main_expt",""
"","bandit","209","513318","0.0-171.0-0.0","00129327","wem/bandit_party_2","A3A4EIML2KVC3D","either","6","120","","","","","","","1","0","0","0.4152233618","","0.2","0.4","0.8","0.6","","","","","0.9798768453","0.6646968067","0.4152233618","0.8983636673","","","","","","","","","","75","K","2","","","130","main_expt",""
"","bandit","210","515237","0.0-172.0-0.0","00129327","wem/bandit_party_2","A3A4EIML2KVC3D","either","6","381","","","","","","","1","0","0","0.4527057242","","0.2","0.4","0.8","0.6","","","","","0.9628017066","0.6676177377","0.4527057242","0.888478962","","","","","","","","","","75","K","2","","","131","main_expt",""
"","bandit","211","517080","0.0-173.0-0.0","00129327","wem/bandit_party_2","A3A4EIML2KVC3D","either","6","289","","","","","","","0","0","1","0.5185753891","","0.2","0.4","0.8","0.6","","","","","0.9723970119","0.7638630926","0.5185753891","0.8470567254","","","","","","","","","","75","K","2","","","132","main_expt",""
"","bandit","212","518801","0.0-174.0-0.0","00129327","wem/bandit_party_2","A3A4EIML2KVC3D","either","6","163","","","","","","","1","0","0","0.4567386081","","0.2","0.4","0.8","0.6","","","","","0.9754432393","0.726350598","0.4567386081","0.8852081265","","","","","","","","","","75","K","2","","","133","main_expt",""
"","bandit","213","520777","0.0-175.0-0.0","00129327","wem/bandit_party_2","A3A4EIML2KVC3D","either","6","382","","","","","","","0","0","1","","0.9635376407","0.2","0.4","0.8","0.6","0.9635376407","0.7638059904","0.4494056808","0.8317422298","","","","","","","","","","","","","","72","H","0","img/none_selected.jpg","","134","main_expt",""
"","bandit","214","522368","0.0-176.0-0.0","00129327","wem/bandit_party_2","A3A4EIML2KVC3D","either","6","3","","","","","","","1","0","0","0.4608562393","","0.2","0.4","0.8","0.6","","","","","0.9304273523","0.7337835984","0.4608562393","0.8121858422","","","","","","","","","","75","K","2","","","135","main_expt",""
"","bandit","215","524053","0.0-177.0-0.0","00129327","wem/bandit_party_2","A3A4EIML2KVC3D","either","6","125","","","","","","","1","0","0","0.6684020244","","0.2","0.4","0.8","0.6","","","","","0.9295592062","0.7869055623","0.6684020244","0.8473276522","","","","","","","","","","75","K","2","","","136","main_expt",""
"","bandit","216","526050","0.0-178.0-0.0","00129327","wem/bandit_party_2","A3A4EIML2KVC3D","either","6","445","","","","","","","0","0","1","0.614137061","","0.2","0.4","0.8","0.6","","","","","0.9343332129","0.8033651193","0.614137061","0.8251243182","","","","","","","","","","75","K","2","","","137","main_expt",""
"","bandit","217","527798","0.0-179.0-0.0","00129327","wem/bandit_party_2","A3A4EIML2KVC3D","either","6","200","","","","","","","1","0","0","0.711021659","","0.2","0.4","0.8","0.6","","","","","0.9325781127","0.7620089345","0.711021659","0.7892590299","","","","","","","","","","75","K","2","","","138","main_expt",""
"","bandit","218","529607","0.0-180.0-0.0","00129327","wem/bandit_party_2","A3A4EIML2KVC3D","either","6","152","","","","","","","1","0","0","0.5731932267","","0.2","0.4","0.8","0.6","","","","","0.9687763229","0.8098853196","0.5731932267","0.753698647","","","","","","","","","","75","K","2","","","139","main_expt",""
"","bandit","219","531197","0.0-181.0-0.0","00129327","wem/bandit_party_2","A3A4EIML2KVC3D","either","6","39","","","","","","","0","0","1","0.6553783698","","0.2","0.4","0.8","0.6","","","","","0.9520204639","0.8737133651","0.6553783698","0.7281837229","","","","","","","","","","75","K","2","","","140","main_expt",""
"","bandit","220","532991","0.0-182.0-0.0","00129327","wem/bandit_party_2","A3A4EIML2KVC3D","either","6","250","","","","","","","0","1","0","","0.9615613541","0.2","0.4","0.8","0.6","0.9615613541","0.8464817719","0.5665224918","0.7913145473","","","","","","","","","","","","","","72","H","0","img/none_selected.jpg","","141","main_expt",""
"","bandit","221","534600","0.0-183.0-0.0","00129327","wem/bandit_party_2","A3A4EIML2KVC3D","either","6","58","","","","","","","1","0","0","0.5230460729","","0.2","0.4","0.8","0.6","","","","","0.9438722422","0.8457688645","0.5230460729","0.7498898283","","","","","","","","","","75","K","2","","","142","main_expt",""
"","bandit","222","536347","0.0-184.0-0.0","00129327","wem/bandit_party_2","A3A4EIML2KVC3D","either","6","189","","","","","","","0","0","1","0.5401897842","","0.2","0.4","0.8","0.6","","","","","0.9419241064","0.8801682128","0.5401897842","0.723110339","","","","","","","","","","75","K","2","","","143","main_expt",""
"","bandit","223","537905","0.0-185.0-0.0","00129327","wem/bandit_party_2","A3A4EIML2KVC3D","either","6","7","","","","","","","0","0","1","0.5495292383","","0.2","0.4","0.8","0.6","","","","","0.9383966058","0.7806105972","0.5495292383","0.7697142539","","","","","","","","","","75","K","2","","","144","main_expt",""
"","bandit","224","539596","0.0-186.0-0.0","00129327","wem/bandit_party_2","A3A4EIML2KVC3D","either","6","136","","","","","","","1","0","0","0.4718854897","","0.2","0.4","0.8","0.6","","","","","0.9442204223","0.7384744451","0.4718854897","0.8279494337","","","","","","","","","","75","K","2","","","145","main_expt",""
"","bandit","225","541419","0.0-187.0-0.0","00129327","wem/bandit_party_2","A3A4EIML2KVC3D","either","6","39","","","","","","","1","0","0","0.3790577705","","0.2","0.4","0.8","0.6","","","","","0.9461270134","0.7078417075","0.3790577705","0.747104877","","","","","","","","","","75","K","2","","","146","main_expt",""
"","bandit","226","543148","0.0-188.0-0.0","00129327","wem/bandit_party_2","A3A4EIML2KVC3D","either","6","148","","","","","","","0","0","1","0.3671333747","","0.2","0.4","0.8","0.6","","","","","0.9677113618","0.7671729372","0.3671333747","0.7635883185","","","","","","","","","","75","K","2","","","147","main_expt",""
"","bandit","227","545162","0.0-189.0-0.0","00129327","wem/bandit_party_2","A3A4EIML2KVC3D","either","6","458","","","","","","","0","0","1","0.4462771912","","0.2","0.4","0.8","0.6","","","","","0.9603287673","0.7515071201","0.4462771912","0.6650729927","","","","","","","","","","75","K","2","","","148","main_expt",""
"","bandit","228","546756","0.0-190.0-0.0","00129327","wem/bandit_party_2","A3A4EIML2KVC3D","either","6","29","","","","","","","0","1","0","","0.9256305183","0.2","0.4","0.8","0.6","0.9256305183","0.7582160768","0.3929125452","0.594527628","","","","","","","","","","","","","","72","H","0","img/none_selected.jpg","","149","main_expt",""
"","bandit","229","548486","0.0-191.0-0.0","00129327","wem/bandit_party_2","A3A4EIML2KVC3D","either","6","148","","","","","","","0","0","1","0.3825194633","","0.2","0.4","0.8","0.6","","","","","0.9222609783","0.6843302658","0.3825194633","0.5101412162","","","","","","","","","","75","K","2","","","150","main_expt",""
"","bandit","230","550278","0.0-192.0-0.0","00129327","wem/bandit_party_2","A3A4EIML2KVC3D","either","6","220","","","","","","","0","0","1","0.3889652011","","0.2","0.4","0.8","0.6","","","","","0.9522131909","0.4980827124","0.3889652011","0.5755011036","","","","","","","","","","75","K","2","","","151","main_expt",""
"","bandit","231","551837","0.0-193.0-0.0","00129327","wem/bandit_party_2","A3A4EIML2KVC3D","either","6","14","","","","","","","0","1","0","","0.372169082","0.2","0.4","0.8","0.6","0.9351777179","0.5418861514","0.372169082","0.5415628766","","","","","","","","","","","","","","75","K","2","","","152","main_expt",""
"","bandit","232","553557","0.0-194.0-0.0","00129327","wem/bandit_party_2","A3A4EIML2KVC3D","either","6","167","","","","","","","0","1","0","","0.9526549669","0.2","0.4","0.8","0.6","0.9526549669","0.6424708626","0.4275919172","0.6392888902","","","","","","","","","","","","","","72","H","0","img/none_selected.jpg","","153","main_expt",""
"","bandit","233","555431","0.0-195.0-0.0","00129327","wem/bandit_party_2","A3A4EIML2KVC3D","either","6","286","","","","","","","0","1","0","","0.3978897223","0.2","0.4","0.8","0.6","0.944677936","0.6200403258","0.3978897223","0.6798835142","","","","","","","","","","","","","","75","K","2","","","154","main_expt",""
"","bandit","234","557269","0.0-196.0-0.0","00129327","wem/bandit_party_2","A3A4EIML2KVC3D","either","6","218","","","","","","","0","1","0","","0.4922143253","0.2","0.4","0.8","0.6","0.9443948233","0.5087788092","0.4922143253","0.7376683638","","","","","","","","","","","","","","75","K","2","","","155","main_expt",""
"","bandit","235","559345","0.0-197.0-0.0","00129327","wem/bandit_party_2","A3A4EIML2KVC3D","either","6","318","","","","","","","0","0","1","0.5060601407","","0.2","0.4","0.8","0.6","","","","","0.9312029685","0.4397360723","0.5060601407","0.7740838489","","","","","","","","","","75","K","2","","","156","main_expt",""
"","bandit","236","561004","0.0-198.0-0.0","00129327","wem/bandit_party_2","A3A4EIML2KVC3D","either","6","86","","","","","","","0","0","1","","0.4529934193","0.2","0.4","0.8","0.6","0.9009413449","0.4529934193","0.56460533","0.7526352547","","","","","","","","","","","","","","74","J","1","","","157","main_expt",""
"","bandit","237","562684","0.0-199.0-0.0","00129327","wem/bandit_party_2","A3A4EIML2KVC3D","either","6","38","","","","","","","0","1","0","","0.522014142","0.2","0.4","0.8","0.6","0.8799225656","0.522014142","0.5551408743","0.807066173","","","","","","","","","","","","","","74","J","1","","","158","main_expt",""
"","bandit","238","564274","0.0-200.0-0.0","00129327","wem/bandit_party_2","A3A4EIML2KVC3D","either","6","10","","","","","","","1","0","0","0.6362487126","","0.2","0.4","0.8","0.6","","","","","0.9103166083","0.447178695","0.6362487126","0.8348587906","","","","","","","","","","75","K","2","","","159","main_expt",""
"","bandit","239","565918","0.0-201.0-0.0","00129327","wem/bandit_party_2","A3A4EIML2KVC3D","either","6","79","","","","","","","0","0","1","0.5818198138","","0.2","0.4","0.8","0.6","","","","","0.9575168601","0.4293784973","0.5818198138","0.8054329593","","","","","","","","","","75","K","2","","","160","main_expt",""
"","bandit","240","567487","0.0-202.0-0.0","00129327","wem/bandit_party_2","A3A4EIML2KVC3D","either","6","8","","","","","","","0","0","1","0.5079421761","","0.2","0.4","0.8","0.6","","","","","0.9323430526","0.4263694152","0.5079421761","0.8263011938","","","","","","","","","","75","K","2","","","161","main_expt",""
"","bandit","241","569133","0.0-203.0-0.0","00129327","wem/bandit_party_2","A3A4EIML2KVC3D","either","6","81","","","","","","","1","0","0","0.3944353318","","0.2","0.4","0.8","0.6","","","","","0.8731035433","0.4394756583","0.3944353318","0.8468561623","","","","","","","","","","75","K","2","","","162","main_expt",""
"","bandit","242","570952","0.0-204.0-0.0","00129327","wem/bandit_party_2","A3A4EIML2KVC3D","either","6","280","","","","","","","0","0","1","0.4560534757","","0.2","0.4","0.8","0.6","","","","","0.860239847","0.4632532181","0.4560534757","0.866861138","","","","","","","","","","75","K","2","","","163","main_expt",""
"","bandit","243","572528","0.0-205.0-0.0","00129327","wem/bandit_party_2","A3A4EIML2KVC3D","either","6","7","","","","","","","0","0","1","0.4338988853","","0.2","0.4","0.8","0.6","","","","","0.8327160304","0.469091439","0.4338988853","0.8621839131","","","","","","","","","","75","K","2","","","164","main_expt",""
"","bandit","244","574134","0.0-206.0-0.0","00129327","wem/bandit_party_2","A3A4EIML2KVC3D","either","6","52","","","","","","","1","0","0","0.3640020004","","0.2","0.4","0.8","0.6","","","","","0.8780399083","0.4691854483","0.3640020004","0.8368369455","","","","","","","","","","75","K","2","","","165","main_expt",""
"","bandit","245","575756","0.0-207.0-0.0","00129327","wem/bandit_party_2","A3A4EIML2KVC3D","either","6","69","","","","","","","1","0","0","0.4433911144","","0.2","0.4","0.8","0.6","","","","","0.8659509199","0.424594696","0.4433911144","0.8543831227","","","","","","","","","","75","K","2","","","166","main_expt",""
"","bandit","246","577442","0.0-208.0-0.0","00129327","wem/bandit_party_2","A3A4EIML2KVC3D","either","6","27","","","","","","","0","1","0","","0.8444257961","0.2","0.4","0.8","0.6","0.8458676595","0.4691217736","0.4852122499","0.8444257961","","","","","","","","","","","","","","76","L","3","","","167","main_expt",""
"","bandit","247","579049","0.0-209.0-0.0","00129327","wem/bandit_party_2","A3A4EIML2KVC3D","either","6","13","","","","","","","0","0","1","0.4829488348","","0.2","0.4","0.8","0.6","","","","","0.7368025647","0.4605946041","0.4829488348","0.8895061166","","","","","","","","","","75","K","2","","","168","main_expt",""
"","bandit","248","580951","0.0-210.0-0.0","00129327","wem/bandit_party_2","A3A4EIML2KVC3D","either","6","350","","","","","","","1","0","0","0.467087579","","0.2","0.4","0.8","0.6","","","","","0.6811301937","0.4302520818","0.467087579","0.8980662015","","","","","","","","","","75","K","2","","","169","main_expt",""
"","bandit","249","582622","0.0-211.0-0.0","00129327","wem/bandit_party_2","A3A4EIML2KVC3D","either","6","117","","","","","","","0","0","1","0.3575164989","","0.2","0.4","0.8","0.6","","","","","0.6781719117","0.3846086554","0.3575164989","0.9399190154","","","","","","","","","","75","K","2","","","170","main_expt",""
"","bandit","250","584415","0.0-212.0-0.0","00129327","wem/bandit_party_2","A3A4EIML2KVC3D","either","6","247","","","","","","","0","0","1","","0.3433755155","0.2","0.4","0.8","0.6","0.5779776893","0.4938912128","0.3433755155","0.9199626721","","","","","","","","","","","","","","75","K","2","","","171","main_expt",""
"","bandit","251","585975","0.0-213.0-0.0","00129327","wem/bandit_party_2","A3A4EIML2KVC3D","either","6","15","","","","","","","0","0","1","0.2921203137","","0.2","0.4","0.8","0.6","","","","","0.5461867433","0.5409242696","0.2921203137","0.8885959212","","","","","","","","","","75","K","2","","","172","main_expt",""
"","bandit","252","587566","0.0-214.0-0.0","00129327","wem/bandit_party_2","A3A4EIML2KVC3D","either","6","33","","","","","","","0","1","0","","0.3237382503","0.2","0.4","0.8","0.6","0.5898781272","0.4899310385","0.3237382503","0.8502068985","","","","","","","","","","","","","","75","K","2","","","173","main_expt",""
"","bandit","253","589357","0.0-215.0-0.0","00129327","wem/bandit_party_2","A3A4EIML2KVC3D","either","6","130","","","","","","","0","0","1","","0.4464532747","0.2","0.4","0.8","0.6","0.5990225055","0.4464532747","0.2935635685","0.9054067092","","","","","","","","","","","","","","74","J","1","","","174","main_expt",""
"","bandit","254","591044","0.0-216.0-0.0","00129327","wem/bandit_party_2","A3A4EIML2KVC3D","either","6","147","","","","","","","1","0","0","0.2797951809","","0.2","0.4","0.8","0.6","","","","","0.6129624105","0.4363040476","0.2797951809","0.9096893241","","","","","","","","","","75","K","2","","","175","main_expt",""
"","bandit","255","592684","0.0-217.0-0.0","00129327","wem/bandit_party_2","A3A4EIML2KVC3D","either","6","102","","","","","","","1","0","0","0.9081003197","","0.2","0.4","0.8","0.6","","","","","0.5434192492","0.4198776974","0.2067270565","0.9081003197","","","","","","","","","","76","L","3","","","176","main_expt",""
"","bandit","256","594244","0.0-218.0-0.0","00129327","wem/bandit_party_2","A3A4EIML2KVC3D","either","6","7","","","","","","","0","0","1","0.19266164","","0.2","0.4","0.8","0.6","","","","","0.5893108522","0.4001478854","0.19266164","0.8417535431","","","","","","","","","","75","K","2","","","177","main_expt",""
"","bandit","257","596212","0.0-219.0-0.0","00129327","wem/bandit_party_2","A3A4EIML2KVC3D","either","6","399","","","","","","","0","1","0","","0.8045518304","0.2","0.4","0.8","0.6","0.4862463398","0.3015477047","0.1393448617","0.8045518304","","","","","","","","","","","","","","76","L","3","","","178","main_expt",""
"","bandit","258","597987","0.0-220.0-0.0","00129327","wem/bandit_party_2","A3A4EIML2KVC3D","either","6","228","","","","","","","1","0","0","0.8250115846","","0.2","0.4","0.8","0.6","","","","","0.4227787996","0.2700131006","0.1149816072","0.8250115846","","","","","","","","","","76","L","3","","","179","main_expt",""
"","bandit","259","599664","0.0-221.0-0.0","00129327","wem/bandit_party_2","A3A4EIML2KVC3D","either","6","107","","","","","","","0","0","1","","0.3583368423","0.2","0.4","0.8","0.6","0.3583368423","0.3473069","0.1231561222","0.7418096358","","","","","","","","","","","","","","72","H","0","img/none_selected.jpg","","180","main_expt",""
"","bandit","260","601268","0.0-222.0-0.0","00129327","wem/bandit_party_2","A3A4EIML2KVC3D","either","6","9","","","","","","","0","0","1","0.1134989143","","0.2","0.4","0.8","0.6","","","","","0.3820052134","0.3478804011","0.1134989143","0.7180260456","","","","","","","","","","75","K","2","","","181","main_expt",""
"","bandit","261","603121","0.0-223.0-0.0","00129327","wem/bandit_party_2","A3A4EIML2KVC3D","either","6","265","","","","","","","0","0","1","0.07317944644","","0.2","0.4","0.8","0.6","","","","","0.437769555","0.3304981007","0.07317944644","0.6777378447","","","","","","","","","","75","K","2","","","182","main_expt",""
"","bandit","262","604899","0.0-224.0-0.0","00129327","wem/bandit_party_2","A3A4EIML2KVC3D","either","6","218","","","","","","","1","0","0","0.05085611098","","0.2","0.4","0.8","0.6","","","","","0.3951330089","0.2578466268","0.05085611098","0.6331465848","","","","","","","","","","75","K","2","","","183","main_expt",""
"","bandit","263","606682","0.0-225.0-0.0","00129327","wem/bandit_party_2","A3A4EIML2KVC3D","either","6","220","","","","","","","0","0","1","","0.3550464129","0.2","0.4","0.8","0.6","0.4062376343","0.3550464129","0.07152820202","0.6578519513","","","","","","","","","","","","","","74","J","1","","","184","main_expt",""
"","bandit","264","608291","0.0-226.0-0.0","00129327","wem/bandit_party_2","A3A4EIML2KVC3D","either","6","10","","","","","","","0","0","1","0.08814522307","","0.2","0.4","0.8","0.6","","","","","0.4035727276","0.2993299556","0.08814522307","0.7160298793","","","","","","","","","","75","K","2","","","185","main_expt",""
"","bandit","265","609895","0.0-227.0-0.0","00129327","wem/bandit_party_2","A3A4EIML2KVC3D","either","6","9","","","","","","","0","0","1","","0.4595565904","0.2","0.4","0.8","0.6","0.4595565904","0.3985972224","0.0931487442","0.7081703269","","","","","","","","","","","","","","72","H","0","img/none_selected.jpg","","186","main_expt",""
"","bandit","266","611514","0.0-228.0-0.0","00129327","wem/bandit_party_2","A3A4EIML2KVC3D","either","6","47","","","","","","","1","0","0","0.7670757258","","0.2","0.4","0.8","0.6","","","","","0.4956959756","0.4563810555","0.05847154344","0.7670757258","","","","","","","","","","76","L","3","","","187","main_expt",""
"","bandit","267","613200","0.0-229.0-0.0","00129327","wem/bandit_party_2","A3A4EIML2KVC3D","either","6","112","","","","","","","0","0","1","0.05005107021","","0.2","0.4","0.8","0.6","","","","","0.4295585103","0.4621092719","0.05005107021","0.7986884496","","","","","","","","","","75","K","2","","","188","main_expt",""
"","bandit","268","614869","0.0-230.0-0.0","00129327","wem/bandit_party_2","A3A4EIML2KVC3D","either","6","99","","","","","","","0","0","1","0.05158958255","","0.2","0.4","0.8","0.6","","","","","0.4121259827","0.4214675273","0.05158958255","0.8113194514","","","","","","","","","","75","K","2","","","189","main_expt",""
"","bandit","269","616651","0.0-231.0-0.0","00129327","wem/bandit_party_2","A3A4EIML2KVC3D","either","6","217","","","","","","","0","0","1","","0.0530996007","0.2","0.4","0.8","0.6","0.40505342","0.4445162903","0.0530996007","0.8311477635","","","","","","","","","","","","","","75","K","2","","","190","main_expt",""
"","bandit","270","618271","0.0-232.0-0.0","00129327","wem/bandit_party_2","A3A4EIML2KVC3D","either","6","55","","","","","","","0","0","1","","0.05342003941","0.2","0.4","0.8","0.6","0.3671493273","0.4077799102","0.05342003941","0.7941336253","","","","","","","","","","","","","","75","K","2","","","191","main_expt",""
"","bandit","271","619846","0.0-233.0-0.0","00129327","wem/bandit_party_2","A3A4EIML2KVC3D","either","6","12","","","","","","","0","0","1","0.05264216412","","0.2","0.4","0.8","0.6","","","","","0.3367263454","0.413117206","0.05264216412","0.841847859","","","","","","","","","","75","K","2","","","192","main_expt",""
"","bandit","272","621555","0.0-234.0-0.0","00129327","wem/bandit_party_2","A3A4EIML2KVC3D","either","6","50","","","","","","","0","0","1","0.07418965368","","0.2","0.4","0.8","0.6","","","","","0.2587514209","0.374663265","0.07418965368","0.865127625","","","","","","","","","","75","K","2","","","193","main_expt",""
"","bandit","273","623334","0.0-235.0-0.0","00129327","wem/bandit_party_2","A3A4EIML2KVC3D","either","6","10","","","","","","","0","0","1","0.1148515542","","0.2","0.4","0.8","0.6","","","","","0.2123696513","0.2792309937","0.1148515542","0.8369883383","","","","","","","","","","75","K","2","","","194","main_expt",""
"","bandit","274","625045","0.0-236.0-0.0","00129327","wem/bandit_party_2","A3A4EIML2KVC3D","either","6","3","","","","","","","0","0","1","0.1102075851","","0.2","0.4","0.8","0.6","","","","","0.2551117677","0.3090424304","0.1102075851","0.8226177272","","","","","","","","","","75","K","2","","","195","main_expt",""
"","bandit","275","626778","0.0-237.0-0.0","00129327","wem/bandit_party_2","A3A4EIML2KVC3D","either","6","158","","","","","","","0","0","1","","0.2948177706","0.2","0.4","0.8","0.6","0.2948177706","0.2254203465","0.09307195637","0.8759919892","","","","","","","","","","","","","","72","H","0","img/none_selected.jpg","","196","main_expt",""
"","bandit","276","628525","0.0-238.0-0.0","00129327","wem/bandit_party_2","A3A4EIML2KVC3D","either","6","136","","","","","","","0","0","1","","0.2864074111","0.2","0.4","0.8","0.6","0.2864074111","0.2104085952","0.08341332984","0.9413038234","","","","","","","","","","","","","","72","H","0","img/none_selected.jpg","","197","main_expt",""
"","bandit","277","630127","0.0-239.0-0.0","00129327","wem/bandit_party_2","A3A4EIML2KVC3D","either","6","14","","","","","","","0","0","1","","0.1686499416","0.2","0.4","0.8","0.6","0.3044962429","0.1686499416","0.06206278739","0.9384937307","","","","","","","","","","","","","","74","J","1","","","198","main_expt",""
"","bandit","278","631735","0.0-240.0-0.0","00129327","wem/bandit_party_2","A3A4EIML2KVC3D","either","6","53","","","","","","","0","0","1","0.1015706687","","0.2","0.4","0.8","0.6","","","","","0.2804127106","0.1696058054","0.1015706687","0.927250614","","","","","","","","","","75","K","2","","","199","main_expt",""
"","bandit","279","633437","0.0-241.0-0.0","00129327","wem/bandit_party_2","A3A4EIML2KVC3D","either","6","143","","","","","","","0","0","1","0.07348353789","","0.2","0.4","0.8","0.6","","","","","0.3151112274","0.1940139532","0.07348353789","0.8840406778","","","","","","","","","","75","K","2","","","200","main_expt",""
"","bandit","280","635247","0.0-242.0-0.0","00129327","wem/bandit_party_2","A3A4EIML2KVC3D","either","6","266","","","","","","","0","0","1","0.09218994405","","0.2","0.4","0.8","0.6","","","","","0.3124471347","0.2384341862","0.09218994405","0.8866639954","","","","","","","","","","75","K","2","","","201","main_expt",""
"","bandit","281","636836","0.0-243.0-0.0","00129327","wem/bandit_party_2","A3A4EIML2KVC3D","either","6","16","","","","","","","0","0","1","","0.3418115628","0.2","0.4","0.8","0.6","0.3418115628","0.2069173963","0.1662378481","0.8188103646","","","","","","","","","","","","","","72","H","0","img/none_selected.jpg","","202","main_expt",""
"","bandit","282","638599","0.0-244.0-0.0","00129327","wem/bandit_party_2","A3A4EIML2KVC3D","either","6","211","","","","","","","0","0","1","","0.2502389624","0.2","0.4","0.8","0.6","0.2676578736","0.2502389624","0.1808123801","0.8026106274","","","","","","","","","","","","","","74","J","1","","","203","main_expt",""
"","bandit","283","640394","0.0-245.0-0.0","00129327","wem/bandit_party_2","A3A4EIML2KVC3D","either","6","245","","","","","","","0","0","1","0.2011980288","","0.2","0.4","0.8","0.6","","","","","0.2513587973","0.2226806","0.2011980288","0.6613987003","","","","","","","","","","75","K","2","","","204","main_expt",""
"","bandit","284","642391","0.0-246.0-0.0","00129327","wem/bandit_party_2","A3A4EIML2KVC3D","either","6","456","","","","","","","0","0","1","","0.2327973494","0.2","0.4","0.8","0.6","0.2733703365","0.2327973494","0.1877492959","0.7402115251","","","","","","","","","","","","","","74","J","1","","","205","main_expt",""
"","bandit","285","644031","0.0-247.0-0.0","00129327","wem/bandit_party_2","A3A4EIML2KVC3D","either","6","82","","","","","","","1","0","0","0.6792505986","","0.2","0.4","0.8","0.6","","","","","0.3212331514","0.3134624789","0.1891298069","0.6792505986","","","","","","","","","","76","L","3","","","206","main_expt",""
"","bandit","286","645744","0.0-248.0-0.0","00129327","wem/bandit_party_2","A3A4EIML2KVC3D","either","6","148","","","","","","","0","1","0","","0.2092890992","0.2","0.4","0.8","0.6","0.3381772831","0.3808856429","0.2092890992","0.6510378203","","","","","","","","","","","","","","75","K","2","","","207","main_expt",""
"","bandit","287","647537","0.0-249.0-0.0","00129327","wem/bandit_party_2","A3A4EIML2KVC3D","either","6","74","","","","","","","0","0","1","0.5971377862","","0.2","0.4","0.8","0.6","","","","","0.2370260631","0.318509643","0.2563161799","0.5971377862","","","","","","","","","","76","L","3","","","208","main_expt",""
"","bandit","288","649161","0.0-250.0-0.0","00129327","wem/bandit_party_2","A3A4EIML2KVC3D","either","6","53","","","","","","","0","0","1","","0.2643940457","0.2","0.4","0.8","0.6","0.2157004535","0.2932847295","0.2643940457","0.6040603887","","","","","","","","","","","","","","75","K","2","","","209","main_expt",""
"","bandit","289","650971","0.0-251.0-0.0","00129327","wem/bandit_party_2","A3A4EIML2KVC3D","either","6","272","","","","","","","0","0","1","","0.2655169153","0.2","0.4","0.8","0.6","0.2655169153","0.2230023122","0.2710870001","0.7794442159","","","","","","","","","","","","","","72","H","0","img/none_selected.jpg","","210","main_expt",""
"","bandit","290","652688","0.0-252.0-0.0","00129327","wem/bandit_party_2","A3A4EIML2KVC3D","either","6","162","","","","","","","0","0","1","0.1899351836","","0.2","0.4","0.8","0.6","","","","","0.2359505063","0.1899351836","0.2056380183","0.8397026392","","","","","","","","","","74","J","1","","","211","main_expt",""
"","bandit","291","654513","0.0-253.0-0.0","00129327","wem/bandit_party_2","A3A4EIML2KVC3D","either","6","260","","","","","","","1","0","0","0.7883870126","","0.2","0.4","0.8","0.6","","","","","0.2431981852","0.2593929449","0.2487045614","0.7883870126","","","","","","","","","","76","L","3","","","212","main_expt",""
"","bandit","292","656165","0.0-254.0-0.0","00129327","wem/bandit_party_2","A3A4EIML2KVC3D","either","6","89","","","","","","","0","0","1","","0.3385658967","0.2","0.4","0.8","0.6","0.3385658967","0.2304425673","0.3520378668","0.7160446845","","","","","","","","","","","","","","72","H","0","img/none_selected.jpg","","213","main_expt",""
"","bandit","293","658272","0.0-255.0-0.0","00129327","wem/bandit_party_2","A3A4EIML2KVC3D","either","6","546","","","","","","","0","1","0","","0.7501162241","0.2","0.4","0.8","0.6","0.445002088","0.2849244028","0.3455661114","0.7501162241","","","","","","","","","","","","","","76","L","3","","","214","main_expt",""
"","bandit","294","659848","0.0-256.0-0.0","00129327","wem/bandit_party_2","A3A4EIML2KVC3D","either","6","7","","","","","","","0","0","1","","0.3290646698","0.2","0.4","0.8","0.6","0.4340580748","0.3184819088","0.3290646698","0.7574589115","","","","","","","","","","","","","","75","K","2","","","215","main_expt",""
"","bandit","295","661533","0.0-257.0-0.0","00129327","wem/bandit_party_2","A3A4EIML2KVC3D","either","6","120","","","","","","","0","0","1","0.3996931216","","0.2","0.4","0.8","0.6","","","","","0.3996931216","0.2989728513","0.2737258078","0.7376674805","","","","","","","","","","72","H","0","img/none_selected.jpg","","216","main_expt",""
"","bandit","296","663284","0.0-258.0-0.0","00129327","wem/bandit_party_2","A3A4EIML2KVC3D","either","6","172","","","","","","","1","0","0","0.2401291484","","0.2","0.4","0.8","0.6","","","","","0.453570069","0.5538830624","0.2401291484","0.67262171","","","","","","","","","","75","K","2","","","217","main_expt",""
"","bandit","297","665292","0.0-259.0-0.0","00129327","wem/bandit_party_2","A3A4EIML2KVC3D","either","6","453","","","","","","","0","0","1","0.2395298113","","0.2","0.4","0.8","0.6","","","","","0.3566620654","0.5331458927","0.2395298113","0.6309662891","","","","","","","","","","75","K","2","","","218","main_expt",""
"","bandit","298","666868","0.0-260.0-0.0","00129327","wem/bandit_party_2","A3A4EIML2KVC3D","either","6","8","","","","","","","0","0","1","0.409279481","","0.2","0.4","0.8","0.6","","","","","0.3114207129","0.409279481","0.2333127667","0.610488243","","","","","","","","","","74","J","1","","","219","main_expt",""
"","bandit","299","668740","0.0-261.0-0.0","00129327","wem/bandit_party_2","A3A4EIML2KVC3D","either","6","302","","","","","","","1","0","0","0.2097963002","","0.2","0.4","0.8","0.6","","","","","0.348491043","0.3910907299","0.2097963002","0.6741838821","","","","","","","","","","75","K","2","","","220","main_expt",""
"","bandit","300","670364","0.0-262.0-0.0","00129327","wem/bandit_party_2","A3A4EIML2KVC3D","either","6","60","","","","","","","0","0","1","","0.1761429423","0.2","0.4","0.8","0.6","0.325682353","0.37386253","0.1761429423","0.6938787555","","","","","","","","","","","","","","75","K","2","","","221","main_expt",""
"","bandit","301","672334","0.0-263.0-0.0","00129327","wem/bandit_party_2","A3A4EIML2KVC3D","either","6","379","","","","","","","0","0","1","","0.1770547834","0.2","0.4","0.8","0.6","0.3582518194","0.5460784034","0.1770547834","0.622086605","","","","","","","","","","","","","","75","K","2","","","222","main_expt",""
"","bandit","302","674029","0.0-264.0-0.0","00129327","wem/bandit_party_2","A3A4EIML2KVC3D","either","6","136","","","","","","","1","0","0","0.1494166006","","0.2","0.4","0.8","0.6","","","","","0.3596631187","0.5484594206","0.1494166006","0.6190419158","","","","","","","","","","75","K","2","","","223","main_expt",""
"","bandit","303","675902","0.0-265.0-0.0","00129327","wem/bandit_party_2","A3A4EIML2KVC3D","either","6","325","","","","","","","1","0","0","0.6525227655","","0.2","0.4","0.8","0.6","","","","","0.4757784632","0.5156266917","0.1444184755","0.6525227655","","","","","","","","","","76","L","3","","","224","main_expt",""
"","bandit","304","677651","0.0-266.0-0.0","00129327","wem/bandit_party_2","A3A4EIML2KVC3D","either","6","197","","","","","","","1","0","0","0.5120039273","","0.2","0.4","0.8","0.6","","","","","0.5384710229","0.5120039273","0.2381889698","0.5739960468","","","","","","","","","","74","J","1","","","225","main_expt",""
"","bandit","305","679321","0.0-267.0-0.0","00129327","wem/bandit_party_2","A3A4EIML2KVC3D","either","6","89","","","","","","","0","0","1","0.1429230379","","0.2","0.4","0.8","0.6","","","","","0.5308581489","0.5568413113","0.1429230379","0.6038380469","","","","","","","","","","75","K","2","","","226","main_expt",""
"","bandit","306","681100","0.0-268.0-0.0","00129327","wem/bandit_party_2","A3A4EIML2KVC3D","either","6","227","","","","","","","0","1","0","","0.488482713","0.2","0.4","0.8","0.6","0.488482713","0.5277183188","0.124100867","0.5203417309","","","","","","","","","","","","","","72","H","0","img/none_selected.jpg","","227","main_expt",""
"","bandit","307","682738","0.0-269.0-0.0","00129327","wem/bandit_party_2","A3A4EIML2KVC3D","either","6","87","","","","","","","0","0","1","0.1762219884","","0.2","0.4","0.8","0.6","","","","","0.4406219513","0.5041270258","0.1762219884","0.4263922038","","","","","","","","","","75","K","2","","","228","main_expt",""
"","bandit","308","684414","0.0-270.0-0.0","00129327","wem/bandit_party_2","A3A4EIML2KVC3D","either","6","102","","","","","","","0","0","1","0.3475105047","","0.2","0.4","0.8","0.6","","","","","0.4892119921","0.4541369304","0.1910325121","0.3475105047","","","","","","","","","","76","L","3","","","229","main_expt",""
"","bandit","309","686172","0.0-271.0-0.0","00129327","wem/bandit_party_2","A3A4EIML2KVC3D","either","6","150","","","","","","","0","1","0","","0.5129573662","0.2","0.4","0.8","0.6","0.5129573662","0.4504381994","0.2571549068","0.3353007417","","","","","","","","","","","","","","72","H","0","img/none_selected.jpg","","230","main_expt",""
"","bandit","310","688032","0.0-272.0-0.0","00129327","wem/bandit_party_2","A3A4EIML2KVC3D","either","6","265","","","","","","","0","0","1","0.1781345747","","0.2","0.4","0.8","0.6","","","","","0.4382888871","0.4698668598","0.1781345747","0.2870546929","","","","","","","","","","75","K","2","","","231","main_expt",""
"","bandit","311","689697","0.0-273.0-0.0","00129327","wem/bandit_party_2","A3A4EIML2KVC3D","either","6","14","","","","","","","0","0","1","0.1748933913","","0.2","0.4","0.8","0.6","","","","","0.42174841","0.5460008395","0.1748933913","0.3092655517","","","","","","","","","","75","K","2","","","232","main_expt",""
"","bandit","312","691302","0.0-274.0-0.0","00129327","wem/bandit_party_2","A3A4EIML2KVC3D","either","6","15","","","","","","","1","0","0","0.4231157335","","0.2","0.4","0.8","0.6","","","","","0.4297142637","0.5345299581","0.2196371411","0.4231157335","","","","","","","","","","76","L","3","","","233","main_expt",""
"","bandit","313","693024","0.0-275.0-0.0","00129327","wem/bandit_party_2","A3A4EIML2KVC3D","either","6","145","","","","","","","0","1","0","","0.3016140143","0.2","0.4","0.8","0.6","0.3016140143","0.508060833","0.2052749597","0.5525929145","","","","","","","","","","","","","","72","H","0","img/none_selected.jpg","","234","main_expt",""
"","bandit","314","694829","0.0-276.0-0.0","00129327","wem/bandit_party_2","A3A4EIML2KVC3D","either","6","206","","","","","","","1","0","0","0.3158924645","","0.2","0.4","0.8","0.6","","","","","0.2735586703","0.4956589368","0.3158924645","0.7239072418","","","","","","","","","","75","K","2","","","235","main_expt",""
"","bandit","315","696606","0.0-277.0-0.0","00129327","wem/bandit_party_2","A3A4EIML2KVC3D","either","6","58","","","","","","","1","0","0","0.3668106878","","0.2","0.4","0.8","0.6","","","","","0.2536827631","0.5514737959","0.3668106878","0.8076920848","","","","","","","","","","75","K","2","","","236","main_expt",""
"","bandit","316","698339","0.0-278.0-0.0","00129327","wem/bandit_party_2","A3A4EIML2KVC3D","either","6","183","","","","","","","0","1","0","","0.3866395083","0.2","0.4","0.8","0.6","0.2478783488","0.5183580196","0.3866395083","0.7703095863","","","","","","","","","","","","","","75","K","2","","","237","main_expt",""
"","bandit","317","700007","0.0-279.0-0.0","00129327","wem/bandit_party_2","A3A4EIML2KVC3D","either","6","79","","","","","","","0","0","1","0.4108821033","","0.2","0.4","0.8","0.6","","","","","0.1688186905","0.5320509842","0.4108821033","0.6485929649","","","","","","","","","","75","K","2","","","238","main_expt",""
"","bandit","318","701663","0.0-280.0-0.0","00129327","wem/bandit_party_2","A3A4EIML2KVC3D","either","6","8","","","","","","","0","0","1","0.7028133827","","0.2","0.4","0.8","0.6","","","","","0.1232648298","0.46832295","0.4384900471","0.7028133827","","","","","","","","","","76","L","3","","","239","main_expt",""
