"consent","trial_type","trial_index","time_elapsed","internal_node_id","subjID","study","MID","cond","drift","rt","responses","button_pressed","key_press","like","value","connected","gems","bombs","no_reward","GemPrChosen","BombPrChosen","GainOverPainPr_0","GainOverPainPr_1","GainOverPainPr_2","GainOverPainPr_3","LosePr_0","LosePr_1","LosePr_2","LosePr_3","WinPr_0","WinPr_1","WinPr_2","WinPr_3","Q0","Q1","Q2","gender","age","ethnicity","label","expt_phase","target","respCharCode","respKey","respChoiceNum","respChoice","practice","trial_counter","trial_label","Q0_index"
"GDM/GDM_behavioral_consent_30min_online.html","consent","0","10586","0.0-0.0","00490146","wem/bandit_party_2","A24F1UPER626KR","either","6","","","","","","","","","","","","","","","","","","","","","","","","","","","","","","","","","","","","","","","","",""
"","survey-text","1","17052","0.0-1.0","00490146","wem/bandit_party_2","A24F1UPER626KR","either","6","5457","{""Q0"":""A24F1UPER626KR""}","","","","","","","","","","","","","","","","","","","","","","","","","","","","","","","","","","","","","","",""
"","button-response","2","20107","0.0-2.0","00490146","wem/bandit_party_2","A24F1UPER626KR","either","6","2048","","2","","","","","","","","","","","","","","","","","","","","","","","","","","","","","","","","","","","","","",""
"","text-replacement","3","39723","0.0-3.0","00490146","wem/bandit_party_2","A24F1UPER626KR","either","6","18610","","","32","","","","","","","","","","","","","","","","","","","","","","","","","","","","","","","","","","","","",""
"","text-replacement","4","116497","0.0-4.0","00490146","wem/bandit_party_2","A24F1UPER626KR","either","6","76771","","","32","","","","","","","","","","","","","","","","","","","","","","","","","","","","","","","","","","","","",""
"","text-replacement","5","127616","0.0-5.0-0.0","00490146","wem/bandit_party_2","A24F1UPER626KR","either","6","11116","","","32","","","","","","","","","","","","","","","","","","","","","","","","","","","","","","","","","","","","",""
"","identification","6","139707","0.0-6.0-0.0","00490146","wem/bandit_party_2","A24F1UPER626KR","either","6","12080","","","","0","1","0","","","","","","","","","","","","","","","","","","","","","","","","pre","identification_pre","the Democratic Party","","","","","","","",""
"","identification","7","147236","0.0-6.0-1.0","00490146","wem/bandit_party_2","A24F1UPER626KR","either","6","6518","","","","3","4","3","","","","","","","","","","","","","","","","","","","","","","","","pre","identification_pre","the Republican Party","","","","","","","",""
"","text-replacement","8","155659","0.0-7.0","00490146","wem/bandit_party_2","A24F1UPER626KR","either","6","7419","","","32","","","","","","","","","","","","","","","","","","","","","","","","","","","","","","","","","","","","",""
"","text-replacement","9","206066","0.0-8.0","00490146","wem/bandit_party_2","A24F1UPER626KR","either","6","50404","","","32","","","","","","","","","","","","","","","","","","","","","","","","","","","","","","","","","","","","",""
"","text-replacement","10","219830","0.0-9.0","00490146","wem/bandit_party_2","A24F1UPER626KR","either","6","13762","","","32","","","","","","","","","","","","","","","","","","","","","","","","","","","","","","","","","","","","",""
"","text-replacement","11","223265","0.0-10.0","00490146","wem/bandit_party_2","A24F1UPER626KR","either","6","3434","","","32","","","","","","","","","","","","","","","","","","","","","","","","","","","","","","","","","","","","",""
"","text-replacement","12","331930","0.0-11.0","00490146","wem/bandit_party_2","A24F1UPER626KR","either","6","108663","","","32","","","","","","","","","","","","","","","","","","","","","","","","","","","","","","","","","","","","",""
"","bandit","13","335629","0.0-12.0-0.0","00490146","wem/bandit_party_2","A24F1UPER626KR","either","6","2190","","","","","","","0","0","1","0","0","","","","","0","","","","0","","","","","","","","","","","","","74","J","0","img/none_selected_demo.jpg","true","0","",""
"","bandit","14","339152","0.0-13.0-0.0","00490146","wem/bandit_party_2","A24F1UPER626KR","either","6","2016","","","","","","","0","0","1","0","0","","","","","0","","","","0","","","","","","","","","","","","","75","K","0","img/none_selected_demo.jpg","true","0","",""
"","text-replacement","15","345443","0.0-14.0","00490146","wem/bandit_party_2","A24F1UPER626KR","either","6","6289","","","32","","","","","","","","","","","","","","","","","","","","","","","","","","","","","","","","","","","","",""
"","text-replacement","16","361119","0.0-15.0","00490146","wem/bandit_party_2","A24F1UPER626KR","either","6","15674","","","32","","","","","","","","","","","","","","","","","","","","","","","","","","","","","","","","","","","","",""
"","text-replacement","17","367951","0.0-16.0","00490146","wem/bandit_party_2","A24F1UPER626KR","either","6","6828","","","32","","","","","","","","","","","","","","","","","","","","","","","","","","","","","","","","","","","","",""
"","text-replacement","18","373457","0.0-17.0","00490146","wem/bandit_party_2","A24F1UPER626KR","either","6","5504","","","32","","","","","","","","","","","","","","","","","","","","","","","","","","","","","","","","","","","","",""
"","bandit","19","375654","0.0-18.0-0.0","00490146","wem/bandit_party_2","A24F1UPER626KR","either","6","691","","","","","","","1","0","0","0.8","","0.5","0.5","","","","","","","0.8","0.2","","","","","","","","","","","","74","J","0","img/none_selected_demo.jpg","true","0","80_20_practice",""
"","bandit","20","378113","0.0-18.0-1.0","00490146","wem/bandit_party_2","A24F1UPER626KR","either","6","954","","","","","","","0","0","1","0.2","","0.5","0.5","","","","","","","0.8","0.2","","","","","","","","","","","","75","K","1","","true","0","80_20_practice",""
"","bandit","21","380778","0.0-18.0-2.0","00490146","wem/bandit_party_2","A24F1UPER626KR","either","6","1158","","","","","","","1","0","0","0.8","","0.5","0.5","","","","","","","0.8","0.2","","","","","","","","","","","","74","J","0","img/none_selected_demo.jpg","true","0","80_20_practice",""
"","bandit","22","382939","0.0-18.0-3.0","00490146","wem/bandit_party_2","A24F1UPER626KR","either","6","655","","","","","","","0","0","1","","0.2","0.5","0.5","","","0.8","0.2","","","","","","","","","","","","","","","","75","K","1","","true","0","80_20_practice",""
"","bandit","23","384706","0.0-18.0-4.0","00490146","wem/bandit_party_2","A24F1UPER626KR","either","6","262","","","","","","","1","0","0","0.8","","0.5","0.5","","","","","","","0.8","0.2","","","","","","","","","","","","74","J","0","img/none_selected_demo.jpg","true","0","80_20_practice",""
"","bandit","24","386265","0.0-18.0-5.0","00490146","wem/bandit_party_2","A24F1UPER626KR","either","6","54","","","","","","","0","0","1","","0.8","0.5","0.5","","","0.8","0.2","","","","","","","","","","","","","","","","74","J","0","img/none_selected_demo.jpg","true","0","80_20_practice",""
"","bandit","25","388084","0.0-18.0-6.0","00490146","wem/bandit_party_2","A24F1UPER626KR","either","6","313","","","","","","","1","0","0","0.2","","0.5","0.5","","","","","","","0.8","0.2","","","","","","","","","","","","75","K","1","","true","0","80_20_practice",""
"","bandit","26","389819","0.0-18.0-7.0","00490146","wem/bandit_party_2","A24F1UPER626KR","either","6","231","","","","","","","0","0","1","0.2","","0.5","0.5","","","","","","","0.8","0.2","","","","","","","","","","","","75","K","1","","true","0","80_20_practice",""
"","bandit","27","391685","0.0-18.0-8.0","00490146","wem/bandit_party_2","A24F1UPER626KR","either","6","359","","","","","","","0","0","1","","0.2","0.5","0.5","","","0.8","0.2","","","","","","","","","","","","","","","","75","K","1","","true","0","80_20_practice",""
"","bandit","28","393604","0.0-18.0-9.0","00490146","wem/bandit_party_2","A24F1UPER626KR","either","6","412","","","","","","","1","0","0","0.8","","0.5","0.5","","","","","","","0.8","0.2","","","","","","","","","","","","74","J","0","img/none_selected_demo.jpg","true","0","80_20_practice",""
"","bandit","29","395349","0.0-18.0-10.0","00490146","wem/bandit_party_2","A24F1UPER626KR","either","6","236","","","","","","","0","0","1","0.8","","0.5","0.5","","","","","","","0.8","0.2","","","","","","","","","","","","74","J","0","img/none_selected_demo.jpg","true","0","80_20_practice",""
"","bandit","30","397033","0.0-18.0-11.0","00490146","wem/bandit_party_2","A24F1UPER626KR","either","6","174","","","","","","","0","0","1","","0.8","0.5","0.5","","","0.8","0.2","","","","","","","","","","","","","","","","74","J","0","img/none_selected_demo.jpg","true","0","80_20_practice",""
"","bandit","31","398776","0.0-18.0-12.0","00490146","wem/bandit_party_2","A24F1UPER626KR","either","6","235","","","","","","","0","0","1","0.2","","0.5","0.5","","","","","","","0.8","0.2","","","","","","","","","","","","75","K","1","","true","0","80_20_practice",""
"","bandit","32","400367","0.0-18.0-13.0","00490146","wem/bandit_party_2","A24F1UPER626KR","either","6","84","","","","","","","0","0","1","","0.2","0.5","0.5","","","0.8","0.2","","","","","","","","","","","","","","","","75","K","1","","true","0","80_20_practice",""
"","bandit","33","402004","0.0-18.0-14.0","00490146","wem/bandit_party_2","A24F1UPER626KR","either","6","128","","","","","","","0","1","0","","0.8","0.5","0.5","","","0.8","0.2","","","","","","","","","","","","","","","","74","J","0","img/none_selected_demo.jpg","true","0","80_20_practice",""
"","bandit","34","403774","0.0-18.0-15.0","00490146","wem/bandit_party_2","A24F1UPER626KR","either","6","265","","","","","","","0","0","1","0.8","","0.5","0.5","","","","","","","0.8","0.2","","","","","","","","","","","","74","J","0","img/none_selected_demo.jpg","true","0","80_20_practice",""
"","bandit","35","405599","0.0-18.0-16.0","00490146","wem/bandit_party_2","A24F1UPER626KR","either","6","319","","","","","","","1","0","0","0.8","","0.5","0.5","","","","","","","0.8","0.2","","","","","","","","","","","","74","J","0","img/none_selected_demo.jpg","true","0","80_20_practice",""
"","bandit","36","407179","0.0-18.0-17.0","00490146","wem/bandit_party_2","A24F1UPER626KR","either","6","71","","","","","","","0","0","1","","0.8","0.5","0.5","","","0.8","0.2","","","","","","","","","","","","","","","","74","J","0","img/none_selected_demo.jpg","true","0","80_20_practice",""
"","bandit","37","409559","0.0-18.0-18.0","00490146","wem/bandit_party_2","A24F1UPER626KR","either","6","874","","","","","","","1","0","0","0.8","","0.5","0.5","","","","","","","0.8","0.2","","","","","","","","","","","","74","J","0","img/none_selected_demo.jpg","true","0","80_20_practice",""
"","bandit","38","411447","0.0-18.0-19.0","00490146","wem/bandit_party_2","A24F1UPER626KR","either","6","381","","","","","","","0","0","1","0.8","","0.5","0.5","","","","","","","0.8","0.2","","","","","","","","","","","","74","J","0","img/none_selected_demo.jpg","true","0","80_20_practice",""
"","text-replacement","39","475718","0.0-19.0","00490146","wem/bandit_party_2","A24F1UPER626KR","either","6","64269","","","32","","","","","","","","","","","","","","","","","","","","","","","","","","","","","","","","","","","","",""
"","bandit","40","478910","0.0-20.0-0.0","00490146","wem/bandit_party_2","A24F1UPER626KR","either","6","1681","","","","","","","1","0","0","1","0","","","","","0","1","","","1","0","","","","","","","","","","","","74","J","0","img/none_selected_demo.jpg","true","0","",""
"","text-replacement","41","486641","0.0-21.0","00490146","wem/bandit_party_2","A24F1UPER626KR","either","6","7729","","","74","","","","","","","","","","","","","","","","","","","","","","","","","","","","","","","","","","","","",""
"","text-replacement","42","492672","0.0-22.0","00490146","wem/bandit_party_2","A24F1UPER626KR","either","6","6030","","","32","","","","","","","","","","","","","","","","","","","","","","","","","","","","","","","","","","","","",""
"","text-replacement","43","495271","0.0-23.0","00490146","wem/bandit_party_2","A24F1UPER626KR","either","6","2598","","","32","","","","","","","","","","","","","","","","","","","","","","","","","","","","","","","","","","","","",""
"","text-replacement","44","497933","0.0-24.0","00490146","wem/bandit_party_2","A24F1UPER626KR","either","6","2660","","","32","","","","","","","","","","","","","","","","","","","","","","","","","","","","","","","","","","","","",""
"","text-replacement","45","504337","0.0-25.0","00490146","wem/bandit_party_2","A24F1UPER626KR","either","6","6402","","","32","","","","","","","","","","","","","","","","","","","","","","","","","","","","","","","","","","","","",""
"","text-replacement","46","505942","0.0-26.0","00490146","wem/bandit_party_2","A24F1UPER626KR","either","6","1602","","","32","","","","","","","","","","","","","","","","","","","","","","","","","","","","","","","","","","","","",""
"","text-replacement","47","511836","0.0-27.0","00490146","wem/bandit_party_2","A24F1UPER626KR","either","6","5891","","","32","","","","","","","","","","","","","","","","","","","","","","","","","","","","","","","","","","","","",""
"","text-replacement","48","514700","0.0-28.0","00490146","wem/bandit_party_2","A24F1UPER626KR","either","6","2861","","","32","","","","","","","","","","","","","","","","","","","","","","","","","","","","","","","","","","","","",""
"","text-replacement","49","523896","0.0-29.0","00490146","wem/bandit_party_2","A24F1UPER626KR","either","6","9190","","","32","","","","","","","","","","","","","","","","","","","","","","","","","","","","","","","","","","","","",""
"","text-replacement","50","525224","0.0-30.0","00490146","wem/bandit_party_2","A24F1UPER626KR","either","6","1323","","","32","","","","","","","","","","","","","","","","","","","","","","","","","","","","","","","","","","","","",""
"","text-replacement","51","529008","0.0-31.0","00490146","wem/bandit_party_2","A24F1UPER626KR","either","6","3782","","","32","","","","","","","","","","","","","","","","","","","","","","","","","","","","","","","","","","","","",""
"","bandit","52","531055","0.0-32.0-0.0","00490146","wem/bandit_party_2","A24F1UPER626KR","either","6","538","","","","","","","0","0","1","0.8","","0.5","0.5","0.5","0.5","","","","","0.8","0.2","0.6","0.2","","","","","","","","","","72","H","0","img/none_selected.jpg","true","0","full_practice",""
"","bandit","53","532977","0.0-32.0-1.0","00490146","wem/bandit_party_2","A24F1UPER626KR","either","6","416","","","","","","","0","0","1","","0.2","0.5","0.5","0.5","0.5","0.8","0.2","0.6","0.2","","","","","","","","","","","","","","74","J","1","","true","0","full_practice",""
"","bandit","54","535057","0.0-32.0-2.0","00490146","wem/bandit_party_2","A24F1UPER626KR","either","6","574","","","","","","","0","1","0","","0.6","0.5","0.5","0.5","0.5","0.8","0.2","0.6","0.2","","","","","","","","","","","","","","75","K","2","","true","0","full_practice",""
"","bandit","55","537040","0.0-32.0-3.0","00490146","wem/bandit_party_2","A24F1UPER626KR","either","6","476","","","","","","","0","0","1","0.2","","0.5","0.5","0.5","0.5","","","","","0.8","0.2","0.6","0.2","","","","","","","","","","76","L","3","","true","0","full_practice",""
"","bandit","56","539277","0.0-32.0-4.0","00490146","wem/bandit_party_2","A24F1UPER626KR","either","6","730","","","","","","","0","1","0","","0.6","0.5","0.5","0.5","0.5","0.8","0.2","0.6","0.2","","","","","","","","","","","","","","75","K","2","","true","0","full_practice",""
"","bandit","57","541089","0.0-32.0-5.0","00490146","wem/bandit_party_2","A24F1UPER626KR","either","6","308","","","","","","","1","0","0","0.6","","0.5","0.5","0.5","0.5","","","","","0.8","0.2","0.6","0.2","","","","","","","","","","75","K","2","","true","0","full_practice",""
"","bandit","58","542912","0.0-32.0-6.0","00490146","wem/bandit_party_2","A24F1UPER626KR","either","6","298","","","","","","","1","0","0","0.6","","0.5","0.5","0.5","0.5","","","","","0.8","0.2","0.6","0.2","","","","","","","","","","75","K","2","","true","0","full_practice",""
"","bandit","59","544721","0.0-32.0-7.0","00490146","wem/bandit_party_2","A24F1UPER626KR","either","6","299","","","","","","","1","0","0","0.6","","0.5","0.5","0.5","0.5","","","","","0.8","0.2","0.6","0.2","","","","","","","","","","75","K","2","","true","0","full_practice",""
"","bandit","60","546489","0.0-32.0-8.0","00490146","wem/bandit_party_2","A24F1UPER626KR","either","6","263","","","","","","","0","0","1","","0.6","0.5","0.5","0.5","0.5","0.8","0.2","0.6","0.2","","","","","","","","","","","","","","75","K","2","","true","0","full_practice",""
"","bandit","61","548387","0.0-32.0-9.0","00490146","wem/bandit_party_2","A24F1UPER626KR","either","6","391","","","","","","","0","1","0","","0.2","0.5","0.5","0.5","0.5","0.8","0.2","0.6","0.2","","","","","","","","","","","","","","74","J","1","","true","0","full_practice",""
"","bandit","62","550154","0.0-32.0-10.0","00490146","wem/bandit_party_2","A24F1UPER626KR","either","6","259","","","","","","","0","0","1","0.2","","0.5","0.5","0.5","0.5","","","","","0.8","0.2","0.6","0.2","","","","","","","","","","74","J","1","","true","0","full_practice",""
"","bandit","63","551857","0.0-32.0-11.0","00490146","wem/bandit_party_2","A24F1UPER626KR","either","6","197","","","","","","","0","0","1","0.2","","0.5","0.5","0.5","0.5","","","","","0.8","0.2","0.6","0.2","","","","","","","","","","74","J","1","","true","0","full_practice",""
"","bandit","64","553479","0.0-32.0-12.0","00490146","wem/bandit_party_2","A24F1UPER626KR","either","6","114","","","","","","","1","0","0","0.8","","0.5","0.5","0.5","0.5","","","","","0.8","0.2","0.6","0.2","","","","","","","","","","72","H","0","img/none_selected.jpg","true","0","full_practice",""
"","bandit","65","555317","0.0-32.0-13.0","00490146","wem/bandit_party_2","A24F1UPER626KR","either","6","331","","","","","","","0","1","0","","0.8","0.5","0.5","0.5","0.5","0.8","0.2","0.6","0.2","","","","","","","","","","","","","","72","H","0","img/none_selected.jpg","true","0","full_practice",""
"","bandit","66","565660","0.0-32.0-14.0","00490146","wem/bandit_party_2","A24F1UPER626KR","either","6","8831","","","","","","","0","0","1","0.2","","0.5","0.5","0.5","0.5","","","","","0.8","0.2","0.6","0.2","","","","","","","","","","76","L","3","","true","0","full_practice",""
"","bandit","67","568218","0.0-32.0-15.0","00490146","wem/bandit_party_2","A24F1UPER626KR","either","6","1054","","","","","","","1","0","0","0.8","","0.5","0.5","0.5","0.5","","","","","0.8","0.2","0.6","0.2","","","","","","","","","","72","H","0","img/none_selected.jpg","true","0","full_practice",""
"","bandit","68","569784","0.0-32.0-16.0","00490146","wem/bandit_party_2","A24F1UPER626KR","either","6","59","","","","","","","1","0","0","0.8","","0.5","0.5","0.5","0.5","","","","","0.8","0.2","0.6","0.2","","","","","","","","","","72","H","0","img/none_selected.jpg","true","0","full_practice",""
"","bandit","69","571880","0.0-32.0-17.0","00490146","wem/bandit_party_2","A24F1UPER626KR","either","6","590","","","","","","","0","0","1","","0.8","0.5","0.5","0.5","0.5","0.8","0.2","0.6","0.2","","","","","","","","","","","","","","72","H","0","img/none_selected.jpg","true","0","full_practice",""
"","bandit","70","574128","0.0-32.0-18.0","00490146","wem/bandit_party_2","A24F1UPER626KR","either","6","740","","","","","","","0","0","1","","0.6","0.5","0.5","0.5","0.5","0.8","0.2","0.6","0.2","","","","","","","","","","","","","","75","K","2","","true","0","full_practice",""
"","bandit","71","576167","0.0-32.0-19.0","00490146","wem/bandit_party_2","A24F1UPER626KR","either","6","523","","","","","","","0","0","1","","0.2","0.5","0.5","0.5","0.5","0.8","0.2","0.6","0.2","","","","","","","","","","","","","","76","L","3","","true","0","full_practice",""
"","text","72","595346","0.0-33.0","00490146","wem/bandit_party_2","A24F1UPER626KR","either","6","19173","","","32","","","","","","","","","","","","","","","","","","","","","","","","","","","","","","","","","","","","",""
"","text-replacement","73","612307","0.0-34.0","00490146","wem/bandit_party_2","A24F1UPER626KR","either","6","15957","","","32","","","","","","","","","","","","","","","","","","","","","","","","","","","","","","","","","","","","",""
"","text-replacement","74","623667","0.0-35.0","00490146","wem/bandit_party_2","A24F1UPER626KR","either","6","11358","","","32","","","","","","","","","","","","","","","","","","","","","","","","","","","","","","","","","","","","",""
"","text-replacement","75","633547","0.0-36.0","00490146","wem/bandit_party_2","A24F1UPER626KR","either","6","9875","","","32","","","","","","","","","","","","","","","","","","","","","","","","","","","","","","","","","","","","",""
"","text-replacement","76","637207","0.0-37.0","00490146","wem/bandit_party_2","A24F1UPER626KR","either","6","3655","","","32","","","","","","","","","","","","","","","","","","","","","","","","","","","","","","","","","","","","",""
"","text-replacement","77","641265","0.0-38.0","00490146","wem/bandit_party_2","A24F1UPER626KR","either","6","4056","","","32","","","","","","","","","","","","","","","","","","","","","","","","","","","","","","","","","","","","",""
"","survey-multi-choice-replacement","78","648418","0.0-39.0-0.0","00490146","wem/bandit_party_2","A24F1UPER626KR","either","6","7145","","","","","","","","","","","","","","","","","","","","","","","","Money will be added to the pool for <span style='color:red;'>REPUBLICANS</span>","","","","","","","attn_check","","","","","","","","","0"
"","survey-multi-choice-replacement","79","654777","0.0-40.0-0.0","00490146","wem/bandit_party_2","A24F1UPER626KR","either","6","5348","","","","","","","","","","","","","","","","","","","","","","","","Equal amounts of money will be added to the pool for <span style='color:red;'>REPUBLICANS</span> and subtracted from the pool for <span style='color:blue;'>DEMOCRATS</span>","","","","","","","attn_check","","","","","","","","","2"
"","survey-multi-choice-replacement","80","658993","0.0-41.0-0.0","00490146","wem/bandit_party_2","A24F1UPER626KR","either","6","3204","","","","","","","","","","","","","","","","","","","","","","","","No money will be added to either pool","","","","","","","attn_check","","","","","","","","","3"
"","bandit","81","663951","0.0-42.0-0.0","00490146","wem/bandit_party_2","A24F1UPER626KR","either","6","2447","","","","","","","1","0","0","0.1947351938","","0.6","0.8","0.4","0.2","","","","","0.1947351938","0.3049938501","0.2309914537","0.7197236342","","","","","","","","","","72","H","0","img/none_selected.jpg","","1","main_expt",""
"","bandit","82","665854","0.0-43.0-0.0","00490146","wem/bandit_party_2","A24F1UPER626KR","either","6","397","","","","","","","0","0","1","","0.1865171684","0.6","0.8","0.4","0.2","0.1865171684","0.3105507028","0.2351366282","0.7453792406","","","","","","","","","","","","","","72","H","0","img/none_selected.jpg","","2","main_expt",""
"","bandit","83","667901","0.0-44.0-0.0","00490146","wem/bandit_party_2","A24F1UPER626KR","either","6","541","","","","","","","1","0","0","0.347932066","","0.6","0.8","0.4","0.2","","","","","0.1578482069","0.347932066","0.3338792953","0.7422746785","","","","","","","","","","74","J","1","","","3","main_expt",""
"","bandit","84","669849","0.0-45.0-0.0","00490146","wem/bandit_party_2","A24F1UPER626KR","either","6","441","","","","","","","1","0","0","0.294099503","","0.6","0.8","0.4","0.2","","","","","0.1733557992","0.294099503","0.2578124611","0.8152876082","","","","","","","","","","74","J","1","","","4","main_expt",""
"","bandit","85","671672","0.0-46.0-0.0","00490146","wem/bandit_party_2","A24F1UPER626KR","either","6","316","","","","","","","1","0","0","0.256228135","","0.6","0.8","0.4","0.2","","","","","0.1275681293","0.256228135","0.152782507","0.8494846052","","","","","","","","","","74","J","1","","","5","main_expt",""
"","bandit","86","673561","0.0-47.0-0.0","00490146","wem/bandit_party_2","A24F1UPER626KR","either","6","382","","","","","","","0","0","1","","0.3142053347","0.6","0.8","0.4","0.2","0.1776351543","0.3142053347","0.200224935","0.8036792828","","","","","","","","","","","","","","74","J","1","","","6","main_expt",""
"","bandit","87","675471","0.0-48.0-0.0","00490146","wem/bandit_party_2","A24F1UPER626KR","either","6","399","","","","","","","0","1","0","","0.8659664865","0.6","0.8","0.4","0.2","0.1412615145","0.2382568898","0.2200442108","0.8659664865","","","","","","","","","","","","","","76","L","3","","","7","main_expt",""
"","bandit","88","677272","0.0-49.0-0.0","00490146","wem/bandit_party_2","A24F1UPER626KR","either","6","294","","","","","","","0","0","1","","0.8475436228","0.6","0.8","0.4","0.2","0.1508054742","0.220471749","0.1516915951","0.8475436228","","","","","","","","","","","","","","76","L","3","","","8","main_expt",""
"","bandit","89","678872","0.0-50.0-0.0","00490146","wem/bandit_party_2","A24F1UPER626KR","either","6","92","","","","","","","0","0","1","","0.8034999265","0.6","0.8","0.4","0.2","0.1882404854","0.2842820234","0.1468829212","0.8034999265","","","","","","","","","","","","","","76","L","3","","","9","main_expt",""
"","bandit","90","681256","0.0-51.0-0.0","00490146","wem/bandit_party_2","A24F1UPER626KR","either","6","877","","","","","","","0","0","1","0.1507643719","","0.6","0.8","0.4","0.2","","","","","0.1731305678","0.3392415315","0.1507643719","0.7148412232","","","","","","","","","","75","K","2","","","10","main_expt",""
"","bandit","91","683246","0.0-52.0-0.0","00490146","wem/bandit_party_2","A24F1UPER626KR","either","6","484","","","","","","","0","0","1","0.4470346709","","0.6","0.8","0.4","0.2","","","","","0.2475279461","0.4470346709","0.18301","0.7213030285","","","","","","","","","","74","J","1","","","11","main_expt",""
"","bandit","92","684983","0.0-53.0-0.0","00490146","wem/bandit_party_2","A24F1UPER626KR","either","6","228","","","","","","","0","1","0","","0.2068792089","0.6","0.8","0.4","0.2","0.2068792089","0.5143820195","0.209562337","0.7396148754","","","","","","","","","","","","","","72","H","0","img/none_selected.jpg","","12","main_expt",""
"","bandit","93","686764","0.0-54.0-0.0","00490146","wem/bandit_party_2","A24F1UPER626KR","either","6","274","","","","","","","0","1","0","","0.1594062408","0.6","0.8","0.4","0.2","0.1594062408","0.4934308908","0.2133897639","0.6870781676","","","","","","","","","","","","","","72","H","0","img/none_selected.jpg","","13","main_expt",""
"","bandit","94","688534","0.0-55.0-0.0","00490146","wem/bandit_party_2","A24F1UPER626KR","either","6","263","","","","","","","0","0","1","0.1808320347","","0.6","0.8","0.4","0.2","","","","","0.1808320347","0.5884397519","0.1865122749","0.6561171826","","","","","","","","","","72","H","0","img/none_selected.jpg","","14","main_expt",""
"","bandit","95","690364","0.0-56.0-0.0","00490146","wem/bandit_party_2","A24F1UPER626KR","either","6","322","","","","","","","0","0","1","","0.2401125286","0.6","0.8","0.4","0.2","0.2401125286","0.425765204","0.3169691733","0.6255101569","","","","","","","","","","","","","","72","H","0","img/none_selected.jpg","","15","main_expt",""
"","bandit","96","692178","0.0-57.0-0.0","00490146","wem/bandit_party_2","A24F1UPER626KR","either","6","307","","","","","","","0","0","1","","0.6101220295","0.6","0.8","0.4","0.2","0.1823220599","0.4458974369","0.3927767979","0.6101220295","","","","","","","","","","","","","","76","L","3","","","16","main_expt",""
"","bandit","97","694235","0.0-58.0-0.0","00490146","wem/bandit_party_2","A24F1UPER626KR","either","6","551","","","","","","","0","0","1","0.4907358526","","0.6","0.8","0.4","0.2","","","","","0.2076179308","0.4907358526","0.2882183284","0.6233337625","","","","","","","","","","74","J","1","","","17","main_expt",""
"","bandit","98","695789","0.0-59.0-0.0","00490146","wem/bandit_party_2","A24F1UPER626KR","either","6","40","","","","","","","1","0","0","0.3212622409","","0.6","0.8","0.4","0.2","","","","","0.2310064443","0.4895096529","0.3212622409","0.598865074","","","","","","","","","","75","K","2","","","18","main_expt",""
"","bandit","99","697490","0.0-60.0-0.0","00490146","wem/bandit_party_2","A24F1UPER626KR","either","6","195","","","","","","","0","0","1","0.3678238944","","0.6","0.8","0.4","0.2","","","","","0.1919199612","0.5437378015","0.3678238944","0.6318918302","","","","","","","","","","75","K","2","","","19","main_expt",""
"","bandit","100","699432","0.0-61.0-0.0","00490146","wem/bandit_party_2","A24F1UPER626KR","either","6","435","","","","","","","0","0","1","0.543071052","","0.6","0.8","0.4","0.2","","","","","0.2150176637","0.543071052","0.4357360734","0.5667690756","","","","","","","","","","74","J","1","","","20","main_expt",""
"","bandit","101","701115","0.0-62.0-0.0","00490146","wem/bandit_party_2","A24F1UPER626KR","either","6","177","","","","","","","1","0","0","0.2980309021","","0.6","0.8","0.4","0.2","","","","","0.2980309021","0.5457928974","0.4486518506","0.6364396753","","","","","","","","","","72","H","0","img/none_selected.jpg","","21","main_expt",""
"","bandit","102","702860","0.0-63.0-0.0","00490146","wem/bandit_party_2","A24F1UPER626KR","either","6","237","","","","","","","0","0","1","","0.3238742104","0.6","0.8","0.4","0.2","0.3238742104","0.4531799458","0.5145372488","0.5563436533","","","","","","","","","","","","","","72","H","0","img/none_selected.jpg","","22","main_expt",""
"","bandit","103","704792","0.0-64.0-0.0","00490146","wem/bandit_party_2","A24F1UPER626KR","either","6","389","","","","","","","0","0","1","","0.4555064456","0.6","0.8","0.4","0.2","0.4158928209","0.4321579995","0.6324996067","0.4555064456","","","","","","","","","","","","","","76","L","3","","","23","main_expt",""
"","bandit","104","706418","0.0-65.0-0.0","00490146","wem/bandit_party_2","A24F1UPER626KR","either","6","108","","","","","","","1","0","0","0.4398961724","","0.6","0.8","0.4","0.2","","","","","0.2798670784","0.3892872195","0.6665025749","0.4398961724","","","","","","","","","","76","L","3","","","24","main_expt",""
"","bandit","105","708180","0.0-66.0-0.0","00490146","wem/bandit_party_2","A24F1UPER626KR","either","6","238","","","","","","","0","0","1","","0.3810464824","0.6","0.8","0.4","0.2","0.3932164435","0.4322880781","0.5316582614","0.3810464824","","","","","","","","","","","","","","76","L","3","","","25","main_expt",""
"","bandit","106","709856","0.0-67.0-0.0","00490146","wem/bandit_party_2","A24F1UPER626KR","either","6","163","","","","","","","1","0","0","0.451695138","","0.6","0.8","0.4","0.2","","","","","0.3243459504","0.4560392573","0.4282094451","0.451695138","","","","","","","","","","76","L","3","","","26","main_expt",""
"","bandit","107","711653","0.0-68.0-0.0","00490146","wem/bandit_party_2","A24F1UPER626KR","either","6","290","","","","","","","0","0","1","","0.4423729324","0.6","0.8","0.4","0.2","0.4266302179","0.5372901799","0.4711380508","0.4423729324","","","","","","","","","","","","","","76","L","3","","","27","main_expt",""
"","bandit","108","713694","0.0-69.0-0.0","00490146","wem/bandit_party_2","A24F1UPER626KR","either","6","533","","","","","","","1","0","0","0.4206607535","","0.6","0.8","0.4","0.2","","","","","0.4206607535","0.6619872032","0.4539290932","0.4221124674","","","","","","","","","","72","H","0","img/none_selected.jpg","","28","main_expt",""
"","bandit","109","715310","0.0-70.0-0.0","00490146","wem/bandit_party_2","A24F1UPER626KR","either","6","106","","","","","","","0","0","1","","0.440099583","0.6","0.8","0.4","0.2","0.440099583","0.5939885142","0.4378511583","0.489207998","","","","","","","","","","","","","","72","H","0","img/none_selected.jpg","","29","main_expt",""
"","bandit","110","717001","0.0-71.0-0.0","00490146","wem/bandit_party_2","A24F1UPER626KR","either","6","183","","","","","","","0","0","1","0.3982168329","","0.6","0.8","0.4","0.2","","","","","0.3982168329","0.5602145404","0.3425428874","0.4406356357","","","","","","","","","","72","H","0","img/none_selected.jpg","","30","main_expt",""
"","bandit","111","719119","0.0-72.0-0.0","00490146","wem/bandit_party_2","A24F1UPER626KR","either","6","611","","","","","","","0","0","1","0.5376870091","","0.6","0.8","0.4","0.2","","","","","0.3573437221","0.5376870091","0.2354865125","0.484130952","","","","","","","","","","74","J","1","","","31","main_expt",""
"","bandit","112","720794","0.0-73.0-0.0","00490146","wem/bandit_party_2","A24F1UPER626KR","either","6","166","","","","","","","0","0","1","","0.2552437171","0.6","0.8","0.4","0.2","0.3712986889","0.6346195819","0.2552437171","0.432294219","","","","","","","","","","","","","","75","K","2","","","32","main_expt",""
"","bandit","113","722560","0.0-74.0-0.0","00490146","wem/bandit_party_2","A24F1UPER626KR","either","6","259","","","","","","","1","0","0","0.7540961955","","0.6","0.8","0.4","0.2","","","","","0.45096985","0.7540961955","0.2470382599","0.4821309474","","","","","","","","","","74","J","1","","","33","main_expt",""
"","bandit","114","724309","0.0-75.0-0.0","00490146","wem/bandit_party_2","A24F1UPER626KR","either","6","242","","","","","","","1","0","0","0.699797925","","0.6","0.8","0.4","0.2","","","","","0.5559331637","0.699797925","0.2951894024","0.4702474349","","","","","","","","","","74","J","1","","","34","main_expt",""
"","bandit","115","726083","0.0-76.0-0.0","00490146","wem/bandit_party_2","A24F1UPER626KR","either","6","267","","","","","","","0","0","1","0.7410295452","","0.6","0.8","0.4","0.2","","","","","0.7354386419","0.7410295452","0.2596626779","0.5363697359","","","","","","","","","","74","J","1","","","35","main_expt",""
"","bandit","116","727674","0.0-77.0-0.0","00490146","wem/bandit_party_2","A24F1UPER626KR","either","6","84","","","","","","","0","0","1","","0.3164764808","0.6","0.8","0.4","0.2","0.6934166837","0.7332281969","0.3164764808","0.602250539","","","","","","","","","","","","","","75","K","2","","","36","main_expt",""
"","bandit","117","729294","0.0-78.0-0.0","00490146","wem/bandit_party_2","A24F1UPER626KR","either","6","111","","","","","","","1","0","0","0.736713329","","0.6","0.8","0.4","0.2","","","","","0.6311869688","0.736713329","0.3672962009","0.5337433964","","","","","","","","","","74","J","1","","","37","main_expt",""
"","bandit","118","731025","0.0-79.0-0.0","00490146","wem/bandit_party_2","A24F1UPER626KR","either","6","219","","","","","","","0","0","1","","0.6860808007","0.6","0.8","0.4","0.2","0.6583504975","0.6860808007","0.4056598401","0.5970413872","","","","","","","","","","","","","","74","J","1","","","38","main_expt",""
"","bandit","119","733414","0.0-80.0-0.0","00490146","wem/bandit_party_2","A24F1UPER626KR","either","6","880","","","","","","","0","0","1","0.7498761973","","0.6","0.8","0.4","0.2","","","","","0.5861321806","0.7498761973","0.4236995386","0.6529448079","","","","","","","","","","74","J","1","","","39","main_expt",""
"","bandit","120","735483","0.0-81.0-0.0","00490146","wem/bandit_party_2","A24F1UPER626KR","either","6","561","","","","","","","0","1","0","","0.6612991154","0.6","0.8","0.4","0.2","0.4892836735","0.7043283504","0.4365163158","0.6612991154","","","","","","","","","","","","","","76","L","3","","","40","main_expt",""
"","bandit","121","737026","0.0-82.0-0.0","00490146","wem/bandit_party_2","A24F1UPER626KR","either","6","36","","","","","","","0","1","0","","0.7390431107","0.6","0.8","0.4","0.2","0.3479900608","0.6469690382","0.4854269132","0.7390431107","","","","","","","","","","","","","","76","L","3","","","41","main_expt",""
"","bandit","122","738836","0.0-83.0-0.0","00490146","wem/bandit_party_2","A24F1UPER626KR","either","6","302","","","","","","","0","1","0","","0.7609423287","0.6","0.8","0.4","0.2","0.376709287","0.6388905256","0.4753587859","0.7609423287","","","","","","","","","","","","","","76","L","3","","","42","main_expt",""
"","bandit","123","740591","0.0-84.0-0.0","00490146","wem/bandit_party_2","A24F1UPER626KR","either","6","247","","","","","","","1","0","0","0.8039673949","","0.6","0.8","0.4","0.2","","","","","0.4319300722","0.6383372244","0.452202747","0.8039673949","","","","","","","","","","76","L","3","","","43","main_expt",""
"","bandit","124","742204","0.0-85.0-0.0","00490146","wem/bandit_party_2","A24F1UPER626KR","either","6","103","","","","","","","0","1","0","","0.8216753652","0.6","0.8","0.4","0.2","0.4458636389","0.6247854939","0.5522191005","0.8216753652","","","","","","","","","","","","","","76","L","3","","","44","main_expt",""
"","bandit","125","743850","0.0-86.0-0.0","00490146","wem/bandit_party_2","A24F1UPER626KR","either","6","117","","","","","","","0","1","0","","0.7636866317","0.6","0.8","0.4","0.2","0.4323480181","0.6341880498","0.4878962787","0.7636866317","","","","","","","","","","","","","","76","L","3","","","45","main_expt",""
"","bandit","126","745400","0.0-87.0-0.0","00490146","wem/bandit_party_2","A24F1UPER626KR","either","6","40","","","","","","","0","1","0","","0.8203755575","0.6","0.8","0.4","0.2","0.4348202433","0.5081310512","0.487595293","0.8203755575","","","","","","","","","","","","","","76","L","3","","","46","main_expt",""
"","bandit","127","747115","0.0-88.0-0.0","00490146","wem/bandit_party_2","A24F1UPER626KR","either","6","208","","","","","","","1","0","0","0.8706375764","","0.6","0.8","0.4","0.2","","","","","0.3430847618","0.4202927251","0.444754188","0.8706375764","","","","","","","","","","76","L","3","","","47","main_expt",""
"","bandit","128","748689","0.0-89.0-0.0","00490146","wem/bandit_party_2","A24F1UPER626KR","either","6","68","","","","","","","0","1","0","","0.8019506245","0.6","0.8","0.4","0.2","0.2601977795","0.4767868938","0.5044276746","0.8019506245","","","","","","","","","","","","","","76","L","3","","","48","main_expt",""
"","bandit","129","750438","0.0-90.0-0.0","00490146","wem/bandit_party_2","A24F1UPER626KR","either","6","239","","","","","","","1","0","0","0.7331224435","","0.6","0.8","0.4","0.2","","","","","0.2368144698","0.3749468019","0.3766714482","0.7331224435","","","","","","","","","","76","L","3","","","49","main_expt",""
"","bandit","130","752099","0.0-91.0-0.0","00490146","wem/bandit_party_2","A24F1UPER626KR","either","6","153","","","","","","","0","0","1","","0.7908344101","0.6","0.8","0.4","0.2","0.2484527115","0.3532902347","0.406992786","0.7908344101","","","","","","","","","","","","","","76","L","3","","","50","main_expt",""
"","bandit","131","753793","0.0-92.0-0.0","00490146","wem/bandit_party_2","A24F1UPER626KR","either","6","183","","","","","","","1","0","0","0.7922828235","","0.6","0.8","0.4","0.2","","","","","0.230268934","0.2413466802","0.3854505747","0.7922828235","","","","","","","","","","76","L","3","","","51","main_expt",""
"","bandit","132","755565","0.0-93.0-0.0","00490146","wem/bandit_party_2","A24F1UPER626KR","either","6","258","","","","","","","0","0","1","","0.7485378942","0.6","0.8","0.4","0.2","0.3429002399","0.2673723166","0.3956915145","0.7485378942","","","","","","","","","","","","","","76","L","3","","","52","main_expt",""
"","bandit","133","758208","0.0-94.0-0.0","00490146","wem/bandit_party_2","A24F1UPER626KR","either","6","1133","","","","","","","0","0","1","0.2871029552","","0.6","0.8","0.4","0.2","","","","","0.2871029552","0.2806035608","0.3062348001","0.6603794952","","","","","","","","","","72","H","0","img/none_selected.jpg","","53","main_expt",""
"","bandit","134","760289","0.0-95.0-0.0","00490146","wem/bandit_party_2","A24F1UPER626KR","either","6","573","","","","","","","0","0","1","0.2544312064","","0.6","0.8","0.4","0.2","","","","","0.2594444468","0.2544312064","0.2996500993","0.6931449795","","","","","","","","","","74","J","1","","","54","main_expt",""
"","bandit","135","762305","0.0-96.0-0.0","00490146","wem/bandit_party_2","A24F1UPER626KR","either","6","509","","","","","","","1","0","0","0.3362815808","","0.6","0.8","0.4","0.2","","","","","0.3333749245","0.3362815808","0.2518247787","0.7553272845","","","","","","","","","","74","J","1","","","55","main_expt",""
"","bandit","136","764012","0.0-97.0-0.0","00490146","wem/bandit_party_2","A24F1UPER626KR","either","6","197","","","","","","","0","0","1","","0.3798256012","0.6","0.8","0.4","0.2","0.3049104067","0.3798256012","0.3014763065","0.7231548626","","","","","","","","","","","","","","74","J","1","","","56","main_expt",""
"","bandit","137","765566","0.0-98.0-0.0","00490146","wem/bandit_party_2","A24F1UPER626KR","either","6","42","","","","","","","1","0","0","0.3989549393","","0.6","0.8","0.4","0.2","","","","","0.3623273811","0.3989549393","0.2730843718","0.7485901337","","","","","","","","","","74","J","1","","","57","main_expt",""
"","bandit","138","767405","0.0-99.0-0.0","00490146","wem/bandit_party_2","A24F1UPER626KR","either","6","332","","","","","","","1","0","0","0.3373398956","","0.6","0.8","0.4","0.2","","","","","0.3621169042","0.3373398956","0.367239041","0.797082508","","","","","","","","","","74","J","1","","","58","main_expt",""
"","bandit","139","769575","0.0-100.0-0.0","00490146","wem/bandit_party_2","A24F1UPER626KR","either","6","661","","","","","","","0","0","1","","0.3381045731","0.6","0.8","0.4","0.2","0.3672848169","0.3381045731","0.4005220403","0.7466963627","","","","","","","","","","","","","","74","J","1","","","59","main_expt",""
"","bandit","140","771133","0.0-101.0-0.0","00490146","wem/bandit_party_2","A24F1UPER626KR","either","6","45","","","","","","","0","0","1","0.4838111383","","0.6","0.8","0.4","0.2","","","","","0.5123874715","0.4838111383","0.4863912708","0.6359615323","","","","","","","","","","74","J","1","","","60","main_expt",""
"","bandit","141","772657","0.0-102.0-0.0","00490146","wem/bandit_party_2","A24F1UPER626KR","either","6","14","","","","","","","0","1","0","","0.5220595343","0.6","0.8","0.4","0.2","0.5218319631","0.4290776342","0.5220595343","0.7125939799","","","","","","","","","","","","","","75","K","2","","","61","main_expt",""
"","bandit","142","774298","0.0-103.0-0.0","00490146","wem/bandit_party_2","A24F1UPER626KR","either","6","135","","","","","","","0","0","1","0.5447889898","","0.6","0.8","0.4","0.2","","","","","0.6482151027","0.4387439774","0.5447889898","0.5978650666","","","","","","","","","","75","K","2","","","62","main_expt",""
"","bandit","143","776061","0.0-104.0-0.0","00490146","wem/bandit_party_2","A24F1UPER626KR","either","6","247","","","","","","","0","0","1","0.5517390004","","0.6","0.8","0.4","0.2","","","","","0.6966290852","0.3670418014","0.5517390004","0.5166338879","","","","","","","","","","75","K","2","","","63","main_expt",""
"","bandit","144","777587","0.0-105.0-0.0","00490146","wem/bandit_party_2","A24F1UPER626KR","either","6","17","","","","","","","0","0","1","","0.6576188384","0.6","0.8","0.4","0.2","0.6497033777","0.3470393933","0.6576188384","0.4901650138","","","","","","","","","","","","","","75","K","2","","","64","main_expt",""
"","bandit","145","779240","0.0-106.0-0.0","00490146","wem/bandit_party_2","A24F1UPER626KR","either","6","143","","","","","","","0","0","1","0.3361574661","","0.6","0.8","0.4","0.2","","","","","0.6925184903","0.3361574661","0.5156176703","0.459365688","","","","","","","","","","74","J","1","","","65","main_expt",""
"","bandit","146","781034","0.0-107.0-0.0","00490146","wem/bandit_party_2","A24F1UPER626KR","either","6","288","","","","","","","1","0","0","0.8298767513","","0.6","0.8","0.4","0.2","","","","","0.8298767513","0.34308242","0.3851410914","0.4666104807","","","","","","","","","","72","H","0","img/none_selected.jpg","","66","main_expt",""
"","bandit","147","782625","0.0-108.0-0.0","00490146","wem/bandit_party_2","A24F1UPER626KR","either","6","82","","","","","","","1","0","0","0.8506596021","","0.6","0.8","0.4","0.2","","","","","0.8506596021","0.3730603492","0.3925250542","0.5547259005","","","","","","","","","","72","H","0","img/none_selected.jpg","","67","main_expt",""
"","bandit","148","784405","0.0-109.0-0.0","00490146","wem/bandit_party_2","A24F1UPER626KR","either","6","273","","","","","","","1","0","0","0.8536910832","","0.6","0.8","0.4","0.2","","","","","0.8536910832","0.4089949532","0.3884113518","0.6038719492","","","","","","","","","","72","H","0","img/none_selected.jpg","","68","main_expt",""
"","bandit","149","786198","0.0-110.0-0.0","00490146","wem/bandit_party_2","A24F1UPER626KR","either","6","267","","","","","","","1","0","0","0.8642538991","","0.6","0.8","0.4","0.2","","","","","0.8642538991","0.3749002533","0.3434478979","0.6148283845","","","","","","","","","","72","H","0","img/none_selected.jpg","","69","main_expt",""
"","bandit","150","787973","0.0-111.0-0.0","00490146","wem/bandit_party_2","A24F1UPER626KR","either","6","265","","","","","","","1","0","0","0.8073802352","","0.6","0.8","0.4","0.2","","","","","0.8073802352","0.4133869845","0.4426642051","0.6683283761","","","","","","","","","","72","H","0","img/none_selected.jpg","","70","main_expt",""
"","bandit","151","789788","0.0-112.0-0.0","00490146","wem/bandit_party_2","A24F1UPER626KR","either","6","269","","","","","","","0","0","1","0.8059201048","","0.6","0.8","0.4","0.2","","","","","0.8059201048","0.3302164541","0.4518046004","0.738459761","","","","","","","","","","72","H","0","img/none_selected.jpg","","71","main_expt",""
"","bandit","152","791540","0.0-113.0-0.0","00490146","wem/bandit_party_2","A24F1UPER626KR","either","6","245","","","","","","","1","0","0","0.8262275011","","0.6","0.8","0.4","0.2","","","","","0.8262275011","0.2570952275","0.4903223245","0.6525166508","","","","","","","","","","72","H","0","img/none_selected.jpg","","72","main_expt",""
"","bandit","153","793325","0.0-114.0-0.0","00490146","wem/bandit_party_2","A24F1UPER626KR","either","6","279","","","","","","","0","0","1","","0.7334390718","0.6","0.8","0.4","0.2","0.7334390718","0.2042885023","0.5296083002","0.5715134512","","","","","","","","","","","","","","72","H","0","img/none_selected.jpg","","73","main_expt",""
"","bandit","154","795485","0.0-115.0-0.0","00490146","wem/bandit_party_2","A24F1UPER626KR","either","6","653","","","","","","","0","1","0","","0.6228045854","0.6","0.8","0.4","0.2","0.7490977197","0.2152837516","0.4883026933","0.6228045854","","","","","","","","","","","","","","76","L","3","","","74","main_expt",""
"","bandit","155","797147","0.0-116.0-0.0","00490146","wem/bandit_party_2","A24F1UPER626KR","either","6","150","","","","","","","0","0","1","","0.613630376","0.6","0.8","0.4","0.2","0.7554087461","0.2044775694","0.4914171484","0.613630376","","","","","","","","","","","","","","76","L","3","","","75","main_expt",""
"","bandit","156","798810","0.0-117.0-0.0","00490146","wem/bandit_party_2","A24F1UPER626KR","either","6","147","","","","","","","0","1","0","","0.7047266053","0.6","0.8","0.4","0.2","0.804443878","0.2247613499","0.6059218973","0.7047266053","","","","","","","","","","","","","","76","L","3","","","76","main_expt",""
"","bandit","157","800790","0.0-118.0-0.0","00490146","wem/bandit_party_2","A24F1UPER626KR","either","6","473","","","","","","","0","1","0","","0.6910360943","0.6","0.8","0.4","0.2","0.6656620098","0.2266335256","0.553792366","0.6910360943","","","","","","","","","","","","","","76","L","3","","","77","main_expt",""
"","bandit","158","802525","0.0-119.0-0.0","00490146","wem/bandit_party_2","A24F1UPER626KR","either","6","228","","","","","","","1","0","0","0.5515992215","","0.6","0.8","0.4","0.2","","","","","0.5898140708","0.1659731505","0.6884193839","0.5515992215","","","","","","","","","","76","L","3","","","78","main_expt",""
"","bandit","159","804194","0.0-120.0-0.0","00490146","wem/bandit_party_2","A24F1UPER626KR","either","6","150","","","","","","","0","1","0","","0.6448399581","0.6","0.8","0.4","0.2","0.613215191","0.2343921172","0.7214277645","0.6448399581","","","","","","","","","","","","","","76","L","3","","","79","main_expt",""
"","bandit","160","805959","0.0-121.0-0.0","00490146","wem/bandit_party_2","A24F1UPER626KR","either","6","253","","","","","","","0","1","0","","0.739479497","0.6","0.8","0.4","0.2","0.4605925783","0.2164054515","0.7328142644","0.739479497","","","","","","","","","","","","","","76","L","3","","","80","main_expt",""
"","bandit","161","807686","0.0-122.0-0.0","00490146","wem/bandit_party_2","A24F1UPER626KR","either","6","218","","","","","","","0","1","0","","0.6956071838","0.6","0.8","0.4","0.2","0.5390789087","0.1361232007","0.7101675561","0.6956071838","","","","","","","","","","","","","","76","L","3","","","81","main_expt",""
"","bandit","162","809701","0.0-123.0-0.0","00490146","wem/bandit_party_2","A24F1UPER626KR","either","6","504","","","","","","","0","0","1","0.5886517937","","0.6","0.8","0.4","0.2","","","","","0.621290364","0.2275447725","0.6984384541","0.5886517937","","","","","","","","","","76","L","3","","","82","main_expt",""
"","bandit","163","811416","0.0-124.0-0.0","00490146","wem/bandit_party_2","A24F1UPER626KR","either","6","203","","","","","","","0","0","1","","0.4764182235","0.6","0.8","0.4","0.2","0.6359424421","0.1900607051","0.7447883659","0.4764182235","","","","","","","","","","","","","","76","L","3","","","83","main_expt",""
"","bandit","164","813092","0.0-125.0-0.0","00490146","wem/bandit_party_2","A24F1UPER626KR","either","6","170","","","","","","","0","1","0","","0.6900592863","0.6","0.8","0.4","0.2","0.6133664729","0.1306868958","0.6900592863","0.5149027494","","","","","","","","","","","","","","75","K","2","","","84","main_expt",""
"","bandit","165","814877","0.0-126.0-0.0","00490146","wem/bandit_party_2","A24F1UPER626KR","either","6","260","","","","","","","1","0","0","0.7010597455","","0.6","0.8","0.4","0.2","","","","","0.7815463305","0.1683201849","0.7010597455","0.4908067213","","","","","","","","","","75","K","2","","","85","main_expt",""
"","bandit","166","816589","0.0-127.0-0.0","00490146","wem/bandit_party_2","A24F1UPER626KR","either","6","201","","","","","","","0","1","0","","0.6171062652","0.6","0.8","0.4","0.2","0.7355789231","0.1290314955","0.6171062652","0.4139472458","","","","","","","","","","","","","","75","K","2","","","86","main_expt",""
"","bandit","167","818440","0.0-128.0-0.0","00490146","wem/bandit_party_2","A24F1UPER626KR","either","6","345","","","","","","","0","0","1","0.5629375242","","0.6","0.8","0.4","0.2","","","","","0.7267399876","0.2297537383","0.5629375242","0.4253818619","","","","","","","","","","75","K","2","","","87","main_expt",""
"","bandit","168","820021","0.0-129.0-0.0","00490146","wem/bandit_party_2","A24F1UPER626KR","either","6","73","","","","","","","0","1","0","","0.6434443074","0.6","0.8","0.4","0.2","0.7703195612","0.1878263516","0.6434443074","0.4448862761","","","","","","","","","","","","","","75","K","2","","","88","main_expt",""
"","bandit","169","821735","0.0-130.0-0.0","00490146","wem/bandit_party_2","A24F1UPER626KR","either","6","205","","","","","","","1","0","0","0.7296698787","","0.6","0.8","0.4","0.2","","","","","0.81872988","0.1896964823","0.7296698787","0.4295642349","","","","","","","","","","75","K","2","","","89","main_expt",""
"","bandit","170","823448","0.0-131.0-0.0","00490146","wem/bandit_party_2","A24F1UPER626KR","either","6","203","","","","","","","0","1","0","","0.7042864347","0.6","0.8","0.4","0.2","0.8032570632","0.1614970172","0.7042864347","0.3655203192","","","","","","","","","","","","","","75","K","2","","","90","main_expt",""
"","bandit","171","825200","0.0-132.0-0.0","00490146","wem/bandit_party_2","A24F1UPER626KR","either","6","239","","","","","","","1","0","0","0.7606559624","","0.6","0.8","0.4","0.2","","","","","0.8257352781","0.2107705911","0.7606559624","0.402428746","","","","","","","","","","75","K","2","","","91","main_expt",""
"","bandit","172","826806","0.0-133.0-0.0","00490146","wem/bandit_party_2","A24F1UPER626KR","either","6","91","","","","","","","0","1","0","","0.8466818248","0.6","0.8","0.4","0.2","0.7762210657","0.1317951273","0.8466818248","0.452733603","","","","","","","","","","","","","","75","K","2","","","92","main_expt",""
"","bandit","173","828649","0.0-134.0-0.0","00490146","wem/bandit_party_2","A24F1UPER626KR","either","6","308","","","","","","","1","0","0","0.8181600593","","0.6","0.8","0.4","0.2","","","","","0.8293629201","0.09268613222","0.8181600593","0.5416456901","","","","","","","","","","75","K","2","","","93","main_expt",""
"","bandit","174","830252","0.0-135.0-0.0","00490146","wem/bandit_party_2","A24F1UPER626KR","either","6","85","","","","","","","0","1","0","","0.7259749053","0.6","0.8","0.4","0.2","0.7849393417","0.06418168538","0.7259749053","0.5246039132","","","","","","","","","","","","","","75","K","2","","","94","main_expt",""
"","bandit","175","831856","0.0-136.0-0.0","00490146","wem/bandit_party_2","A24F1UPER626KR","either","6","87","","","","","","","0","1","0","","0.6538641892","0.6","0.8","0.4","0.2","0.7850226125","0.100072779","0.6538641892","0.606801291","","","","","","","","","","","","","","75","K","2","","","95","main_expt",""
"","bandit","176","833433","0.0-137.0-0.0","00490146","wem/bandit_party_2","A24F1UPER626KR","either","6","68","","","","","","","0","0","1","","0.6384360591","0.6","0.8","0.4","0.2","0.8013150942","0.09628221604","0.6384360591","0.7175242067","","","","","","","","","","","","","","75","K","2","","","96","main_expt",""
"","bandit","177","835005","0.0-138.0-0.0","00490146","wem/bandit_party_2","A24F1UPER626KR","either","6","61","","","","","","","0","1","0","","0.6836118029","0.6","0.8","0.4","0.2","0.70340399","0.1335622201","0.6836118029","0.7706560561","","","","","","","","","","","","","","75","K","2","","","97","main_expt",""
"","bandit","178","836808","0.0-139.0-0.0","00490146","wem/bandit_party_2","A24F1UPER626KR","either","6","292","","","","","","","0","1","0","","0.659457158","0.6","0.8","0.4","0.2","0.7562517051","0.167202632","0.659457158","0.7234704616","","","","","","","","","","","","","","75","K","2","","","98","main_expt",""
"","bandit","179","838552","0.0-140.0-0.0","00490146","wem/bandit_party_2","A24F1UPER626KR","either","6","232","","","","","","","0","1","0","","0.7726162223","0.6","0.8","0.4","0.2","0.6514659141","0.1216125457","0.7726162223","0.6582042781","","","","","","","","","","","","","","75","K","2","","","99","main_expt",""
"","bandit","180","840191","0.0-141.0-0.0","00490146","wem/bandit_party_2","A24F1UPER626KR","either","6","129","","","","","","","0","0","1","","0.8446518706","0.6","0.8","0.4","0.2","0.7112237606","0.1163239148","0.8446518706","0.6530973887","","","","","","","","","","","","","","75","K","2","","","100","main_expt",""
"","bandit","181","841761","0.0-142.0-0.0","00490146","wem/bandit_party_2","A24F1UPER626KR","either","6","60","","","","","","","1","0","0","0.8784151442","","0.6","0.8","0.4","0.2","","","","","0.6865981462","0.1037928869","0.8784151442","0.6690961394","","","","","","","","","","75","K","2","","","101","main_expt",""
"","bandit","182","843535","0.0-143.0-0.0","00490146","wem/bandit_party_2","A24F1UPER626KR","either","6","265","","","","","","","0","1","0","","0.8781202538","0.6","0.8","0.4","0.2","0.6663704066","0.0991068806","0.8781202538","0.6268844929","","","","","","","","","","","","","","75","K","2","","","102","main_expt",""
"","bandit","183","845258","0.0-144.0-0.0","00490146","wem/bandit_party_2","A24F1UPER626KR","either","6","213","","","","","","","0","0","1","","0.8123732176","0.6","0.8","0.4","0.2","0.6006744832","0.1226752409","0.8123732176","0.6657789595","","","","","","","","","","","","","","75","K","2","","","103","main_expt",""
"","bandit","184","847543","0.0-145.0-0.0","00490146","wem/bandit_party_2","A24F1UPER626KR","either","6","777","","","","","","","1","0","0","0.8461937008","","0.6","0.8","0.4","0.2","","","","","0.518723913","0.1552466415","0.8461937008","0.6951589836","","","","","","","","","","75","K","2","","","104","main_expt",""
"","bandit","185","849082","0.0-146.0-0.0","00490146","wem/bandit_party_2","A24F1UPER626KR","either","6","22","","","","","","","0","1","0","","0.8664825842","0.6","0.8","0.4","0.2","0.5343999165","0.1702138509","0.8664825842","0.6382729445","","","","","","","","","","","","","","75","K","2","","","105","main_expt",""
"","bandit","186","850674","0.0-147.0-0.0","00490146","wem/bandit_party_2","A24F1UPER626KR","either","6","74","","","","","","","0","0","1","","0.8703997655","0.6","0.8","0.4","0.2","0.4959998489","0.2021425125","0.8703997655","0.7139624249","","","","","","","","","","","","","","75","K","2","","","106","main_expt",""
"","bandit","187","852358","0.0-148.0-0.0","00490146","wem/bandit_party_2","A24F1UPER626KR","either","6","176","","","","","","","0","1","0","","0.8964314806","0.6","0.8","0.4","0.2","0.5052663648","0.2196373816","0.8964314806","0.7718136471","","","","","","","","","","","","","","75","K","2","","","107","main_expt",""
"","bandit","188","853924","0.0-149.0-0.0","00490146","wem/bandit_party_2","A24F1UPER626KR","either","6","58","","","","","","","1","0","0","0.9080126319","","0.6","0.8","0.4","0.2","","","","","0.4859582203","0.2393661099","0.9080126319","0.8818715302","","","","","","","","","","75","K","2","","","108","main_expt",""
"","bandit","189","855466","0.0-150.0-0.0","00490146","wem/bandit_party_2","A24F1UPER626KR","either","6","21","","","","","","","1","0","0","0.8880845243","","0.6","0.8","0.4","0.2","","","","","0.523617738","0.2516352594","0.8880845243","0.8757741924","","","","","","","","","","75","K","2","","","109","main_expt",""
"","bandit","190","857107","0.0-151.0-0.0","00490146","wem/bandit_party_2","A24F1UPER626KR","either","6","131","","","","","","","0","1","0","","0.899251136","0.6","0.8","0.4","0.2","0.5492010791","0.2424291788","0.899251136","0.8657151097","","","","","","","","","","","","","","75","K","2","","","110","main_expt",""
"","bandit","191","858768","0.0-152.0-0.0","00490146","wem/bandit_party_2","A24F1UPER626KR","either","6","153","","","","","","","1","0","0","0.9019514556","","0.6","0.8","0.4","0.2","","","","","0.5467154696","0.2033086481","0.9019514556","0.8457624762","","","","","","","","","","75","K","2","","","111","main_expt",""
"","bandit","192","860427","0.0-153.0-0.0","00490146","wem/bandit_party_2","A24F1UPER626KR","either","6","150","","","","","","","0","1","0","","0.9315537639","0.6","0.8","0.4","0.2","0.5396215981","0.208613213","0.9315537639","0.8756116827","","","","","","","","","","","","","","75","K","2","","","112","main_expt",""
"","bandit","193","862031","0.0-154.0-0.0","00490146","wem/bandit_party_2","A24F1UPER626KR","either","6","92","","","","","","","1","0","0","0.9254394702","","0.6","0.8","0.4","0.2","","","","","0.5542875214","0.2743958833","0.9254394702","0.8773181328","","","","","","","","","","75","K","2","","","113","main_expt",""
"","bandit","194","863969","0.0-155.0-0.0","00490146","wem/bandit_party_2","A24F1UPER626KR","either","6","431","","","","","","","0","1","0","","0.9394904604","0.6","0.8","0.4","0.2","0.6411428718","0.2657329006","0.9394904604","0.8842236373","","","","","","","","","","","","","","75","K","2","","","114","main_expt",""
"","bandit","195","865562","0.0-156.0-0.0","00490146","wem/bandit_party_2","A24F1UPER626KR","either","6","83","","","","","","","0","1","0","","0.9533355239","0.6","0.8","0.4","0.2","0.7261400339","0.3234316928","0.9533355239","0.8499121835","","","","","","","","","","","","","","75","K","2","","","115","main_expt",""
"","bandit","196","867207","0.0-157.0-0.0","00490146","wem/bandit_party_2","A24F1UPER626KR","either","6","136","","","","","","","0","1","0","","0.960842596","0.6","0.8","0.4","0.2","0.7395407697","0.3625587123","0.960842596","0.7890056153","","","","","","","","","","","","","","75","K","2","","","116","main_expt",""
"","bandit","197","868786","0.0-158.0-0.0","00490146","wem/bandit_party_2","A24F1UPER626KR","either","6","70","","","","","","","0","1","0","","0.937733065","0.6","0.8","0.4","0.2","0.8231731708","0.4946904956","0.937733065","0.7709890197","","","","","","","","","","","","","","75","K","2","","","117","main_expt",""
"","bandit","198","870404","0.0-159.0-0.0","00490146","wem/bandit_party_2","A24F1UPER626KR","either","6","110","","","","","","","0","1","0","","0.9561499645","0.6","0.8","0.4","0.2","0.8278750807","0.6246330079","0.9561499645","0.7459937787","","","","","","","","","","","","","","75","K","2","","","118","main_expt",""
"","bandit","199","872561","0.0-160.0-0.0","00490146","wem/bandit_party_2","A24F1UPER626KR","either","6","648","","","","","","","1","0","0","0.9595118281","","0.6","0.8","0.4","0.2","","","","","0.8715827524","0.5818097722","0.9595118281","0.716881491","","","","","","","","","","75","K","2","","","119","main_expt",""
"","bandit","200","874384","0.0-161.0-0.0","00490146","wem/bandit_party_2","A24F1UPER626KR","either","6","306","","","","","","","0","1","0","","0.9548463758","0.6","0.8","0.4","0.2","0.8522670476","0.5990025551","0.9548463758","0.6595649419","","","","","","","","","","","","","","75","K","2","","","120","main_expt",""
"","bandit","201","876275","0.0-162.0-0.0","00490146","wem/bandit_party_2","A24F1UPER626KR","either","6","379","","","","","","","0","1","0","","0.958085665","0.6","0.8","0.4","0.2","0.8266542562","0.6534424477","0.958085665","0.6576447048","","","","","","","","","","","","","","75","K","2","","","121","main_expt",""
"","bandit","202","878341","0.0-163.0-0.0","00490146","wem/bandit_party_2","A24F1UPER626KR","either","6","554","","","","","","","1","0","0","0.9630601427","","0.6","0.8","0.4","0.2","","","","","0.81688531","0.5952731017","0.9630601427","0.6391957719","","","","","","","","","","75","K","2","","","122","main_expt",""
"","bandit","203","880387","0.0-164.0-0.0","00490146","wem/bandit_party_2","A24F1UPER626KR","either","6","534","","","","","","","0","1","0","","0.9790283764","0.6","0.8","0.4","0.2","0.8307363081","0.6469086187","0.9790283764","0.5873908865","","","","","","","","","","","","","","75","K","2","","","123","main_expt",""
"","bandit","204","882331","0.0-165.0-0.0","00490146","wem/bandit_party_2","A24F1UPER626KR","either","6","435","","","","","","","1","0","0","0.9718765302","","0.6","0.8","0.4","0.2","","","","","0.6943824695","0.6911454426","0.9718765302","0.6592760984","","","","","","","","","","75","K","2","","","124","main_expt",""
"","bandit","205","884518","0.0-166.0-0.0","00490146","wem/bandit_party_2","A24F1UPER626KR","either","6","676","","","","","","","1","0","0","0.9845173964","","0.6","0.8","0.4","0.2","","","","","0.7137568944","0.750572215","0.9845173964","0.6012083746","","","","","","","","","","75","K","2","","","125","main_expt",""
"","bandit","206","886864","0.0-167.0-0.0","00490146","wem/bandit_party_2","A24F1UPER626KR","either","6","832","","","","","","","0","1","0","","0.9804670004","0.6","0.8","0.4","0.2","0.6878742658","0.8108432581","0.9804670004","0.6043440275","","","","","","","","","","","","","","75","K","2","","","126","main_expt",""
"","bandit","207","889139","0.0-168.0-0.0","00490146","wem/bandit_party_2","A24F1UPER626KR","either","6","762","","","","","","","0","1","0","","0.9792667249","0.6","0.8","0.4","0.2","0.6175454059","0.8338196277","0.9792667249","0.5043142332","","","","","","","","","","","","","","75","K","2","","","127","main_expt",""
"","bandit","208","892097","0.0-169.0-0.0","00490146","wem/bandit_party_2","A24F1UPER626KR","either","6","1441","","","","","","","1","0","0","0.9853815399","","0.6","0.8","0.4","0.2","","","","","0.5556505876","0.8624128669","0.9853815399","0.5778209799","","","","","","","","","","75","K","2","","","128","main_expt",""
"","bandit","209","894127","0.0-170.0-0.0","00490146","wem/bandit_party_2","A24F1UPER626KR","either","6","519","","","","","","","1","0","0","0.9838319732","","0.6","0.8","0.4","0.2","","","","","0.5948532478","0.9026068167","0.9838319732","0.5806273004","","","","","","","","","","75","K","2","","","129","main_expt",""
"","bandit","210","896434","0.0-171.0-0.0","00490146","wem/bandit_party_2","A24F1UPER626KR","either","6","797","","","","","","","1","0","0","0.9798768453","","0.6","0.8","0.4","0.2","","","","","0.6646968067","0.8983636673","0.9798768453","0.4152233618","","","","","","","","","","75","K","2","","","130","main_expt",""
"","bandit","211","899619","0.0-172.0-0.0","00490146","wem/bandit_party_2","A24F1UPER626KR","either","6","1668","","","","","","","0","1","0","","0.9628017066","0.6","0.8","0.4","0.2","0.6676177377","0.888478962","0.9628017066","0.4527057242","","","","","","","","","","","","","","75","K","2","","","131","main_expt",""
"","bandit","212","902502","0.0-173.0-0.0","00490146","wem/bandit_party_2","A24F1UPER626KR","either","6","1372","","","","","","","0","1","0","","0.9723970119","0.6","0.8","0.4","0.2","0.7638630926","0.8470567254","0.9723970119","0.5185753891","","","","","","","","","","","","","","75","K","2","","","132","main_expt",""
"","bandit","213","905306","0.0-174.0-0.0","00490146","wem/bandit_party_2","A24F1UPER626KR","either","6","1294","","","","","","","0","1","0","","0.9754432393","0.6","0.8","0.4","0.2","0.726350598","0.8852081265","0.9754432393","0.4567386081","","","","","","","","","","","","","","75","K","2","","","133","main_expt",""
"","bandit","214","907290","0.0-175.0-0.0","00490146","wem/bandit_party_2","A24F1UPER626KR","either","6","473","","","","","","","1","0","0","0.9635376407","","0.6","0.8","0.4","0.2","","","","","0.7638059904","0.8317422298","0.9635376407","0.4494056808","","","","","","","","","","75","K","2","","","134","main_expt",""
"","bandit","215","909642","0.0-176.0-0.0","00490146","wem/bandit_party_2","A24F1UPER626KR","either","6","842","","","","","","","1","0","0","0.9304273523","","0.6","0.8","0.4","0.2","","","","","0.7337835984","0.8121858422","0.9304273523","0.4608562393","","","","","","","","","","75","K","2","","","135","main_expt",""
"","bandit","216","913364","0.0-177.0-0.0","00490146","wem/bandit_party_2","A24F1UPER626KR","either","6","2212","","","","","","","1","0","0","0.9295592062","","0.6","0.8","0.4","0.2","","","","","0.7869055623","0.8473276522","0.9295592062","0.6684020244","","","","","","","","","","75","K","2","","","136","main_expt",""
"","bandit","217","916390","0.0-178.0-0.0","00490146","wem/bandit_party_2","A24F1UPER626KR","either","6","1515","","","","","","","0","1","0","","0.9343332129","0.6","0.8","0.4","0.2","0.8033651193","0.8251243182","0.9343332129","0.614137061","","","","","","","","","","","","","","75","K","2","","","137","main_expt",""
"","bandit","218","919074","0.0-179.0-0.0","00490146","wem/bandit_party_2","A24F1UPER626KR","either","6","1173","","","","","","","0","1","0","","0.9325781127","0.6","0.8","0.4","0.2","0.7620089345","0.7892590299","0.9325781127","0.711021659","","","","","","","","","","","","","","75","K","2","","","138","main_expt",""
"","bandit","219","922788","0.0-180.0-0.0","00490146","wem/bandit_party_2","A24F1UPER626KR","either","6","2204","","","","","","","1","0","0","0.9687763229","","0.6","0.8","0.4","0.2","","","","","0.8098853196","0.753698647","0.9687763229","0.5731932267","","","","","","","","","","75","K","2","","","139","main_expt",""
"","bandit","220","925135","0.0-181.0-0.0","00490146","wem/bandit_party_2","A24F1UPER626KR","either","6","836","","","","","","","0","1","0","","0.9520204639","0.6","0.8","0.4","0.2","0.8737133651","0.7281837229","0.9520204639","0.6553783698","","","","","","","","","","","","","","75","K","2","","","140","main_expt",""
"","bandit","221","927697","0.0-182.0-0.0","00490146","wem/bandit_party_2","A24F1UPER626KR","either","6","1054","","","","","","","1","0","0","0.9615613541","","0.6","0.8","0.4","0.2","","","","","0.8464817719","0.7913145473","0.9615613541","0.5665224918","","","","","","","","","","75","K","2","","","141","main_expt",""
"","bandit","222","930023","0.0-183.0-0.0","00490146","wem/bandit_party_2","A24F1UPER626KR","either","6","816","","","","","","","0","1","0","","0.9438722422","0.6","0.8","0.4","0.2","0.8457688645","0.7498898283","0.9438722422","0.5230460729","","","","","","","","","","","","","","75","K","2","","","142","main_expt",""
"","bandit","223","932754","0.0-184.0-0.0","00490146","wem/bandit_party_2","A24F1UPER626KR","either","6","1221","","","","","","","0","1","0","","0.9419241064","0.6","0.8","0.4","0.2","0.8801682128","0.723110339","0.9419241064","0.5401897842","","","","","","","","","","","","","","75","K","2","","","143","main_expt",""
"","bandit","224","937110","0.0-185.0-0.0","00490146","wem/bandit_party_2","A24F1UPER626KR","either","6","2818","","","","","","","0","1","0","","0.9383966058","0.6","0.8","0.4","0.2","0.7806105972","0.7697142539","0.9383966058","0.5495292383","","","","","","","","","","","","","","75","K","2","","","144","main_expt",""
"","bandit","225","939260","0.0-186.0-0.0","00490146","wem/bandit_party_2","A24F1UPER626KR","either","6","641","","","","","","","0","1","0","","0.9442204223","0.6","0.8","0.4","0.2","0.7384744451","0.8279494337","0.9442204223","0.4718854897","","","","","","","","","","","","","","75","K","2","","","145","main_expt",""
"","bandit","226","941739","0.0-187.0-0.0","00490146","wem/bandit_party_2","A24F1UPER626KR","either","6","955","","","","","","","0","1","0","","0.9461270134","0.6","0.8","0.4","0.2","0.7078417075","0.747104877","0.9461270134","0.3790577705","","","","","","","","","","","","","","75","K","2","","","146","main_expt",""
"","bandit","227","944255","0.0-188.0-0.0","00490146","wem/bandit_party_2","A24F1UPER626KR","either","6","1004","","","","","","","0","1","0","","0.9677113618","0.6","0.8","0.4","0.2","0.7671729372","0.7635883185","0.9677113618","0.3671333747","","","","","","","","","","","","","","75","K","2","","","147","main_expt",""
"","bandit","228","946508","0.0-189.0-0.0","00490146","wem/bandit_party_2","A24F1UPER626KR","either","6","741","","","","","","","0","1","0","","0.9603287673","0.6","0.8","0.4","0.2","0.7515071201","0.6650729927","0.9603287673","0.4462771912","","","","","","","","","","","","","","75","K","2","","","148","main_expt",""
"","bandit","229","948761","0.0-190.0-0.0","00490146","wem/bandit_party_2","A24F1UPER626KR","either","6","742","","","","","","","1","0","0","0.9256305183","","0.6","0.8","0.4","0.2","","","","","0.7582160768","0.594527628","0.9256305183","0.3929125452","","","","","","","","","","75","K","2","","","149","main_expt",""
"","bandit","230","950778","0.0-191.0-0.0","00490146","wem/bandit_party_2","A24F1UPER626KR","either","6","502","","","","","","","1","0","0","0.9222609783","","0.6","0.8","0.4","0.2","","","","","0.6843302658","0.5101412162","0.9222609783","0.3825194633","","","","","","","","","","75","K","2","","","150","main_expt",""
"","bandit","231","952986","0.0-192.0-0.0","00490146","wem/bandit_party_2","A24F1UPER626KR","either","6","697","","","","","","","0","1","0","","0.9522131909","0.6","0.8","0.4","0.2","0.4980827124","0.5755011036","0.9522131909","0.3889652011","","","","","","","","","","","","","","75","K","2","","","151","main_expt",""
"","bandit","232","955782","0.0-193.0-0.0","00490146","wem/bandit_party_2","A24F1UPER626KR","either","6","1286","","","","","","","0","1","0","","0.9351777179","0.6","0.8","0.4","0.2","0.5418861514","0.5415628766","0.9351777179","0.372169082","","","","","","","","","","","","","","75","K","2","","","152","main_expt",""
"","bandit","233","958092","0.0-194.0-0.0","00490146","wem/bandit_party_2","A24F1UPER626KR","either","6","800","","","","","","","0","1","0","","0.9526549669","0.6","0.8","0.4","0.2","0.6424708626","0.6392888902","0.9526549669","0.4275919172","","","","","","","","","","","","","","75","K","2","","","153","main_expt",""
"","bandit","234","960923","0.0-195.0-0.0","00490146","wem/bandit_party_2","A24F1UPER626KR","either","6","1319","","","","","","","0","1","0","","0.944677936","0.6","0.8","0.4","0.2","0.6200403258","0.6798835142","0.944677936","0.3978897223","","","","","","","","","","","","","","75","K","2","","","154","main_expt",""
"","bandit","235","963094","0.0-196.0-0.0","00490146","wem/bandit_party_2","A24F1UPER626KR","either","6","616","","","","","","","1","0","0","0.9443948233","","0.6","0.8","0.4","0.2","","","","","0.5087788092","0.7376683638","0.9443948233","0.4922143253","","","","","","","","","","75","K","2","","","155","main_expt",""
"","bandit","236","965793","0.0-197.0-0.0","00490146","wem/bandit_party_2","A24F1UPER626KR","either","6","1189","","","","","","","0","1","0","","0.9312029685","0.6","0.8","0.4","0.2","0.4397360723","0.7740838489","0.9312029685","0.5060601407","","","","","","","","","","","","","","75","K","2","","","156","main_expt",""
"","bandit","237","968166","0.0-198.0-0.0","00490146","wem/bandit_party_2","A24F1UPER626KR","either","6","862","","","","","","","1","0","0","0.9009413449","","0.6","0.8","0.4","0.2","","","","","0.4529934193","0.7526352547","0.9009413449","0.56460533","","","","","","","","","","75","K","2","","","157","main_expt",""
"","bandit","238","970225","0.0-199.0-0.0","00490146","wem/bandit_party_2","A24F1UPER626KR","either","6","549","","","","","","","0","1","0","","0.8799225656","0.6","0.8","0.4","0.2","0.522014142","0.807066173","0.8799225656","0.5551408743","","","","","","","","","","","","","","75","K","2","","","158","main_expt",""
"","bandit","239","973002","0.0-200.0-0.0","00490146","wem/bandit_party_2","A24F1UPER626KR","either","6","1269","","","","","","","0","1","0","","0.9103166083","0.6","0.8","0.4","0.2","0.447178695","0.8348587906","0.9103166083","0.6362487126","","","","","","","","","","","","","","75","K","2","","","159","main_expt",""
"","bandit","240","975092","0.0-201.0-0.0","00490146","wem/bandit_party_2","A24F1UPER626KR","either","6","557","","","","","","","0","1","0","","0.9575168601","0.6","0.8","0.4","0.2","0.4293784973","0.8054329593","0.9575168601","0.5818198138","","","","","","","","","","","","","","75","K","2","","","160","main_expt",""
"","bandit","241","977134","0.0-202.0-0.0","00490146","wem/bandit_party_2","A24F1UPER626KR","either","6","516","","","","","","","1","0","0","0.9323430526","","0.6","0.8","0.4","0.2","","","","","0.4263694152","0.8263011938","0.9323430526","0.5079421761","","","","","","","","","","75","K","2","","","161","main_expt",""
"","bandit","242","979105","0.0-203.0-0.0","00490146","wem/bandit_party_2","A24F1UPER626KR","either","6","460","","","","","","","1","0","0","0.8731035433","","0.6","0.8","0.4","0.2","","","","","0.4394756583","0.8468561623","0.8731035433","0.3944353318","","","","","","","","","","75","K","2","","","162","main_expt",""
"","bandit","243","981417","0.0-204.0-0.0","00490146","wem/bandit_party_2","A24F1UPER626KR","either","6","800","","","","","","","1","0","0","0.860239847","","0.6","0.8","0.4","0.2","","","","","0.4632532181","0.866861138","0.860239847","0.4560534757","","","","","","","","","","75","K","2","","","163","main_expt",""
"","bandit","244","983737","0.0-205.0-0.0","00490146","wem/bandit_party_2","A24F1UPER626KR","either","6","810","","","","","","","0","1","0","","0.8327160304","0.6","0.8","0.4","0.2","0.469091439","0.8621839131","0.8327160304","0.4338988853","","","","","","","","","","","","","","75","K","2","","","164","main_expt",""
"","bandit","245","985798","0.0-206.0-0.0","00490146","wem/bandit_party_2","A24F1UPER626KR","either","6","529","","","","","","","1","0","0","0.8780399083","","0.6","0.8","0.4","0.2","","","","","0.4691854483","0.8368369455","0.8780399083","0.3640020004","","","","","","","","","","75","K","2","","","165","main_expt",""
"","bandit","246","987987","0.0-207.0-0.0","00490146","wem/bandit_party_2","A24F1UPER626KR","either","6","672","","","","","","","1","0","0","0.8659509199","","0.6","0.8","0.4","0.2","","","","","0.424594696","0.8543831227","0.8659509199","0.4433911144","","","","","","","","","","75","K","2","","","166","main_expt",""
"","bandit","247","990211","0.0-208.0-0.0","00490146","wem/bandit_party_2","A24F1UPER626KR","either","6","713","","","","","","","0","1","0","","0.8458676595","0.6","0.8","0.4","0.2","0.4691217736","0.8444257961","0.8458676595","0.4852122499","","","","","","","","","","","","","","75","K","2","","","167","main_expt",""
"","bandit","248","992047","0.0-209.0-0.0","00490146","wem/bandit_party_2","A24F1UPER626KR","either","6","325","","","","","","","1","0","0","0.7368025647","","0.6","0.8","0.4","0.2","","","","","0.4605946041","0.8895061166","0.7368025647","0.4829488348","","","","","","","","","","75","K","2","","","168","main_expt",""
"","bandit","249","993981","0.0-210.0-0.0","00490146","wem/bandit_party_2","A24F1UPER626KR","either","6","426","","","","","","","0","0","1","0.6811301937","","0.6","0.8","0.4","0.2","","","","","0.4302520818","0.8980662015","0.6811301937","0.467087579","","","","","","","","","","75","K","2","","","169","main_expt",""
"","bandit","250","995961","0.0-211.0-0.0","00490146","wem/bandit_party_2","A24F1UPER626KR","either","6","467","","","","","","","0","1","0","","0.6781719117","0.6","0.8","0.4","0.2","0.3846086554","0.9399190154","0.6781719117","0.3575164989","","","","","","","","","","","","","","75","K","2","","","170","main_expt",""
"","bandit","251","998187","0.0-212.0-0.0","00490146","wem/bandit_party_2","A24F1UPER626KR","either","6","717","","","","","","","1","0","0","0.5779776893","","0.6","0.8","0.4","0.2","","","","","0.4938912128","0.9199626721","0.5779776893","0.3433755155","","","","","","","","","","75","K","2","","","171","main_expt",""
"","bandit","252","1000890","0.0-213.0-0.0","00490146","wem/bandit_party_2","A24F1UPER626KR","either","6","1193","","","","","","","0","1","0","","0.5461867433","0.6","0.8","0.4","0.2","0.5409242696","0.8885959212","0.5461867433","0.2921203137","","","","","","","","","","","","","","75","K","2","","","172","main_expt",""
"","bandit","253","1002933","0.0-214.0-0.0","00490146","wem/bandit_party_2","A24F1UPER626KR","either","6","534","","","","","","","0","0","1","","0.5898781272","0.6","0.8","0.4","0.2","0.4899310385","0.8502068985","0.5898781272","0.3237382503","","","","","","","","","","","","","","75","K","2","","","173","main_expt",""
"","bandit","254","1004852","0.0-215.0-0.0","00490146","wem/bandit_party_2","A24F1UPER626KR","either","6","411","","","","","","","0","1","0","","0.5990225055","0.6","0.8","0.4","0.2","0.4464532747","0.9054067092","0.5990225055","0.2935635685","","","","","","","","","","","","","","75","K","2","","","174","main_expt",""
"","bandit","255","1007073","0.0-216.0-0.0","00490146","wem/bandit_party_2","A24F1UPER626KR","either","6","702","","","","","","","0","0","1","","0.6129624105","0.6","0.8","0.4","0.2","0.4363040476","0.9096893241","0.6129624105","0.2797951809","","","","","","","","","","","","","","75","K","2","","","175","main_expt",""
"","bandit","256","1010227","0.0-217.0-0.0","00490146","wem/bandit_party_2","A24F1UPER626KR","either","6","1643","","","","","","","0","0","1","","0.5434192492","0.6","0.8","0.4","0.2","0.4198776974","0.9081003197","0.5434192492","0.2067270565","","","","","","","","","","","","","","75","K","2","","","176","main_expt",""
"","bandit","257","1012460","0.0-218.0-0.0","00490146","wem/bandit_party_2","A24F1UPER626KR","either","6","721","","","","","","","0","0","1","0.5893108522","","0.6","0.8","0.4","0.2","","","","","0.4001478854","0.8417535431","0.5893108522","0.19266164","","","","","","","","","","75","K","2","","","177","main_expt",""
"","bandit","258","1014690","0.0-219.0-0.0","00490146","wem/bandit_party_2","A24F1UPER626KR","either","6","718","","","","","","","0","1","0","","0.8045518304","0.6","0.8","0.4","0.2","0.3015477047","0.8045518304","0.4862463398","0.1393448617","","","","","","","","","","","","","","74","J","1","","","178","main_expt",""
"","bandit","259","1016942","0.0-220.0-0.0","00490146","wem/bandit_party_2","A24F1UPER626KR","either","6","731","","","","","","","1","0","0","0.8250115846","","0.6","0.8","0.4","0.2","","","","","0.2700131006","0.8250115846","0.4227787996","0.1149816072","","","","","","","","","","74","J","1","","","179","main_expt",""
"","bandit","260","1019006","0.0-221.0-0.0","00490146","wem/bandit_party_2","A24F1UPER626KR","either","6","556","","","","","","","0","0","1","0.7418096358","","0.6","0.8","0.4","0.2","","","","","0.3473069","0.7418096358","0.3583368423","0.1231561222","","","","","","","","","","74","J","1","","","180","main_expt",""
"","bandit","261","1021387","0.0-222.0-0.0","00490146","wem/bandit_party_2","A24F1UPER626KR","either","6","870","","","","","","","0","1","0","","0.7180260456","0.6","0.8","0.4","0.2","0.3478804011","0.7180260456","0.3820052134","0.1134989143","","","","","","","","","","","","","","74","J","1","","","181","main_expt",""
"","bandit","262","1023497","0.0-223.0-0.0","00490146","wem/bandit_party_2","A24F1UPER626KR","either","6","594","","","","","","","1","0","0","0.6777378447","","0.6","0.8","0.4","0.2","","","","","0.3304981007","0.6777378447","0.437769555","0.07317944644","","","","","","","","","","74","J","1","","","182","main_expt",""
"","bandit","263","1025333","0.0-224.0-0.0","00490146","wem/bandit_party_2","A24F1UPER626KR","either","6","327","","","","","","","1","0","0","0.6331465848","","0.6","0.8","0.4","0.2","","","","","0.2578466268","0.6331465848","0.3951330089","0.05085611098","","","","","","","","","","74","J","1","","","183","main_expt",""
"","bandit","264","1027531","0.0-225.0-0.0","00490146","wem/bandit_party_2","A24F1UPER626KR","either","6","688","","","","","","","1","0","0","0.6578519513","","0.6","0.8","0.4","0.2","","","","","0.3550464129","0.6578519513","0.4062376343","0.07152820202","","","","","","","","","","74","J","1","","","184","main_expt",""
"","bandit","265","1029756","0.0-226.0-0.0","00490146","wem/bandit_party_2","A24F1UPER626KR","either","6","700","","","","","","","1","0","0","0.7160298793","","0.6","0.8","0.4","0.2","","","","","0.2993299556","0.7160298793","0.4035727276","0.08814522307","","","","","","","","","","74","J","1","","","185","main_expt",""
"","bandit","266","1031951","0.0-227.0-0.0","00490146","wem/bandit_party_2","A24F1UPER626KR","either","6","678","","","","","","","0","0","1","0.7081703269","","0.6","0.8","0.4","0.2","","","","","0.3985972224","0.7081703269","0.4595565904","0.0931487442","","","","","","","","","","74","J","1","","","186","main_expt",""
"","bandit","267","1033930","0.0-228.0-0.0","00490146","wem/bandit_party_2","A24F1UPER626KR","either","6","469","","","","","","","1","0","0","0.7670757258","","0.6","0.8","0.4","0.2","","","","","0.4563810555","0.7670757258","0.4956959756","0.05847154344","","","","","","","","","","74","J","1","","","187","main_expt",""
"","bandit","268","1035976","0.0-229.0-0.0","00490146","wem/bandit_party_2","A24F1UPER626KR","either","6","529","","","","","","","1","0","0","0.7986884496","","0.6","0.8","0.4","0.2","","","","","0.4621092719","0.7986884496","0.4295585103","0.05005107021","","","","","","","","","","74","J","1","","","188","main_expt",""
"","bandit","269","1038120","0.0-230.0-0.0","00490146","wem/bandit_party_2","A24F1UPER626KR","either","6","630","","","","","","","0","0","1","0.8113194514","","0.6","0.8","0.4","0.2","","","","","0.4214675273","0.8113194514","0.4121259827","0.05158958255","","","","","","","","","","74","J","1","","","189","main_expt",""
"","bandit","270","1040213","0.0-231.0-0.0","00490146","wem/bandit_party_2","A24F1UPER626KR","either","6","580","","","","","","","0","1","0","","0.8311477635","0.6","0.8","0.4","0.2","0.4445162903","0.8311477635","0.40505342","0.0530996007","","","","","","","","","","","","","","74","J","1","","","190","main_expt",""
"","bandit","271","1042508","0.0-232.0-0.0","00490146","wem/bandit_party_2","A24F1UPER626KR","either","6","784","","","","","","","1","0","0","0.7941336253","","0.6","0.8","0.4","0.2","","","","","0.4077799102","0.7941336253","0.3671493273","0.05342003941","","","","","","","","","","74","J","1","","","191","main_expt",""
"","bandit","272","1044484","0.0-233.0-0.0","00490146","wem/bandit_party_2","A24F1UPER626KR","either","6","465","","","","","","","1","0","0","0.841847859","","0.6","0.8","0.4","0.2","","","","","0.413117206","0.841847859","0.3367263454","0.05264216412","","","","","","","","","","74","J","1","","","192","main_expt",""
"","bandit","273","1047447","0.0-234.0-0.0","00490146","wem/bandit_party_2","A24F1UPER626KR","either","6","1452","","","","","","","1","0","0","0.865127625","","0.6","0.8","0.4","0.2","","","","","0.374663265","0.865127625","0.2587514209","0.07418965368","","","","","","","","","","74","J","1","","","193","main_expt",""
"","bandit","274","1049407","0.0-235.0-0.0","00490146","wem/bandit_party_2","A24F1UPER626KR","either","6","450","","","","","","","0","1","0","","0.8369883383","0.6","0.8","0.4","0.2","0.2792309937","0.8369883383","0.2123696513","0.1148515542","","","","","","","","","","","","","","74","J","1","","","194","main_expt",""
"","bandit","275","1053081","0.0-236.0-0.0","00490146","wem/bandit_party_2","A24F1UPER626KR","either","6","2164","","","","","","","1","0","0","0.8226177272","","0.6","0.8","0.4","0.2","","","","","0.3090424304","0.8226177272","0.2551117677","0.1102075851","","","","","","","","","","74","J","1","","","195","main_expt",""
"","bandit","276","1055508","0.0-237.0-0.0","00490146","wem/bandit_party_2","A24F1UPER626KR","either","6","915","","","","","","","1","0","0","0.8759919892","","0.6","0.8","0.4","0.2","","","","","0.2254203465","0.8759919892","0.2948177706","0.09307195637","","","","","","","","","","74","J","1","","","196","main_expt",""
"","bandit","277","1060354","0.0-238.0-0.0","00490146","wem/bandit_party_2","A24F1UPER626KR","either","6","3334","","","","","","","0","0","1","0.9413038234","","0.6","0.8","0.4","0.2","","","","","0.2104085952","0.9413038234","0.2864074111","0.08341332984","","","","","","","","","","74","J","1","","","197","main_expt",""
"","bandit","278","1062184","0.0-239.0-0.0","00490146","wem/bandit_party_2","A24F1UPER626KR","either","6","309","","","","","","","1","0","0","0.9384937307","","0.6","0.8","0.4","0.2","","","","","0.1686499416","0.9384937307","0.3044962429","0.06206278739","","","","","","","","","","74","J","1","","","198","main_expt",""
"","bandit","279","1064455","0.0-240.0-0.0","00490146","wem/bandit_party_2","A24F1UPER626KR","either","6","758","","","","","","","0","1","0","","0.927250614","0.6","0.8","0.4","0.2","0.1696058054","0.927250614","0.2804127106","0.1015706687","","","","","","","","","","","","","","74","J","1","","","199","main_expt",""
"","bandit","280","1066394","0.0-241.0-0.0","00490146","wem/bandit_party_2","A24F1UPER626KR","either","6","428","","","","","","","1","0","0","0.8840406778","","0.6","0.8","0.4","0.2","","","","","0.1940139532","0.8840406778","0.3151112274","0.07348353789","","","","","","","","","","74","J","1","","","200","main_expt",""
"","bandit","281","1068990","0.0-242.0-0.0","00490146","wem/bandit_party_2","A24F1UPER626KR","either","6","1083","","","","","","","0","0","1","","0.8866639954","0.6","0.8","0.4","0.2","0.2384341862","0.8866639954","0.3124471347","0.09218994405","","","","","","","","","","","","","","74","J","1","","","201","main_expt",""
"","bandit","282","1071553","0.0-243.0-0.0","00490146","wem/bandit_party_2","A24F1UPER626KR","either","6","1051","","","","","","","1","0","0","0.8188103646","","0.6","0.8","0.4","0.2","","","","","0.2069173963","0.8188103646","0.3418115628","0.1662378481","","","","","","","","","","74","J","1","","","202","main_expt",""
"","bandit","283","1074952","0.0-244.0-0.0","00490146","wem/bandit_party_2","A24F1UPER626KR","either","6","1887","","","","","","","1","0","0","0.8026106274","","0.6","0.8","0.4","0.2","","","","","0.2502389624","0.8026106274","0.2676578736","0.1808123801","","","","","","","","","","74","J","1","","","203","main_expt",""
"","bandit","284","1077482","0.0-245.0-0.0","00490146","wem/bandit_party_2","A24F1UPER626KR","either","6","1016","","","","","","","0","0","1","0.6613987003","","0.6","0.8","0.4","0.2","","","","","0.2226806","0.6613987003","0.2513587973","0.2011980288","","","","","","","","","","74","J","1","","","204","main_expt",""
"","bandit","285","1079697","0.0-246.0-0.0","00490146","wem/bandit_party_2","A24F1UPER626KR","either","6","707","","","","","","","0","0","1","0.7402115251","","0.6","0.8","0.4","0.2","","","","","0.2327973494","0.7402115251","0.2733703365","0.1877492959","","","","","","","","","","74","J","1","","","205","main_expt",""
"","bandit","286","1082419","0.0-247.0-0.0","00490146","wem/bandit_party_2","A24F1UPER626KR","either","6","1210","","","","","","","0","0","1","","0.1891298069","0.6","0.8","0.4","0.2","0.3134624789","0.6792505986","0.3212331514","0.1891298069","","","","","","","","","","","","","","76","L","3","","","206","main_expt",""
"","bandit","287","1084487","0.0-248.0-0.0","00490146","wem/bandit_party_2","A24F1UPER626KR","either","6","553","","","","","","","0","0","1","","0.2092890992","0.6","0.8","0.4","0.2","0.3808856429","0.6510378203","0.3381772831","0.2092890992","","","","","","","","","","","","","","76","L","3","","","207","main_expt",""
"","bandit","288","1087492","0.0-249.0-0.0","00490146","wem/bandit_party_2","A24F1UPER626KR","either","6","1496","","","","","","","0","0","1","0.318509643","","0.6","0.8","0.4","0.2","","","","","0.318509643","0.5971377862","0.2370260631","0.2563161799","","","","","","","","","","72","H","0","img/none_selected.jpg","","208","main_expt",""
"","bandit","289","1089479","0.0-250.0-0.0","00490146","wem/bandit_party_2","A24F1UPER626KR","either","6","474","","","","","","","0","0","1","0.2932847295","","0.6","0.8","0.4","0.2","","","","","0.2932847295","0.6040603887","0.2157004535","0.2643940457","","","","","","","","","","72","H","0","img/none_selected.jpg","","209","main_expt",""
"","bandit","290","1091463","0.0-251.0-0.0","00490146","wem/bandit_party_2","A24F1UPER626KR","either","6","475","","","","","","","0","0","1","","0.2655169153","0.6","0.8","0.4","0.2","0.2230023122","0.7794442159","0.2655169153","0.2710870001","","","","","","","","","","","","","","75","K","2","","","210","main_expt",""
"","bandit","291","1093853","0.0-252.0-0.0","00490146","wem/bandit_party_2","A24F1UPER626KR","either","6","868","","","","","","","0","0","1","0.1899351836","","0.6","0.8","0.4","0.2","","","","","0.1899351836","0.8397026392","0.2359505063","0.2056380183","","","","","","","","","","72","H","0","img/none_selected.jpg","","211","main_expt",""
"","bandit","292","1095593","0.0-253.0-0.0","00490146","wem/bandit_party_2","A24F1UPER626KR","either","6","217","","","","","","","0","0","1","0.7883870126","","0.6","0.8","0.4","0.2","","","","","0.2593929449","0.7883870126","0.2431981852","0.2487045614","","","","","","","","","","74","J","1","","","212","main_expt",""
"","bandit","293","1097861","0.0-254.0-0.0","00490146","wem/bandit_party_2","A24F1UPER626KR","either","6","756","","","","","","","0","0","1","","0.3385658967","0.6","0.8","0.4","0.2","0.2304425673","0.7160446845","0.3385658967","0.3520378668","","","","","","","","","","","","","","75","K","2","","","213","main_expt",""
"","bandit","294","1099792","0.0-255.0-0.0","00490146","wem/bandit_party_2","A24F1UPER626KR","either","6","420","","","","","","","0","0","1","0.445002088","","0.6","0.8","0.4","0.2","","","","","0.2849244028","0.7501162241","0.445002088","0.3455661114","","","","","","","","","","75","K","2","","","214","main_expt",""
"","bandit","295","1101717","0.0-256.0-0.0","00490146","wem/bandit_party_2","A24F1UPER626KR","either","6","413","","","","","","","0","0","1","","0.4340580748","0.6","0.8","0.4","0.2","0.3184819088","0.7574589115","0.4340580748","0.3290646698","","","","","","","","","","","","","","75","K","2","","","215","main_expt",""
"","bandit","296","1103530","0.0-257.0-0.0","00490146","wem/bandit_party_2","A24F1UPER626KR","either","6","301","","","","","","","0","1","0","","0.2737258078","0.6","0.8","0.4","0.2","0.2989728513","0.7376674805","0.3996931216","0.2737258078","","","","","","","","","","","","","","76","L","3","","","216","main_expt",""
"","bandit","297","1105590","0.0-258.0-0.0","00490146","wem/bandit_party_2","A24F1UPER626KR","either","6","547","","","","","","","0","0","1","0.2401291484","","0.6","0.8","0.4","0.2","","","","","0.5538830624","0.67262171","0.453570069","0.2401291484","","","","","","","","","","76","L","3","","","217","main_expt",""
"","bandit","298","1107608","0.0-259.0-0.0","00490146","wem/bandit_party_2","A24F1UPER626KR","either","6","509","","","","","","","0","1","0","","0.2395298113","0.6","0.8","0.4","0.2","0.5331458927","0.6309662891","0.3566620654","0.2395298113","","","","","","","","","","","","","","76","L","3","","","218","main_expt",""
"","bandit","299","1109877","0.0-260.0-0.0","00490146","wem/bandit_party_2","A24F1UPER626KR","either","6","757","","","","","","","0","1","0","","0.2333127667","0.6","0.8","0.4","0.2","0.409279481","0.610488243","0.3114207129","0.2333127667","","","","","","","","","","","","","","76","L","3","","","219","main_expt",""
"","bandit","300","1111972","0.0-261.0-0.0","00490146","wem/bandit_party_2","A24F1UPER626KR","either","6","584","","","","","","","0","0","1","0.2097963002","","0.6","0.8","0.4","0.2","","","","","0.3910907299","0.6741838821","0.348491043","0.2097963002","","","","","","","","","","76","L","3","","","220","main_expt",""
"","bandit","301","1113787","0.0-262.0-0.0","00490146","wem/bandit_party_2","A24F1UPER626KR","either","6","301","","","","","","","0","0","1","","0.1761429423","0.6","0.8","0.4","0.2","0.37386253","0.6938787555","0.325682353","0.1761429423","","","","","","","","","","","","","","76","L","3","","","221","main_expt",""
"","bandit","302","1115574","0.0-263.0-0.0","00490146","wem/bandit_party_2","A24F1UPER626KR","either","6","276","","","","","","","0","1","0","","0.1770547834","0.6","0.8","0.4","0.2","0.5460784034","0.622086605","0.3582518194","0.1770547834","","","","","","","","","","","","","","76","L","3","","","222","main_expt",""
"","bandit","303","1117658","0.0-264.0-0.0","00490146","wem/bandit_party_2","A24F1UPER626KR","either","6","574","","","","","","","0","1","0","","0.1494166006","0.6","0.8","0.4","0.2","0.5484594206","0.6190419158","0.3596631187","0.1494166006","","","","","","","","","","","","","","76","L","3","","","223","main_expt",""
"","bandit","304","1119635","0.0-265.0-0.0","00490146","wem/bandit_party_2","A24F1UPER626KR","either","6","451","","","","","","","0","0","1","","0.1444184755","0.6","0.8","0.4","0.2","0.5156266917","0.6525227655","0.4757784632","0.1444184755","","","","","","","","","","","","","","76","L","3","","","224","main_expt",""
"","bandit","305","1122000","0.0-266.0-0.0","00490146","wem/bandit_party_2","A24F1UPER626KR","either","6","856","","","","","","","0","0","1","0.2381889698","","0.6","0.8","0.4","0.2","","","","","0.5120039273","0.5739960468","0.5384710229","0.2381889698","","","","","","","","","","76","L","3","","","225","main_expt",""
"","bandit","306","1124029","0.0-267.0-0.0","00490146","wem/bandit_party_2","A24F1UPER626KR","either","6","490","","","","","","","0","0","1","","0.1429230379","0.6","0.8","0.4","0.2","0.5568413113","0.6038380469","0.5308581489","0.1429230379","","","","","","","","","","","","","","76","L","3","","","226","main_expt",""
"","bandit","307","1126141","0.0-268.0-0.0","00490146","wem/bandit_party_2","A24F1UPER626KR","either","6","604","","","","","","","0","0","1","","0.124100867","0.6","0.8","0.4","0.2","0.5277183188","0.5203417309","0.488482713","0.124100867","","","","","","","","","","","","","","76","L","3","","","227","main_expt",""
"","bandit","308","1128542","0.0-269.0-0.0","00490146","wem/bandit_party_2","A24F1UPER626KR","either","6","891","","","","","","","0","0","1","","0.1762219884","0.6","0.8","0.4","0.2","0.5041270258","0.4263922038","0.4406219513","0.1762219884","","","","","","","","","","","","","","76","L","3","","","228","main_expt",""
"","bandit","309","1130239","0.0-270.0-0.0","00490146","wem/bandit_party_2","A24F1UPER626KR","either","6","187","","","","","","","0","0","1","0.4892119921","","0.6","0.8","0.4","0.2","","","","","0.4541369304","0.3475105047","0.4892119921","0.1910325121","","","","","","","","","","75","K","2","","","229","main_expt",""
"","bandit","310","1132319","0.0-271.0-0.0","00490146","wem/bandit_party_2","A24F1UPER626KR","either","6","567","","","","","","","1","0","0","0.5129573662","","0.6","0.8","0.4","0.2","","","","","0.4504381994","0.3353007417","0.5129573662","0.2571549068","","","","","","","","","","75","K","2","","","230","main_expt",""
"","bandit","311","1134311","0.0-272.0-0.0","00490146","wem/bandit_party_2","A24F1UPER626KR","either","6","475","","","","","","","0","1","0","","0.4382888871","0.6","0.8","0.4","0.2","0.4698668598","0.2870546929","0.4382888871","0.1781345747","","","","","","","","","","","","","","75","K","2","","","231","main_expt",""
"","bandit","312","1136243","0.0-273.0-0.0","00490146","wem/bandit_party_2","A24F1UPER626KR","either","6","422","","","","","","","0","1","0","","0.42174841","0.6","0.8","0.4","0.2","0.5460008395","0.3092655517","0.42174841","0.1748933913","","","","","","","","","","","","","","75","K","2","","","232","main_expt",""
"","bandit","313","1138291","0.0-274.0-0.0","00490146","wem/bandit_party_2","A24F1UPER626KR","either","6","537","","","","","","","0","1","0","","0.4297142637","0.6","0.8","0.4","0.2","0.5345299581","0.4231157335","0.4297142637","0.2196371411","","","","","","","","","","","","","","75","K","2","","","233","main_expt",""
"","bandit","314","1140214","0.0-275.0-0.0","00490146","wem/bandit_party_2","A24F1UPER626KR","either","6","410","","","","","","","1","0","0","0.3016140143","","0.6","0.8","0.4","0.2","","","","","0.508060833","0.5525929145","0.3016140143","0.2052749597","","","","","","","","","","75","K","2","","","234","main_expt",""
"","bandit","315","1142199","0.0-276.0-0.0","00490146","wem/bandit_party_2","A24F1UPER626KR","either","6","472","","","","","","","0","1","0","","0.2735586703","0.6","0.8","0.4","0.2","0.4956589368","0.7239072418","0.2735586703","0.3158924645","","","","","","","","","","","","","","75","K","2","","","235","main_expt",""
"","bandit","316","1144093","0.0-277.0-0.0","00490146","wem/bandit_party_2","A24F1UPER626KR","either","6","382","","","","","","","0","0","1","0.2536827631","","0.6","0.8","0.4","0.2","","","","","0.5514737959","0.8076920848","0.2536827631","0.3668106878","","","","","","","","","","75","K","2","","","236","main_expt",""
"","bandit","317","1145833","0.0-278.0-0.0","00490146","wem/bandit_party_2","A24F1UPER626KR","either","6","232","","","","","","","0","0","1","","0.2478783488","0.6","0.8","0.4","0.2","0.5183580196","0.7703095863","0.2478783488","0.3866395083","","","","","","","","","","","","","","75","K","2","","","237","main_expt",""
"","bandit","318","1147557","0.0-279.0-0.0","00490146","wem/bandit_party_2","A24F1UPER626KR","either","6","213","","","","","","","0","0","1","","0.1688186905","0.6","0.8","0.4","0.2","0.5320509842","0.6485929649","0.1688186905","0.4108821033","","","","","","","","","","","","","","75","K","2","","","238","main_expt",""
"","bandit","319","1149624","0.0-280.0-0.0","00490146","wem/bandit_party_2","A24F1UPER626KR","either","6","558","","","","","","","1","0","0","0.46832295","","0.6","0.8","0.4","0.2","","","","","0.46832295","0.7028133827","0.1232648298","0.4384900471","","","","","","","","","","72","H","0","img/none_selected.jpg","","239","main_expt",""
