"consent","trial_type","trial_index","time_elapsed","internal_node_id","subjID","study","MID","cond","drift","rt","responses","button_pressed","key_press","like","value","connected","gems","bombs","no_reward","GemPrChosen","BombPrChosen","GainOverPainPr_0","GainOverPainPr_1","GainOverPainPr_2","GainOverPainPr_3","LosePr_0","LosePr_1","LosePr_2","LosePr_3","WinPr_0","WinPr_1","WinPr_2","WinPr_3","Q0","Q1","Q2","gender","age","ethnicity","label","expt_phase","target","respCharCode","respKey","respChoiceNum","respChoice","practice","trial_counter","trial_label","Q0_index","view_history"
"GDM/GDM_behavioral_consent_30min_online.html","consent","0","12705","0.0-0.0","00528108","wem/bandit_party_2","A2HTAZR4WIGMCA","either","8","","","","","","","","","","","","","","","","","","","","","","","","","","","","","","","","","","","","","","","","","",""
"","survey-text","1","17988","0.0-1.0","00528108","wem/bandit_party_2","A2HTAZR4WIGMCA","either","8","4252","{""Q0"":""A2HTAZR4WIGMCA""}","","","","","","","","","","","","","","","","","","","","","","","","","","","","","","","","","","","","","","","",""
"","button-response","2","32104","0.0-2.0","00528108","wem/bandit_party_2","A2HTAZR4WIGMCA","either","8","13094","","1","","","","","","","","","","","","","","","","","","","","","","","","","","","","","","","","","","","","","","",""
"","text-replacement","3","49547","0.0-3.0","00528108","wem/bandit_party_2","A2HTAZR4WIGMCA","either","8","16430","","","32","","","","","","","","","","","","","","","","","","","","","","","","","","","","","","","","","","","","","",""
"","text-replacement","4","104858","0.0-4.0","00528108","wem/bandit_party_2","A2HTAZR4WIGMCA","either","8","55307","","","32","","","","","","","","","","","","","","","","","","","","","","","","","","","","","","","","","","","","","",""
"","identification","5","112762","0.0-6.0-0.0","00528108","wem/bandit_party_2","A2HTAZR4WIGMCA","either","8","7812","","","","5","5","5","","","","","","","","","","","","","","","","","","","","","","","","pre","identification_pre","the Democratic Party","","","","","","","","",""
"","identification","6","119894","0.0-6.0-1.0","00528108","wem/bandit_party_2","A2HTAZR4WIGMCA","either","8","6053","","","","5","5","5","","","","","","","","","","","","","","","","","","","","","","","","pre","identification_pre","the Republican Party","","","","","","","","",""
"","text-replacement","7","138761","0.0-7.0","00528108","wem/bandit_party_2","A2HTAZR4WIGMCA","either","8","17854","","","32","","","","","","","","","","","","","","","","","","","","","","","","","","","","","","","","","","","","","",""
"","text-replacement","8","147331","0.0-8.0","00528108","wem/bandit_party_2","A2HTAZR4WIGMCA","either","8","8562","","","32","","","","","","","","","","","","","","","","","","","","","","","","","","","","","","","","","","","","","",""
"","text-replacement","9","189059","0.0-9.0","00528108","wem/bandit_party_2","A2HTAZR4WIGMCA","either","8","41712","","","32","","","","","","","","","","","","","","","","","","","","","","","","","","","","","","","","","","","","","",""
"","text-replacement","10","195836","0.0-10.0","00528108","wem/bandit_party_2","A2HTAZR4WIGMCA","either","8","6764","","","32","","","","","","","","","","","","","","","","","","","","","","","","","","","","","","","","","","","","","",""
"","text-replacement","11","206626","0.0-11.0","00528108","wem/bandit_party_2","A2HTAZR4WIGMCA","either","8","10783","","","32","","","","","","","","","","","","","","","","","","","","","","","","","","","","","","","","","","","","","",""
"","bandit","12","210925","0.0-12.0-0.0","00528108","wem/bandit_party_2","A2HTAZR4WIGMCA","either","8","2764","","","","","","","0","0","1","0","0","","","","","0","","","","0","","","","","","","","","","","","","74","J","0","img/none_selected_demo.jpg","true","0","","",""
"","bandit","13","225282","0.0-13.0-0.0","00528108","wem/bandit_party_2","A2HTAZR4WIGMCA","either","8","12832","","","","","","","0","0","1","0","0","","","","","0","","","","0","","","","","","","","","","","","","75","K","0","img/none_selected_demo.jpg","true","0","","",""
"","text-replacement","14","231352","0.0-14.0","00528108","wem/bandit_party_2","A2HTAZR4WIGMCA","either","8","6066","","","32","","","","","","","","","","","","","","","","","","","","","","","","","","","","","","","","","","","","","",""
"","text-replacement","15","236610","0.0-15.0","00528108","wem/bandit_party_2","A2HTAZR4WIGMCA","either","8","5254","","","32","","","","","","","","","","","","","","","","","","","","","","","","","","","","","","","","","","","","","",""
"","text-replacement","16","236610","0.0-16.0","00528108","wem/bandit_party_2","A2HTAZR4WIGMCA","either","8","0","","","32","","","","","","","","","","","","","","","","","","","","","","","","","","","","","","","","","","","","","",""
"","text-replacement","17","236610","0.0-17.0","00528108","wem/bandit_party_2","A2HTAZR4WIGMCA","either","8","0","","","32","","","","","","","","","","","","","","","","","","","","","","","","","","","","","","","","","","","","","",""
"","bandit","18","236610","0.0-18.0-0.0","00528108","wem/bandit_party_2","A2HTAZR4WIGMCA","either","8","0","","","","","","","0","0","1","","0.2","0.5","0.5","","","0.8","0.2","","","","","","","","","","","","","","","","75","K","1","","true","0","80_20_practice","",""
"","bandit","19","236610","0.0-18.0-1.0","00528108","wem/bandit_party_2","A2HTAZR4WIGMCA","either","8","0","","","","","","","0","0","1","0.2","","0.5","0.5","","","","","","","0.8","0.2","","","","","","","","","","","","75","K","1","","true","0","80_20_practice","",""
"","bandit","20","236610","0.0-18.0-2.0","00528108","wem/bandit_party_2","A2HTAZR4WIGMCA","either","8","0","","","","","","","0","0","1","0.8","","0.5","0.5","","","","","","","0.8","0.2","","","","","","","","","","","","74","J","0","img/none_selected_demo.jpg","true","0","80_20_practice","",""
"","bandit","21","236610","0.0-18.0-3.0","00528108","wem/bandit_party_2","A2HTAZR4WIGMCA","either","8","0","","","","","","","0","1","0","","0.8","0.5","0.5","","","0.8","0.2","","","","","","","","","","","","","","","","74","J","0","img/none_selected_demo.jpg","true","0","80_20_practice","",""
"","bandit","22","236610","0.0-18.0-4.0","00528108","wem/bandit_party_2","A2HTAZR4WIGMCA","either","8","0","","","","","","","0","1","0","","0.8","0.5","0.5","","","0.8","0.2","","","","","","","","","","","","","","","","74","J","0","img/none_selected_demo.jpg","true","0","80_20_practice","",""
"","bandit","23","236610","0.0-18.0-5.0","00528108","wem/bandit_party_2","A2HTAZR4WIGMCA","either","8","0","","","","","","","1","0","0","0.8","","0.5","0.5","","","","","","","0.8","0.2","","","","","","","","","","","","74","J","0","img/none_selected_demo.jpg","true","0","80_20_practice","",""
"","bandit","24","236610","0.0-18.0-6.0","00528108","wem/bandit_party_2","A2HTAZR4WIGMCA","either","8","0","","","","","","","0","1","0","","0.8","0.5","0.5","","","0.8","0.2","","","","","","","","","","","","","","","","74","J","0","img/none_selected_demo.jpg","true","0","80_20_practice","",""
"","bandit","25","236610","0.0-18.0-7.0","00528108","wem/bandit_party_2","A2HTAZR4WIGMCA","either","8","0","","","","","","","0","0","1","0.8","","0.5","0.5","","","","","","","0.8","0.2","","","","","","","","","","","","74","J","0","img/none_selected_demo.jpg","true","0","80_20_practice","",""
"","bandit","26","236610","0.0-18.0-8.0","00528108","wem/bandit_party_2","A2HTAZR4WIGMCA","either","8","0","","","","","","","0","0","1","","0.8","0.5","0.5","","","0.8","0.2","","","","","","","","","","","","","","","","74","J","0","img/none_selected_demo.jpg","true","0","80_20_practice","",""
"","bandit","27","236610","0.0-18.0-9.0","00528108","wem/bandit_party_2","A2HTAZR4WIGMCA","either","8","0","","","","","","","0","1","0","","0.8","0.5","0.5","","","0.8","0.2","","","","","","","","","","","","","","","","74","J","0","img/none_selected_demo.jpg","true","0","80_20_practice","",""
"","bandit","28","236610","0.0-18.0-10.0","00528108","wem/bandit_party_2","A2HTAZR4WIGMCA","either","8","0","","","","","","","0","1","0","","0.8","0.5","0.5","","","0.8","0.2","","","","","","","","","","","","","","","","74","J","0","img/none_selected_demo.jpg","true","0","80_20_practice","",""
"","bandit","29","236610","0.0-18.0-11.0","00528108","wem/bandit_party_2","A2HTAZR4WIGMCA","either","8","0","","","","","","","0","1","0","","0.8","0.5","0.5","","","0.8","0.2","","","","","","","","","","","","","","","","74","J","0","img/none_selected_demo.jpg","true","0","80_20_practice","",""
"","bandit","30","236610","0.0-18.0-12.0","00528108","wem/bandit_party_2","A2HTAZR4WIGMCA","either","8","0","","","","","","","0","1","0","","0.8","0.5","0.5","","","0.8","0.2","","","","","","","","","","","","","","","","74","J","0","img/none_selected_demo.jpg","true","0","80_20_practice","",""
"","bandit","31","236610","0.0-18.0-13.0","00528108","wem/bandit_party_2","A2HTAZR4WIGMCA","either","8","0","","","","","","","0","0","1","","0.8","0.5","0.5","","","0.8","0.2","","","","","","","","","","","","","","","","74","J","0","img/none_selected_demo.jpg","true","0","80_20_practice","",""
"","bandit","32","236610","0.0-18.0-14.0","00528108","wem/bandit_party_2","A2HTAZR4WIGMCA","either","8","0","","","","","","","0","0","1","","0.8","0.5","0.5","","","0.8","0.2","","","","","","","","","","","","","","","","74","J","0","img/none_selected_demo.jpg","true","0","80_20_practice","",""
"","bandit","33","236610","0.0-18.0-15.0","00528108","wem/bandit_party_2","A2HTAZR4WIGMCA","either","8","0","","","","","","","0","1","0","","0.8","0.5","0.5","","","0.8","0.2","","","","","","","","","","","","","","","","74","J","0","img/none_selected_demo.jpg","true","0","80_20_practice","",""
"","bandit","34","236610","0.0-18.0-16.0","00528108","wem/bandit_party_2","A2HTAZR4WIGMCA","either","8","0","","","","","","","0","0","1","","0.8","0.5","0.5","","","0.8","0.2","","","","","","","","","","","","","","","","74","J","0","img/none_selected_demo.jpg","true","0","80_20_practice","",""
"","bandit","35","236610","0.0-18.0-17.0","00528108","wem/bandit_party_2","A2HTAZR4WIGMCA","either","8","0","","","","","","","1","0","0","0.8","","0.5","0.5","","","","","","","0.8","0.2","","","","","","","","","","","","74","J","0","img/none_selected_demo.jpg","true","0","80_20_practice","",""
"","bandit","36","236610","0.0-18.0-18.0","00528108","wem/bandit_party_2","A2HTAZR4WIGMCA","either","8","0","","","","","","","0","0","1","0.2","","0.5","0.5","","","","","","","0.8","0.2","","","","","","","","","","","","75","K","1","","true","0","80_20_practice","",""
"","bandit","37","236610","0.0-18.0-19.0","00528108","wem/bandit_party_2","A2HTAZR4WIGMCA","either","8","0","","","","","","","1","0","0","0.2","","0.5","0.5","","","","","","","0.8","0.2","","","","","","","","","","","","75","K","1","","true","0","80_20_practice","",""
"","text-replacement","38","236610","0.0-19.0","00528108","wem/bandit_party_2","A2HTAZR4WIGMCA","either","8","0","","","32","","","","","","","","","","","","","","","","","","","","","","","","","","","","","","","","","","","","","",""
"","bandit","39","236610","0.0-20.0-0.0","00528108","wem/bandit_party_2","A2HTAZR4WIGMCA","either","8","0","","","","","","","1","0","0","1","0","","","","","0","1","","","1","0","","","","","","","","","","","","74","J","0","img/none_selected_demo.jpg","true","0","","",""
"","text-replacement","40","236610","0.0-21.0","00528108","wem/bandit_party_2","A2HTAZR4WIGMCA","either","8","0","","","32","","","","","","","","","","","","","","","","","","","","","","","","","","","","","","","","","","","","","",""
"","text-replacement","41","236610","0.0-22.0","00528108","wem/bandit_party_2","A2HTAZR4WIGMCA","either","8","0","","","32","","","","","","","","","","","","","","","","","","","","","","","","","","","","","","","","","","","","","",""
"","text-replacement","42","236610","0.0-23.0","00528108","wem/bandit_party_2","A2HTAZR4WIGMCA","either","8","0","","","32","","","","","","","","","","","","","","","","","","","","","","","","","","","","","","","","","","","","","",""
"","text-replacement","43","236610","0.0-24.0","00528108","wem/bandit_party_2","A2HTAZR4WIGMCA","either","8","0","","","32","","","","","","","","","","","","","","","","","","","","","","","","","","","","","","","","","","","","","",""
"","text-replacement","44","236610","0.0-25.0","00528108","wem/bandit_party_2","A2HTAZR4WIGMCA","either","8","0","","","32","","","","","","","","","","","","","","","","","","","","","","","","","","","","","","","","","","","","","",""
"","text-replacement","45","236610","0.0-26.0","00528108","wem/bandit_party_2","A2HTAZR4WIGMCA","either","8","0","","","32","","","","","","","","","","","","","","","","","","","","","","","","","","","","","","","","","","","","","",""
"","text-replacement","46","236610","0.0-27.0","00528108","wem/bandit_party_2","A2HTAZR4WIGMCA","either","8","0","","","32","","","","","","","","","","","","","","","","","","","","","","","","","","","","","","","","","","","","","",""
"","text-replacement","47","236610","0.0-28.0","00528108","wem/bandit_party_2","A2HTAZR4WIGMCA","either","8","0","","","32","","","","","","","","","","","","","","","","","","","","","","","","","","","","","","","","","","","","","",""
"","text-replacement","48","236610","0.0-29.0","00528108","wem/bandit_party_2","A2HTAZR4WIGMCA","either","8","0","","","32","","","","","","","","","","","","","","","","","","","","","","","","","","","","","","","","","","","","","",""
"","text-replacement","49","236610","0.0-30.0","00528108","wem/bandit_party_2","A2HTAZR4WIGMCA","either","8","0","","","32","","","","","","","","","","","","","","","","","","","","","","","","","","","","","","","","","","","","","",""
"","text-replacement","50","236610","0.0-31.0","00528108","wem/bandit_party_2","A2HTAZR4WIGMCA","either","8","0","","","32","","","","","","","","","","","","","","","","","","","","","","","","","","","","","","","","","","","","","",""
"","bandit","51","236610","0.0-32.0-0.0","00528108","wem/bandit_party_2","A2HTAZR4WIGMCA","either","8","0","","","","","","","1","0","0","0.2","","0.5","0.5","0.5","0.5","","","","","0.8","0.2","0.6","0.2","","","","","","","","","","76","L","3","","true","0","full_practice","",""
"","bandit","52","236610","0.0-32.0-1.0","00528108","wem/bandit_party_2","A2HTAZR4WIGMCA","either","8","0","","","","","","","0","0","1","0.2","","0.5","0.5","0.5","0.5","","","","","0.8","0.2","0.6","0.2","","","","","","","","","","76","L","3","","true","0","full_practice","",""
"","bandit","53","236610","0.0-32.0-2.0","00528108","wem/bandit_party_2","A2HTAZR4WIGMCA","either","8","0","","","","","","","0","0","1","","0.2","0.5","0.5","0.5","0.5","0.8","0.2","0.6","0.2","","","","","","","","","","","","","","76","L","3","","true","0","full_practice","",""
"","bandit","54","236610","0.0-32.0-3.0","00528108","wem/bandit_party_2","A2HTAZR4WIGMCA","either","8","0","","","","","","","0","1","0","","0.2","0.5","0.5","0.5","0.5","0.8","0.2","0.6","0.2","","","","","","","","","","","","","","76","L","3","","true","0","full_practice","",""
"","bandit","55","236610","0.0-32.0-4.0","00528108","wem/bandit_party_2","A2HTAZR4WIGMCA","either","8","0","","","","","","","0","0","1","0.2","","0.5","0.5","0.5","0.5","","","","","0.8","0.2","0.6","0.2","","","","","","","","","","76","L","3","","true","0","full_practice","",""
"","bandit","56","236610","0.0-32.0-5.0","00528108","wem/bandit_party_2","A2HTAZR4WIGMCA","either","8","0","","","","","","","0","0","1","","0.2","0.5","0.5","0.5","0.5","0.8","0.2","0.6","0.2","","","","","","","","","","","","","","76","L","3","","true","0","full_practice","",""
"","bandit","57","236610","0.0-32.0-6.0","00528108","wem/bandit_party_2","A2HTAZR4WIGMCA","either","8","0","","","","","","","0","0","1","0.2","","0.5","0.5","0.5","0.5","","","","","0.8","0.2","0.6","0.2","","","","","","","","","","76","L","3","","true","0","full_practice","",""
"","bandit","58","236610","0.0-32.0-7.0","00528108","wem/bandit_party_2","A2HTAZR4WIGMCA","either","8","0","","","","","","","0","1","0","","0.6","0.5","0.5","0.5","0.5","0.8","0.2","0.6","0.2","","","","","","","","","","","","","","75","K","2","","true","0","full_practice","",""
"","bandit","59","236610","0.0-32.0-8.0","00528108","wem/bandit_party_2","A2HTAZR4WIGMCA","either","8","0","","","","","","","0","1","0","","0.6","0.5","0.5","0.5","0.5","0.8","0.2","0.6","0.2","","","","","","","","","","","","","","75","K","2","","true","0","full_practice","",""
"","bandit","60","236610","0.0-32.0-9.0","00528108","wem/bandit_party_2","A2HTAZR4WIGMCA","either","8","0","","","","","","","0","1","0","","0.6","0.5","0.5","0.5","0.5","0.8","0.2","0.6","0.2","","","","","","","","","","","","","","75","K","2","","true","0","full_practice","",""
"","bandit","61","236610","0.0-32.0-10.0","00528108","wem/bandit_party_2","A2HTAZR4WIGMCA","either","8","0","","","","","","","0","1","0","","0.6","0.5","0.5","0.5","0.5","0.8","0.2","0.6","0.2","","","","","","","","","","","","","","75","K","2","","true","0","full_practice","",""
"","bandit","62","236610","0.0-32.0-11.0","00528108","wem/bandit_party_2","A2HTAZR4WIGMCA","either","8","0","","","","","","","0","1","0","","0.6","0.5","0.5","0.5","0.5","0.8","0.2","0.6","0.2","","","","","","","","","","","","","","75","K","2","","true","0","full_practice","",""
"","bandit","63","236610","0.0-32.0-12.0","00528108","wem/bandit_party_2","A2HTAZR4WIGMCA","either","8","0","","","","","","","1","0","0","0.6","","0.5","0.5","0.5","0.5","","","","","0.8","0.2","0.6","0.2","","","","","","","","","","75","K","2","","true","0","full_practice","",""
"","bandit","64","236610","0.0-32.0-13.0","00528108","wem/bandit_party_2","A2HTAZR4WIGMCA","either","8","0","","","","","","","0","1","0","","0.6","0.5","0.5","0.5","0.5","0.8","0.2","0.6","0.2","","","","","","","","","","","","","","75","K","2","","true","0","full_practice","",""
"","bandit","65","236610","0.0-32.0-14.0","00528108","wem/bandit_party_2","A2HTAZR4WIGMCA","either","8","0","","","","","","","0","0","1","","0.6","0.5","0.5","0.5","0.5","0.8","0.2","0.6","0.2","","","","","","","","","","","","","","75","K","2","","true","0","full_practice","",""
"","bandit","66","236610","0.0-32.0-15.0","00528108","wem/bandit_party_2","A2HTAZR4WIGMCA","either","8","0","","","","","","","1","0","0","0.6","","0.5","0.5","0.5","0.5","","","","","0.8","0.2","0.6","0.2","","","","","","","","","","75","K","2","","true","0","full_practice","",""
"","bandit","67","236610","0.0-32.0-16.0","00528108","wem/bandit_party_2","A2HTAZR4WIGMCA","either","8","0","","","","","","","0","0","1","0.6","","0.5","0.5","0.5","0.5","","","","","0.8","0.2","0.6","0.2","","","","","","","","","","75","K","2","","true","0","full_practice","",""
"","bandit","68","236610","0.0-32.0-17.0","00528108","wem/bandit_party_2","A2HTAZR4WIGMCA","either","8","0","","","","","","","0","1","0","","0.6","0.5","0.5","0.5","0.5","0.8","0.2","0.6","0.2","","","","","","","","","","","","","","75","K","2","","true","0","full_practice","",""
"","bandit","69","236610","0.0-32.0-18.0","00528108","wem/bandit_party_2","A2HTAZR4WIGMCA","either","8","0","","","","","","","0","1","0","","0.6","0.5","0.5","0.5","0.5","0.8","0.2","0.6","0.2","","","","","","","","","","","","","","75","K","2","","true","0","full_practice","",""
"","bandit","70","236610","0.0-32.0-19.0","00528108","wem/bandit_party_2","A2HTAZR4WIGMCA","either","8","0","","","","","","","1","0","0","0.6","","0.5","0.5","0.5","0.5","","","","","0.8","0.2","0.6","0.2","","","","","","","","","","75","K","2","","true","0","full_practice","",""
"","text","71","236610","0.0-33.0","00528108","wem/bandit_party_2","A2HTAZR4WIGMCA","either","8","0","","","32","","","","","","","","","","","","","","","","","","","","","","","","","","","","","","","","","","","","","",""
"","text-replacement","72","236610","0.0-34.0","00528108","wem/bandit_party_2","A2HTAZR4WIGMCA","either","8","0","","","32","","","","","","","","","","","","","","","","","","","","","","","","","","","","","","","","","","","","","",""
"","text-replacement","73","236610","0.0-35.0","00528108","wem/bandit_party_2","A2HTAZR4WIGMCA","either","8","0","","","32","","","","","","","","","","","","","","","","","","","","","","","","","","","","","","","","","","","","","",""
"","text-replacement","74","236610","0.0-36.0","00528108","wem/bandit_party_2","A2HTAZR4WIGMCA","either","8","0","","","32","","","","","","","","","","","","","","","","","","","","","","","","","","","","","","","","","","","","","",""
"","text-replacement","75","236610","0.0-37.0","00528108","wem/bandit_party_2","A2HTAZR4WIGMCA","either","8","0","","","32","","","","","","","","","","","","","","","","","","","","","","","","","","","","","","","","","","","","","",""
"","text-replacement","76","236610","0.0-38.0","00528108","wem/bandit_party_2","A2HTAZR4WIGMCA","either","8","0","","","32","","","","","","","","","","","","","","","","","","","","","","","","","","","","","","","","","","","","","",""
"","survey-multi-choice-replacement","77","236610","0.0-39.0-0.0","00528108","wem/bandit_party_2","A2HTAZR4WIGMCA","either","8","0","","","","","","","","","","","","","","","","","","","","","","","","Money will be added to the pool for <span style='color:blue;'>DEMOCRATS</span>","","","","","","","attn_check","","","","","","","","","0",""
"","survey-multi-choice-replacement","78","236610","0.0-40.0-0.0","00528108","wem/bandit_party_2","A2HTAZR4WIGMCA","either","8","0","","","","","","","","","","","","","","","","","","","","","","","","Money will be subtracted from the pool for <span style='color:red;'>REPUBLICANS</span>","","","","","","","attn_check","","","","","","","","","1",""
"","instructions","79","236610","0.0-40.0-1.0-0.0","00528108","wem/bandit_party_2","A2HTAZR4WIGMCA","either","8","0","","","","","","","","","","","","","","","","","","","","","","","","","","","","","","","","","","","","","","","","","[{""page_index"":0,""viewing_time"":0}]"
"","survey-multi-choice-replacement","80","236610","0.0-40.1-0.1","00528108","wem/bandit_party_2","A2HTAZR4WIGMCA","either","8","0","","","","","","","","","","","","","","","","","","","","","","","","Equal amounts of money will be added to the pool for <span style='color:blue;'>DEMOCRATS</span> and subtracted from the pool for <span style='color:red;'>REPUBLICANS</span>","","","","","","","attn_check","","","","","","","","","2",""
"","survey-multi-choice-replacement","81","236610","0.0-41.0-0.0","00528108","wem/bandit_party_2","A2HTAZR4WIGMCA","either","8","0","","","","","","","","","","","","","","","","","","","","","","","","No money will be added to either pool","","","","","","","attn_check","","","","","","","","","3",""
"","bandit","82","236610","0.0-42.0-0.0","00528108","wem/bandit_party_2","A2HTAZR4WIGMCA","either","8","0","","","","","","","0","1","0","","0.3040937467","0.2","0.4","0.8","0.6","0.4468950172","0.3040937467","0.2428949588","0.6337563202","","","","","","","","","","","","","","74","J","1","","","1","main_expt","",""
"","bandit","83","236610","0.0-43.0-0.0","00528108","wem/bandit_party_2","A2HTAZR4WIGMCA","either","8","0","","","","","","","0","0","1","","0.2687625136","0.2","0.4","0.8","0.6","0.3846124694","0.2687625136","0.248961424","0.7380673114","","","","","","","","","","","","","","74","J","1","","","2","main_expt","",""
"","bandit","84","236610","0.0-44.0-0.0","00528108","wem/bandit_party_2","A2HTAZR4WIGMCA","either","8","0","","","","","","","0","0","1","","0.3017919557","0.2","0.4","0.8","0.6","0.3885967974","0.3017919557","0.1878604038","0.7715549737","","","","","","","","","","","","","","74","J","1","","","3","main_expt","",""
"","bandit","85","236610","0.0-45.0-0.0","00528108","wem/bandit_party_2","A2HTAZR4WIGMCA","either","8","0","","","","","","","0","0","1","","0.2891644394","0.2","0.4","0.8","0.6","0.2891644394","0.3388517529","0.1194049449","0.8257013646","","","","","","","","","","","","","","72","H","0","img/none_selected.jpg","","4","main_expt","",""
"","bandit","86","236610","0.0-46.0-0.0","00528108","wem/bandit_party_2","A2HTAZR4WIGMCA","either","8","0","","","","","","","0","0","1","0.197046458","","0.2","0.4","0.8","0.6","","","","","0.2654579937","0.389096829","0.197046458","0.8617886559","","","","","","","","","","75","K","2","","","5","main_expt","",""
"","bandit","87","236610","0.0-47.0-0.0","00528108","wem/bandit_party_2","A2HTAZR4WIGMCA","either","8","0","","","","","","","0","1","0","","0.8452125903","0.2","0.4","0.8","0.6","0.355160999","0.4799636182","0.2312720201","0.8452125903","","","","","","","","","","","","","","76","L","3","","","6","main_expt","",""
"","bandit","88","236610","0.0-48.0-0.0","00528108","wem/bandit_party_2","A2HTAZR4WIGMCA","either","8","0","","","","","","","0","1","0","","0.8765288384","0.2","0.4","0.8","0.6","0.4733904832","0.5316557606","0.3255591742","0.8765288384","","","","","","","","","","","","","","76","L","3","","","7","main_expt","",""
"","bandit","89","236610","0.0-49.0-0.0","00528108","wem/bandit_party_2","A2HTAZR4WIGMCA","either","8","0","","","","","","","1","0","0","0.8625068071","","0.2","0.4","0.8","0.6","","","","","0.4900136729","0.4935712437","0.163151729","0.8625068071","","","","","","","","","","76","L","3","","","8","main_expt","",""
"","bandit","90","236610","0.0-50.0-0.0","00528108","wem/bandit_party_2","A2HTAZR4WIGMCA","either","8","0","","","","","","","0","1","0","","0.8385781597","0.2","0.4","0.8","0.6","0.4543552171","0.5400450001","0.1671639775","0.8385781597","","","","","","","","","","","","","","76","L","3","","","9","main_expt","",""
"","bandit","91","236610","0.0-51.0-0.0","00528108","wem/bandit_party_2","A2HTAZR4WIGMCA","either","8","0","","","","","","","1","0","0","0.833356221","","0.2","0.4","0.8","0.6","","","","","0.4523920981","0.6510952772","0.1315225434","0.833356221","","","","","","","","","","76","L","3","","","10","main_expt","",""
"","bandit","92","236610","0.0-52.0-0.0","00528108","wem/bandit_party_2","A2HTAZR4WIGMCA","either","8","0","","","","","","","0","0","1","","0.9030756702","0.2","0.4","0.8","0.6","0.4053083118","0.6117649901","0.1287002637","0.9030756702","","","","","","","","","","","","","","76","L","3","","","11","main_expt","",""
"","bandit","93","236610","0.0-53.0-0.0","00528108","wem/bandit_party_2","A2HTAZR4WIGMCA","either","8","0","","","","","","","1","0","0","0.9129290363","","0.2","0.4","0.8","0.6","","","","","0.4059907931","0.6360746298","0.1026596936","0.9129290363","","","","","","","","","","76","L","3","","","12","main_expt","",""
"","bandit","94","236610","0.0-54.0-0.0","00528108","wem/bandit_party_2","A2HTAZR4WIGMCA","either","8","0","","","","","","","1","0","0","0.8638417716","","0.2","0.4","0.8","0.6","","","","","0.2934167972","0.5673960652","0.1287514256","0.8638417716","","","","","","","","","","76","L","3","","","13","main_expt","",""
"","bandit","95","236610","0.0-55.0-0.0","00528108","wem/bandit_party_2","A2HTAZR4WIGMCA","either","8","0","","","","","","","0","0","1","","0.787806988","0.2","0.4","0.8","0.6","0.3260927596","0.6747725803","0.1786171179","0.787806988","","","","","","","","","","","","","","76","L","3","","","14","main_expt","",""
"","bandit","96","236610","0.0-56.0-0.0","00528108","wem/bandit_party_2","A2HTAZR4WIGMCA","either","8","0","","","","","","","1","0","0","0.7254212376","","0.2","0.4","0.8","0.6","","","","","0.3355382734","0.6277188345","0.1459410532","0.7254212376","","","","","","","","","","76","L","3","","","15","main_expt","",""
"","bandit","97","236610","0.0-57.0-0.0","00528108","wem/bandit_party_2","A2HTAZR4WIGMCA","either","8","0","","","","","","","1","0","0","0.7238415528","","0.2","0.4","0.8","0.6","","","","","0.3040928121","0.5435568235","0.2255600906","0.7238415528","","","","","","","","","","76","L","3","","","16","main_expt","",""
"","bandit","98","236610","0.0-58.0-0.0","00528108","wem/bandit_party_2","A2HTAZR4WIGMCA","either","8","0","","","","","","","0","0","1","0.7796243455","","0.2","0.4","0.8","0.6","","","","","0.2730366263","0.4180161478","0.2052013943","0.7796243455","","","","","","","","","","76","L","3","","","17","main_expt","",""
"","bandit","99","236610","0.0-59.0-0.0","00528108","wem/bandit_party_2","A2HTAZR4WIGMCA","either","8","0","","","","","","","1","0","0","0.6928902724","","0.2","0.4","0.8","0.6","","","","","0.4105298721","0.4961111773","0.1780354615","0.6928902724","","","","","","","","","","76","L","3","","","18","main_expt","",""
"","bandit","100","236610","0.0-60.0-0.0","00528108","wem/bandit_party_2","A2HTAZR4WIGMCA","either","8","0","","","","","","","0","0","1","","0.7658630901","0.2","0.4","0.8","0.6","0.3586923344","0.445530788","0.1576496117","0.7658630901","","","","","","","","","","","","","","76","L","3","","","19","main_expt","",""
"","bandit","101","236610","0.0-61.0-0.0","00528108","wem/bandit_party_2","A2HTAZR4WIGMCA","either","8","0","","","","","","","0","1","0","","0.7584200513","0.2","0.4","0.8","0.6","0.3220075653","0.3443163705","0.1618752313","0.7584200513","","","","","","","","","","","","","","76","L","3","","","20","main_expt","",""
"","bandit","102","236610","0.0-62.0-0.0","00528108","wem/bandit_party_2","A2HTAZR4WIGMCA","either","8","0","","","","","","","0","1","0","","0.7727038765","0.2","0.4","0.8","0.6","0.2729660799","0.3012808647","0.2152187387","0.7727038765","","","","","","","","","","","","","","76","L","3","","","21","main_expt","",""
"","bandit","103","236610","0.0-63.0-0.0","00528108","wem/bandit_party_2","A2HTAZR4WIGMCA","either","8","0","","","","","","","1","0","0","0.8152565923","","0.2","0.4","0.8","0.6","","","","","0.2712352107","0.2882062485","0.3547982299","0.8152565923","","","","","","","","","","76","L","3","","","22","main_expt","",""
"","bandit","104","236610","0.0-64.0-0.0","00528108","wem/bandit_party_2","A2HTAZR4WIGMCA","either","8","0","","","","","","","0","1","0","","0.7537075358","0.2","0.4","0.8","0.6","0.3390855774","0.2113421372","0.323805638","0.7537075358","","","","","","","","","","","","","","76","L","3","","","23","main_expt","",""
"","bandit","105","236610","0.0-65.0-0.0","00528108","wem/bandit_party_2","A2HTAZR4WIGMCA","either","8","0","","","","","","","1","0","0","0.7108822858","","0.2","0.4","0.8","0.6","","","","","0.3483259141","0.2201805416","0.3588909826","0.7108822858","","","","","","","","","","76","L","3","","","24","main_expt","",""
"","bandit","106","236610","0.0-66.0-0.0","00528108","wem/bandit_party_2","A2HTAZR4WIGMCA","either","8","0","","","","","","","0","1","0","","0.6930515954","0.2","0.4","0.8","0.6","0.3416976173","0.2580956466","0.3885553436","0.6930515954","","","","","","","","","","","","","","76","L","3","","","25","main_expt","",""
"","bandit","107","236610","0.0-67.0-0.0","00528108","wem/bandit_party_2","A2HTAZR4WIGMCA","either","8","0","","","","","","","0","0","1","0.6905393417","","0.2","0.4","0.8","0.6","","","","","0.4243476322","0.2153432854","0.4871556374","0.6905393417","","","","","","","","","","76","L","3","","","26","main_expt","",""
"","bandit","108","236610","0.0-68.0-0.0","00528108","wem/bandit_party_2","A2HTAZR4WIGMCA","either","8","0","","","","","","","0","1","0","","0.7531652131","0.2","0.4","0.8","0.6","0.5257754898","0.1727955236","0.4934119911","0.7531652131","","","","","","","","","","","","","","76","L","3","","","27","main_expt","",""
"","bandit","109","236610","0.0-69.0-0.0","00528108","wem/bandit_party_2","A2HTAZR4WIGMCA","either","8","0","","","","","","","1","0","0","0.8001777041","","0.2","0.4","0.8","0.6","","","","","0.5246232361","0.1894296703","0.4322092846","0.8001777041","","","","","","","","","","76","L","3","","","28","main_expt","",""
"","bandit","110","236610","0.0-70.0-0.0","00528108","wem/bandit_party_2","A2HTAZR4WIGMCA","either","8","0","","","","","","","0","1","0","","0.8118404327","0.2","0.4","0.8","0.6","0.375994784","0.2128919211","0.3459113699","0.8118404327","","","","","","","","","","","","","","76","L","3","","","29","main_expt","",""
"","bandit","111","236610","0.0-71.0-0.0","00528108","wem/bandit_party_2","A2HTAZR4WIGMCA","either","8","0","","","","","","","1","0","0","0.7839534503","","0.2","0.4","0.8","0.6","","","","","0.2936890161","0.206056468","0.280789843","0.7839534503","","","","","","","","","","76","L","3","","","30","main_expt","",""
"","bandit","112","236610","0.0-72.0-0.0","00528108","wem/bandit_party_2","A2HTAZR4WIGMCA","either","8","0","","","","","","","1","0","0","0.8066372971","","0.2","0.4","0.8","0.6","","","","","0.2878812258","0.1725623241","0.2613810438","0.8066372971","","","","","","","","","","76","L","3","","","31","main_expt","",""
"","bandit","113","236610","0.0-73.0-0.0","00528108","wem/bandit_party_2","A2HTAZR4WIGMCA","either","8","0","","","","","","","1","0","0","0.8049259064","","0.2","0.4","0.8","0.6","","","","","0.2451492808","0.1629883914","0.3821585683","0.8049259064","","","","","","","","","","76","L","3","","","32","main_expt","",""
"","bandit","114","236610","0.0-74.0-0.0","00528108","wem/bandit_party_2","A2HTAZR4WIGMCA","either","8","0","","","","","","","1","0","0","0.7891664673","","0.2","0.4","0.8","0.6","","","","","0.2802113289","0.2107911223","0.2714925976","0.7891664673","","","","","","","","","","76","L","3","","","33","main_expt","",""
"","bandit","115","236610","0.0-75.0-0.0","00528108","wem/bandit_party_2","A2HTAZR4WIGMCA","either","8","0","","","","","","","1","0","0","0.7854278051","","0.2","0.4","0.8","0.6","","","","","0.2892342718","0.1025901997","0.2755575364","0.7854278051","","","","","","","","","","76","L","3","","","34","main_expt","",""
"","bandit","116","236610","0.0-76.0-0.0","00528108","wem/bandit_party_2","A2HTAZR4WIGMCA","either","8","0","","","","","","","1","0","0","0.7260182018","","0.2","0.4","0.8","0.6","","","","","0.2486893666","0.1289879153","0.2697856654","0.7260182018","","","","","","","","","","76","L","3","","","35","main_expt","",""
"","bandit","117","236610","0.0-77.0-0.0","00528108","wem/bandit_party_2","A2HTAZR4WIGMCA","either","8","0","","","","","","","0","1","0","","0.7910957192","0.2","0.4","0.8","0.6","0.3536408983","0.1645491317","0.2483646443","0.7910957192","","","","","","","","","","","","","","76","L","3","","","36","main_expt","",""
"","bandit","118","236610","0.0-78.0-0.0","00528108","wem/bandit_party_2","A2HTAZR4WIGMCA","either","8","0","","","","","","","1","0","0","0.7996551039","","0.2","0.4","0.8","0.6","","","","","0.2493566902","0.1698046746","0.2103950957","0.7996551039","","","","","","","","","","76","L","3","","","37","main_expt","",""
"","bandit","119","236610","0.0-79.0-0.0","00528108","wem/bandit_party_2","A2HTAZR4WIGMCA","either","8","0","","","","","","","1","0","0","0.6717479894","","0.2","0.4","0.8","0.6","","","","","0.2948354516","0.2281502886","0.2128944509","0.6717479894","","","","","","","","","","76","L","3","","","38","main_expt","",""
"","bandit","120","236610","0.0-80.0-0.0","00528108","wem/bandit_party_2","A2HTAZR4WIGMCA","either","8","0","","","","","","","0","0","1","0.7121128808","","0.2","0.4","0.8","0.6","","","","","0.3373274679","0.1561271762","0.2965153327","0.7121128808","","","","","","","","","","76","L","3","","","39","main_expt","",""
"","bandit","121","236610","0.0-81.0-0.0","00528108","wem/bandit_party_2","A2HTAZR4WIGMCA","either","8","0","","","","","","","0","1","0","","0.7157410044","0.2","0.4","0.8","0.6","0.4138768052","0.1543620621","0.4447532253","0.7157410044","","","","","","","","","","","","","","76","L","3","","","40","main_expt","",""
"","bandit","122","236610","0.0-82.0-0.0","00528108","wem/bandit_party_2","A2HTAZR4WIGMCA","either","8","0","","","","","","","0","1","0","","0.681196038","0.2","0.4","0.8","0.6","0.438096834","0.2271499981","0.5330008696","0.681196038","","","","","","","","","","","","","","76","L","3","","","41","main_expt","",""
"","bandit","123","236610","0.0-83.0-0.0","00528108","wem/bandit_party_2","A2HTAZR4WIGMCA","either","8","0","","","","","","","1","0","0","0.6504320647","","0.2","0.4","0.8","0.6","","","","","0.4185173612","0.2882452936","0.573861049","0.6504320647","","","","","","","","","","76","L","3","","","42","main_expt","",""
"","bandit","124","236610","0.0-84.0-0.0","00528108","wem/bandit_party_2","A2HTAZR4WIGMCA","either","8","0","","","","","","","1","0","0","0.7369830744","","0.2","0.4","0.8","0.6","","","","","0.3796335567","0.298522686","0.6654349765","0.7369830744","","","","","","","","","","76","L","3","","","43","main_expt","",""
"","bandit","125","236610","0.0-85.0-0.0","00528108","wem/bandit_party_2","A2HTAZR4WIGMCA","either","8","0","","","","","","","0","0","1","0.6797935378","","0.2","0.4","0.8","0.6","","","","","0.31766129","0.3188886026","0.691198465","0.6797935378","","","","","","","","","","76","L","3","","","44","main_expt","",""
"","bandit","126","236610","0.0-86.0-0.0","00528108","wem/bandit_party_2","A2HTAZR4WIGMCA","either","8","0","","","","","","","0","0","1","0.6507473666","","0.2","0.4","0.8","0.6","","","","","0.4047397141","0.2705760174","0.7652674903","0.6507473666","","","","","","","","","","76","L","3","","","45","main_expt","",""
"","bandit","127","236610","0.0-87.0-0.0","00528108","wem/bandit_party_2","A2HTAZR4WIGMCA","either","8","0","","","","","","","0","0","1","0.6334510787","","0.2","0.4","0.8","0.6","","","","","0.4961613307","0.2506880939","0.8065230058","0.6334510787","","","","","","","","","","76","L","3","","","46","main_expt","",""
"","bandit","128","236610","0.0-88.0-0.0","00528108","wem/bandit_party_2","A2HTAZR4WIGMCA","either","8","0","","","","","","","0","0","1","0.4624468315","","0.2","0.4","0.8","0.6","","","","","0.4624468315","0.2491585872","0.7774474893","0.6143175143","","","","","","","","","","72","H","0","img/none_selected.jpg","","47","main_expt","",""
"","bandit","129","236610","0.0-89.0-0.0","00528108","wem/bandit_party_2","A2HTAZR4WIGMCA","either","8","0","","","","","","","0","1","0","","0.4886537242","0.2","0.4","0.8","0.6","0.4886537242","0.1997021219","0.7693176975","0.6404512611","","","","","","","","","","","","","","72","H","0","img/none_selected.jpg","","48","main_expt","",""
"","bandit","130","236610","0.0-90.0-0.0","00528108","wem/bandit_party_2","A2HTAZR4WIGMCA","either","8","0","","","","","","","0","0","1","","0.4270302022","0.2","0.4","0.8","0.6","0.4270302022","0.2119577724","0.807419373","0.6758621215","","","","","","","","","","","","","","72","H","0","img/none_selected.jpg","","49","main_expt","",""
"","bandit","131","236610","0.0-91.0-0.0","00528108","wem/bandit_party_2","A2HTAZR4WIGMCA","either","8","0","","","","","","","0","0","1","0.5151345658","","0.2","0.4","0.8","0.6","","","","","0.5151345658","0.2615271711","0.8562769227","0.6873234502","","","","","","","","","","72","H","0","img/none_selected.jpg","","50","main_expt","",""
"","bandit","132","236610","0.0-92.0-0.0","00528108","wem/bandit_party_2","A2HTAZR4WIGMCA","either","8","0","","","","","","","1","0","0","0.2764427577","","0.2","0.4","0.8","0.6","","","","","0.5134524181","0.2764427577","0.8705114925","0.7776044395","","","","","","","","","","74","J","1","","","51","main_expt","",""
"","bandit","133","236610","0.0-93.0-0.0","00528108","wem/bandit_party_2","A2HTAZR4WIGMCA","either","8","0","","","","","","","0","1","0","","0.3833776697","0.2","0.4","0.8","0.6","0.4842684999","0.3833776697","0.9310361031","0.8403410939","","","","","","","","","","","","","","74","J","1","","","52","main_expt","",""
"","bandit","134","236610","0.0-94.0-0.0","00528108","wem/bandit_party_2","A2HTAZR4WIGMCA","either","8","0","","","","","","","0","0","1","","0.4356502318","0.2","0.4","0.8","0.6","0.4412850773","0.4356502318","0.905794742","0.8151983534","","","","","","","","","","","","","","74","J","1","","","53","main_expt","",""
"","bandit","135","236610","0.0-95.0-0.0","00528108","wem/bandit_party_2","A2HTAZR4WIGMCA","either","8","0","","","","","","","0","0","1","","0.4120588364","0.2","0.4","0.8","0.6","0.4397693946","0.4120588364","0.9391541593","0.8081222638","","","","","","","","","","","","","","74","J","1","","","54","main_expt","",""
"","bandit","136","236610","0.0-96.0-0.0","00528108","wem/bandit_party_2","A2HTAZR4WIGMCA","either","8","0","","","","","","","1","0","0","0.2714296105","","0.2","0.4","0.8","0.6","","","","","0.3928202278","0.2714296105","0.9596285882","0.742009976","","","","","","","","","","74","J","1","","","55","main_expt","",""
"","bandit","137","236610","0.0-97.0-0.0","00528108","wem/bandit_party_2","A2HTAZR4WIGMCA","either","8","0","","","","","","","0","0","1","","0.2122311877","0.2","0.4","0.8","0.6","0.4593665993","0.2122311877","0.9565658233","0.7065076074","","","","","","","","","","","","","","74","J","1","","","56","main_expt","",""
"","bandit","138","236610","0.0-98.0-0.0","00528108","wem/bandit_party_2","A2HTAZR4WIGMCA","either","8","0","","","","","","","0","0","1","0.2282278588","","0.2","0.4","0.8","0.6","","","","","0.4006145211","0.2282278588","0.9681540372","0.6860695476","","","","","","","","","","74","J","1","","","57","main_expt","",""
"","bandit","139","236610","0.0-99.0-0.0","00528108","wem/bandit_party_2","A2HTAZR4WIGMCA","either","8","0","","","","","","","1","0","0","0.9207083952","","0.2","0.4","0.8","0.6","","","","","0.4597890412","0.1392076118","0.9207083952","0.742301155","","","","","","","","","","75","K","2","","","58","main_expt","",""
"","bandit","140","236610","0.0-100.0-0.0","00528108","wem/bandit_party_2","A2HTAZR4WIGMCA","either","8","0","","","","","","","0","1","0","","0.9178227258","0.2","0.4","0.8","0.6","0.4232266093","0.1706239206","0.9178227258","0.5291004622","","","","","","","","","","","","","","75","K","2","","","59","main_expt","",""
"","bandit","141","236610","0.0-101.0-0.0","00528108","wem/bandit_party_2","A2HTAZR4WIGMCA","either","8","0","","","","","","","1","0","0","0.8951285427","","0.2","0.4","0.8","0.6","","","","","0.3565880291","0.1674269281","0.8951285427","0.6348838793","","","","","","","","","","75","K","2","","","60","main_expt","",""
"","bandit","142","236610","0.0-102.0-0.0","00528108","wem/bandit_party_2","A2HTAZR4WIGMCA","either","8","0","","","","","","","1","0","0","0.8506814954","","0.2","0.4","0.8","0.6","","","","","0.3663276413","0.2182313474","0.8506814954","0.6796423313","","","","","","","","","","75","K","2","","","61","main_expt","",""
"","bandit","143","236610","0.0-103.0-0.0","00528108","wem/bandit_party_2","A2HTAZR4WIGMCA","either","8","0","","","","","","","1","0","0","0.8513854559","","0.2","0.4","0.8","0.6","","","","","0.3193005293","0.2949218256","0.8513854559","0.6928172916","","","","","","","","","","75","K","2","","","62","main_expt","",""
"","bandit","144","236610","0.0-104.0-0.0","00528108","wem/bandit_party_2","A2HTAZR4WIGMCA","either","8","0","","","","","","","1","0","0","0.8927579502","","0.2","0.4","0.8","0.6","","","","","0.1562068481","0.3170222383","0.8927579502","0.6996506825","","","","","","","","","","75","K","2","","","63","main_expt","",""
"","bandit","145","236610","0.0-105.0-0.0","00528108","wem/bandit_party_2","A2HTAZR4WIGMCA","either","8","0","","","","","","","1","0","0","0.9217936765","","0.2","0.4","0.8","0.6","","","","","0.2300477965","0.3033511374","0.9217936765","0.7294442249","","","","","","","","","","75","K","2","","","64","main_expt","",""
"","bandit","146","236610","0.0-106.0-0.0","00528108","wem/bandit_party_2","A2HTAZR4WIGMCA","either","8","0","","","","","","","1","0","0","0.9357047413","","0.2","0.4","0.8","0.6","","","","","0.2869838185","0.3973690147","0.9357047413","0.6605354899","","","","","","","","","","75","K","2","","","65","main_expt","",""
"","bandit","147","236610","0.0-107.0-0.0","00528108","wem/bandit_party_2","A2HTAZR4WIGMCA","either","8","0","","","","","","","1","0","0","0.910343843","","0.2","0.4","0.8","0.6","","","","","0.3287476356","0.4320294497","0.910343843","0.6959621059","","","","","","","","","","75","K","2","","","66","main_expt","",""
"","bandit","148","236610","0.0-108.0-0.0","00528108","wem/bandit_party_2","A2HTAZR4WIGMCA","either","8","0","","","","","","","0","0","1","0.9022080512","","0.2","0.4","0.8","0.6","","","","","0.3018365728","0.3208465419","0.9022080512","0.653899752","","","","","","","","","","75","K","2","","","67","main_expt","",""
"","bandit","149","236610","0.0-109.0-0.0","00528108","wem/bandit_party_2","A2HTAZR4WIGMCA","either","8","0","","","","","","","1","0","0","0.8492414063","","0.2","0.4","0.8","0.6","","","","","0.3208616414","0.3570730799","0.8492414063","0.6517851336","","","","","","","","","","75","K","2","","","68","main_expt","",""
"","bandit","150","236610","0.0-110.0-0.0","00528108","wem/bandit_party_2","A2HTAZR4WIGMCA","either","8","0","","","","","","","1","0","0","0.768219052","","0.2","0.4","0.8","0.6","","","","","0.386863802","0.3451514791","0.768219052","0.7011615004","","","","","","","","","","75","K","2","","","69","main_expt","",""
"","bandit","151","236610","0.0-111.0-0.0","00528108","wem/bandit_party_2","A2HTAZR4WIGMCA","either","8","0","","","","","","","1","0","0","0.7996218848","","0.2","0.4","0.8","0.6","","","","","0.3628244161","0.3127714871","0.7996218848","0.6278947594","","","","","","","","","","75","K","2","","","70","main_expt","",""
"","bandit","152","236610","0.0-112.0-0.0","00528108","wem/bandit_party_2","A2HTAZR4WIGMCA","either","8","0","","","","","","","0","1","0","","0.9130189757","0.2","0.4","0.8","0.6","0.2969295023","0.3855297895","0.9130189757","0.688517509","","","","","","","","","","","","","","75","K","2","","","71","main_expt","",""
"","bandit","153","236610","0.0-113.0-0.0","00528108","wem/bandit_party_2","A2HTAZR4WIGMCA","either","8","0","","","","","","","1","0","0","0.9016843832","","0.2","0.4","0.8","0.6","","","","","0.3512325323","0.3555010044","0.9016843832","0.6125440106","","","","","","","","","","75","K","2","","","72","main_expt","",""
"","bandit","154","236610","0.0-114.0-0.0","00528108","wem/bandit_party_2","A2HTAZR4WIGMCA","either","8","0","","","","","","","0","1","0","","0.9166584401","0.2","0.4","0.8","0.6","0.3845321254","0.3278360739","0.9166584401","0.4884410468","","","","","","","","","","","","","","75","K","2","","","73","main_expt","",""
"","bandit","155","236610","0.0-115.0-0.0","00528108","wem/bandit_party_2","A2HTAZR4WIGMCA","either","8","0","","","","","","","1","0","0","0.8699410266","","0.2","0.4","0.8","0.6","","","","","0.3760614253","0.3275161349","0.8699410266","0.5800760741","","","","","","","","","","75","K","2","","","74","main_expt","",""
"","bandit","156","236610","0.0-116.0-0.0","00528108","wem/bandit_party_2","A2HTAZR4WIGMCA","either","8","0","","","","","","","1","0","0","0.8192171788","","0.2","0.4","0.8","0.6","","","","","0.370831352","0.3454333807","0.8192171788","0.6614390465","","","","","","","","","","75","K","2","","","75","main_expt","",""
"","bandit","157","236610","0.0-117.0-0.0","00528108","wem/bandit_party_2","A2HTAZR4WIGMCA","either","8","0","","","","","","","0","1","0","","0.8990587115","0.2","0.4","0.8","0.6","0.4008199491","0.4213924804","0.8990587115","0.6861570843","","","","","","","","","","","","","","75","K","2","","","76","main_expt","",""
"","bandit","158","236610","0.0-118.0-0.0","00528108","wem/bandit_party_2","A2HTAZR4WIGMCA","either","8","0","","","","","","","1","0","0","0.9062137116","","0.2","0.4","0.8","0.6","","","","","0.3928984844","0.439510692","0.9062137116","0.5980737028","","","","","","","","","","75","K","2","","","77","main_expt","",""
"","bandit","159","236610","0.0-119.0-0.0","00528108","wem/bandit_party_2","A2HTAZR4WIGMCA","either","8","0","","","","","","","1","0","0","0.9215914722","","0.2","0.4","0.8","0.6","","","","","0.4709058574","0.4419424199","0.9215914722","0.6754083514","","","","","","","","","","75","K","2","","","78","main_expt","",""
"","bandit","160","236610","0.0-120.0-0.0","00528108","wem/bandit_party_2","A2HTAZR4WIGMCA","either","8","0","","","","","","","0","0","1","0.895443078","","0.2","0.4","0.8","0.6","","","","","0.4971614577","0.5056762283","0.895443078","0.7012934339","","","","","","","","","","75","K","2","","","79","main_expt","",""
"","bandit","161","236610","0.0-121.0-0.0","00528108","wem/bandit_party_2","A2HTAZR4WIGMCA","either","8","0","","","","","","","1","0","0","0.7789772955","","0.2","0.4","0.8","0.6","","","","","0.4828267768","0.4558190996","0.7789772955","0.7067798052","","","","","","","","","","75","K","2","","","80","main_expt","",""
"","bandit","162","236610","0.0-122.0-0.0","00528108","wem/bandit_party_2","A2HTAZR4WIGMCA","either","8","0","","","","","","","0","0","1","0.755426824","","0.2","0.4","0.8","0.6","","","","","0.4280570329","0.4774921548","0.755426824","0.7259433061","","","","","","","","","","75","K","2","","","81","main_expt","",""
"","bandit","163","236610","0.0-123.0-0.0","00528108","wem/bandit_party_2","A2HTAZR4WIGMCA","either","8","0","","","","","","","1","0","0","0.8356426425","","0.2","0.4","0.8","0.6","","","","","0.486136241","0.3611036613","0.8356426425","0.7022130872","","","","","","","","","","75","K","2","","","82","main_expt","",""
"","bandit","164","236610","0.0-124.0-0.0","00528108","wem/bandit_party_2","A2HTAZR4WIGMCA","either","8","0","","","","","","","1","0","0","0.8783145762","","0.2","0.4","0.8","0.6","","","","","0.3539143083","0.3341354767","0.8783145762","0.75927227","","","","","","","","","","75","K","2","","","83","main_expt","",""
"","bandit","165","236610","0.0-125.0-0.0","00528108","wem/bandit_party_2","A2HTAZR4WIGMCA","either","8","0","","","","","","","0","0","1","","0.9087743635","0.2","0.4","0.8","0.6","0.374811954","0.288479151","0.9087743635","0.8556046088","","","","","","","","","","","","","","75","K","2","","","84","main_expt","",""
"","bandit","166","236610","0.0-126.0-0.0","00528108","wem/bandit_party_2","A2HTAZR4WIGMCA","either","8","0","","","","","","","1","0","0","0.8632011641","","0.2","0.4","0.8","0.6","","","","","0.4518264681","0.3061923995","0.8632011641","0.7835234447","","","","","","","","","","75","K","2","","","85","main_expt","",""
"","bandit","167","236610","0.0-127.0-0.0","00528108","wem/bandit_party_2","A2HTAZR4WIGMCA","either","8","0","","","","","","","1","0","0","0.8341253046","","0.2","0.4","0.8","0.6","","","","","0.461936863","0.3370204437","0.8341253046","0.7037548709","","","","","","","","","","75","K","2","","","86","main_expt","",""
"","bandit","168","236610","0.0-128.0-0.0","00528108","wem/bandit_party_2","A2HTAZR4WIGMCA","either","8","0","","","","","","","0","1","0","","0.8728746981","0.2","0.4","0.8","0.6","0.3681660755","0.3900809043","0.8728746981","0.6903674631","","","","","","","","","","","","","","75","K","2","","","87","main_expt","",""
"","bandit","169","236610","0.0-129.0-0.0","00528108","wem/bandit_party_2","A2HTAZR4WIGMCA","either","8","0","","","","","","","0","1","0","","0.8408980459","0.2","0.4","0.8","0.6","0.3788462328","0.4296615172","0.8408980459","0.5883284312","","","","","","","","","","","","","","75","K","2","","","88","main_expt","",""
"","bandit","170","236610","0.0-130.0-0.0","00528108","wem/bandit_party_2","A2HTAZR4WIGMCA","either","8","0","","","","","","","1","0","0","0.8585781628","","0.2","0.4","0.8","0.6","","","","","0.3316952272","0.4636560077","0.8585781628","0.5258490985","","","","","","","","","","75","K","2","","","89","main_expt","",""
"","bandit","171","236610","0.0-131.0-0.0","00528108","wem/bandit_party_2","A2HTAZR4WIGMCA","either","8","0","","","","","","","0","1","0","","0.925840658","0.2","0.4","0.8","0.6","0.438068917","0.4463585346","0.925840658","0.6395041767","","","","","","","","","","","","","","75","K","2","","","90","main_expt","",""
"","bandit","172","236610","0.0-132.0-0.0","00528108","wem/bandit_party_2","A2HTAZR4WIGMCA","either","8","0","","","","","","","1","0","0","0.9201841885","","0.2","0.4","0.8","0.6","","","","","0.5158843935","0.4734463503","0.9201841885","0.6931091445","","","","","","","","","","75","K","2","","","91","main_expt","",""
"","bandit","173","236610","0.0-133.0-0.0","00528108","wem/bandit_party_2","A2HTAZR4WIGMCA","either","8","0","","","","","","","1","0","0","0.8508076908","","0.2","0.4","0.8","0.6","","","","","0.5182757575","0.5248255385","0.8508076908","0.6725373887","","","","","","","","","","75","K","2","","","92","main_expt","",""
"","bandit","174","236610","0.0-134.0-0.0","00528108","wem/bandit_party_2","A2HTAZR4WIGMCA","either","8","0","","","","","","","0","1","0","","0.8106711147","0.2","0.4","0.8","0.6","0.5498130742","0.3386726181","0.8106711147","0.7388835399","","","","","","","","","","","","","","75","K","2","","","93","main_expt","",""
"","bandit","175","236610","0.0-135.0-0.0","00528108","wem/bandit_party_2","A2HTAZR4WIGMCA","either","8","0","","","","","","","1","0","0","0.8543263914","","0.2","0.4","0.8","0.6","","","","","0.6049407638","0.3718894848","0.8543263914","0.697373586","","","","","","","","","","75","K","2","","","94","main_expt","",""
"","bandit","176","236610","0.0-136.0-0.0","00528108","wem/bandit_party_2","A2HTAZR4WIGMCA","either","8","0","","","","","","","1","0","0","0.8387782901","","0.2","0.4","0.8","0.6","","","","","0.6604115927","0.4005278521","0.8387782901","0.7550322224","","","","","","","","","","75","K","2","","","95","main_expt","",""
"","bandit","177","236610","0.0-137.0-0.0","00528108","wem/bandit_party_2","A2HTAZR4WIGMCA","either","8","0","","","","","","","0","1","0","","0.8208071174","0.2","0.4","0.8","0.6","0.7003847986","0.3694595514","0.8208071174","0.6576962358","","","","","","","","","","","","","","75","K","2","","","96","main_expt","",""
"","bandit","178","236610","0.0-138.0-0.0","00528108","wem/bandit_party_2","A2HTAZR4WIGMCA","either","8","0","","","","","","","1","0","0","0.765358829","","0.2","0.4","0.8","0.6","","","","","0.6793148949","0.3186037095","0.765358829","0.6802484638","","","","","","","","","","75","K","2","","","97","main_expt","",""
"","bandit","179","236610","0.0-139.0-0.0","00528108","wem/bandit_party_2","A2HTAZR4WIGMCA","either","8","0","","","","","","","0","1","0","","0.7823463211","0.2","0.4","0.8","0.6","0.6204607354","0.2786717818","0.7823463211","0.7042077447","","","","","","","","","","","","","","75","K","2","","","98","main_expt","",""
"","bandit","180","236610","0.0-140.0-0.0","00528108","wem/bandit_party_2","A2HTAZR4WIGMCA","either","8","0","","","","","","","1","0","0","0.7523003034","","0.2","0.4","0.8","0.6","","","","","0.6166262367","0.32929866","0.7523003034","0.7355617892","","","","","","","","","","75","K","2","","","99","main_expt","",""
"","bandit","181","236610","0.0-141.0-0.0","00528108","wem/bandit_party_2","A2HTAZR4WIGMCA","either","8","0","","","","","","","0","0","1","","0.7174790615","0.2","0.4","0.8","0.6","0.5347115766","0.3115323478","0.7174790615","0.7117411671","","","","","","","","","","","","","","75","K","2","","","100","main_expt","",""
"","bandit","182","236610","0.0-142.0-0.0","00528108","wem/bandit_party_2","A2HTAZR4WIGMCA","either","8","0","","","","","","","1","0","0","0.7660578318","","0.2","0.4","0.8","0.6","","","","","0.3418016043","0.4221749579","0.7660578318","0.7263903312","","","","","","","","","","75","K","2","","","101","main_expt","",""
"","bandit","183","236610","0.0-143.0-0.0","00528108","wem/bandit_party_2","A2HTAZR4WIGMCA","either","8","0","","","","","","","1","0","0","0.7201180075","","0.2","0.4","0.8","0.6","","","","","0.2550922237","0.2718078598","0.7201180075","0.7357346189","","","","","","","","","","75","K","2","","","102","main_expt","",""
"","bandit","184","236610","0.0-144.0-0.0","00528108","wem/bandit_party_2","A2HTAZR4WIGMCA","either","8","0","","","","","","","0","1","0","","0.8452780714","0.2","0.4","0.8","0.6","0.3181696353","0.3011307106","0.8452780714","0.7026134783","","","","","","","","","","","","","","75","K","2","","","103","main_expt","",""
"","bandit","185","236610","0.0-145.0-0.0","00528108","wem/bandit_party_2","A2HTAZR4WIGMCA","either","8","0","","","","","","","1","0","0","0.7236924273","","0.2","0.4","0.8","0.6","","","","","0.3383579412","0.3659291838","0.7236924273","0.8073666152","","","","","","","","","","75","K","2","","","104","main_expt","",""
"","bandit","186","236610","0.0-146.0-0.0","00528108","wem/bandit_party_2","A2HTAZR4WIGMCA","either","8","0","","","","","","","1","0","0","0.743719778","","0.2","0.4","0.8","0.6","","","","","0.2354673658","0.3499435223","0.743719778","0.824483439","","","","","","","","","","75","K","2","","","105","main_expt","",""
"","bandit","187","236610","0.0-147.0-0.0","00528108","wem/bandit_party_2","A2HTAZR4WIGMCA","either","8","0","","","","","","","1","0","0","0.7985687284","","0.2","0.4","0.8","0.6","","","","","0.159398249","0.3602262465","0.7985687284","0.9208810438","","","","","","","","","","75","K","2","","","106","main_expt","",""
"","bandit","188","236610","0.0-148.0-0.0","00528108","wem/bandit_party_2","A2HTAZR4WIGMCA","either","8","0","","","","","","","0","0","1","0.799345197","","0.2","0.4","0.8","0.6","","","","","0.1295169146","0.3252215163","0.799345197","0.8911910097","","","","","","","","","","75","K","2","","","107","main_expt","",""
"","bandit","189","236610","0.0-149.0-0.0","00528108","wem/bandit_party_2","A2HTAZR4WIGMCA","either","8","0","","","","","","","1","0","0","0.8681690713","","0.2","0.4","0.8","0.6","","","","","0.07754053308","0.2812406992","0.8681690713","0.8450149587","","","","","","","","","","75","K","2","","","108","main_expt","",""
"","bandit","190","236610","0.0-150.0-0.0","00528108","wem/bandit_party_2","A2HTAZR4WIGMCA","either","8","0","","","","","","","0","1","0","","0.8556732204","0.2","0.4","0.8","0.6","0.06591215473","0.2559497519","0.8556732204","0.868327257","","","","","","","","","","","","","","75","K","2","","","109","main_expt","",""
"","bandit","191","236610","0.0-151.0-0.0","00528108","wem/bandit_party_2","A2HTAZR4WIGMCA","either","8","0","","","","","","","0","0","1","0.8669893864","","0.2","0.4","0.8","0.6","","","","","0.1189546392","0.2817400418","0.8669893864","0.8868335222","","","","","","","","","","75","K","2","","","110","main_expt","",""
"","bandit","192","236610","0.0-152.0-0.0","00528108","wem/bandit_party_2","A2HTAZR4WIGMCA","either","8","0","","","","","","","0","0","1","0.799383849","","0.2","0.4","0.8","0.6","","","","","0.09523351692","0.2773620367","0.799383849","0.8770728171","","","","","","","","","","75","K","2","","","111","main_expt","",""
"","bandit","193","236610","0.0-153.0-0.0","00528108","wem/bandit_party_2","A2HTAZR4WIGMCA","either","8","0","","","","","","","0","0","1","0.859799476","","0.2","0.4","0.8","0.6","","","","","0.107489667","0.2833316415","0.859799476","0.8481710002","","","","","","","","","","75","K","2","","","112","main_expt","",""
"","bandit","194","236610","0.0-154.0-0.0","00528108","wem/bandit_party_2","A2HTAZR4WIGMCA","either","8","0","","","","","","","1","0","0","0.3433702059","","0.2","0.4","0.8","0.6","","","","","0.1026187258","0.3433702059","0.7932436089","0.8573528835","","","","","","","","","","74","J","1","","","113","main_expt","",""
"","bandit","195","236610","0.0-155.0-0.0","00528108","wem/bandit_party_2","A2HTAZR4WIGMCA","either","8","0","","","","","","","0","0","1","0.4828882278","","0.2","0.4","0.8","0.6","","","","","0.1044839951","0.4828882278","0.849407262","0.8291807482","","","","","","","","","","74","J","1","","","114","main_expt","",""
"","bandit","196","236610","0.0-156.0-0.0","00528108","wem/bandit_party_2","A2HTAZR4WIGMCA","either","8","0","","","","","","","0","1","0","","0.54932579","0.2","0.4","0.8","0.6","0.1213931844","0.54932579","0.8882716547","0.761972944","","","","","","","","","","","","","","74","J","1","","","115","main_expt","",""
"","bandit","197","236610","0.0-157.0-0.0","00528108","wem/bandit_party_2","A2HTAZR4WIGMCA","either","8","0","","","","","","","0","1","0","","0.6971345968","0.2","0.4","0.8","0.6","0.1184144227","0.6971345968","0.8741354715","0.786197192","","","","","","","","","","","","","","74","J","1","","","116","main_expt","",""
"","bandit","198","236610","0.0-158.0-0.0","00528108","wem/bandit_party_2","A2HTAZR4WIGMCA","either","8","0","","","","","","","0","0","1","","0.5396272374","0.2","0.4","0.8","0.6","0.1983931569","0.5396272374","0.8083823922","0.7834453561","","","","","","","","","","","","","","74","J","1","","","117","main_expt","",""
"","bandit","199","236610","0.0-159.0-0.0","00528108","wem/bandit_party_2","A2HTAZR4WIGMCA","either","8","0","","","","","","","0","0","1","","0.5544567993","0.2","0.4","0.8","0.6","0.2840039584","0.5544567993","0.868525306","0.6742380839","","","","","","","","","","","","","","74","J","1","","","118","main_expt","",""
"","bandit","200","236610","0.0-160.0-0.0","00528108","wem/bandit_party_2","A2HTAZR4WIGMCA","either","8","0","","","","","","","0","0","1","0.5504896642","","0.2","0.4","0.8","0.6","","","","","0.3563325119","0.5504896642","0.8386471998","0.7350700153","","","","","","","","","","74","J","1","","","119","main_expt","",""
"","bandit","201","236610","0.0-161.0-0.0","00528108","wem/bandit_party_2","A2HTAZR4WIGMCA","either","8","0","","","","","","","0","1","0","","0.5682387565","0.2","0.4","0.8","0.6","0.5682387565","0.5812137135","0.8103559508","0.70601835","","","","","","","","","","","","","","72","H","0","img/none_selected.jpg","","120","main_expt","",""
"","bandit","202","236610","0.0-162.0-0.0","00528108","wem/bandit_party_2","A2HTAZR4WIGMCA","either","8","0","","","","","","","1","0","0","0.5189107771","","0.2","0.4","0.8","0.6","","","","","0.5189107771","0.6033058466","0.8193015173","0.7347719752","","","","","","","","","","72","H","0","img/none_selected.jpg","","121","main_expt","",""
"","bandit","203","236610","0.0-163.0-0.0","00528108","wem/bandit_party_2","A2HTAZR4WIGMCA","either","8","0","","","","","","","0","1","0","","0.4428493372","0.2","0.4","0.8","0.6","0.4428493372","0.6102220397","0.8025146027","0.8270923978","","","","","","","","","","","","","","72","H","0","img/none_selected.jpg","","122","main_expt","",""
"","bandit","204","236610","0.0-164.0-0.0","00528108","wem/bandit_party_2","A2HTAZR4WIGMCA","either","8","0","","","","","","","0","0","1","","0.472724465","0.2","0.4","0.8","0.6","0.472724465","0.6108151959","0.8121847492","0.7980631313","","","","","","","","","","","","","","72","H","0","img/none_selected.jpg","","123","main_expt","",""
"","bandit","205","236610","0.0-165.0-0.0","00528108","wem/bandit_party_2","A2HTAZR4WIGMCA","either","8","0","","","","","","","0","0","1","0.4799585558","","0.2","0.4","0.8","0.6","","","","","0.4799585558","0.7117385939","0.8299418439","0.7369852887","","","","","","","","","","72","H","0","img/none_selected.jpg","","124","main_expt","",""
"","bandit","206","236610","0.0-166.0-0.0","00528108","wem/bandit_party_2","A2HTAZR4WIGMCA","either","8","0","","","","","","","0","0","1","","0.5080184993","0.2","0.4","0.8","0.6","0.5080184993","0.7554186078","0.825688343","0.7465944313","","","","","","","","","","","","","","72","H","0","img/none_selected.jpg","","125","main_expt","",""
"","bandit","207","236610","0.0-167.0-0.0","00528108","wem/bandit_party_2","A2HTAZR4WIGMCA","either","8","0","","","","","","","0","0","1","0.7596834852","","0.2","0.4","0.8","0.6","","","","","0.4555098289","0.8855751833","0.8372054396","0.7596834852","","","","","","","","","","76","L","3","","","126","main_expt","",""
"","bandit","208","236610","0.0-168.0-0.0","00528108","wem/bandit_party_2","A2HTAZR4WIGMCA","either","8","0","","","","","","","0","0","1","0.7398299979","","0.2","0.4","0.8","0.6","","","","","0.5475411796","0.8003015049","0.7906689898","0.7398299979","","","","","","","","","","76","L","3","","","127","main_expt","",""
"","bandit","209","236610","0.0-169.0-0.0","00528108","wem/bandit_party_2","A2HTAZR4WIGMCA","either","8","0","","","","","","","1","0","0","0.7764866849","","0.2","0.4","0.8","0.6","","","","","0.612647382","0.8403113951","0.8008571507","0.7764866849","","","","","","","","","","76","L","3","","","128","main_expt","",""
"","bandit","210","236610","0.0-170.0-0.0","00528108","wem/bandit_party_2","A2HTAZR4WIGMCA","either","8","0","","","","","","","1","0","0","0.6435675963","","0.2","0.4","0.8","0.6","","","","","0.7128970287","0.8826872071","0.7829297973","0.6435675963","","","","","","","","","","76","L","3","","","129","main_expt","",""
"","bandit","211","236610","0.0-171.0-0.0","00528108","wem/bandit_party_2","A2HTAZR4WIGMCA","either","8","0","","","","","","","1","0","0","0.7030252038","","0.2","0.4","0.8","0.6","","","","","0.7309911721","0.8641000085","0.6898445721","0.7030252038","","","","","","","","","","76","L","3","","","130","main_expt","",""
"","bandit","212","236610","0.0-172.0-0.0","00528108","wem/bandit_party_2","A2HTAZR4WIGMCA","either","8","0","","","","","","","0","0","1","0.6829232191","","0.2","0.4","0.8","0.6","","","","","0.73180147","0.8752037592","0.5864867529","0.6829232191","","","","","","","","","","76","L","3","","","131","main_expt","",""
"","bandit","213","236610","0.0-173.0-0.0","00528108","wem/bandit_party_2","A2HTAZR4WIGMCA","either","8","0","","","","","","","1","0","0","0.7406452387","","0.2","0.4","0.8","0.6","","","","","0.8467134838","0.8279556795","0.560122833","0.7406452387","","","","","","","","","","76","L","3","","","132","main_expt","",""
"","bandit","214","236610","0.0-174.0-0.0","00528108","wem/bandit_party_2","A2HTAZR4WIGMCA","either","8","0","","","","","","","0","0","1","","0.6666234363","0.2","0.4","0.8","0.6","0.8481264083","0.8194722428","0.48439517","0.6666234363","","","","","","","","","","","","","","76","L","3","","","133","main_expt","",""
"","bandit","215","236610","0.0-175.0-0.0","00528108","wem/bandit_party_2","A2HTAZR4WIGMCA","either","8","0","","","","","","","0","0","1","0.680542061","","0.2","0.4","0.8","0.6","","","","","0.8771050955","0.8037084922","0.3919863126","0.680542061","","","","","","","","","","76","L","3","","","134","main_expt","",""
"","bandit","216","236610","0.0-176.0-0.0","00528108","wem/bandit_party_2","A2HTAZR4WIGMCA","either","8","0","","","","","","","1","0","0","0.7006187635","","0.2","0.4","0.8","0.6","","","","","0.9103241533","0.8155916457","0.5174750093","0.7006187635","","","","","","","","","","76","L","3","","","135","main_expt","",""
"","bandit","217","236610","0.0-177.0-0.0","00528108","wem/bandit_party_2","A2HTAZR4WIGMCA","either","8","0","","","","","","","0","1","0","","0.6936815578","0.2","0.4","0.8","0.6","0.9126032517","0.8281957705","0.4264762493","0.6936815578","","","","","","","","","","","","","","76","L","3","","","136","main_expt","",""
"","bandit","218","236610","0.0-178.0-0.0","00528108","wem/bandit_party_2","A2HTAZR4WIGMCA","either","8","0","","","","","","","0","0","1","","0.6531428085","0.2","0.4","0.8","0.6","0.8983360858","0.7055403129","0.5351999402","0.6531428085","","","","","","","","","","","","","","76","L","3","","","137","main_expt","",""
"","bandit","219","236610","0.0-179.0-0.0","00528108","wem/bandit_party_2","A2HTAZR4WIGMCA","either","8","0","","","","","","","1","0","0","0.6769758131","","0.2","0.4","0.8","0.6","","","","","0.8851370462","0.6884351598","0.4758748922","0.6769758131","","","","","","","","","","76","L","3","","","138","main_expt","",""
"","bandit","220","236610","0.0-180.0-0.0","00528108","wem/bandit_party_2","A2HTAZR4WIGMCA","either","8","0","","","","","","","1","0","0","0.7649589049","","0.2","0.4","0.8","0.6","","","","","0.8662270416","0.6090423031","0.4039793023","0.7649589049","","","","","","","","","","76","L","3","","","139","main_expt","",""
"","bandit","221","236610","0.0-181.0-0.0","00528108","wem/bandit_party_2","A2HTAZR4WIGMCA","either","8","0","","","","","","","1","0","0","0.7674202191","","0.2","0.4","0.8","0.6","","","","","0.8345767194","0.7000077187","0.384774136","0.7674202191","","","","","","","","","","76","L","3","","","140","main_expt","",""
"","bandit","222","236610","0.0-182.0-0.0","00528108","wem/bandit_party_2","A2HTAZR4WIGMCA","either","8","0","","","","","","","0","1","0","","0.8575114448","0.2","0.4","0.8","0.6","0.8783670964","0.6643185619","0.327254859","0.8575114448","","","","","","","","","","","","","","76","L","3","","","141","main_expt","",""
"","bandit","223","236610","0.0-183.0-0.0","00528108","wem/bandit_party_2","A2HTAZR4WIGMCA","either","8","0","","","","","","","1","0","0","0.8134430427","","0.2","0.4","0.8","0.6","","","","","0.8895828315","0.7079845674","0.4536641492","0.8134430427","","","","","","","","","","76","L","3","","","142","main_expt","",""
"","bandit","224","236610","0.0-184.0-0.0","00528108","wem/bandit_party_2","A2HTAZR4WIGMCA","either","8","0","","","","","","","1","0","0","0.8345505038","","0.2","0.4","0.8","0.6","","","","","0.9053928798","0.6624187643","0.4348486293","0.8345505038","","","","","","","","","","76","L","3","","","143","main_expt","",""
"","bandit","225","236610","0.0-185.0-0.0","00528108","wem/bandit_party_2","A2HTAZR4WIGMCA","either","8","0","","","","","","","0","0","1","0.7482817554","","0.2","0.4","0.8","0.6","","","","","0.9033088386","0.6779247185","0.4086594597","0.7482817554","","","","","","","","","","76","L","3","","","144","main_expt","",""
"","bandit","226","236610","0.0-186.0-0.0","00528108","wem/bandit_party_2","A2HTAZR4WIGMCA","either","8","0","","","","","","","1","0","0","0.7400387939","","0.2","0.4","0.8","0.6","","","","","0.8572864227","0.7216102374","0.4420772456","0.7400387939","","","","","","","","","","76","L","3","","","145","main_expt","",""
"","bandit","227","236610","0.0-187.0-0.0","00528108","wem/bandit_party_2","A2HTAZR4WIGMCA","either","8","0","","","","","","","1","0","0","0.795971973","","0.2","0.4","0.8","0.6","","","","","0.8687508917","0.7837267619","0.508741462","0.795971973","","","","","","","","","","76","L","3","","","146","main_expt","",""
"","bandit","228","236610","0.0-188.0-0.0","00528108","wem/bandit_party_2","A2HTAZR4WIGMCA","either","8","0","","","","","","","1","0","0","0.7503502301","","0.2","0.4","0.8","0.6","","","","","0.8657621525","0.7652264833","0.4624398998","0.7503502301","","","","","","","","","","76","L","3","","","147","main_expt","",""
"","bandit","229","236610","0.0-189.0-0.0","00528108","wem/bandit_party_2","A2HTAZR4WIGMCA","either","8","0","","","","","","","1","0","0","0.8200474043","","0.2","0.4","0.8","0.6","","","","","0.8362891365","0.7358716413","0.4062589849","0.8200474043","","","","","","","","","","76","L","3","","","148","main_expt","",""
"","bandit","230","236610","0.0-190.0-0.0","00528108","wem/bandit_party_2","A2HTAZR4WIGMCA","either","8","0","","","","","","","1","0","0","0.8509010271","","0.2","0.4","0.8","0.6","","","","","0.8144386017","0.7129200786","0.4895331913","0.8509010271","","","","","","","","","","76","L","3","","","149","main_expt","",""
"","bandit","231","236610","0.0-191.0-0.0","00528108","wem/bandit_party_2","A2HTAZR4WIGMCA","either","8","0","","","","","","","1","0","0","0.8298908313","","0.2","0.4","0.8","0.6","","","","","0.6948055455","0.705531668","0.4704746919","0.8298908313","","","","","","","","","","76","L","3","","","150","main_expt","",""
"","bandit","232","236610","0.0-192.0-0.0","00528108","wem/bandit_party_2","A2HTAZR4WIGMCA","either","8","0","","","","","","","1","0","0","0.7362749002","","0.2","0.4","0.8","0.6","","","","","0.6231991314","0.5744604188","0.4725745774","0.7362749002","","","","","","","","","","76","L","3","","","151","main_expt","",""
"","bandit","233","236610","0.0-193.0-0.0","00528108","wem/bandit_party_2","A2HTAZR4WIGMCA","either","8","0","","","","","","","0","1","0","","0.7601791643","0.2","0.4","0.8","0.6","0.7045057733","0.5372669321","0.4943906398","0.7601791643","","","","","","","","","","","","","","76","L","3","","","152","main_expt","",""
"","bandit","234","236610","0.0-194.0-0.0","00528108","wem/bandit_party_2","A2HTAZR4WIGMCA","either","8","0","","","","","","","0","1","0","","0.7590648118","0.2","0.4","0.8","0.6","0.5331338622","0.5447545218","0.4639524782","0.7590648118","","","","","","","","","","","","","","76","L","3","","","153","main_expt","",""
"","bandit","235","236610","0.0-195.0-0.0","00528108","wem/bandit_party_2","A2HTAZR4WIGMCA","either","8","0","","","","","","","1","0","0","0.7805387907","","0.2","0.4","0.8","0.6","","","","","0.5096720896","0.4191749193","0.3935792086","0.7805387907","","","","","","","","","","76","L","3","","","154","main_expt","",""
"","bandit","236","236610","0.0-196.0-0.0","00528108","wem/bandit_party_2","A2HTAZR4WIGMCA","either","8","0","","","","","","","1","0","0","0.8450805748","","0.2","0.4","0.8","0.6","","","","","0.4719011365","0.4269770229","0.4127348605","0.8450805748","","","","","","","","","","76","L","3","","","155","main_expt","",""
"","bandit","237","236610","0.0-197.0-0.0","00528108","wem/bandit_party_2","A2HTAZR4WIGMCA","either","8","0","","","","","","","0","0","1","","0.8513110265","0.2","0.4","0.8","0.6","0.5818713095","0.4589862704","0.3697675558","0.8513110265","","","","","","","","","","","","","","76","L","3","","","156","main_expt","",""
"","bandit","238","236610","0.0-198.0-0.0","00528108","wem/bandit_party_2","A2HTAZR4WIGMCA","either","8","0","","","","","","","1","0","0","0.8226236001","","0.2","0.4","0.8","0.6","","","","","0.5804022203","0.5370818316","0.3604398023","0.8226236001","","","","","","","","","","76","L","3","","","157","main_expt","",""
"","bandit","239","236610","0.0-199.0-0.0","00528108","wem/bandit_party_2","A2HTAZR4WIGMCA","either","8","0","","","","","","","0","0","1","0.8843141367","","0.2","0.4","0.8","0.6","","","","","0.4773166223","0.4757376888","0.4061750625","0.8843141367","","","","","","","","","","76","L","3","","","158","main_expt","",""
"","bandit","240","236610","0.0-200.0-0.0","00528108","wem/bandit_party_2","A2HTAZR4WIGMCA","either","8","0","","","","","","","0","0","1","","0.8078798749","0.2","0.4","0.8","0.6","0.419048585","0.4887287223","0.4696417586","0.8078798749","","","","","","","","","","","","","","76","L","3","","","159","main_expt","",""
"","bandit","241","236610","0.0-201.0-0.0","00528108","wem/bandit_party_2","A2HTAZR4WIGMCA","either","8","0","","","","","","","1","0","0","0.7689164465","","0.2","0.4","0.8","0.6","","","","","0.4672574386","0.4588489809","0.4659569923","0.7689164465","","","","","","","","","","76","L","3","","","160","main_expt","",""
"","bandit","242","236610","0.0-202.0-0.0","00528108","wem/bandit_party_2","A2HTAZR4WIGMCA","either","8","0","","","","","","","0","1","0","","0.7863156869","0.2","0.4","0.8","0.6","0.5612985374","0.4920004413","0.3947207546","0.7863156869","","","","","","","","","","","","","","76","L","3","","","161","main_expt","",""
"","bandit","243","236610","0.0-203.0-0.0","00528108","wem/bandit_party_2","A2HTAZR4WIGMCA","either","8","0","","","","","","","0","1","0","","0.8098475403","0.2","0.4","0.8","0.6","0.5288680036","0.5389881207","0.2460097942","0.8098475403","","","","","","","","","","","","","","76","L","3","","","162","main_expt","",""
"","bandit","244","236610","0.0-204.0-0.0","00528108","wem/bandit_party_2","A2HTAZR4WIGMCA","either","8","0","","","","","","","0","1","0","","0.8222712862","0.2","0.4","0.8","0.6","0.6096883849","0.6040136001","0.3603606056","0.8222712862","","","","","","","","","","","","","","76","L","3","","","163","main_expt","",""
"","bandit","245","236610","0.0-205.0-0.0","00528108","wem/bandit_party_2","A2HTAZR4WIGMCA","either","8","0","","","","","","","0","1","0","","0.7876031225","0.2","0.4","0.8","0.6","0.4868922288","0.623756827","0.2507209727","0.7876031225","","","","","","","","","","","","","","76","L","3","","","164","main_expt","",""
"","bandit","246","236610","0.0-206.0-0.0","00528108","wem/bandit_party_2","A2HTAZR4WIGMCA","either","8","0","","","","","","","1","0","0","0.7435052823","","0.2","0.4","0.8","0.6","","","","","0.4055552053","0.6164515281","0.2162043423","0.7435052823","","","","","","","","","","76","L","3","","","165","main_expt","",""
"","bandit","247","236610","0.0-207.0-0.0","00528108","wem/bandit_party_2","A2HTAZR4WIGMCA","either","8","0","","","","","","","1","0","0","0.6545739251","","0.2","0.4","0.8","0.6","","","","","0.4748236382","0.4660222187","0.2573409732","0.6545739251","","","","","","","","","","76","L","3","","","166","main_expt","",""
"","bandit","248","236610","0.0-208.0-0.0","00528108","wem/bandit_party_2","A2HTAZR4WIGMCA","either","8","0","","","","","","","0","0","1","0.6645907447","","0.2","0.4","0.8","0.6","","","","","0.4725242185","0.3336058786","0.4016088623","0.6645907447","","","","","","","","","","76","L","3","","","167","main_expt","",""
"","bandit","249","236610","0.0-209.0-0.0","00528108","wem/bandit_party_2","A2HTAZR4WIGMCA","either","8","0","","","","","","","0","0","1","","0.7243751722","0.2","0.4","0.8","0.6","0.4775208721","0.2887723434","0.5522858252","0.7243751722","","","","","","","","","","","","","","76","L","3","","","168","main_expt","",""
"","bandit","250","236610","0.0-210.0-0.0","00528108","wem/bandit_party_2","A2HTAZR4WIGMCA","either","8","0","","","","","","","1","0","0","0.6453105543","","0.2","0.4","0.8","0.6","","","","","0.4682732781","0.3357056981","0.5461138513","0.6453105543","","","","","","","","","","76","L","3","","","169","main_expt","",""
"","bandit","251","236610","0.0-211.0-0.0","00528108","wem/bandit_party_2","A2HTAZR4WIGMCA","either","8","0","","","","","","","0","0","1","0.5334010147","","0.2","0.4","0.8","0.6","","","","","0.4246621539","0.4179693295","0.4402798015","0.5334010147","","","","","","","","","","76","L","3","","","170","main_expt","",""
"","bandit","252","236610","0.0-212.0-0.0","00528108","wem/bandit_party_2","A2HTAZR4WIGMCA","either","8","0","","","","","","","0","0","1","0.498122785","","0.2","0.4","0.8","0.6","","","","","0.2843380906","0.3050406521","0.450294849","0.498122785","","","","","","","","","","76","L","3","","","171","main_expt","",""
"","bandit","253","236610","0.0-213.0-0.0","00528108","wem/bandit_party_2","A2HTAZR4WIGMCA","either","8","0","","","","","","","0","0","1","","0.2668952485","0.2","0.4","0.8","0.6","0.2668952485","0.3364500029","0.6475755847","0.4356988635","","","","","","","","","","","","","","72","H","0","img/none_selected.jpg","","172","main_expt","",""
"","bandit","254","236610","0.0-214.0-0.0","00528108","wem/bandit_party_2","A2HTAZR4WIGMCA","either","8","0","","","","","","","0","0","1","","0.3802819164","0.2","0.4","0.8","0.6","0.3802819164","0.421339117","0.6095255177","0.3964199688","","","","","","","","","","","","","","72","H","0","img/none_selected.jpg","","173","main_expt","",""
"","bandit","255","236610","0.0-215.0-0.0","00528108","wem/bandit_party_2","A2HTAZR4WIGMCA","either","8","0","","","","","","","0","1","0","","0.4913704717","0.2","0.4","0.8","0.6","0.4042455133","0.4913704717","0.5003628493","0.3194345802","","","","","","","","","","","","","","74","J","1","","","174","main_expt","",""
"","bandit","256","236610","0.0-216.0-0.0","00528108","wem/bandit_party_2","A2HTAZR4WIGMCA","either","8","0","","","","","","","1","0","0","0.5882611891","","0.2","0.4","0.8","0.6","","","","","0.4393989914","0.5882611891","0.5576212716","0.2865230234","","","","","","","","","","74","J","1","","","175","main_expt","",""
"","bandit","257","236610","0.0-217.0-0.0","00528108","wem/bandit_party_2","A2HTAZR4WIGMCA","either","8","0","","","","","","","0","1","0","","0.6313830356","0.2","0.4","0.8","0.6","0.4705173801","0.6313830356","0.6230679906","0.3352692614","","","","","","","","","","","","","","74","J","1","","","176","main_expt","",""
"","bandit","258","236610","0.0-218.0-0.0","00528108","wem/bandit_party_2","A2HTAZR4WIGMCA","either","8","0","","","","","","","0","0","1","","0.5531265137","0.2","0.4","0.8","0.6","0.4698597734","0.5531265137","0.6501784685","0.3389264817","","","","","","","","","","","","","","74","J","1","","","177","main_expt","",""
"","bandit","259","236610","0.0-219.0-0.0","00528108","wem/bandit_party_2","A2HTAZR4WIGMCA","either","8","0","","","","","","","0","0","1","0.4621004187","","0.2","0.4","0.8","0.6","","","","","0.3570804947","0.4621004187","0.6334155083","0.3709673039","","","","","","","","","","74","J","1","","","178","main_expt","",""
"","bandit","260","236610","0.0-220.0-0.0","00528108","wem/bandit_party_2","A2HTAZR4WIGMCA","either","8","0","","","","","","","0","1","0","","0.512884041","0.2","0.4","0.8","0.6","0.3441184995","0.512884041","0.7548338289","0.2940579202","","","","","","","","","","","","","","74","J","1","","","179","main_expt","",""
"","bandit","261","236610","0.0-221.0-0.0","00528108","wem/bandit_party_2","A2HTAZR4WIGMCA","either","8","0","","","","","","","0","0","1","","0.506744284","0.2","0.4","0.8","0.6","0.3646136501","0.506744284","0.8074073351","0.3218724025","","","","","","","","","","","","","","74","J","1","","","180","main_expt","",""
"","bandit","262","236610","0.0-222.0-0.0","00528108","wem/bandit_party_2","A2HTAZR4WIGMCA","either","8","0","","","","","","","0","0","1","0.780721516","","0.2","0.4","0.8","0.6","","","","","0.3777688814","0.4556494723","0.780721516","0.3633286182","","","","","","","","","","75","K","2","","","181","main_expt","",""
"","bandit","263","236610","0.0-223.0-0.0","00528108","wem/bandit_party_2","A2HTAZR4WIGMCA","either","8","0","","","","","","","1","0","0","0.7647415088","","0.2","0.4","0.8","0.6","","","","","0.4578236703","0.4494525508","0.7647415088","0.3324048704","","","","","","","","","","75","K","2","","","182","main_expt","",""
"","bandit","264","236610","0.0-224.0-0.0","00528108","wem/bandit_party_2","A2HTAZR4WIGMCA","either","8","0","","","","","","","1","0","0","0.7349307529","","0.2","0.4","0.8","0.6","","","","","0.4244895098","0.5189143621","0.7349307529","0.3092830871","","","","","","","","","","75","K","2","","","183","main_expt","",""
"","bandit","265","236610","0.0-225.0-0.0","00528108","wem/bandit_party_2","A2HTAZR4WIGMCA","either","8","0","","","","","","","1","0","0","0.8298088288","","0.2","0.4","0.8","0.6","","","","","0.3566779322","0.5167606333","0.8298088288","0.3905692936","","","","","","","","","","75","K","2","","","184","main_expt","",""
"","bandit","266","236610","0.0-226.0-0.0","00528108","wem/bandit_party_2","A2HTAZR4WIGMCA","either","8","0","","","","","","","0","0","1","0.7894193193","","0.2","0.4","0.8","0.6","","","","","0.3737416658","0.5270237034","0.7894193193","0.4626192444","","","","","","","","","","75","K","2","","","185","main_expt","",""
"","bandit","267","236610","0.0-227.0-0.0","00528108","wem/bandit_party_2","A2HTAZR4WIGMCA","either","8","0","","","","","","","1","0","0","0.7665022487","","0.2","0.4","0.8","0.6","","","","","0.3120176694","0.5556036571","0.7665022487","0.6061762586","","","","","","","","","","75","K","2","","","186","main_expt","",""
"","bandit","268","236610","0.0-228.0-0.0","00528108","wem/bandit_party_2","A2HTAZR4WIGMCA","either","8","0","","","","","","","0","1","0","","0.7394266891","0.2","0.4","0.8","0.6","0.4134691065","0.5865134094","0.7394266891","0.530958695","","","","","","","","","","","","","","75","K","2","","","187","main_expt","",""
"","bandit","269","236610","0.0-229.0-0.0","00528108","wem/bandit_party_2","A2HTAZR4WIGMCA","either","8","0","","","","","","","1","0","0","0.6567361442","","0.2","0.4","0.8","0.6","","","","","0.4637770407","0.5034866795","0.6567361442","0.380024655","","","","","","","","","","75","K","2","","","188","main_expt","",""
"","bandit","270","236610","0.0-230.0-0.0","00528108","wem/bandit_party_2","A2HTAZR4WIGMCA","either","8","0","","","","","","","1","0","0","0.6572443956","","0.2","0.4","0.8","0.6","","","","","0.5739034088","0.5761715841","0.6572443956","0.4563575644","","","","","","","","","","75","K","2","","","189","main_expt","",""
"","bandit","271","236610","0.0-231.0-0.0","00528108","wem/bandit_party_2","A2HTAZR4WIGMCA","either","8","0","","","","","","","0","0","1","0.6735764162","","0.2","0.4","0.8","0.6","","","","","0.5859504021","0.5325489933","0.6735764162","0.4540853102","","","","","","","","","","75","K","2","","","190","main_expt","",""
"","bandit","272","236610","0.0-232.0-0.0","00528108","wem/bandit_party_2","A2HTAZR4WIGMCA","either","8","0","","","","","","","0","0","1","0.5997518312","","0.2","0.4","0.8","0.6","","","","","0.5325822721","0.5614919892","0.5997518312","0.4328006462","","","","","","","","","","75","K","2","","","191","main_expt","",""
"","bandit","273","236610","0.0-233.0-0.0","00528108","wem/bandit_party_2","A2HTAZR4WIGMCA","either","8","0","","","","","","","0","1","0","","0.6582178794","0.2","0.4","0.8","0.6","0.4622441745","0.5972832049","0.6582178794","0.4979354652","","","","","","","","","","","","","","75","K","2","","","192","main_expt","",""
"","bandit","274","236610","0.0-234.0-0.0","00528108","wem/bandit_party_2","A2HTAZR4WIGMCA","either","8","0","","","","","","","0","0","1","0.7246172867","","0.2","0.4","0.8","0.6","","","","","0.4765036663","0.6997951875","0.7246172867","0.4887187701","","","","","","","","","","75","K","2","","","193","main_expt","",""
"","bandit","275","236610","0.0-235.0-0.0","00528108","wem/bandit_party_2","A2HTAZR4WIGMCA","either","8","0","","","","","","","1","0","0","0.7721250451","","0.2","0.4","0.8","0.6","","","","","0.4504155567","0.7511051992","0.7721250451","0.4993882896","","","","","","","","","","75","K","2","","","194","main_expt","",""
"","bandit","276","236610","0.0-236.0-0.0","00528108","wem/bandit_party_2","A2HTAZR4WIGMCA","either","8","0","","","","","","","1","0","0","0.8366496483","","0.2","0.4","0.8","0.6","","","","","0.4354252764","0.8281457055","0.8366496483","0.5011331455","","","","","","","","","","75","K","2","","","195","main_expt","",""
"","bandit","277","236610","0.0-237.0-0.0","00528108","wem/bandit_party_2","A2HTAZR4WIGMCA","either","8","0","","","","","","","1","0","0","0.8484646997","","0.2","0.4","0.8","0.6","","","","","0.4170899215","0.8248544968","0.8484646997","0.4487960683","","","","","","","","","","75","K","2","","","196","main_expt","",""
"","bandit","278","236610","0.0-238.0-0.0","00528108","wem/bandit_party_2","A2HTAZR4WIGMCA","either","8","0","","","","","","","0","0","1","0.8734060335","","0.2","0.4","0.8","0.6","","","","","0.4149059055","0.8532714289","0.8734060335","0.3975590019","","","","","","","","","","75","K","2","","","197","main_expt","",""
"","bandit","279","236610","0.0-239.0-0.0","00528108","wem/bandit_party_2","A2HTAZR4WIGMCA","either","8","0","","","","","","","1","0","0","0.8515360685","","0.2","0.4","0.8","0.6","","","","","0.4737306044","0.7587337752","0.8515360685","0.4161601929","","","","","","","","","","75","K","2","","","198","main_expt","",""
"","bandit","280","236610","0.0-240.0-0.0","00528108","wem/bandit_party_2","A2HTAZR4WIGMCA","either","8","0","","","","","","","0","1","0","","0.8805923715","0.2","0.4","0.8","0.6","0.4541760911","0.8124408481","0.8805923715","0.4483979408","","","","","","","","","","","","","","75","K","2","","","199","main_expt","",""
"","bandit","281","236610","0.0-241.0-0.0","00528108","wem/bandit_party_2","A2HTAZR4WIGMCA","either","8","0","","","","","","","1","0","0","0.9645818821","","0.2","0.4","0.8","0.6","","","","","0.3964714959","0.7935778268","0.9645818821","0.5303380975","","","","","","","","","","75","K","2","","","200","main_expt","",""
"","bandit","282","236610","0.0-242.0-0.0","00528108","wem/bandit_party_2","A2HTAZR4WIGMCA","either","8","0","","","","","","","1","0","0","0.9689478708","","0.2","0.4","0.8","0.6","","","","","0.3815447649","0.736942723","0.9689478708","0.4014045657","","","","","","","","","","75","K","2","","","201","main_expt","",""
"","bandit","283","236610","0.0-243.0-0.0","00528108","wem/bandit_party_2","A2HTAZR4WIGMCA","either","8","0","","","","","","","1","0","0","0.9678291885","","0.2","0.4","0.8","0.6","","","","","0.3726367513","0.7001951276","0.9678291885","0.5115169607","","","","","","","","","","75","K","2","","","202","main_expt","",""
"","bandit","284","236610","0.0-244.0-0.0","00528108","wem/bandit_party_2","A2HTAZR4WIGMCA","either","8","0","","","","","","","1","0","0","0.9633244117","","0.2","0.4","0.8","0.6","","","","","0.3062653216","0.7209300446","0.9633244117","0.5026191452","","","","","","","","","","75","K","2","","","203","main_expt","",""
"","bandit","285","236610","0.0-245.0-0.0","00528108","wem/bandit_party_2","A2HTAZR4WIGMCA","either","8","0","","","","","","","1","0","0","0.9730812582","","0.2","0.4","0.8","0.6","","","","","0.2848501254","0.8574132932","0.9730812582","0.4736298566","","","","","","","","","","75","K","2","","","204","main_expt","",""
"","bandit","286","236610","0.0-246.0-0.0","00528108","wem/bandit_party_2","A2HTAZR4WIGMCA","either","8","0","","","","","","","0","1","0","","0.9521206422","0.2","0.4","0.8","0.6","0.3457586416","0.9038760074","0.9521206422","0.6121858428","","","","","","","","","","","","","","75","K","2","","","205","main_expt","",""
"","bandit","287","236610","0.0-247.0-0.0","00528108","wem/bandit_party_2","A2HTAZR4WIGMCA","either","8","0","","","","","","","1","0","0","0.9614764056","","0.2","0.4","0.8","0.6","","","","","0.4609097875","0.9273356803","0.9614764056","0.6377028942","","","","","","","","","","75","K","2","","","206","main_expt","",""
"","bandit","288","236610","0.0-248.0-0.0","00528108","wem/bandit_party_2","A2HTAZR4WIGMCA","either","8","0","","","","","","","0","0","1","0.9625830716","","0.2","0.4","0.8","0.6","","","","","0.4980316736","0.9502037039","0.9625830716","0.5700483165","","","","","","","","","","75","K","2","","","207","main_expt","",""
"","bandit","289","236610","0.0-249.0-0.0","00528108","wem/bandit_party_2","A2HTAZR4WIGMCA","either","8","0","","","","","","","1","0","0","0.9359306517","","0.2","0.4","0.8","0.6","","","","","0.4537691537","0.944094639","0.9359306517","0.624428721","","","","","","","","","","75","K","2","","","208","main_expt","",""
"","bandit","290","236610","0.0-250.0-0.0","00528108","wem/bandit_party_2","A2HTAZR4WIGMCA","either","8","0","","","","","","","1","0","0","0.9632917203","","0.2","0.4","0.8","0.6","","","","","0.4475842875","0.9070839441","0.9632917203","0.4861871301","","","","","","","","","","75","K","2","","","209","main_expt","",""
"","bandit","291","236610","0.0-251.0-0.0","00528108","wem/bandit_party_2","A2HTAZR4WIGMCA","either","8","0","","","","","","","1","0","0","0.9633226214","","0.2","0.4","0.8","0.6","","","","","0.4803454055","0.8960653589","0.9633226214","0.3956361612","","","","","","","","","","75","K","2","","","210","main_expt","",""
"","bandit","292","236610","0.0-252.0-0.0","00528108","wem/bandit_party_2","A2HTAZR4WIGMCA","either","8","0","","","","","","","1","0","0","0.9719781217","","0.2","0.4","0.8","0.6","","","","","0.4126443349","0.9155455821","0.9719781217","0.3599204452","","","","","","","","","","75","K","2","","","211","main_expt","",""
"","bandit","293","236610","0.0-253.0-0.0","00528108","wem/bandit_party_2","A2HTAZR4WIGMCA","either","8","0","","","","","","","1","0","0","0.9700781686","","0.2","0.4","0.8","0.6","","","","","0.3384802849","0.9087954588","0.9700781686","0.3349000901","","","","","","","","","","75","K","2","","","212","main_expt","",""
"","bandit","294","236610","0.0-254.0-0.0","00528108","wem/bandit_party_2","A2HTAZR4WIGMCA","either","8","0","","","","","","","0","1","0","","0.971165811","0.2","0.4","0.8","0.6","0.3039242722","0.8528540962","0.971165811","0.3183344176","","","","","","","","","","","","","","75","K","2","","","213","main_expt","",""
"","bandit","295","236610","0.0-255.0-0.0","00528108","wem/bandit_party_2","A2HTAZR4WIGMCA","either","8","0","","","","","","","1","0","0","0.9627117","","0.2","0.4","0.8","0.6","","","","","0.4541530846","0.8506041988","0.9627117","0.2390758011","","","","","","","","","","75","K","2","","","214","main_expt","",""
"","bandit","296","236610","0.0-256.0-0.0","00528108","wem/bandit_party_2","A2HTAZR4WIGMCA","either","8","0","","","","","","","0","1","0","","0.9552130497","0.2","0.4","0.8","0.6","0.5101749692","0.8001829978","0.9552130497","0.1997060473","","","","","","","","","","","","","","75","K","2","","","215","main_expt","",""
"","bandit","297","236610","0.0-257.0-0.0","00528108","wem/bandit_party_2","A2HTAZR4WIGMCA","either","8","0","","","","","","","1","0","0","0.9220350188","","0.2","0.4","0.8","0.6","","","","","0.5580520347","0.733614842","0.9220350188","0.2326539104","","","","","","","","","","75","K","2","","","216","main_expt","",""
"","bandit","298","236610","0.0-258.0-0.0","00528108","wem/bandit_party_2","A2HTAZR4WIGMCA","either","8","0","","","","","","","0","0","1","","0.8736667029","0.2","0.4","0.8","0.6","0.4368451062","0.7479737912","0.8736667029","0.2319826337","","","","","","","","","","","","","","75","K","2","","","217","main_expt","",""
"","bandit","299","236610","0.0-259.0-0.0","00528108","wem/bandit_party_2","A2HTAZR4WIGMCA","either","8","0","","","","","","","1","0","0","0.7602784417","","0.2","0.4","0.8","0.6","","","","","0.3963441813","0.7713398237","0.7602784417","0.3143382807","","","","","","","","","","75","K","2","","","218","main_expt","",""
"","bandit","300","236610","0.0-260.0-0.0","00528108","wem/bandit_party_2","A2HTAZR4WIGMCA","either","8","0","","","","","","","1","0","0","0.7643050859","","0.2","0.4","0.8","0.6","","","","","0.4809426617","0.8077055691","0.7643050859","0.3304972923","","","","","","","","","","75","K","2","","","219","main_expt","",""
"","bandit","301","236610","0.0-261.0-0.0","00528108","wem/bandit_party_2","A2HTAZR4WIGMCA","either","8","0","","","","","","","0","1","0","","0.7793587236","0.2","0.4","0.8","0.6","0.397759556","0.7778114837","0.7793587236","0.2866104843","","","","","","","","","","","","","","75","K","2","","","220","main_expt","",""
"","bandit","302","236610","0.0-262.0-0.0","00528108","wem/bandit_party_2","A2HTAZR4WIGMCA","either","8","0","","","","","","","1","0","0","0.82086311","","0.2","0.4","0.8","0.6","","","","","0.4087677593","0.7214198583","0.82086311","0.3602561646","","","","","","","","","","75","K","2","","","221","main_expt","",""
"","bandit","303","236610","0.0-263.0-0.0","00528108","wem/bandit_party_2","A2HTAZR4WIGMCA","either","8","0","","","","","","","1","0","0","0.8543662658","","0.2","0.4","0.8","0.6","","","","","0.4561280915","0.8091526303","0.8543662658","0.3228749062","","","","","","","","","","75","K","2","","","222","main_expt","",""
"","bandit","304","236610","0.0-264.0-0.0","00528108","wem/bandit_party_2","A2HTAZR4WIGMCA","either","8","0","","","","","","","0","0","1","0.8599459829","","0.2","0.4","0.8","0.6","","","","","0.4419858618","0.8240838469","0.8599459829","0.2549485676","","","","","","","","","","75","K","2","","","223","main_expt","",""
"","bandit","305","236610","0.0-265.0-0.0","00528108","wem/bandit_party_2","A2HTAZR4WIGMCA","either","8","0","","","","","","","0","1","0","","0.7670685714","0.2","0.4","0.8","0.6","0.494409337","0.7670685714","0.8747991669","0.2389333491","","","","","","","","","","","","","","74","J","1","","","224","main_expt","",""
"","bandit","306","236610","0.0-266.0-0.0","00528108","wem/bandit_party_2","A2HTAZR4WIGMCA","either","8","0","","","","","","","0","1","0","","0.8775689376","0.2","0.4","0.8","0.6","0.3713348049","0.8775689376","0.7910409491","0.1517307125","","","","","","","","","","","","","","74","J","1","","","225","main_expt","",""
"","bandit","307","236610","0.0-267.0-0.0","00528108","wem/bandit_party_2","A2HTAZR4WIGMCA","either","8","0","","","","","","","0","1","0","","0.8846504348","0.2","0.4","0.8","0.6","0.4013452417","0.8846504348","0.7212928749","0.1002450003","","","","","","","","","","","","","","74","J","1","","","226","main_expt","",""
"","bandit","308","236610","0.0-268.0-0.0","00528108","wem/bandit_party_2","A2HTAZR4WIGMCA","either","8","0","","","","","","","0","1","0","","0.851087938","0.2","0.4","0.8","0.6","0.393451628","0.851087938","0.7090989562","0.1049945928","","","","","","","","","","","","","","74","J","1","","","227","main_expt","",""
"","bandit","309","236610","0.0-269.0-0.0","00528108","wem/bandit_party_2","A2HTAZR4WIGMCA","either","8","0","","","","","","","0","1","0","","0.9074720337","0.2","0.4","0.8","0.6","0.4175844788","0.9074720337","0.6606736223","0.03915988122","","","","","","","","","","","","","","74","J","1","","","228","main_expt","",""
"","bandit","310","236610","0.0-270.0-0.0","00528108","wem/bandit_party_2","A2HTAZR4WIGMCA","either","8","0","","","","","","","0","0","1","0.872332114","","0.2","0.4","0.8","0.6","","","","","0.408368909","0.872332114","0.6893924153","0.03767516843","","","","","","","","","","74","J","1","","","229","main_expt","",""
"","bandit","311","236610","0.0-271.0-0.0","00528108","wem/bandit_party_2","A2HTAZR4WIGMCA","either","8","0","","","","","","","1","0","0","0.4777699032","","0.2","0.4","0.8","0.6","","","","","0.4777699032","0.7967167456","0.6067604319","0.05804790214","","","","","","","","","","72","H","0","img/none_selected.jpg","","230","main_expt","",""
"","bandit","312","236610","0.0-272.0-0.0","00528108","wem/bandit_party_2","A2HTAZR4WIGMCA","either","8","0","","","","","","","0","1","0","","0.4935442242","0.2","0.4","0.8","0.6","0.4935442242","0.7760618079","0.5037419277","0.04963095007","","","","","","","","","","","","","","72","H","0","img/none_selected.jpg","","231","main_expt","",""
"","bandit","313","236610","0.0-273.0-0.0","00528108","wem/bandit_party_2","A2HTAZR4WIGMCA","either","8","0","","","","","","","0","0","1","","0.4889590317","0.2","0.4","0.8","0.6","0.4889590317","0.7765467853","0.4339479185","0.03759782928","","","","","","","","","","","","","","72","H","0","img/none_selected.jpg","","232","main_expt","",""
"","bandit","314","236610","0.0-274.0-0.0","00528108","wem/bandit_party_2","A2HTAZR4WIGMCA","either","8","0","","","","","","","0","0","1","","0.5212294662","0.2","0.4","0.8","0.6","0.5212294662","0.7895219362","0.4525546635","0.03147013274","","","","","","","","","","","","","","72","H","0","img/none_selected.jpg","","233","main_expt","",""
"","bandit","315","236610","0.0-275.0-0.0","00528108","wem/bandit_party_2","A2HTAZR4WIGMCA","either","8","0","","","","","","","0","0","1","0.4420617392","","0.2","0.4","0.8","0.6","","","","","0.4420617392","0.7491899586","0.3680080929","0.03547440544","","","","","","","","","","72","H","0","img/none_selected.jpg","","234","main_expt","",""
"","bandit","316","236610","0.0-276.0-0.0","00528108","wem/bandit_party_2","A2HTAZR4WIGMCA","either","8","0","","","","","","","0","1","0","","0.4816955248","0.2","0.4","0.8","0.6","0.4816955248","0.7397351474","0.3416373547","0.04486782706","","","","","","","","","","","","","","72","H","0","img/none_selected.jpg","","235","main_expt","",""
"","bandit","317","236610","0.0-277.0-0.0","00528108","wem/bandit_party_2","A2HTAZR4WIGMCA","either","8","0","","","","","","","0","0","1","","0.3028121716","0.2","0.4","0.8","0.6","0.3028121716","0.6587673302","0.3722877153","0.03122339122","","","","","","","","","","","","","","72","H","0","img/none_selected.jpg","","236","main_expt","",""
"","bandit","318","236610","0.0-278.0-0.0","00528108","wem/bandit_party_2","A2HTAZR4WIGMCA","either","8","0","","","","","","","0","0","1","0.3802502189","","0.2","0.4","0.8","0.6","","","","","0.3802502189","0.7534934878","0.3081002542","0.04191117605","","","","","","","","","","72","H","0","img/none_selected.jpg","","237","main_expt","",""
