"consent","trial_type","trial_index","time_elapsed","internal_node_id","subjID","study","MID","cond","drift","rt","responses","button_pressed","key_press","like","value","connected","gems","bombs","no_reward","GemPrChosen","BombPrChosen","GainOverPainPr_0","GainOverPainPr_1","GainOverPainPr_2","GainOverPainPr_3","LosePr_0","LosePr_1","LosePr_2","LosePr_3","WinPr_0","WinPr_1","WinPr_2","WinPr_3","Q0","Q1","Q2","gender","age","ethnicity","label","expt_phase","target","respCharCode","respKey","respChoiceNum","respChoice","practice","trial_counter","trial_label","Q0_index"
"GDM/GDM_behavioral_consent_30min_online.html","consent","0","38663","0.0-0.0","00765330","wem/bandit_party_2","A2RPDFZ5XGJ3IU","either","2","","","","","","","","","","","","","","","","","","","","","","","","","","","","","","","","","","","","","","","","",""
"","survey-text","1","53015","0.0-1.0","00765330","wem/bandit_party_2","A2RPDFZ5XGJ3IU","either","2","13345","{""Q0"":""A2RPDFZ5XGJ3IU""}","","","","","","","","","","","","","","","","","","","","","","","","","","","","","","","","","","","","","","",""
"","button-response","2","58389","0.0-2.0","00765330","wem/bandit_party_2","A2RPDFZ5XGJ3IU","either","2","4366","","2","","","","","","","","","","","","","","","","","","","","","","","","","","","","","","","","","","","","","",""
"","text-replacement","3","76795","0.0-3.0","00765330","wem/bandit_party_2","A2RPDFZ5XGJ3IU","either","2","17401","","","32","","","","","","","","","","","","","","","","","","","","","","","","","","","","","","","","","","","","",""
"","text-replacement","4","102648","0.0-4.0","00765330","wem/bandit_party_2","A2RPDFZ5XGJ3IU","either","2","25851","","","32","","","","","","","","","","","","","","","","","","","","","","","","","","","","","","","","","","","","",""
"","text-replacement","5","119390","0.0-5.0-0.0","00765330","wem/bandit_party_2","A2RPDFZ5XGJ3IU","either","2","16739","","","32","","","","","","","","","","","","","","","","","","","","","","","","","","","","","","","","","","","","",""
"","identification","6","140190","0.0-6.0-0.0","00765330","wem/bandit_party_2","A2RPDFZ5XGJ3IU","either","2","20782","","","","4","5","2","","","","","","","","","","","","","","","","","","","","","","","","pre","identification_pre","the Republican Party","","","","","","","",""
"","identification","7","157273","0.0-6.0-1.0","00765330","wem/bandit_party_2","A2RPDFZ5XGJ3IU","either","2","16065","","","","4","5","2","","","","","","","","","","","","","","","","","","","","","","","","pre","identification_pre","the Democratic Party","","","","","","","",""
"","text-replacement","8","169015","0.0-7.0","00765330","wem/bandit_party_2","A2RPDFZ5XGJ3IU","either","2","10739","","","32","","","","","","","","","","","","","","","","","","","","","","","","","","","","","","","","","","","","",""
"","text-replacement","9","176920","0.0-8.0","00765330","wem/bandit_party_2","A2RPDFZ5XGJ3IU","either","2","7902","","","32","","","","","","","","","","","","","","","","","","","","","","","","","","","","","","","","","","","","",""
"","text-replacement","10","188095","0.0-9.0","00765330","wem/bandit_party_2","A2RPDFZ5XGJ3IU","either","2","11173","","","32","","","","","","","","","","","","","","","","","","","","","","","","","","","","","","","","","","","","",""
"","text-replacement","11","195763","0.0-10.0","00765330","wem/bandit_party_2","A2RPDFZ5XGJ3IU","either","2","7666","","","32","","","","","","","","","","","","","","","","","","","","","","","","","","","","","","","","","","","","",""
"","text-replacement","12","201975","0.0-11.0","00765330","wem/bandit_party_2","A2RPDFZ5XGJ3IU","either","2","6210","","","32","","","","","","","","","","","","","","","","","","","","","","","","","","","","","","","","","","","","",""
"","bandit","13","205881","0.0-12.0-0.0","00765330","wem/bandit_party_2","A2RPDFZ5XGJ3IU","either","2","2397","","","","","","","0","0","1","0","0","","","","","0","","","","0","","","","","","","","","","","","","74","J","0","img/none_selected_demo.jpg","true","0","",""
"","bandit","14","209124","0.0-13.0-0.0","00765330","wem/bandit_party_2","A2RPDFZ5XGJ3IU","either","2","1735","","","","","","","0","0","1","0","0","","","","","0","","","","0","","","","","","","","","","","","","75","K","0","img/none_selected_demo.jpg","true","0","",""
"","text-replacement","15","218316","0.0-14.0","00765330","wem/bandit_party_2","A2RPDFZ5XGJ3IU","either","2","9190","","","32","","","","","","","","","","","","","","","","","","","","","","","","","","","","","","","","","","","","",""
"","text-replacement","16","233644","0.0-15.0","00765330","wem/bandit_party_2","A2RPDFZ5XGJ3IU","either","2","15326","","","32","","","","","","","","","","","","","","","","","","","","","","","","","","","","","","","","","","","","",""
"","text-replacement","17","252820","0.0-16.0","00765330","wem/bandit_party_2","A2RPDFZ5XGJ3IU","either","2","19174","","","32","","","","","","","","","","","","","","","","","","","","","","","","","","","","","","","","","","","","",""
"","text-replacement","18","263064","0.0-17.0","00765330","wem/bandit_party_2","A2RPDFZ5XGJ3IU","either","2","10242","","","32","","","","","","","","","","","","","","","","","","","","","","","","","","","","","","","","","","","","",""
"","bandit","19","266241","0.0-18.0-0.0","00765330","wem/bandit_party_2","A2RPDFZ5XGJ3IU","either","2","1670","","","","","","","1","0","0","0.8","","0.5","0.5","","","","","","","0.8","0.2","","","","","","","","","","","","74","J","0","img/none_selected_demo.jpg","true","0","80_20_practice",""
"","bandit","20","268575","0.0-18.0-1.0","00765330","wem/bandit_party_2","A2RPDFZ5XGJ3IU","either","2","826","","","","","","","1","0","0","0.8","","0.5","0.5","","","","","","","0.8","0.2","","","","","","","","","","","","74","J","0","img/none_selected_demo.jpg","true","0","80_20_practice",""
"","bandit","21","271025","0.0-18.0-2.0","00765330","wem/bandit_party_2","A2RPDFZ5XGJ3IU","either","2","943","","","","","","","0","1","0","","0.8","0.5","0.5","","","0.8","0.2","","","","","","","","","","","","","","","","74","J","0","img/none_selected_demo.jpg","true","0","80_20_practice",""
"","bandit","22","273131","0.0-18.0-3.0","00765330","wem/bandit_party_2","A2RPDFZ5XGJ3IU","either","2","596","","","","","","","1","0","0","0.8","","0.5","0.5","","","","","","","0.8","0.2","","","","","","","","","","","","74","J","0","img/none_selected_demo.jpg","true","0","80_20_practice",""
"","bandit","23","274849","0.0-18.0-4.0","00765330","wem/bandit_party_2","A2RPDFZ5XGJ3IU","either","2","209","","","","","","","0","0","1","","0.2","0.5","0.5","","","0.8","0.2","","","","","","","","","","","","","","","","75","K","1","","true","0","80_20_practice",""
"","bandit","24","276550","0.0-18.0-5.0","00765330","wem/bandit_party_2","A2RPDFZ5XGJ3IU","either","2","193","","","","","","","0","0","1","","0.2","0.5","0.5","","","0.8","0.2","","","","","","","","","","","","","","","","75","K","1","","true","0","80_20_practice",""
"","bandit","25","278392","0.0-18.0-6.0","00765330","wem/bandit_party_2","A2RPDFZ5XGJ3IU","either","2","333","","","","","","","1","0","0","0.8","","0.5","0.5","","","","","","","0.8","0.2","","","","","","","","","","","","74","J","0","img/none_selected_demo.jpg","true","0","80_20_practice",""
"","bandit","26","280169","0.0-18.0-7.0","00765330","wem/bandit_party_2","A2RPDFZ5XGJ3IU","either","2","269","","","","","","","0","0","1","","0.8","0.5","0.5","","","0.8","0.2","","","","","","","","","","","","","","","","74","J","0","img/none_selected_demo.jpg","true","0","80_20_practice",""
"","bandit","27","282019","0.0-18.0-8.0","00765330","wem/bandit_party_2","A2RPDFZ5XGJ3IU","either","2","343","","","","","","","1","0","0","0.8","","0.5","0.5","","","","","","","0.8","0.2","","","","","","","","","","","","74","J","0","img/none_selected_demo.jpg","true","0","80_20_practice",""
"","bandit","28","283561","0.0-18.0-9.0","00765330","wem/bandit_party_2","A2RPDFZ5XGJ3IU","either","2","33","","","","","","","0","0","1","","0.8","0.5","0.5","","","0.8","0.2","","","","","","","","","","","","","","","","74","J","0","img/none_selected_demo.jpg","true","0","80_20_practice",""
"","bandit","29","285329","0.0-18.0-10.0","00765330","wem/bandit_party_2","A2RPDFZ5XGJ3IU","either","2","260","","","","","","","1","0","0","0.8","","0.5","0.5","","","","","","","0.8","0.2","","","","","","","","","","","","74","J","0","img/none_selected_demo.jpg","true","0","80_20_practice",""
"","bandit","30","287370","0.0-18.0-11.0","00765330","wem/bandit_party_2","A2RPDFZ5XGJ3IU","either","2","533","","","","","","","0","1","0","","0.8","0.5","0.5","","","0.8","0.2","","","","","","","","","","","","","","","","74","J","0","img/none_selected_demo.jpg","true","0","80_20_practice",""
"","bandit","31","289112","0.0-18.0-12.0","00765330","wem/bandit_party_2","A2RPDFZ5XGJ3IU","either","2","235","","","","","","","0","0","1","","0.8","0.5","0.5","","","0.8","0.2","","","","","","","","","","","","","","","","74","J","0","img/none_selected_demo.jpg","true","0","80_20_practice",""
"","bandit","32","290620","0.0-18.0-13.0","00765330","wem/bandit_party_2","A2RPDFZ5XGJ3IU","either","2","0","","","","","","","1","0","0","0.8","","0.5","0.5","","","","","","","0.8","0.2","","","","","","","","","","","","74","J","0","img/none_selected_demo.jpg","true","0","80_20_practice",""
"","bandit","33","292701","0.0-18.0-14.0","00765330","wem/bandit_party_2","A2RPDFZ5XGJ3IU","either","2","573","","","","","","","0","0","1","0.2","","0.5","0.5","","","","","","","0.8","0.2","","","","","","","","","","","","75","K","1","","true","0","80_20_practice",""
"","bandit","34","294773","0.0-18.0-15.0","00765330","wem/bandit_party_2","A2RPDFZ5XGJ3IU","either","2","564","","","","","","","0","0","1","0.2","","0.5","0.5","","","","","","","0.8","0.2","","","","","","","","","","","","75","K","1","","true","0","80_20_practice",""
"","bandit","35","298099","0.0-18.0-16.0","00765330","wem/bandit_party_2","A2RPDFZ5XGJ3IU","either","2","1817","","","","","","","0","0","1","","0.2","0.5","0.5","","","0.8","0.2","","","","","","","","","","","","","","","","75","K","1","","true","0","80_20_practice",""
"","bandit","36","299763","0.0-18.0-17.0","00765330","wem/bandit_party_2","A2RPDFZ5XGJ3IU","either","2","156","","","","","","","0","0","1","0.8","","0.5","0.5","","","","","","","0.8","0.2","","","","","","","","","","","","74","J","0","img/none_selected_demo.jpg","true","0","80_20_practice",""
"","bandit","37","301631","0.0-18.0-18.0","00765330","wem/bandit_party_2","A2RPDFZ5XGJ3IU","either","2","359","","","","","","","0","1","0","","0.8","0.5","0.5","","","0.8","0.2","","","","","","","","","","","","","","","","74","J","0","img/none_selected_demo.jpg","true","0","80_20_practice",""
"","bandit","38","303445","0.0-18.0-19.0","00765330","wem/bandit_party_2","A2RPDFZ5XGJ3IU","either","2","308","","","","","","","1","0","0","0.8","","0.5","0.5","","","","","","","0.8","0.2","","","","","","","","","","","","74","J","0","img/none_selected_demo.jpg","true","0","80_20_practice",""
"","text-replacement","39","310299","0.0-19.0","00765330","wem/bandit_party_2","A2RPDFZ5XGJ3IU","either","2","6850","","","32","","","","","","","","","","","","","","","","","","","","","","","","","","","","","","","","","","","","",""
"","bandit","40","313670","0.0-20.0-0.0","00765330","wem/bandit_party_2","A2RPDFZ5XGJ3IU","either","2","1864","","","","","","","1","0","0","1","0","","","","","0","1","","","1","0","","","","","","","","","","","","74","J","0","img/none_selected_demo.jpg","true","0","",""
"","text-replacement","41","315065","0.0-21.0","00765330","wem/bandit_party_2","A2RPDFZ5XGJ3IU","either","2","1392","","","17","","","","","","","","","","","","","","","","","","","","","","","","","","","","","","","","","","","","",""
"","text-replacement","42","322077","0.0-22.0","00765330","wem/bandit_party_2","A2RPDFZ5XGJ3IU","either","2","7009","","","32","","","","","","","","","","","","","","","","","","","","","","","","","","","","","","","","","","","","",""
"","text-replacement","43","339053","0.0-23.0","00765330","wem/bandit_party_2","A2RPDFZ5XGJ3IU","either","2","16974","","","32","","","","","","","","","","","","","","","","","","","","","","","","","","","","","","","","","","","","",""
"","text-replacement","44","347034","0.0-24.0","00765330","wem/bandit_party_2","A2RPDFZ5XGJ3IU","either","2","7977","","","32","","","","","","","","","","","","","","","","","","","","","","","","","","","","","","","","","","","","",""
"","text-replacement","45","352457","0.0-25.0","00765330","wem/bandit_party_2","A2RPDFZ5XGJ3IU","either","2","5421","","","32","","","","","","","","","","","","","","","","","","","","","","","","","","","","","","","","","","","","",""
"","text-replacement","46","356984","0.0-26.0","00765330","wem/bandit_party_2","A2RPDFZ5XGJ3IU","either","2","4524","","","32","","","","","","","","","","","","","","","","","","","","","","","","","","","","","","","","","","","","",""
"","text-replacement","47","363524","0.0-27.0","00765330","wem/bandit_party_2","A2RPDFZ5XGJ3IU","either","2","6539","","","32","","","","","","","","","","","","","","","","","","","","","","","","","","","","","","","","","","","","",""
"","text-replacement","48","372780","0.0-28.0","00765330","wem/bandit_party_2","A2RPDFZ5XGJ3IU","either","2","9253","","","32","","","","","","","","","","","","","","","","","","","","","","","","","","","","","","","","","","","","",""
"","text-replacement","49","382040","0.0-29.0","00765330","wem/bandit_party_2","A2RPDFZ5XGJ3IU","either","2","9258","","","32","","","","","","","","","","","","","","","","","","","","","","","","","","","","","","","","","","","","",""
"","text-replacement","50","386258","0.0-30.0","00765330","wem/bandit_party_2","A2RPDFZ5XGJ3IU","either","2","4215","","","32","","","","","","","","","","","","","","","","","","","","","","","","","","","","","","","","","","","","",""
"","text-replacement","51","394595","0.0-31.0","00765330","wem/bandit_party_2","A2RPDFZ5XGJ3IU","either","2","8334","","","32","","","","","","","","","","","","","","","","","","","","","","","","","","","","","","","","","","","","",""
"","bandit","52","397354","0.0-32.0-0.0","00765330","wem/bandit_party_2","A2RPDFZ5XGJ3IU","either","2","1252","","","","","","","1","0","0","0.8","","0.5","0.5","0.5","0.5","","","","","0.8","0.2","0.6","0.2","","","","","","","","","","72","H","0","img/none_selected.jpg","true","0","full_practice",""
"","bandit","53","398965","0.0-32.0-1.0","00765330","wem/bandit_party_2","A2RPDFZ5XGJ3IU","either","2","103","","","","","","","1","0","0","0.8","","0.5","0.5","0.5","0.5","","","","","0.8","0.2","0.6","0.2","","","","","","","","","","72","H","0","img/none_selected.jpg","true","0","full_practice",""
"","bandit","54","401253","0.0-32.0-2.0","00765330","wem/bandit_party_2","A2RPDFZ5XGJ3IU","either","2","779","","","","","","","1","0","0","0.8","","0.5","0.5","0.5","0.5","","","","","0.8","0.2","0.6","0.2","","","","","","","","","","72","H","0","img/none_selected.jpg","true","0","full_practice",""
"","bandit","55","403133","0.0-32.0-3.0","00765330","wem/bandit_party_2","A2RPDFZ5XGJ3IU","either","2","371","","","","","","","0","0","1","","0.8","0.5","0.5","0.5","0.5","0.8","0.2","0.6","0.2","","","","","","","","","","","","","","72","H","0","img/none_selected.jpg","true","0","full_practice",""
"","bandit","56","404937","0.0-32.0-4.0","00765330","wem/bandit_party_2","A2RPDFZ5XGJ3IU","either","2","296","","","","","","","1","0","0","0.8","","0.5","0.5","0.5","0.5","","","","","0.8","0.2","0.6","0.2","","","","","","","","","","72","H","0","img/none_selected.jpg","true","0","full_practice",""
"","bandit","57","406488","0.0-32.0-5.0","00765330","wem/bandit_party_2","A2RPDFZ5XGJ3IU","either","2","42","","","","","","","0","1","0","","0.8","0.5","0.5","0.5","0.5","0.8","0.2","0.6","0.2","","","","","","","","","","","","","","72","H","0","img/none_selected.jpg","true","0","full_practice",""
"","bandit","58","408028","0.0-32.0-6.0","00765330","wem/bandit_party_2","A2RPDFZ5XGJ3IU","either","2","33","","","","","","","0","1","0","","0.8","0.5","0.5","0.5","0.5","0.8","0.2","0.6","0.2","","","","","","","","","","","","","","72","H","0","img/none_selected.jpg","true","0","full_practice",""
"","bandit","59","410102","0.0-32.0-7.0","00765330","wem/bandit_party_2","A2RPDFZ5XGJ3IU","either","2","563","","","","","","","1","0","0","0.8","","0.5","0.5","0.5","0.5","","","","","0.8","0.2","0.6","0.2","","","","","","","","","","72","H","0","img/none_selected.jpg","true","0","full_practice",""
"","bandit","60","411664","0.0-32.0-8.0","00765330","wem/bandit_party_2","A2RPDFZ5XGJ3IU","either","2","52","","","","","","","1","0","0","0.8","","0.5","0.5","0.5","0.5","","","","","0.8","0.2","0.6","0.2","","","","","","","","","","72","H","0","img/none_selected.jpg","true","0","full_practice",""
"","bandit","61","413651","0.0-32.0-9.0","00765330","wem/bandit_party_2","A2RPDFZ5XGJ3IU","either","2","478","","","","","","","0","1","0","","0.8","0.5","0.5","0.5","0.5","0.8","0.2","0.6","0.2","","","","","","","","","","","","","","72","H","0","img/none_selected.jpg","true","0","full_practice",""
"","bandit","62","415423","0.0-32.0-10.0","00765330","wem/bandit_party_2","A2RPDFZ5XGJ3IU","either","2","264","","","","","","","0","0","1","","0.2","0.5","0.5","0.5","0.5","0.8","0.2","0.6","0.2","","","","","","","","","","","","","","74","J","1","","true","0","full_practice",""
"","bandit","63","417037","0.0-32.0-11.0","00765330","wem/bandit_party_2","A2RPDFZ5XGJ3IU","either","2","106","","","","","","","0","0","1","0.2","","0.5","0.5","0.5","0.5","","","","","0.8","0.2","0.6","0.2","","","","","","","","","","74","J","1","","true","0","full_practice",""
"","bandit","64","419256","0.0-32.0-12.0","00765330","wem/bandit_party_2","A2RPDFZ5XGJ3IU","either","2","709","","","","","","","0","1","0","","0.2","0.5","0.5","0.5","0.5","0.8","0.2","0.6","0.2","","","","","","","","","","","","","","74","J","1","","true","0","full_practice",""
"","bandit","65","421018","0.0-32.0-13.0","00765330","wem/bandit_party_2","A2RPDFZ5XGJ3IU","either","2","252","","","","","","","0","0","1","","0.2","0.5","0.5","0.5","0.5","0.8","0.2","0.6","0.2","","","","","","","","","","","","","","74","J","1","","true","0","full_practice",""
"","bandit","66","422611","0.0-32.0-14.0","00765330","wem/bandit_party_2","A2RPDFZ5XGJ3IU","either","2","85","","","","","","","0","1","0","","0.2","0.5","0.5","0.5","0.5","0.8","0.2","0.6","0.2","","","","","","","","","","","","","","74","J","1","","true","0","full_practice",""
"","bandit","67","424296","0.0-32.0-15.0","00765330","wem/bandit_party_2","A2RPDFZ5XGJ3IU","either","2","176","","","","","","","0","0","1","","0.2","0.5","0.5","0.5","0.5","0.8","0.2","0.6","0.2","","","","","","","","","","","","","","74","J","1","","true","0","full_practice",""
"","bandit","68","426522","0.0-32.0-16.0","00765330","wem/bandit_party_2","A2RPDFZ5XGJ3IU","either","2","718","","","","","","","1","0","0","0.6","","0.5","0.5","0.5","0.5","","","","","0.8","0.2","0.6","0.2","","","","","","","","","","75","K","2","","true","0","full_practice",""
"","bandit","69","428087","0.0-32.0-17.0","00765330","wem/bandit_party_2","A2RPDFZ5XGJ3IU","either","2","58","","","","","","","0","0","1","","0.6","0.5","0.5","0.5","0.5","0.8","0.2","0.6","0.2","","","","","","","","","","","","","","75","K","2","","true","0","full_practice",""
"","bandit","70","430077","0.0-32.0-18.0","00765330","wem/bandit_party_2","A2RPDFZ5XGJ3IU","either","2","478","","","","","","","0","0","1","","0.6","0.5","0.5","0.5","0.5","0.8","0.2","0.6","0.2","","","","","","","","","","","","","","75","K","2","","true","0","full_practice",""
"","bandit","71","432065","0.0-32.0-19.0","00765330","wem/bandit_party_2","A2RPDFZ5XGJ3IU","either","2","475","","","","","","","1","0","0","0.6","","0.5","0.5","0.5","0.5","","","","","0.8","0.2","0.6","0.2","","","","","","","","","","75","K","2","","true","0","full_practice",""
"","text","72","441916","0.0-33.0","00765330","wem/bandit_party_2","A2RPDFZ5XGJ3IU","either","2","9844","","","32","","","","","","","","","","","","","","","","","","","","","","","","","","","","","","","","","","","","",""
"","text-replacement","73","458808","0.0-34.0","00765330","wem/bandit_party_2","A2RPDFZ5XGJ3IU","either","2","15888","","","32","","","","","","","","","","","","","","","","","","","","","","","","","","","","","","","","","","","","",""
"","text-replacement","74","472803","0.0-35.0","00765330","wem/bandit_party_2","A2RPDFZ5XGJ3IU","either","2","13992","","","32","","","","","","","","","","","","","","","","","","","","","","","","","","","","","","","","","","","","",""
"","text-replacement","75","482396","0.0-36.0","00765330","wem/bandit_party_2","A2RPDFZ5XGJ3IU","either","2","9591","","","32","","","","","","","","","","","","","","","","","","","","","","","","","","","","","","","","","","","","",""
"","text-replacement","76","490677","0.0-37.0","00765330","wem/bandit_party_2","A2RPDFZ5XGJ3IU","either","2","8278","","","32","","","","","","","","","","","","","","","","","","","","","","","","","","","","","","","","","","","","",""
"","text-replacement","77","494342","0.0-38.0","00765330","wem/bandit_party_2","A2RPDFZ5XGJ3IU","either","2","3661","","","32","","","","","","","","","","","","","","","","","","","","","","","","","","","","","","","","","","","","",""
"","survey-multi-choice-replacement","78","510349","0.0-39.0-0.0","00765330","wem/bandit_party_2","A2RPDFZ5XGJ3IU","either","2","15997","","","","","","","","","","","","","","","","","","","","","","","","Money will be added to the pool for <span style='color:blue;'>DEMOCRATS</span>","","","","","","","attn_check","","","","","","","","","0"
"","survey-multi-choice-replacement","79","521987","0.0-40.0-0.0","00765330","wem/bandit_party_2","A2RPDFZ5XGJ3IU","either","2","10622","","","","","","","","","","","","","","","","","","","","","","","","Equal amounts of money will be added to the pool for <span style='color:blue;'>DEMOCRATS</span> and subtracted from the pool for <span style='color:red;'>REPUBLICANS</span>","","","","","","","attn_check","","","","","","","","","2"
"","survey-multi-choice-replacement","80","531427","0.0-41.0-0.0","00765330","wem/bandit_party_2","A2RPDFZ5XGJ3IU","either","2","8427","","","","","","","","","","","","","","","","","","","","","","","","No money will be added to either pool","","","","","","","attn_check","","","","","","","","","3"
"","bandit","81","535704","0.0-42.0-0.0","00765330","wem/bandit_party_2","A2RPDFZ5XGJ3IU","either","2","1764","","","","","","","0","1","0","","0.4841938304","0.4","0.2","0.6","0.8","0.4841938304","0.7092854079","0.9925337928","0.7961415707","","","","","","","","","","","","","","72","H","0","img/none_selected.jpg","","1","main_expt",""
"","bandit","82","537318","0.0-43.0-0.0","00765330","wem/bandit_party_2","A2RPDFZ5XGJ3IU","either","2","105","","","","","","","0","0","1","0.5300888233","","0.4","0.2","0.6","0.8","","","","","0.5300888233","0.7343230146","0.9909612399","0.7739630809","","","","","","","","","","72","H","0","img/none_selected.jpg","","2","main_expt",""
"","bandit","83","538920","0.0-44.0-0.0","00765330","wem/bandit_party_2","A2RPDFZ5XGJ3IU","either","2","94","","","","","","","0","0","1","","0.4747636274","0.4","0.2","0.6","0.8","0.4747636274","0.7616266478","0.9875934203","0.807852523","","","","","","","","","","","","","","72","H","0","img/none_selected.jpg","","3","main_expt",""
"","bandit","84","540888","0.0-45.0-0.0","00765330","wem/bandit_party_2","A2RPDFZ5XGJ3IU","either","2","458","","","","","","","0","0","1","","0.7555889459","0.4","0.2","0.6","0.8","0.4841015375","0.7555889459","0.9782241123","0.7922386472","","","","","","","","","","","","","","74","J","1","","","4","main_expt",""
"","bandit","85","542772","0.0-46.0-0.0","00765330","wem/bandit_party_2","A2RPDFZ5XGJ3IU","either","2","375","","","","","","","1","0","0","0.733520678","","0.4","0.2","0.6","0.8","","","","","0.5545204825","0.733520678","0.9756627961","0.865094385","","","","","","","","","","74","J","1","","","5","main_expt",""
"","bandit","86","544407","0.0-47.0-0.0","00765330","wem/bandit_party_2","A2RPDFZ5XGJ3IU","either","2","125","","","","","","","0","1","0","","0.6705264102","0.4","0.2","0.6","0.8","0.6032406034","0.6705264102","0.967089612","0.800956518","","","","","","","","","","","","","","74","J","1","","","6","main_expt",""
"","bandit","87","547055","0.0-48.0-0.0","00765330","wem/bandit_party_2","A2RPDFZ5XGJ3IU","either","2","1137","","","","","","","0","1","0","","0.6395389268","0.4","0.2","0.6","0.8","0.6629125932","0.6395389268","0.9581374084","0.826484282","","","","","","","","","","","","","","74","J","1","","","7","main_expt",""
"","bandit","88","549144","0.0-49.0-0.0","00765330","wem/bandit_party_2","A2RPDFZ5XGJ3IU","either","2","581","","","","","","","0","0","1","","0.6463283336","0.4","0.2","0.6","0.8","0.6179372523","0.6463283336","0.9470057872","0.8721258401","","","","","","","","","","","","","","74","J","1","","","8","main_expt",""
"","bandit","89","551127","0.0-50.0-0.0","00765330","wem/bandit_party_2","A2RPDFZ5XGJ3IU","either","2","469","","","","","","","0","1","0","","0.5257156782","0.4","0.2","0.6","0.8","0.7126464358","0.5257156782","0.9776699295","0.9123847657","","","","","","","","","","","","","","74","J","1","","","9","main_expt",""
"","bandit","90","553029","0.0-51.0-0.0","00765330","wem/bandit_party_2","A2RPDFZ5XGJ3IU","either","2","392","","","","","","","0","0","1","","0.4763364632","0.4","0.2","0.6","0.8","0.7356985298","0.4763364632","0.9728878591","0.8996742502","","","","","","","","","","","","","","74","J","1","","","10","main_expt",""
"","bandit","91","554686","0.0-52.0-0.0","00765330","wem/bandit_party_2","A2RPDFZ5XGJ3IU","either","2","147","","","","","","","0","1","0","","0.9593139104","0.4","0.2","0.6","0.8","0.768711937","0.4284616273","0.9593139104","0.9131723876","","","","","","","","","","","","","","75","K","2","","","11","main_expt",""
"","bandit","92","556478","0.0-53.0-0.0","00765330","wem/bandit_party_2","A2RPDFZ5XGJ3IU","either","2","282","","","","","","","1","0","0","0.9498917819","","0.4","0.2","0.6","0.8","","","","","0.775032537","0.3846657661","0.9498917819","0.8766857583","","","","","","","","","","75","K","2","","","12","main_expt",""
"","bandit","93","558124","0.0-54.0-0.0","00765330","wem/bandit_party_2","A2RPDFZ5XGJ3IU","either","2","136","","","","","","","1","0","0","0.9541602679","","0.4","0.2","0.6","0.8","","","","","0.8005481332","0.4534267517","0.9541602679","0.8395211377","","","","","","","","","","75","K","2","","","13","main_expt",""
"","bandit","94","559685","0.0-55.0-0.0","00765330","wem/bandit_party_2","A2RPDFZ5XGJ3IU","either","2","49","","","","","","","1","0","0","0.9457654821","","0.4","0.2","0.6","0.8","","","","","0.8437703121","0.5781166702","0.9457654821","0.8716273459","","","","","","","","","","75","K","2","","","14","main_expt",""
"","bandit","95","561368","0.0-56.0-0.0","00765330","wem/bandit_party_2","A2RPDFZ5XGJ3IU","either","2","174","","","","","","","1","0","0","0.961431504","","0.4","0.2","0.6","0.8","","","","","0.7878475566","0.6683268695","0.961431504","0.8884181174","","","","","","","","","","75","K","2","","","15","main_expt",""
"","bandit","96","563455","0.0-57.0-0.0","00765330","wem/bandit_party_2","A2RPDFZ5XGJ3IU","either","2","579","","","","","","","1","0","0","0.9614480804","","0.4","0.2","0.6","0.8","","","","","0.7873795395","0.6948649322","0.9614480804","0.9144873871","","","","","","","","","","75","K","2","","","16","main_expt",""
"","bandit","97","565261","0.0-58.0-0.0","00765330","wem/bandit_party_2","A2RPDFZ5XGJ3IU","either","2","295","","","","","","","0","1","0","","0.981184269","0.4","0.2","0.6","0.8","0.8084550093","0.7674725463","0.981184269","0.915766025","","","","","","","","","","","","","","75","K","2","","","17","main_expt",""
"","bandit","98","567067","0.0-59.0-0.0","00765330","wem/bandit_party_2","A2RPDFZ5XGJ3IU","either","2","291","","","","","","","0","1","0","","0.9861919244","0.4","0.2","0.6","0.8","0.8436933745","0.7706733977","0.9861919244","0.9357816117","","","","","","","","","","","","","","75","K","2","","","18","main_expt",""
"","bandit","99","568806","0.0-60.0-0.0","00765330","wem/bandit_party_2","A2RPDFZ5XGJ3IU","either","2","231","","","","","","","1","0","0","0.986789567","","0.4","0.2","0.6","0.8","","","","","0.8059530903","0.7396491891","0.986789567","0.9482019282","","","","","","","","","","75","K","2","","","19","main_expt",""
"","bandit","100","570370","0.0-61.0-0.0","00765330","wem/bandit_party_2","A2RPDFZ5XGJ3IU","either","2","53","","","","","","","1","0","0","0.986183881","","0.4","0.2","0.6","0.8","","","","","0.7839513496","0.6712916173","0.986183881","0.9433726768","","","","","","","","","","75","K","2","","","20","main_expt",""
"","bandit","101","571964","0.0-62.0-0.0","00765330","wem/bandit_party_2","A2RPDFZ5XGJ3IU","either","2","81","","","","","","","1","0","0","0.9887099493","","0.4","0.2","0.6","0.8","","","","","0.7841815244","0.6728887443","0.9887099493","0.9488284628","","","","","","","","","","75","K","2","","","21","main_expt",""
"","bandit","102","575060","0.0-63.0-0.0","00765330","wem/bandit_party_2","A2RPDFZ5XGJ3IU","either","2","1586","","","","","","","0","1","0","","0.992558567","0.4","0.2","0.6","0.8","0.8256278583","0.7838502077","0.992558567","0.9500515088","","","","","","","","","","","","","","75","K","2","","","22","main_expt",""
"","bandit","103","576831","0.0-64.0-0.0","00765330","wem/bandit_party_2","A2RPDFZ5XGJ3IU","either","2","263","","","","","","","1","0","0","0.9906074595","","0.4","0.2","0.6","0.8","","","","","0.7043778873","0.8711917965","0.9906074595","0.9645760881","","","","","","","","","","75","K","2","","","23","main_expt",""
"","bandit","104","578455","0.0-65.0-0.0","00765330","wem/bandit_party_2","A2RPDFZ5XGJ3IU","either","2","116","","","","","","","0","1","0","","0.9828703082","0.4","0.2","0.6","0.8","0.7662705475","0.861124964","0.9828703082","0.946785539","","","","","","","","","","","","","","75","K","2","","","24","main_expt",""
"","bandit","105","580193","0.0-66.0-0.0","00765330","wem/bandit_party_2","A2RPDFZ5XGJ3IU","either","2","227","","","","","","","0","1","0","","0.984618899","0.4","0.2","0.6","0.8","0.6915147264","0.8551403996","0.984618899","0.9229473608","","","","","","","","","","","","","","75","K","2","","","25","main_expt",""
"","bandit","106","581765","0.0-67.0-0.0","00765330","wem/bandit_party_2","A2RPDFZ5XGJ3IU","either","2","61","","","","","","","1","0","0","0.9780938917","","0.4","0.2","0.6","0.8","","","","","0.6844606422","0.8959771014","0.9780938917","0.8729820127","","","","","","","","","","75","K","2","","","26","main_expt",""
"","bandit","107","584082","0.0-68.0-0.0","00765330","wem/bandit_party_2","A2RPDFZ5XGJ3IU","either","2","808","","","","","","","0","1","0","","0.9634866904","0.4","0.2","0.6","0.8","0.7953701942","0.8786292531","0.9634866904","0.859067388","","","","","","","","","","","","","","75","K","2","","","27","main_expt",""
"","bandit","108","585863","0.0-69.0-0.0","00765330","wem/bandit_party_2","A2RPDFZ5XGJ3IU","either","2","270","","","","","","","1","0","0","0.836267867","","0.4","0.2","0.6","0.8","","","","","0.622657036","0.8920593834","0.946494378","0.836267867","","","","","","","","","","76","L","3","","","28","main_expt",""
"","bandit","109","587569","0.0-70.0-0.0","00765330","wem/bandit_party_2","A2RPDFZ5XGJ3IU","either","2","196","","","","","","","0","0","1","","0.7158546556","0.4","0.2","0.6","0.8","0.5757463716","0.8234517222","0.9338647731","0.7158546556","","","","","","","","","","","","","","76","L","3","","","29","main_expt",""
"","bandit","110","589170","0.0-71.0-0.0","00765330","wem/bandit_party_2","A2RPDFZ5XGJ3IU","either","2","89","","","","","","","1","0","0","0.7262950886","","0.4","0.2","0.6","0.8","","","","","0.6048158844","0.7963444676","0.9354801528","0.7262950886","","","","","","","","","","76","L","3","","","30","main_expt",""
"","bandit","111","590777","0.0-72.0-0.0","00765330","wem/bandit_party_2","A2RPDFZ5XGJ3IU","either","2","98","","","","","","","1","0","0","0.7049485024","","0.4","0.2","0.6","0.8","","","","","0.4831208743","0.6847131082","0.9323861487","0.7049485024","","","","","","","","","","76","L","3","","","31","main_expt",""
"","bandit","112","592439","0.0-73.0-0.0","00765330","wem/bandit_party_2","A2RPDFZ5XGJ3IU","either","2","150","","","","","","","1","0","0","0.6294605358","","0.4","0.2","0.6","0.8","","","","","0.4413454117","0.7745616343","0.9159531952","0.6294605358","","","","","","","","","","76","L","3","","","32","main_expt",""
"","bandit","113","594004","0.0-74.0-0.0","00765330","wem/bandit_party_2","A2RPDFZ5XGJ3IU","either","2","53","","","","","","","1","0","0","0.7097184707","","0.4","0.2","0.6","0.8","","","","","0.589686364","0.8111568365","0.9501333659","0.7097184707","","","","","","","","","","76","L","3","","","33","main_expt",""
"","bandit","114","595626","0.0-75.0-0.0","00765330","wem/bandit_party_2","A2RPDFZ5XGJ3IU","either","2","112","","","","","","","1","0","0","0.6324728327","","0.4","0.2","0.6","0.8","","","","","0.5789977489","0.7291364049","0.9485118263","0.6324728327","","","","","","","","","","76","L","3","","","34","main_expt",""
"","bandit","115","597262","0.0-76.0-0.0","00765330","wem/bandit_party_2","A2RPDFZ5XGJ3IU","either","2","125","","","","","","","1","0","0","0.6809104991","","0.4","0.2","0.6","0.8","","","","","0.5605822786","0.7920219322","0.959491173","0.6809104991","","","","","","","","","","76","L","3","","","35","main_expt",""
"","bandit","116","598813","0.0-77.0-0.0","00765330","wem/bandit_party_2","A2RPDFZ5XGJ3IU","either","2","42","","","","","","","1","0","0","0.5745256001","","0.4","0.2","0.6","0.8","","","","","0.3330948712","0.7889809596","0.9523687656","0.5745256001","","","","","","","","","","76","L","3","","","36","main_expt",""
"","bandit","117","600344","0.0-78.0-0.0","00765330","wem/bandit_party_2","A2RPDFZ5XGJ3IU","either","2","21","","","","","","","1","0","0","0.6249275122","","0.4","0.2","0.6","0.8","","","","","0.2430176499","0.8060385269","0.9504344127","0.6249275122","","","","","","","","","","76","L","3","","","37","main_expt",""
"","bandit","118","601961","0.0-79.0-0.0","00765330","wem/bandit_party_2","A2RPDFZ5XGJ3IU","either","2","107","","","","","","","0","0","1","","0.5582777804","0.4","0.2","0.6","0.8","0.3106083343","0.7188782676","0.9321408283","0.5582777804","","","","","","","","","","","","","","76","L","3","","","38","main_expt",""
"","bandit","119","603684","0.0-80.0-0.0","00765330","wem/bandit_party_2","A2RPDFZ5XGJ3IU","either","2","212","","","","","","","1","0","0","0.6619895395","","0.4","0.2","0.6","0.8","","","","","0.3239447463","0.7387945131","0.9135525369","0.6619895395","","","","","","","","","","76","L","3","","","39","main_expt",""
"","bandit","120","605247","0.0-81.0-0.0","00765330","wem/bandit_party_2","A2RPDFZ5XGJ3IU","either","2","53","","","","","","","1","0","0","0.6522152691","","0.4","0.2","0.6","0.8","","","","","0.2946631509","0.7478035428","0.8840916364","0.6522152691","","","","","","","","","","76","L","3","","","40","main_expt",""
"","bandit","121","607302","0.0-82.0-0.0","00765330","wem/bandit_party_2","A2RPDFZ5XGJ3IU","either","2","545","","","","","","","1","0","0","0.6714070371","","0.4","0.2","0.6","0.8","","","","","0.193597671","0.7802386085","0.8747037504","0.6714070371","","","","","","","","","","76","L","3","","","41","main_expt",""
"","bandit","122","609063","0.0-83.0-0.0","00765330","wem/bandit_party_2","A2RPDFZ5XGJ3IU","either","2","252","","","","","","","0","0","1","0.6390104416","","0.4","0.2","0.6","0.8","","","","","0.1834529884","0.7994277013","0.826315498","0.6390104416","","","","","","","","","","76","L","3","","","42","main_expt",""
"","bandit","123","610815","0.0-84.0-0.0","00765330","wem/bandit_party_2","A2RPDFZ5XGJ3IU","either","2","240","","","","","","","1","0","0","0.6318841448","","0.4","0.2","0.6","0.8","","","","","0.1558663495","0.8718069658","0.7681371561","0.6318841448","","","","","","","","","","76","L","3","","","43","main_expt",""
"","bandit","124","612354","0.0-85.0-0.0","00765330","wem/bandit_party_2","A2RPDFZ5XGJ3IU","either","2","30","","","","","","","0","0","1","0.5708139437","","0.4","0.2","0.6","0.8","","","","","0.1573065196","0.7725207311","0.7584360225","0.5708139437","","","","","","","","","","76","L","3","","","44","main_expt",""
"","bandit","125","614044","0.0-86.0-0.0","00765330","wem/bandit_party_2","A2RPDFZ5XGJ3IU","either","2","180","","","","","","","0","1","0","","0.5703812278","0.4","0.2","0.6","0.8","0.1743203636","0.8399140445","0.816959585","0.5703812278","","","","","","","","","","","","","","76","L","3","","","45","main_expt",""
"","bandit","126","615827","0.0-87.0-0.0","00765330","wem/bandit_party_2","A2RPDFZ5XGJ3IU","either","2","273","","","","","","","1","0","0","0.4520700595","","0.4","0.2","0.6","0.8","","","","","0.1234040722","0.7830678696","0.7571269921","0.4520700595","","","","","","","","","","76","L","3","","","46","main_expt",""
"","bandit","127","617452","0.0-88.0-0.0","00765330","wem/bandit_party_2","A2RPDFZ5XGJ3IU","either","2","114","","","","","","","1","0","0","0.4953600952","","0.4","0.2","0.6","0.8","","","","","0.1592846429","0.8255209912","0.7086567283","0.4953600952","","","","","","","","","","76","L","3","","","47","main_expt",""
"","bandit","128","619074","0.0-89.0-0.0","00765330","wem/bandit_party_2","A2RPDFZ5XGJ3IU","either","2","113","","","","","","","0","0","1","0.4912921637","","0.4","0.2","0.6","0.8","","","","","0.1880090658","0.7728754614","0.6428227569","0.4912921637","","","","","","","","","","76","L","3","","","48","main_expt",""
"","bandit","129","620585","0.0-90.0-0.0","00765330","wem/bandit_party_2","A2RPDFZ5XGJ3IU","either","2","1","","","","","","","1","0","0","0.4694413912","","0.4","0.2","0.6","0.8","","","","","0.3190576765","0.8607162984","0.7004196772","0.4694413912","","","","","","","","","","76","L","3","","","49","main_expt",""
"","bandit","130","622708","0.0-91.0-0.0","00765330","wem/bandit_party_2","A2RPDFZ5XGJ3IU","either","2","614","","","","","","","0","0","1","0.5835687148","","0.4","0.2","0.6","0.8","","","","","0.277770718","0.8526113732","0.6418514465","0.5835687148","","","","","","","","","","76","L","3","","","50","main_expt",""
"","bandit","131","624485","0.0-92.0-0.0","00765330","wem/bandit_party_2","A2RPDFZ5XGJ3IU","either","2","265","","","","","","","0","0","1","","0.3304163056","0.4","0.2","0.6","0.8","0.3304163056","0.8630835666","0.6322169777","0.581499138","","","","","","","","","","","","","","72","H","0","img/none_selected.jpg","","51","main_expt",""
"","bandit","132","626048","0.0-93.0-0.0","00765330","wem/bandit_party_2","A2RPDFZ5XGJ3IU","either","2","51","","","","","","","0","0","1","0.3074301744","","0.4","0.2","0.6","0.8","","","","","0.3074301744","0.8689990829","0.6160259873","0.6521379128","","","","","","","","","","72","H","0","img/none_selected.jpg","","52","main_expt",""
"","bandit","133","627802","0.0-94.0-0.0","00765330","wem/bandit_party_2","A2RPDFZ5XGJ3IU","either","2","245","","","","","","","0","1","0","","0.8829627288","0.4","0.2","0.6","0.8","0.3292402402","0.8829627288","0.6635838846","0.5743957808","","","","","","","","","","","","","","74","J","1","","","53","main_expt",""
"","bandit","134","629574","0.0-95.0-0.0","00765330","wem/bandit_party_2","A2RPDFZ5XGJ3IU","either","2","261","","","","","","","1","0","0","0.8577096669","","0.4","0.2","0.6","0.8","","","","","0.3701383524","0.8577096669","0.7334380463","0.4765250731","","","","","","","","","","74","J","1","","","54","main_expt",""
"","bandit","135","631159","0.0-96.0-0.0","00765330","wem/bandit_party_2","A2RPDFZ5XGJ3IU","either","2","74","","","","","","","0","1","0","","0.7951355038","0.4","0.2","0.6","0.8","0.4023440482","0.7951355038","0.6625049704","0.472038817","","","","","","","","","","","","","","74","J","1","","","55","main_expt",""
"","bandit","136","632844","0.0-97.0-0.0","00765330","wem/bandit_party_2","A2RPDFZ5XGJ3IU","either","2","175","","","","","","","0","1","0","","0.7832403428","0.4","0.2","0.6","0.8","0.3320470731","0.7832403428","0.6244126183","0.6060805283","","","","","","","","","","","","","","74","J","1","","","56","main_expt",""
"","bandit","137","634598","0.0-98.0-0.0","00765330","wem/bandit_party_2","A2RPDFZ5XGJ3IU","either","2","243","","","","","","","0","0","1","0.5733746242","","0.4","0.2","0.6","0.8","","","","","0.3398704556","0.7165346004","0.693445159","0.5733746242","","","","","","","","","","76","L","3","","","57","main_expt",""
"","bandit","138","636209","0.0-99.0-0.0","00765330","wem/bandit_party_2","A2RPDFZ5XGJ3IU","either","2","102","","","","","","","1","0","0","0.5268086549","","0.4","0.2","0.6","0.8","","","","","0.3171476707","0.7840704931","0.6603141298","0.5268086549","","","","","","","","","","76","L","3","","","58","main_expt",""
"","bandit","139","637870","0.0-100.0-0.0","00765330","wem/bandit_party_2","A2RPDFZ5XGJ3IU","either","2","149","","","","","","","0","0","1","0.5298916697","","0.4","0.2","0.6","0.8","","","","","0.1868584885","0.7166558068","0.6435133917","0.5298916697","","","","","","","","","","76","L","3","","","59","main_expt",""
"","bandit","140","639554","0.0-101.0-0.0","00765330","wem/bandit_party_2","A2RPDFZ5XGJ3IU","either","2","174","","","","","","","1","0","0","0.5547432704","","0.4","0.2","0.6","0.8","","","","","0.2163153633","0.6505055492","0.6720075741","0.5547432704","","","","","","","","","","76","L","3","","","60","main_expt",""
"","bandit","141","641169","0.0-102.0-0.0","00765330","wem/bandit_party_2","A2RPDFZ5XGJ3IU","either","2","104","","","","","","","0","0","1","0.5407031957","","0.4","0.2","0.6","0.8","","","","","0.2086512551","0.6465946667","0.6703611074","0.5407031957","","","","","","","","","","76","L","3","","","61","main_expt",""
"","bandit","142","642703","0.0-103.0-0.0","00765330","wem/bandit_party_2","A2RPDFZ5XGJ3IU","either","2","23","","","","","","","1","0","0","0.6993449034","","0.4","0.2","0.6","0.8","","","","","0.2250062338","0.709990362","0.64477312","0.6993449034","","","","","","","","","","76","L","3","","","62","main_expt",""
"","bandit","143","644222","0.0-104.0-0.0","00765330","wem/bandit_party_2","A2RPDFZ5XGJ3IU","either","2","9","","","","","","","1","0","0","0.6342967703","","0.4","0.2","0.6","0.8","","","","","0.2739380208","0.7542168012","0.509049177","0.6342967703","","","","","","","","","","76","L","3","","","63","main_expt",""
"","bandit","144","645887","0.0-105.0-0.0","00765330","wem/bandit_party_2","A2RPDFZ5XGJ3IU","either","2","155","","","","","","","0","0","1","0.5961490325","","0.4","0.2","0.6","0.8","","","","","0.3449536465","0.7660604158","0.5535424332","0.5961490325","","","","","","","","","","76","L","3","","","64","main_expt",""
"","bandit","145","647397","0.0-106.0-0.0","00765330","wem/bandit_party_2","A2RPDFZ5XGJ3IU","either","2","0","","","","","","","0","0","1","0.6608621899","","0.4","0.2","0.6","0.8","","","","","0.34640195","0.7572602099","0.6608621899","0.5771190674","","","","","","","","","","75","K","2","","","65","main_expt",""
"","bandit","146","648915","0.0-107.0-0.0","00765330","wem/bandit_party_2","A2RPDFZ5XGJ3IU","either","2","7","","","","","","","0","0","1","0.6535341977","","0.4","0.2","0.6","0.8","","","","","0.5266288285","0.686926195","0.6535341977","0.4765921407","","","","","","","","","","75","K","2","","","66","main_expt",""
"","bandit","147","650639","0.0-108.0-0.0","00765330","wem/bandit_party_2","A2RPDFZ5XGJ3IU","either","2","214","","","","","","","0","0","1","0.6592628399","","0.4","0.2","0.6","0.8","","","","","0.5588671697","0.7334195653","0.6592628399","0.5714361875","","","","","","","","","","75","K","2","","","67","main_expt",""
"","bandit","148","652512","0.0-109.0-0.0","00765330","wem/bandit_party_2","A2RPDFZ5XGJ3IU","either","2","364","","","","","","","0","1","0","","0.6114245881","0.4","0.2","0.6","0.8","0.6097536784","0.6114245881","0.6735013879","0.6231829193","","","","","","","","","","","","","","74","J","1","","","68","main_expt",""
"","bandit","149","654274","0.0-110.0-0.0","00765330","wem/bandit_party_2","A2RPDFZ5XGJ3IU","either","2","251","","","","","","","0","1","0","","0.6460921668","0.4","0.2","0.6","0.8","0.533457584","0.6460921668","0.7209687993","0.5130256365","","","","","","","","","","","","","","74","J","1","","","69","main_expt",""
"","bandit","150","655896","0.0-111.0-0.0","00765330","wem/bandit_party_2","A2RPDFZ5XGJ3IU","either","2","113","","","","","","","0","1","0","","0.6700702736","0.4","0.2","0.6","0.8","0.4124750721","0.6700702736","0.690528825","0.5167166","","","","","","","","","","","","","","74","J","1","","","70","main_expt",""
"","bandit","151","657491","0.0-112.0-0.0","00765330","wem/bandit_party_2","A2RPDFZ5XGJ3IU","either","2","85","","","","","","","0","1","0","","0.6388012411","0.4","0.2","0.6","0.8","0.4486526525","0.6388012411","0.6453310316","0.6448170737","","","","","","","","","","","","","","74","J","1","","","71","main_expt",""
"","bandit","152","659116","0.0-113.0-0.0","00765330","wem/bandit_party_2","A2RPDFZ5XGJ3IU","either","2","113","","","","","","","0","0","1","","0.4313602212","0.4","0.2","0.6","0.8","0.4313602212","0.6046900378","0.8140348339","0.5640434706","","","","","","","","","","","","","","72","H","0","img/none_selected.jpg","","72","main_expt",""
"","bandit","153","660698","0.0-114.0-0.0","00765330","wem/bandit_party_2","A2RPDFZ5XGJ3IU","either","2","71","","","","","","","0","1","0","","0.3639072561","0.4","0.2","0.6","0.8","0.3639072561","0.6062428704","0.820931829","0.6296110197","","","","","","","","","","","","","","72","H","0","img/none_selected.jpg","","73","main_expt",""
"","bandit","154","662270","0.0-115.0-0.0","00765330","wem/bandit_party_2","A2RPDFZ5XGJ3IU","either","2","63","","","","","","","0","0","1","0.2882181569","","0.4","0.2","0.6","0.8","","","","","0.2882181569","0.6237194739","0.8096233945","0.6730210969","","","","","","","","","","72","H","0","img/none_selected.jpg","","74","main_expt",""
"","bandit","155","664290","0.0-116.0-0.0","00765330","wem/bandit_party_2","A2RPDFZ5XGJ3IU","either","2","510","","","","","","","0","0","1","0.3561187133","","0.4","0.2","0.6","0.8","","","","","0.3561187133","0.5971007372","0.7615001707","0.5720403827","","","","","","","","","","72","H","0","img/none_selected.jpg","","75","main_expt",""
"","bandit","156","666105","0.0-117.0-0.0","00765330","wem/bandit_party_2","A2RPDFZ5XGJ3IU","either","2","305","","","","","","","0","1","0","","0.4480894403","0.4","0.2","0.6","0.8","0.4480894403","0.5810032438","0.8147365981","0.6303512149","","","","","","","","","","","","","","72","H","0","img/none_selected.jpg","","76","main_expt",""
"","bandit","157","667934","0.0-118.0-0.0","00765330","wem/bandit_party_2","A2RPDFZ5XGJ3IU","either","2","318","","","","","","","0","0","1","","0.5531797874","0.4","0.2","0.6","0.8","0.3220850356","0.5792233978","0.8926338818","0.5531797874","","","","","","","","","","","","","","76","L","3","","","77","main_expt",""
"","bandit","158","669498","0.0-119.0-0.0","00765330","wem/bandit_party_2","A2RPDFZ5XGJ3IU","either","2","52","","","","","","","1","0","0","0.5449672882","","0.4","0.2","0.6","0.8","","","","","0.3281133775","0.692511921","0.8669072201","0.5449672882","","","","","","","","","","76","L","3","","","78","main_expt",""
"","bandit","159","671024","0.0-120.0-0.0","00765330","wem/bandit_party_2","A2RPDFZ5XGJ3IU","either","2","14","","","","","","","0","0","1","","0.4484013318","0.4","0.2","0.6","0.8","0.3814329202","0.7019625083","0.9114006046","0.4484013318","","","","","","","","","","","","","","76","L","3","","","79","main_expt",""
"","bandit","160","672587","0.0-121.0-0.0","00765330","wem/bandit_party_2","A2RPDFZ5XGJ3IU","either","2","49","","","","","","","0","0","1","","0.5041425745","0.4","0.2","0.6","0.8","0.3512572076","0.6785675641","0.9268398106","0.5041425745","","","","","","","","","","","","","","76","L","3","","","80","main_expt",""
"","bandit","161","674271","0.0-122.0-0.0","00765330","wem/bandit_party_2","A2RPDFZ5XGJ3IU","either","2","174","","","","","","","0","0","1","0.9582858862","","0.4","0.2","0.6","0.8","","","","","0.3624285329","0.7101061672","0.9582858862","0.3462078978","","","","","","","","","","75","K","2","","","81","main_expt",""
"","bandit","162","675925","0.0-123.0-0.0","00765330","wem/bandit_party_2","A2RPDFZ5XGJ3IU","either","2","143","","","","","","","1","0","0","0.9590071975","","0.4","0.2","0.6","0.8","","","","","0.3111883408","0.7217376576","0.9590071975","0.3226795418","","","","","","","","","","75","K","2","","","82","main_expt",""
"","bandit","163","677519","0.0-124.0-0.0","00765330","wem/bandit_party_2","A2RPDFZ5XGJ3IU","either","2","83","","","","","","","0","1","0","","0.9379973093","0.4","0.2","0.6","0.8","0.243162563","0.6437777395","0.9379973093","0.3023868023","","","","","","","","","","","","","","75","K","2","","","83","main_expt",""
"","bandit","164","679261","0.0-125.0-0.0","00765330","wem/bandit_party_2","A2RPDFZ5XGJ3IU","either","2","231","","","","","","","1","0","0","0.9411979228","","0.4","0.2","0.6","0.8","","","","","0.347146949","0.6533183273","0.9411979228","0.4040419094","","","","","","","","","","75","K","2","","","84","main_expt",""
"","bandit","165","680785","0.0-126.0-0.0","00765330","wem/bandit_party_2","A2RPDFZ5XGJ3IU","either","2","14","","","","","","","1","0","0","0.9441700551","","0.4","0.2","0.6","0.8","","","","","0.4416309426","0.7469548387","0.9441700551","0.4716136817","","","","","","","","","","75","K","2","","","85","main_expt",""
"","bandit","166","682391","0.0-127.0-0.0","00765330","wem/bandit_party_2","A2RPDFZ5XGJ3IU","either","2","95","","","","","","","0","1","0","","0.9323605113","0.4","0.2","0.6","0.8","0.4523797492","0.7366570046","0.9323605113","0.4455883603","","","","","","","","","","","","","","75","K","2","","","86","main_expt",""
"","bandit","167","683912","0.0-128.0-0.0","00765330","wem/bandit_party_2","A2RPDFZ5XGJ3IU","either","2","10","","","","","","","1","0","0","0.8871332711","","0.4","0.2","0.6","0.8","","","","","0.4621103264","0.7142428019","0.8871332711","0.5952575165","","","","","","","","","","75","K","2","","","87","main_expt",""
"","bandit","168","685456","0.0-129.0-0.0","00765330","wem/bandit_party_2","A2RPDFZ5XGJ3IU","either","2","33","","","","","","","0","1","0","","0.8520973281","0.4","0.2","0.6","0.8","0.3800084876","0.7057172343","0.8520973281","0.5333825583","","","","","","","","","","","","","","75","K","2","","","88","main_expt",""
"","bandit","169","687230","0.0-130.0-0.0","00765330","wem/bandit_party_2","A2RPDFZ5XGJ3IU","either","2","263","","","","","","","0","1","0","","0.7882210871","0.4","0.2","0.6","0.8","0.2354372355","0.7289934888","0.7882210871","0.4583166828","","","","","","","","","","","","","","75","K","2","","","89","main_expt",""
"","bandit","170","688783","0.0-131.0-0.0","00765330","wem/bandit_party_2","A2RPDFZ5XGJ3IU","either","2","40","","","","","","","1","0","0","0.720110267","","0.4","0.2","0.6","0.8","","","","","0.2978482647","0.7475354559","0.720110267","0.4782349553","","","","","","","","","","75","K","2","","","90","main_expt",""
"","bandit","171","690357","0.0-132.0-0.0","00765330","wem/bandit_party_2","A2RPDFZ5XGJ3IU","either","2","61","","","","","","","1","0","0","0.7390342074","","0.4","0.2","0.6","0.8","","","","","0.3723871884","0.6316706059","0.7390342074","0.464138054","","","","","","","","","","75","K","2","","","91","main_expt",""
"","bandit","172","692674","0.0-133.0-0.0","00765330","wem/bandit_party_2","A2RPDFZ5XGJ3IU","either","2","804","","","","","","","1","0","0","0.8135224625","","0.4","0.2","0.6","0.8","","","","","0.5400298203","0.6957908828","0.8135224625","0.5084128334","","","","","","","","","","75","K","2","","","92","main_expt",""
"","bandit","173","694358","0.0-134.0-0.0","00765330","wem/bandit_party_2","A2RPDFZ5XGJ3IU","either","2","173","","","","","","","1","0","0","0.7814404678","","0.4","0.2","0.6","0.8","","","","","0.5134744583","0.6812665662","0.7814404678","0.5211356389","","","","","","","","","","75","K","2","","","93","main_expt",""
"","bandit","174","695899","0.0-135.0-0.0","00765330","wem/bandit_party_2","A2RPDFZ5XGJ3IU","either","2","28","","","","","","","0","0","1","","0.7672416568","0.4","0.2","0.6","0.8","0.4101580275","0.6412933588","0.7672416568","0.4554037602","","","","","","","","","","","","","","75","K","2","","","94","main_expt",""
"","bandit","175","698030","0.0-136.0-0.0","00765330","wem/bandit_party_2","A2RPDFZ5XGJ3IU","either","2","621","","","","","","","0","0","1","","0.7573973965","0.4","0.2","0.6","0.8","0.2995167601","0.5696630174","0.7573973965","0.4195046205","","","","","","","","","","","","","","75","K","2","","","95","main_expt",""
"","bandit","176","699629","0.0-137.0-0.0","00765330","wem/bandit_party_2","A2RPDFZ5XGJ3IU","either","2","87","","","","","","","0","1","0","","0.6076398096","0.4","0.2","0.6","0.8","0.2934894425","0.6076398096","0.8177369732","0.3638478563","","","","","","","","","","","","","","74","J","1","","","96","main_expt",""
"","bandit","177","701434","0.0-138.0-0.0","00765330","wem/bandit_party_2","A2RPDFZ5XGJ3IU","either","2","293","","","","","","","0","1","0","","0.5551612935","0.4","0.2","0.6","0.8","0.2802715202","0.5551612935","0.8124666872","0.2839735208","","","","","","","","","","","","","","74","J","1","","","97","main_expt",""
"","bandit","178","703140","0.0-139.0-0.0","00765330","wem/bandit_party_2","A2RPDFZ5XGJ3IU","either","2","194","","","","","","","0","1","0","","0.6354974245","0.4","0.2","0.6","0.8","0.2703087955","0.6354974245","0.881496875","0.2109275999","","","","","","","","","","","","","","74","J","1","","","98","main_expt",""
"","bandit","179","704781","0.0-140.0-0.0","00765330","wem/bandit_party_2","A2RPDFZ5XGJ3IU","either","2","130","","","","","","","1","0","0","0.5945745664","","0.4","0.2","0.6","0.8","","","","","0.3027543159","0.5945745664","0.8785981907","0.1531506719","","","","","","","","","","74","J","1","","","99","main_expt",""
"","bandit","180","706516","0.0-141.0-0.0","00765330","wem/bandit_party_2","A2RPDFZ5XGJ3IU","either","2","222","","","","","","","0","0","1","","0.5679097985","0.4","0.2","0.6","0.8","0.3645318829","0.5679097985","0.8494581726","0.1262108991","","","","","","","","","","","","","","74","J","1","","","100","main_expt",""
"","bandit","181","708210","0.0-142.0-0.0","00765330","wem/bandit_party_2","A2RPDFZ5XGJ3IU","either","2","184","","","","","","","1","0","0","0.6430580454","","0.4","0.2","0.6","0.8","","","","","0.4315832637","0.6430580454","0.7754784616","0.1340220502","","","","","","","","","","74","J","1","","","101","main_expt",""
"","bandit","182","709871","0.0-143.0-0.0","00765330","wem/bandit_party_2","A2RPDFZ5XGJ3IU","either","2","148","","","","","","","0","1","0","","0.6340200926","0.4","0.2","0.6","0.8","0.3608531129","0.6340200926","0.7626736499","0.2167126086","","","","","","","","","","","","","","74","J","1","","","102","main_expt",""
"","bandit","183","711464","0.0-144.0-0.0","00765330","wem/bandit_party_2","A2RPDFZ5XGJ3IU","either","2","81","","","","","","","0","0","1","0.3688981903","","0.4","0.2","0.6","0.8","","","","","0.3688981903","0.6377668076","0.7329996306","0.2796352144","","","","","","","","","","72","H","0","img/none_selected.jpg","","103","main_expt",""
"","bandit","184","713119","0.0-145.0-0.0","00765330","wem/bandit_party_2","A2RPDFZ5XGJ3IU","either","2","143","","","","","","","0","1","0","","0.3758155051","0.4","0.2","0.6","0.8","0.3758155051","0.6578341575","0.7467689404","0.3556406549","","","","","","","","","","","","","","72","H","0","img/none_selected.jpg","","104","main_expt",""
"","bandit","185","714813","0.0-146.0-0.0","00765330","wem/bandit_party_2","A2RPDFZ5XGJ3IU","either","2","182","","","","","","","0","1","0","","0.4508947075","0.4","0.2","0.6","0.8","0.4508947075","0.6727034752","0.737018723","0.3233911601","","","","","","","","","","","","","","72","H","0","img/none_selected.jpg","","105","main_expt",""
"","bandit","186","716486","0.0-147.0-0.0","00765330","wem/bandit_party_2","A2RPDFZ5XGJ3IU","either","2","161","","","","","","","0","0","1","0.4132181144","","0.4","0.2","0.6","0.8","","","","","0.4132181144","0.6386482702","0.655194185","0.2024631506","","","","","","","","","","72","H","0","img/none_selected.jpg","","106","main_expt",""
"","bandit","187","718120","0.0-148.0-0.0","00765330","wem/bandit_party_2","A2RPDFZ5XGJ3IU","either","2","124","","","","","","","0","0","1","","0.4393512677","0.4","0.2","0.6","0.8","0.4393512677","0.6788938686","0.7122819559","0.2290393164","","","","","","","","","","","","","","72","H","0","img/none_selected.jpg","","107","main_expt",""
"","bandit","188","719732","0.0-149.0-0.0","00765330","wem/bandit_party_2","A2RPDFZ5XGJ3IU","either","2","102","","","","","","","0","0","1","","0.4964319729","0.4","0.2","0.6","0.8","0.4964319729","0.7076498576","0.7326995505","0.2217712157","","","","","","","","","","","","","","72","H","0","img/none_selected.jpg","","108","main_expt",""
"","bandit","189","721860","0.0-150.0-0.0","00765330","wem/bandit_party_2","A2RPDFZ5XGJ3IU","either","2","616","","","","","","","0","0","1","0.1566860935","","0.4","0.2","0.6","0.8","","","","","0.4790921069","0.6932550908","0.7165499475","0.1566860935","","","","","","","","","","76","L","3","","","109","main_expt",""
"","bandit","190","723495","0.0-151.0-0.0","00765330","wem/bandit_party_2","A2RPDFZ5XGJ3IU","either","2","123","","","","","","","0","0","1","0.1083987113","","0.4","0.2","0.6","0.8","","","","","0.5856434505","0.7436061547","0.6058017554","0.1083987113","","","","","","","","","","76","L","3","","","110","main_expt",""
"","bandit","191","725052","0.0-152.0-0.0","00765330","wem/bandit_party_2","A2RPDFZ5XGJ3IU","either","2","44","","","","","","","0","0","1","0.217828795","","0.4","0.2","0.6","0.8","","","","","0.6444230696","0.657194241","0.5476823758","0.217828795","","","","","","","","","","76","L","3","","","111","main_expt",""
"","bandit","192","727129","0.0-153.0-0.0","00765330","wem/bandit_party_2","A2RPDFZ5XGJ3IU","either","2","563","","","","","","","1","0","0","0.5688313193","","0.4","0.2","0.6","0.8","","","","","0.603417252","0.6317228327","0.5688313193","0.2212119155","","","","","","","","","","75","K","2","","","112","main_expt",""
"","bandit","193","728885","0.0-154.0-0.0","00765330","wem/bandit_party_2","A2RPDFZ5XGJ3IU","either","2","245","","","","","","","0","0","1","","0.50852785","0.4","0.2","0.6","0.8","0.420613871","0.4985892417","0.50852785","0.2374112476","","","","","","","","","","","","","","75","K","2","","","113","main_expt",""
"","bandit","194","730469","0.0-155.0-0.0","00765330","wem/bandit_party_2","A2RPDFZ5XGJ3IU","either","2","72","","","","","","","0","0","1","","0.5711084253","0.4","0.2","0.6","0.8","0.2851569533","0.579071345","0.5711084253","0.2703699348","","","","","","","","","","","","","","75","K","2","","","114","main_expt",""
"","bandit","195","732240","0.0-156.0-0.0","00765330","wem/bandit_party_2","A2RPDFZ5XGJ3IU","either","2","260","","","","","","","1","0","0","0.4177754351","","0.4","0.2","0.6","0.8","","","","","0.3166589884","0.4595939904","0.4177754351","0.1928485376","","","","","","","","","","75","K","2","","","115","main_expt",""
"","bandit","196","733952","0.0-157.0-0.0","00765330","wem/bandit_party_2","A2RPDFZ5XGJ3IU","either","2","198","","","","","","","0","0","1","0.387840809","","0.4","0.2","0.6","0.8","","","","","0.3928451607","0.3744567546","0.387840809","0.136356343","","","","","","","","","","75","K","2","","","116","main_expt",""
"","bandit","197","735606","0.0-158.0-0.0","00765330","wem/bandit_party_2","A2RPDFZ5XGJ3IU","either","2","141","","","","","","","0","1","0","","0.4456731606","0.4","0.2","0.6","0.8","0.560845346","0.302145019","0.4456731606","0.2193113504","","","","","","","","","","","","","","75","K","2","","","117","main_expt",""
"","bandit","198","737171","0.0-159.0-0.0","00765330","wem/bandit_party_2","A2RPDFZ5XGJ3IU","either","2","53","","","","","","","0","1","0","","0.3045880574","0.4","0.2","0.6","0.8","0.5536818424","0.3522466686","0.3045880574","0.2686792008","","","","","","","","","","","","","","75","K","2","","","118","main_expt",""
"","bandit","199","738687","0.0-160.0-0.0","00765330","wem/bandit_party_2","A2RPDFZ5XGJ3IU","either","2","2","","","","","","","0","1","0","","0.3994134075","0.4","0.2","0.6","0.8","0.3617659687","0.4425542362","0.3994134075","0.2668270476","","","","","","","","","","","","","","75","K","2","","","119","main_expt",""
"","bandit","200","740580","0.0-161.0-0.0","00765330","wem/bandit_party_2","A2RPDFZ5XGJ3IU","either","2","383","","","","","","","0","0","1","","0.351449483","0.4","0.2","0.6","0.8","0.3454740543","0.3377532805","0.351449483","0.3723992114","","","","","","","","","","","","","","75","K","2","","","120","main_expt",""
"","bandit","201","742237","0.0-162.0-0.0","00765330","wem/bandit_party_2","A2RPDFZ5XGJ3IU","either","2","144","","","","","","","0","1","0","","0.3641911367","0.4","0.2","0.6","0.8","0.2798257893","0.2929504356","0.3641911367","0.4001238515","","","","","","","","","","","","","","75","K","2","","","121","main_expt",""
"","bandit","202","744165","0.0-163.0-0.0","00765330","wem/bandit_party_2","A2RPDFZ5XGJ3IU","either","2","418","","","","","","","0","0","1","0.2261540995","","0.4","0.2","0.6","0.8","","","","","0.2261540995","0.2504028886","0.2673706252","0.4090120715","","","","","","","","","","72","H","0","img/none_selected.jpg","","122","main_expt",""
"","bandit","203","745857","0.0-164.0-0.0","00765330","wem/bandit_party_2","A2RPDFZ5XGJ3IU","either","2","180","","","","","","","0","0","1","","0.2766663047","0.4","0.2","0.6","0.8","0.2766663047","0.2414849785","0.3455372181","0.4746108064","","","","","","","","","","","","","","72","H","0","img/none_selected.jpg","","123","main_expt",""
"","bandit","204","747490","0.0-165.0-0.0","00765330","wem/bandit_party_2","A2RPDFZ5XGJ3IU","either","2","121","","","","","","","0","0","1","0.3126864395","","0.4","0.2","0.6","0.8","","","","","0.3126864395","0.1791255979","0.3524137631","0.453231646","","","","","","","","","","72","H","0","img/none_selected.jpg","","124","main_expt",""
"","bandit","205","749452","0.0-166.0-0.0","00765330","wem/bandit_party_2","A2RPDFZ5XGJ3IU","either","2","448","","","","","","","0","0","1","","0.1952456852","0.4","0.2","0.6","0.8","0.2772507379","0.1952456852","0.3680881866","0.4888945922","","","","","","","","","","","","","","74","J","1","","","125","main_expt",""
"","bandit","206","751107","0.0-167.0-0.0","00765330","wem/bandit_party_2","A2RPDFZ5XGJ3IU","either","2","145","","","","","","","0","0","1","","0.2614303707","0.4","0.2","0.6","0.8","0.2441417391","0.2614303707","0.2884444508","0.396932523","","","","","","","","","","","","","","74","J","1","","","126","main_expt",""
"","bandit","207","752936","0.0-168.0-0.0","00765330","wem/bandit_party_2","A2RPDFZ5XGJ3IU","either","2","317","","","","","","","1","0","0","0.4026562496","","0.4","0.2","0.6","0.8","","","","","0.2304038214","0.267511235","0.2931854252","0.4026562496","","","","","","","","","","76","L","3","","","127","main_expt",""
"","bandit","208","754584","0.0-169.0-0.0","00765330","wem/bandit_party_2","A2RPDFZ5XGJ3IU","either","2","135","","","","","","","0","0","1","0.3072143153","","0.4","0.2","0.6","0.8","","","","","0.2463692943","0.2582460394","0.3115494401","0.3072143153","","","","","","","","","","76","L","3","","","128","main_expt",""
"","bandit","209","756097","0.0-170.0-0.0","00765330","wem/bandit_party_2","A2RPDFZ5XGJ3IU","either","2","1","","","","","","","0","0","1","0.3024431642","","0.4","0.2","0.6","0.8","","","","","0.262841392","0.249100023","0.287093163","0.3024431642","","","","","","","","","","76","L","3","","","129","main_expt",""
"","bandit","210","757923","0.0-171.0-0.0","00765330","wem/bandit_party_2","A2RPDFZ5XGJ3IU","either","2","315","","","","","","","0","0","1","0.383823705","","0.4","0.2","0.6","0.8","","","","","0.3044503748","0.2014680341","0.242368994","0.383823705","","","","","","","","","","76","L","3","","","130","main_expt",""
"","bandit","211","759680","0.0-172.0-0.0","00765330","wem/bandit_party_2","A2RPDFZ5XGJ3IU","either","2","246","","","","","","","0","0","1","0.5448185218","","0.4","0.2","0.6","0.8","","","","","0.2231782293","0.2514612397","0.3141093292","0.5448185218","","","","","","","","","","76","L","3","","","131","main_expt",""
"","bandit","212","761336","0.0-173.0-0.0","00765330","wem/bandit_party_2","A2RPDFZ5XGJ3IU","either","2","145","","","","","","","0","1","0","","0.5741986762","0.4","0.2","0.6","0.8","0.265126842","0.1719215191","0.3186943837","0.5741986762","","","","","","","","","","","","","","76","L","3","","","132","main_expt",""
"","bandit","213","764317","0.0-174.0-0.0","00765330","wem/bandit_party_2","A2RPDFZ5XGJ3IU","either","2","1468","","","","","","","1","0","0","0.54298015","","0.4","0.2","0.6","0.8","","","","","0.1996467811","0.151851594","0.3218599317","0.54298015","","","","","","","","","","76","L","3","","","133","main_expt",""
"","bandit","214","766689","0.0-175.0-0.0","00765330","wem/bandit_party_2","A2RPDFZ5XGJ3IU","either","2","862","","","","","","","0","0","1","0.5504084981","","0.4","0.2","0.6","0.8","","","","","0.1900899503","0.1693242304","0.3372263261","0.5504084981","","","","","","","","","","76","L","3","","","134","main_expt",""
"","bandit","215","768306","0.0-176.0-0.0","00765330","wem/bandit_party_2","A2RPDFZ5XGJ3IU","either","2","103","","","","","","","1","0","0","0.4874659601","","0.4","0.2","0.6","0.8","","","","","0.172295534","0.1541174352","0.3515125386","0.4874659601","","","","","","","","","","76","L","3","","","135","main_expt",""
"","bandit","216","771223","0.0-177.0-0.0","00765330","wem/bandit_party_2","A2RPDFZ5XGJ3IU","either","2","1407","","","","","","","0","0","1","0.3677382912","","0.4","0.2","0.6","0.8","","","","","0.1171098277","0.1374012581","0.2312583875","0.3677382912","","","","","","","","","","76","L","3","","","136","main_expt",""
"","bandit","217","772981","0.0-178.0-0.0","00765330","wem/bandit_party_2","A2RPDFZ5XGJ3IU","either","2","246","","","","","","","0","0","1","0.3496768842","","0.4","0.2","0.6","0.8","","","","","0.1390909791","0.2889288236","0.3496768842","0.2944012193","","","","","","","","","","75","K","2","","","137","main_expt",""
"","bandit","218","774683","0.0-179.0-0.0","00765330","wem/bandit_party_2","A2RPDFZ5XGJ3IU","either","2","191","","","","","","","0","0","1","","0.2177367931","0.4","0.2","0.6","0.8","0.1209370274","0.2177367931","0.4217982028","0.3020033879","","","","","","","","","","","","","","74","J","1","","","138","main_expt",""
"","bandit","219","776410","0.0-180.0-0.0","00765330","wem/bandit_party_2","A2RPDFZ5XGJ3IU","either","2","212","","","","","","","0","0","1","","0.1441291996","0.4","0.2","0.6","0.8","0.1441291996","0.1704259453","0.5123523738","0.2908104057","","","","","","","","","","","","","","72","H","0","img/none_selected.jpg","","139","main_expt",""
"","bandit","220","777991","0.0-181.0-0.0","00765330","wem/bandit_party_2","A2RPDFZ5XGJ3IU","either","2","68","","","","","","","0","0","1","","0.1380406349","0.4","0.2","0.6","0.8","0.1380406349","0.1827322183","0.3892042576","0.2738290205","","","","","","","","","","","","","","72","H","0","img/none_selected.jpg","","140","main_expt",""
"","bandit","221","779528","0.0-182.0-0.0","00765330","wem/bandit_party_2","A2RPDFZ5XGJ3IU","either","2","25","","","","","","","0","0","1","","0.1312769784","0.4","0.2","0.6","0.8","0.1312769784","0.2030288612","0.4680147771","0.3865798498","","","","","","","","","","","","","","72","H","0","img/none_selected.jpg","","141","main_expt",""
"","bandit","222","781041","0.0-183.0-0.0","00765330","wem/bandit_party_2","A2RPDFZ5XGJ3IU","either","2","0","","","","","","","0","0","1","","0.1880730553","0.4","0.2","0.6","0.8","0.1880730553","0.1760536641","0.3970866904","0.3507917403","","","","","","","","","","","","","","72","H","0","img/none_selected.jpg","","142","main_expt",""
"","bandit","223","782905","0.0-184.0-0.0","00765330","wem/bandit_party_2","A2RPDFZ5XGJ3IU","either","2","352","","","","","","","0","1","0","","0.1798266991","0.4","0.2","0.6","0.8","0.1798266991","0.1428921374","0.3609481858","0.2787839286","","","","","","","","","","","","","","72","H","0","img/none_selected.jpg","","143","main_expt",""
"","bandit","224","784716","0.0-185.0-0.0","00765330","wem/bandit_party_2","A2RPDFZ5XGJ3IU","either","2","299","","","","","","","0","0","1","0.1881666754","","0.4","0.2","0.6","0.8","","","","","0.1881666754","0.1260474704","0.3701270871","0.2106619402","","","","","","","","","","72","H","0","img/none_selected.jpg","","144","main_expt",""
"","bandit","225","786489","0.0-186.0-0.0","00765330","wem/bandit_party_2","A2RPDFZ5XGJ3IU","either","2","262","","","","","","","0","0","1","","0.1683386122","0.4","0.2","0.6","0.8","0.1683386122","0.151337539","0.3110645609","0.3211677341","","","","","","","","","","","","","","72","H","0","img/none_selected.jpg","","145","main_expt",""
"","bandit","226","788117","0.0-187.0-0.0","00765330","wem/bandit_party_2","A2RPDFZ5XGJ3IU","either","2","115","","","","","","","0","0","1","0.2609121533","","0.4","0.2","0.6","0.8","","","","","0.2609121533","0.1600114734","0.356964637","0.4417580917","","","","","","","","","","72","H","0","img/none_selected.jpg","","146","main_expt",""
"","bandit","227","789877","0.0-188.0-0.0","00765330","wem/bandit_party_2","A2RPDFZ5XGJ3IU","either","2","245","","","","","","","0","0","1","","0.280259565","0.4","0.2","0.6","0.8","0.280259565","0.1262446547","0.5143633813","0.278611551","","","","","","","","","","","","","","72","H","0","img/none_selected.jpg","","147","main_expt",""
"","bandit","228","791720","0.0-189.0-0.0","00765330","wem/bandit_party_2","A2RPDFZ5XGJ3IU","either","2","331","","","","","","","0","1","0","","0.2972918914","0.4","0.2","0.6","0.8","0.2972918914","0.1030311585","0.5086187798","0.2811332351","","","","","","","","","","","","","","72","H","0","img/none_selected.jpg","","148","main_expt",""
"","bandit","229","793500","0.0-190.0-0.0","00765330","wem/bandit_party_2","A2RPDFZ5XGJ3IU","either","2","269","","","","","","","0","0","1","","0.3284309668","0.4","0.2","0.6","0.8","0.3284309668","0.123834606","0.4676315778","0.2606345315","","","","","","","","","","","","","","72","H","0","img/none_selected.jpg","","149","main_expt",""
"","bandit","230","796242","0.0-191.0-0.0","00765330","wem/bandit_party_2","A2RPDFZ5XGJ3IU","either","2","1230","","","","","","","0","0","1","0.260677327","","0.4","0.2","0.6","0.8","","","","","0.3186890608","0.06566206942","0.4737351686","0.260677327","","","","","","","","","","76","L","3","","","150","main_expt",""
"","bandit","231","797916","0.0-192.0-0.0","00765330","wem/bandit_party_2","A2RPDFZ5XGJ3IU","either","2","160","","","","","","","0","0","1","0.2579624968","","0.4","0.2","0.6","0.8","","","","","0.3331747037","0.06342121736","0.5387476985","0.2579624968","","","","","","","","","","76","L","3","","","151","main_expt",""
"","bandit","232","800581","0.0-193.0-0.0","00765330","wem/bandit_party_2","A2RPDFZ5XGJ3IU","either","2","1150","","","","","","","0","0","1","0.2536911072","","0.4","0.2","0.6","0.8","","","","","0.364096089","0.1162046696","0.5065138565","0.2536911072","","","","","","","","","","76","L","3","","","152","main_expt",""
"","bandit","233","802244","0.0-194.0-0.0","00765330","wem/bandit_party_2","A2RPDFZ5XGJ3IU","either","2","151","","","","","","","0","0","1","","0.1388943584","0.4","0.2","0.6","0.8","0.3189440566","0.1388943584","0.5190676077","0.1427943183","","","","","","","","","","","","","","74","J","1","","","153","main_expt",""
"","bandit","234","803772","0.0-195.0-0.0","00765330","wem/bandit_party_2","A2RPDFZ5XGJ3IU","either","2","17","","","","","","","0","0","1","","0.1188489222","0.4","0.2","0.6","0.8","0.486858514","0.1188489222","0.4944482457","0.08934943386","","","","","","","","","","","","","","74","J","1","","","154","main_expt",""
"","bandit","235","805317","0.0-196.0-0.0","00765330","wem/bandit_party_2","A2RPDFZ5XGJ3IU","either","2","34","","","","","","","0","0","1","","0.1255079792","0.4","0.2","0.6","0.8","0.398958755","0.1255079792","0.4987902374","0.1048919666","","","","","","","","","","","","","","74","J","1","","","155","main_expt",""
"","bandit","236","808403","0.0-197.0-0.0","00765330","wem/bandit_party_2","A2RPDFZ5XGJ3IU","either","2","1574","","","","","","","0","0","1","","0.1705129017","0.4","0.2","0.6","0.8","0.3508932217","0.1705129017","0.4151199053","0.1348874752","","","","","","","","","","","","","","74","J","1","","","156","main_expt",""
"","bandit","237","811232","0.0-198.0-0.0","00765330","wem/bandit_party_2","A2RPDFZ5XGJ3IU","either","2","1314","","","","","","","0","0","1","","0.1892203872","0.4","0.2","0.6","0.8","0.3736640956","0.1892203872","0.4215128153","0.1197456909","","","","","","","","","","","","","","74","J","1","","","157","main_expt",""
"","bandit","238","813074","0.0-199.0-0.0","00765330","wem/bandit_party_2","A2RPDFZ5XGJ3IU","either","2","329","","","","","","","0","0","1","","0.1589595026","0.4","0.2","0.6","0.8","0.3215678611","0.1589595026","0.3666899102","0.1343935597","","","","","","","","","","","","","","74","J","1","","","158","main_expt",""
"","bandit","239","815519","0.0-200.0-0.0","00765330","wem/bandit_party_2","A2RPDFZ5XGJ3IU","either","2","931","","","","","","","0","0","1","","0.1426383857","0.4","0.2","0.6","0.8","0.2732838962","0.1426383857","0.3906786657","0.04604274909","","","","","","","","","","","","","","74","J","1","","","159","main_expt",""
"","bandit","240","817342","0.0-201.0-0.0","00765330","wem/bandit_party_2","A2RPDFZ5XGJ3IU","either","2","312","","","","","","","1","0","0","0.4769972016","","0.4","0.2","0.6","0.8","","","","","0.2323229575","0.2747613825","0.4769972016","0.08927965808","","","","","","","","","","75","K","2","","","160","main_expt",""
"","bandit","241","819085","0.0-202.0-0.0","00765330","wem/bandit_party_2","A2RPDFZ5XGJ3IU","either","2","232","","","","","","","0","0","1","","0.4405879513","0.4","0.2","0.6","0.8","0.399022808","0.2046882866","0.4405879513","0.1038156196","","","","","","","","","","","","","","75","K","2","","","161","main_expt",""
"","bandit","242","820677","0.0-203.0-0.0","00765330","wem/bandit_party_2","A2RPDFZ5XGJ3IU","either","2","78","","","","","","","0","0","1","0.44055992","","0.4","0.2","0.6","0.8","","","","","0.4967313539","0.1715152701","0.44055992","0.1470739062","","","","","","","","","","75","K","2","","","162","main_expt",""
"","bandit","243","822190","0.0-204.0-0.0","00765330","wem/bandit_party_2","A2RPDFZ5XGJ3IU","either","2","0","","","","","","","1","0","0","0.3434222481","","0.4","0.2","0.6","0.8","","","","","0.5245029489","0.2396687428","0.3434222481","0.1214264794","","","","","","","","","","75","K","2","","","163","main_expt",""
"","bandit","244","824560","0.0-205.0-0.0","00765330","wem/bandit_party_2","A2RPDFZ5XGJ3IU","either","2","859","","","","","","","0","0","1","","0.3862652833","0.4","0.2","0.6","0.8","0.5808119749","0.3359744524","0.3862652833","0.1563758897","","","","","","","","","","","","","","75","K","2","","","164","main_expt",""
"","bandit","245","826546","0.0-206.0-0.0","00765330","wem/bandit_party_2","A2RPDFZ5XGJ3IU","either","2","473","","","","","","","0","0","1","0.4270444342","","0.4","0.2","0.6","0.8","","","","","0.6473032069","0.4940159592","0.4270444342","0.1311500467","","","","","","","","","","75","K","2","","","165","main_expt",""
"","bandit","246","828326","0.0-207.0-0.0","00765330","wem/bandit_party_2","A2RPDFZ5XGJ3IU","either","2","269","","","","","","","0","0","1","0.5073102058","","0.4","0.2","0.6","0.8","","","","","0.6790689848","0.5922229292","0.5073102058","0.1419689761","","","","","","","","","","75","K","2","","","166","main_expt",""
"","bandit","247","830045","0.0-208.0-0.0","00765330","wem/bandit_party_2","A2RPDFZ5XGJ3IU","either","2","206","","","","","","","1","0","0","0.5417092253","","0.4","0.2","0.6","0.8","","","","","0.5959653185","0.5562626425","0.5417092253","0.150246256","","","","","","","","","","75","K","2","","","167","main_expt",""
"","bandit","248","831846","0.0-209.0-0.0","00765330","wem/bandit_party_2","A2RPDFZ5XGJ3IU","either","2","287","","","","","","","0","1","0","","0.6505471885","0.4","0.2","0.6","0.8","0.361841396","0.6489587791","0.6505471885","0.2070971521","","","","","","","","","","","","","","75","K","2","","","168","main_expt",""
"","bandit","249","833546","0.0-210.0-0.0","00765330","wem/bandit_party_2","A2RPDFZ5XGJ3IU","either","2","187","","","","","","","0","1","0","","0.6226729341","0.4","0.2","0.6","0.8","0.2594844845","0.5652428614","0.6226729341","0.2564452127","","","","","","","","","","","","","","75","K","2","","","169","main_expt",""
"","bandit","250","835080","0.0-211.0-0.0","00765330","wem/bandit_party_2","A2RPDFZ5XGJ3IU","either","2","23","","","","","","","1","0","0","0.7574543886","","0.4","0.2","0.6","0.8","","","","","0.1987556041","0.5344749526","0.7574543886","0.2845729388","","","","","","","","","","75","K","2","","","170","main_expt",""
"","bandit","251","836674","0.0-212.0-0.0","00765330","wem/bandit_party_2","A2RPDFZ5XGJ3IU","either","2","82","","","","","","","0","0","1","0.774201251","","0.4","0.2","0.6","0.8","","","","","0.1583585206","0.6364900983","0.774201251","0.2360657399","","","","","","","","","","75","K","2","","","171","main_expt",""
"","bandit","252","838248","0.0-213.0-0.0","00765330","wem/bandit_party_2","A2RPDFZ5XGJ3IU","either","2","59","","","","","","","1","0","0","0.7739789177","","0.4","0.2","0.6","0.8","","","","","0.1494938987","0.5516193693","0.7739789177","0.3453554921","","","","","","","","","","75","K","2","","","172","main_expt",""
"","bandit","253","840498","0.0-214.0-0.0","00765330","wem/bandit_party_2","A2RPDFZ5XGJ3IU","either","2","737","","","","","","","1","0","0","0.7146420849","","0.4","0.2","0.6","0.8","","","","","0.1996494969","0.5081608063","0.7146420849","0.2909261263","","","","","","","","","","75","K","2","","","173","main_expt",""
"","bandit","254","842253","0.0-215.0-0.0","00765330","wem/bandit_party_2","A2RPDFZ5XGJ3IU","either","2","242","","","","","","","0","0","1","","0.683245412","0.4","0.2","0.6","0.8","0.2200767262","0.5247340446","0.683245412","0.3807546558","","","","","","","","","","","","","","75","K","2","","","174","main_expt",""
"","bandit","255","843878","0.0-216.0-0.0","00765330","wem/bandit_party_2","A2RPDFZ5XGJ3IU","either","2","113","","","","","","","1","0","0","0.7163731774","","0.4","0.2","0.6","0.8","","","","","0.1929710708","0.5823110366","0.7163731774","0.3889518003","","","","","","","","","","75","K","2","","","175","main_expt",""
"","bandit","256","845549","0.0-217.0-0.0","00765330","wem/bandit_party_2","A2RPDFZ5XGJ3IU","either","2","156","","","","","","","0","1","0","","0.6676116703","0.4","0.2","0.6","0.8","0.1756556012","0.7693722391","0.6676116703","0.3662842853","","","","","","","","","","","","","","75","K","2","","","176","main_expt",""
"","bandit","257","847082","0.0-218.0-0.0","00765330","wem/bandit_party_2","A2RPDFZ5XGJ3IU","either","2","20","","","","","","","1","0","0","0.711116056","","0.4","0.2","0.6","0.8","","","","","0.2404611203","0.8048595062","0.711116056","0.3102656016","","","","","","","","","","75","K","2","","","177","main_expt",""
"","bandit","258","848825","0.0-219.0-0.0","00765330","wem/bandit_party_2","A2RPDFZ5XGJ3IU","either","2","229","","","","","","","0","1","0","","0.6541247318","0.4","0.2","0.6","0.8","0.1651874793","0.8147320782","0.6541247318","0.3272385177","","","","","","","","","","","","","","75","K","2","","","178","main_expt",""
"","bandit","259","850396","0.0-220.0-0.0","00765330","wem/bandit_party_2","A2RPDFZ5XGJ3IU","either","2","57","","","","","","","1","0","0","0.600925469","","0.4","0.2","0.6","0.8","","","","","0.1297692321","0.7755432213","0.600925469","0.3185807274","","","","","","","","","","75","K","2","","","179","main_expt",""
"","bandit","260","852102","0.0-221.0-0.0","00765330","wem/bandit_party_2","A2RPDFZ5XGJ3IU","either","2","194","","","","","","","1","0","0","0.6321701674","","0.4","0.2","0.6","0.8","","","","","0.1311169289","0.7309951384","0.6321701674","0.3896265469","","","","","","","","","","75","K","2","","","180","main_expt",""
"","bandit","261","853879","0.0-222.0-0.0","00765330","wem/bandit_party_2","A2RPDFZ5XGJ3IU","either","2","259","","","","","","","0","0","1","","0.7040606398","0.4","0.2","0.6","0.8","0.2184653543","0.8068071681","0.7040606398","0.4381139349","","","","","","","","","","","","","","75","K","2","","","181","main_expt",""
"","bandit","262","855692","0.0-223.0-0.0","00765330","wem/bandit_party_2","A2RPDFZ5XGJ3IU","either","2","299","","","","","","","0","0","1","0.6551517927","","0.4","0.2","0.6","0.8","","","","","0.156745214","0.8096694819","0.6551517927","0.4339703771","","","","","","","","","","75","K","2","","","182","main_expt",""
"","bandit","263","857307","0.0-224.0-0.0","00765330","wem/bandit_party_2","A2RPDFZ5XGJ3IU","either","2","102","","","","","","","0","1","0","","0.7709035389","0.4","0.2","0.6","0.8","0.07710569088","0.8522040983","0.7709035389","0.5270594011","","","","","","","","","","","","","","75","K","2","","","183","main_expt",""
"","bandit","264","859081","0.0-225.0-0.0","00765330","wem/bandit_party_2","A2RPDFZ5XGJ3IU","either","2","259","","","","","","","0","1","0","","0.7869666122","0.4","0.2","0.6","0.8","0.07901501252","0.8636776132","0.7869666122","0.4791569234","","","","","","","","","","","","","","75","K","2","","","184","main_expt",""
"","bandit","265","860765","0.0-226.0-0.0","00765330","wem/bandit_party_2","A2RPDFZ5XGJ3IU","either","2","171","","","","","","","0","1","0","","0.804571828","0.4","0.2","0.6","0.8","0.05695362571","0.8605951951","0.804571828","0.464074867","","","","","","","","","","","","","","75","K","2","","","185","main_expt",""
"","bandit","266","862447","0.0-227.0-0.0","00765330","wem/bandit_party_2","A2RPDFZ5XGJ3IU","either","2","169","","","","","","","0","0","1","","0.7866627628","0.4","0.2","0.6","0.8","0.03796608352","0.8578427848","0.7866627628","0.4654947356","","","","","","","","","","","","","","75","K","2","","","186","main_expt",""
"","bandit","267","864133","0.0-228.0-0.0","00765330","wem/bandit_party_2","A2RPDFZ5XGJ3IU","either","2","171","","","","","","","0","1","0","","0.8006736442","0.4","0.2","0.6","0.8","0.05986429342","0.8253306036","0.8006736442","0.4338668179","","","","","","","","","","","","","","75","K","2","","","187","main_expt",""
"","bandit","268","865655","0.0-229.0-0.0","00765330","wem/bandit_party_2","A2RPDFZ5XGJ3IU","either","2","1","","","","","","","0","0","1","0.7687627789","","0.4","0.2","0.6","0.8","","","","","0.05827831728","0.8118593573","0.7687627789","0.4679469354","","","","","","","","","","75","K","2","","","188","main_expt",""
"","bandit","269","868225","0.0-230.0-0.0","00765330","wem/bandit_party_2","A2RPDFZ5XGJ3IU","either","2","1056","","","","","","","0","0","1","","0.7009429779","0.4","0.2","0.6","0.8","0.06499387038","0.8319104568","0.7009429779","0.4645116859","","","","","","","","","","","","","","75","K","2","","","189","main_expt",""
"","bandit","270","869859","0.0-231.0-0.0","00765330","wem/bandit_party_2","A2RPDFZ5XGJ3IU","either","2","119","","","","","","","1","0","0","0.7531121838","","0.4","0.2","0.6","0.8","","","","","0.0878029059","0.8949986836","0.7531121838","0.4260553166","","","","","","","","","","75","K","2","","","190","main_expt",""
"","bandit","271","871620","0.0-232.0-0.0","00765330","wem/bandit_party_2","A2RPDFZ5XGJ3IU","either","2","244","","","","","","","0","1","0","","0.6174616994","0.4","0.2","0.6","0.8","0.1101088583","0.9258368343","0.6174616994","0.5323747461","","","","","","","","","","","","","","75","K","2","","","191","main_expt",""
"","bandit","272","873332","0.0-233.0-0.0","00765330","wem/bandit_party_2","A2RPDFZ5XGJ3IU","either","2","199","","","","","","","1","0","0","0.6331996982","","0.4","0.2","0.6","0.8","","","","","0.1559643099","0.9221438833","0.6331996982","0.6013900654","","","","","","","","","","75","K","2","","","192","main_expt",""
"","bandit","273","874968","0.0-234.0-0.0","00765330","wem/bandit_party_2","A2RPDFZ5XGJ3IU","either","2","122","","","","","","","0","0","1","","0.5596167322","0.4","0.2","0.6","0.8","0.1348882638","0.878376231","0.5596167322","0.5332063066","","","","","","","","","","","","","","75","K","2","","","193","main_expt",""
"","bandit","274","876652","0.0-235.0-0.0","00765330","wem/bandit_party_2","A2RPDFZ5XGJ3IU","either","2","167","","","","","","","0","1","0","","0.5887018809","0.4","0.2","0.6","0.8","0.243093686","0.7914694382","0.5887018809","0.5499496643","","","","","","","","","","","","","","75","K","2","","","194","main_expt",""
"","bandit","275","878346","0.0-236.0-0.0","00765330","wem/bandit_party_2","A2RPDFZ5XGJ3IU","either","2","181","","","","","","","0","0","1","0.561552955","","0.4","0.2","0.6","0.8","","","","","0.2792315856","0.7843027812","0.561552955","0.4170732774","","","","","","","","","","75","K","2","","","195","main_expt",""
"","bandit","276","879899","0.0-237.0-0.0","00765330","wem/bandit_party_2","A2RPDFZ5XGJ3IU","either","2","39","","","","","","","0","0","1","0.6199522587","","0.4","0.2","0.6","0.8","","","","","0.2075419965","0.7888241066","0.6199522587","0.4050854298","","","","","","","","","","75","K","2","","","196","main_expt",""
"","bandit","277","881521","0.0-238.0-0.0","00765330","wem/bandit_party_2","A2RPDFZ5XGJ3IU","either","2","109","","","","","","","1","0","0","0.4522405917","","0.4","0.2","0.6","0.8","","","","","0.1899284635","0.8145025162","0.6886125155","0.4522405917","","","","","","","","","","76","L","3","","","197","main_expt",""
"","bandit","278","883560","0.0-239.0-0.0","00765330","wem/bandit_party_2","A2RPDFZ5XGJ3IU","either","2","523","","","","","","","0","0","1","0.4547961131","","0.4","0.2","0.6","0.8","","","","","0.1632143895","0.8795467387","0.6468609917","0.4547961131","","","","","","","","","","76","L","3","","","198","main_expt",""
"","bandit","279","885184","0.0-240.0-0.0","00765330","wem/bandit_party_2","A2RPDFZ5XGJ3IU","either","2","110","","","","","","","0","0","1","","0.456709553","0.4","0.2","0.6","0.8","0.1580048483","0.8716255916","0.7134983028","0.456709553","","","","","","","","","","","","","","76","L","3","","","199","main_expt",""
"","bandit","280","886985","0.0-241.0-0.0","00765330","wem/bandit_party_2","A2RPDFZ5XGJ3IU","either","2","288","","","","","","","0","0","1","0.4197111003","","0.4","0.2","0.6","0.8","","","","","0.1815025648","0.8596876402","0.6545285445","0.4197111003","","","","","","","","","","76","L","3","","","200","main_expt",""
"","bandit","281","888972","0.0-242.0-0.0","00765330","wem/bandit_party_2","A2RPDFZ5XGJ3IU","either","2","473","","","","","","","0","1","0","","0.8714244785","0.4","0.2","0.6","0.8","0.1453003075","0.8714244785","0.6827561938","0.4468864226","","","","","","","","","","","","","","74","J","1","","","201","main_expt",""
"","bandit","282","890980","0.0-243.0-0.0","00765330","wem/bandit_party_2","A2RPDFZ5XGJ3IU","either","2","493","","","","","","","0","1","0","","0.8679491409","0.4","0.2","0.6","0.8","0.1061510446","0.8679491409","0.6590680519","0.3852152277","","","","","","","","","","","","","","74","J","1","","","202","main_expt",""
"","bandit","283","892943","0.0-244.0-0.0","00765330","wem/bandit_party_2","A2RPDFZ5XGJ3IU","either","2","447","","","","","","","0","1","0","","0.8421855008","0.4","0.2","0.6","0.8","0.09667757311","0.8421855008","0.67998256","0.3481501846","","","","","","","","","","","","","","74","J","1","","","203","main_expt",""
"","bandit","284","894915","0.0-245.0-0.0","00765330","wem/bandit_party_2","A2RPDFZ5XGJ3IU","either","2","458","","","","","","","1","0","0","0.8741547355","","0.4","0.2","0.6","0.8","","","","","0.109576977","0.8741547355","0.7157802034","0.3688904748","","","","","","","","","","74","J","1","","","204","main_expt",""
"","bandit","285","896738","0.0-246.0-0.0","00765330","wem/bandit_party_2","A2RPDFZ5XGJ3IU","either","2","309","","","","","","","0","1","0","","0.8589537271","0.4","0.2","0.6","0.8","0.1370524017","0.8589537271","0.6750594522","0.4196025605","","","","","","","","","","","","","","74","J","1","","","205","main_expt",""
"","bandit","286","898361","0.0-247.0-0.0","00765330","wem/bandit_party_2","A2RPDFZ5XGJ3IU","either","2","109","","","","","","","0","0","1","","0.8009191088","0.4","0.2","0.6","0.8","0.1005848846","0.8009191088","0.7170784861","0.3558717694","","","","","","","","","","","","","","74","J","1","","","206","main_expt",""
"","bandit","287","900174","0.0-248.0-0.0","00765330","wem/bandit_party_2","A2RPDFZ5XGJ3IU","either","2","296","","","","","","","0","1","0","","0.8146279372","0.4","0.2","0.6","0.8","0.1100528349","0.8146279372","0.6886550294","0.3978287694","","","","","","","","","","","","","","74","J","1","","","207","main_expt",""
"","bandit","288","901829","0.0-249.0-0.0","00765330","wem/bandit_party_2","A2RPDFZ5XGJ3IU","either","2","140","","","","","","","0","1","0","","0.7498886323","0.4","0.2","0.6","0.8","0.1165568201","0.7498886323","0.7340041914","0.3647175361","","","","","","","","","","","","","","74","J","1","","","208","main_expt",""
"","bandit","289","903488","0.0-250.0-0.0","00765330","wem/bandit_party_2","A2RPDFZ5XGJ3IU","either","2","145","","","","","","","1","0","0","0.781298432","","0.4","0.2","0.6","0.8","","","","","0.1607141963","0.781298432","0.7108339061","0.2942091963","","","","","","","","","","74","J","1","","","209","main_expt",""
"","bandit","290","905086","0.0-251.0-0.0","00765330","wem/bandit_party_2","A2RPDFZ5XGJ3IU","either","2","84","","","","","","","0","1","0","","0.8374694261","0.4","0.2","0.6","0.8","0.2005879304","0.8374694261","0.7322658343","0.3228874634","","","","","","","","","","","","","","74","J","1","","","210","main_expt",""
"","bandit","291","906666","0.0-252.0-0.0","00765330","wem/bandit_party_2","A2RPDFZ5XGJ3IU","either","2","64","","","","","","","0","1","0","","0.7461264045","0.4","0.2","0.6","0.8","0.1999716741","0.7461264045","0.6220956771","0.3300931135","","","","","","","","","","","","","","74","J","1","","","211","main_expt",""
"","bandit","292","908360","0.0-253.0-0.0","00765330","wem/bandit_party_2","A2RPDFZ5XGJ3IU","either","2","179","","","","","","","0","0","1","","0.7267359419","0.4","0.2","0.6","0.8","0.2135957141","0.7267359419","0.5400145011","0.4044608811","","","","","","","","","","","","","","74","J","1","","","212","main_expt",""
"","bandit","293","910811","0.0-254.0-0.0","00765330","wem/bandit_party_2","A2RPDFZ5XGJ3IU","either","2","937","","","","","","","0","1","0","","0.6529835343","0.4","0.2","0.6","0.8","0.2041793084","0.6529835343","0.5419994818","0.4916994921","","","","","","","","","","","","","","74","J","1","","","213","main_expt",""
"","bandit","294","913093","0.0-255.0-0.0","00765330","wem/bandit_party_2","A2RPDFZ5XGJ3IU","either","2","766","","","","","","","1","0","0","0.5734554779","","0.4","0.2","0.6","0.8","","","","","0.2563089198","0.5734554779","0.6195319152","0.5387088508","","","","","","","","","","74","J","1","","","214","main_expt",""
"","bandit","295","915334","0.0-256.0-0.0","00765330","wem/bandit_party_2","A2RPDFZ5XGJ3IU","either","2","726","","","","","","","0","1","0","","0.7056003711","0.4","0.2","0.6","0.8","0.2870699064","0.7056003711","0.7405966814","0.567041903","","","","","","","","","","","","","","74","J","1","","","215","main_expt",""
"","bandit","296","917608","0.0-257.0-0.0","00765330","wem/bandit_party_2","A2RPDFZ5XGJ3IU","either","2","760","","","","","","","0","0","1","","0.7717913507","0.4","0.2","0.6","0.8","0.2715554895","0.7717913507","0.8005734678","0.539749723","","","","","","","","","","","","","","74","J","1","","","216","main_expt",""
"","bandit","297","919522","0.0-258.0-0.0","00765330","wem/bandit_party_2","A2RPDFZ5XGJ3IU","either","2","400","","","","","","","0","1","0","","0.834894728","0.4","0.2","0.6","0.8","0.2027777883","0.834894728","0.8392159132","0.3803352486","","","","","","","","","","","","","","74","J","1","","","217","main_expt",""
"","bandit","298","921618","0.0-259.0-0.0","00765330","wem/bandit_party_2","A2RPDFZ5XGJ3IU","either","2","577","","","","","","","1","0","0","0.868580258","","0.4","0.2","0.6","0.8","","","","","0.2169787163","0.868580258","0.7445585264","0.3236333655","","","","","","","","","","74","J","1","","","218","main_expt",""
"","bandit","299","923700","0.0-260.0-0.0","00765330","wem/bandit_party_2","A2RPDFZ5XGJ3IU","either","2","565","","","","","","","0","1","0","","0.8236231074","0.4","0.2","0.6","0.8","0.2292932202","0.8236231074","0.7174829008","0.2612589469","","","","","","","","","","","","","","74","J","1","","","219","main_expt",""
"","bandit","300","925694","0.0-261.0-0.0","00765330","wem/bandit_party_2","A2RPDFZ5XGJ3IU","either","2","480","","","","","","","0","1","0","","0.7719294443","0.4","0.2","0.6","0.8","0.2829053382","0.7719294443","0.6601767392","0.2228319794","","","","","","","","","","","","","","74","J","1","","","220","main_expt",""
"","bandit","301","927618","0.0-262.0-0.0","00765330","wem/bandit_party_2","A2RPDFZ5XGJ3IU","either","2","409","","","","","","","0","0","1","","0.7609360252","0.4","0.2","0.6","0.8","0.2691731019","0.7609360252","0.703996204","0.2204856404","","","","","","","","","","","","","","74","J","1","","","221","main_expt",""
"","bandit","302","929794","0.0-263.0-0.0","00765330","wem/bandit_party_2","A2RPDFZ5XGJ3IU","either","2","658","","","","","","","0","0","1","0.7319851961","","0.4","0.2","0.6","0.8","","","","","0.1974112065","0.7319851961","0.6188024556","0.2269951902","","","","","","","","","","74","J","1","","","222","main_expt",""
"","bandit","303","931477","0.0-264.0-0.0","00765330","wem/bandit_party_2","A2RPDFZ5XGJ3IU","either","2","170","","","","","","","0","0","1","","0.08486155027","0.4","0.2","0.6","0.8","0.08486155027","0.6994646324","0.5695888615","0.3417830843","","","","","","","","","","","","","","72","H","0","img/none_selected.jpg","","223","main_expt",""
"","bandit","304","933334","0.0-265.0-0.0","00765330","wem/bandit_party_2","A2RPDFZ5XGJ3IU","either","2","341","","","","","","","0","0","1","0.1930609847","","0.4","0.2","0.6","0.8","","","","","0.1930609847","0.6817307813","0.6590173842","0.4057490183","","","","","","","","","","72","H","0","img/none_selected.jpg","","224","main_expt",""
"","bandit","305","935128","0.0-266.0-0.0","00765330","wem/bandit_party_2","A2RPDFZ5XGJ3IU","either","2","278","","","","","","","0","0","1","","0.2026087193","0.4","0.2","0.6","0.8","0.2026087193","0.67394888","0.6779124893","0.4266979185","","","","","","","","","","","","","","72","H","0","img/none_selected.jpg","","225","main_expt",""
"","bandit","306","936980","0.0-267.0-0.0","00765330","wem/bandit_party_2","A2RPDFZ5XGJ3IU","either","2","333","","","","","","","1","0","0","0.1295559036","","0.4","0.2","0.6","0.8","","","","","0.1295559036","0.6520670614","0.6433757785","0.4723095555","","","","","","","","","","72","H","0","img/none_selected.jpg","","226","main_expt",""
"","bandit","307","938747","0.0-268.0-0.0","00765330","wem/bandit_party_2","A2RPDFZ5XGJ3IU","either","2","253","","","","","","","0","0","1","","0.1014701128","0.4","0.2","0.6","0.8","0.1014701128","0.6598054912","0.6050090536","0.4396274322","","","","","","","","","","","","","","72","H","0","img/none_selected.jpg","","227","main_expt",""
"","bandit","308","940422","0.0-269.0-0.0","00765330","wem/bandit_party_2","A2RPDFZ5XGJ3IU","either","2","160","","","","","","","1","0","0","0.1374428951","","0.4","0.2","0.6","0.8","","","","","0.1374428951","0.7313296172","0.5614220587","0.4581465293","","","","","","","","","","72","H","0","img/none_selected.jpg","","228","main_expt",""
"","bandit","309","942106","0.0-270.0-0.0","00765330","wem/bandit_party_2","A2RPDFZ5XGJ3IU","either","2","165","","","","","","","0","0","1","","0.2147377822","0.4","0.2","0.6","0.8","0.2147377822","0.5771612872","0.536938762","0.3635076811","","","","","","","","","","","","","","72","H","0","img/none_selected.jpg","","229","main_expt",""
"","bandit","310","943748","0.0-271.0-0.0","00765330","wem/bandit_party_2","A2RPDFZ5XGJ3IU","either","2","122","","","","","","","0","1","0","","0.2128984172","0.4","0.2","0.6","0.8","0.2128984172","0.6474737632","0.4691369301","0.4109812081","","","","","","","","","","","","","","72","H","0","img/none_selected.jpg","","230","main_expt",""
"","bandit","311","945462","0.0-272.0-0.0","00765330","wem/bandit_party_2","A2RPDFZ5XGJ3IU","either","2","200","","","","","","","0","0","1","0.2566260117","","0.4","0.2","0.6","0.8","","","","","0.2566260117","0.77083729","0.3801843724","0.3769467169","","","","","","","","","","72","H","0","img/none_selected.jpg","","231","main_expt",""
"","bandit","312","947254","0.0-273.0-0.0","00765330","wem/bandit_party_2","A2RPDFZ5XGJ3IU","either","2","278","","","","","","","0","1","0","","0.307190163","0.4","0.2","0.6","0.8","0.307190163","0.7372448464","0.4401380948","0.4489681289","","","","","","","","","","","","","","72","H","0","img/none_selected.jpg","","232","main_expt",""
"","bandit","313","949057","0.0-274.0-0.0","00765330","wem/bandit_party_2","A2RPDFZ5XGJ3IU","either","2","289","","","","","","","0","0","1","","0.3235632008","0.4","0.2","0.6","0.8","0.3235632008","0.8061851957","0.4589823784","0.5191563331","","","","","","","","","","","","","","72","H","0","img/none_selected.jpg","","233","main_expt",""
"","bandit","314","950813","0.0-275.0-0.0","00765330","wem/bandit_party_2","A2RPDFZ5XGJ3IU","either","2","238","","","","","","","0","0","1","","0.2229472669","0.4","0.2","0.6","0.8","0.2229472669","0.7628128465","0.412850409","0.5635532962","","","","","","","","","","","","","","72","H","0","img/none_selected.jpg","","234","main_expt",""
"","bandit","315","952328","0.0-276.0-0.0","00765330","wem/bandit_party_2","A2RPDFZ5XGJ3IU","either","2","1","","","","","","","0","0","1","0.6059211115","","0.4","0.2","0.6","0.8","","","","","0.3245092944","0.7139354314","0.3071086281","0.6059211115","","","","","","","","","","76","L","3","","","235","main_expt",""
"","bandit","316","953863","0.0-277.0-0.0","00765330","wem/bandit_party_2","A2RPDFZ5XGJ3IU","either","2","22","","","","","","","0","1","0","","0.5767319418","0.4","0.2","0.6","0.8","0.3817813951","0.8459685894","0.3088172556","0.5767319418","","","","","","","","","","","","","","76","L","3","","","236","main_expt",""
"","bandit","317","955516","0.0-278.0-0.0","00765330","wem/bandit_party_2","A2RPDFZ5XGJ3IU","either","2","137","","","","","","","1","0","0","0.6195352853","","0.4","0.2","0.6","0.8","","","","","0.5108794425","0.8258062243","0.2725525041","0.6195352853","","","","","","","","","","76","L","3","","","237","main_expt",""
