"consent","trial_type","trial_index","time_elapsed","internal_node_id","subjID","study","MID","cond","drift","rt","responses","button_pressed","key_press","like","value","connected","gems","bombs","no_reward","GemPrChosen","BombPrChosen","GainOverPainPr_0","GainOverPainPr_1","GainOverPainPr_2","GainOverPainPr_3","LosePr_0","LosePr_1","LosePr_2","LosePr_3","WinPr_0","WinPr_1","WinPr_2","WinPr_3","Q0","Q1","Q2","gender","age","ethnicity","label","expt_phase","target","respCharCode","respKey","respChoiceNum","respChoice","practice","trial_counter","trial_label","Q0_index"
"GDM/GDM_behavioral_consent_30min_online.html","consent","0","9105","0.0-0.0","03104233","wem/bandit_party_2","A2W547SNOCMC25","either","3","","","","","","","","","","","","","","","","","","","","","","","","","","","","","","","","","","","","","","","","",""
"","survey-text","1","13807","0.0-1.0","03104233","wem/bandit_party_2","A2W547SNOCMC25","either","3","3685","{""Q0"":""A2W547SNOCMC25""}","","","","","","","","","","","","","","","","","","","","","","","","","","","","","","","","","","","","","","",""
"","button-response","2","18408","0.0-2.0","03104233","wem/bandit_party_2","A2W547SNOCMC25","either","3","3595","","2","","","","","","","","","","","","","","","","","","","","","","","","","","","","","","","","","","","","","",""
"","text-replacement","3","29979","0.0-3.0","03104233","wem/bandit_party_2","A2W547SNOCMC25","either","3","10566","","","32","","","","","","","","","","","","","","","","","","","","","","","","","","","","","","","","","","","","",""
"","text-replacement","4","39724","0.0-4.0","03104233","wem/bandit_party_2","A2W547SNOCMC25","either","3","9741","","","32","","","","","","","","","","","","","","","","","","","","","","","","","","","","","","","","","","","","",""
"","text-replacement","5","52708","0.0-5.0-0.0","03104233","wem/bandit_party_2","A2W547SNOCMC25","either","3","12980","","","32","","","","","","","","","","","","","","","","","","","","","","","","","","","","","","","","","","","","",""
"","identification","6","61274","0.0-6.0-0.0","03104233","wem/bandit_party_2","A2W547SNOCMC25","either","3","8537","","","","4","4","4","","","","","","","","","","","","","","","","","","","","","","","","pre","identification_pre","the Republican Party","","","","","","","",""
"","identification","7","65385","0.0-6.0-1.0","03104233","wem/bandit_party_2","A2W547SNOCMC25","either","3","3085","","","","2","2","2","","","","","","","","","","","","","","","","","","","","","","","","pre","identification_pre","the Democratic Party","","","","","","","",""
"","text-replacement","8","70305","0.0-7.0","03104233","wem/bandit_party_2","A2W547SNOCMC25","either","3","3917","","","32","","","","","","","","","","","","","","","","","","","","","","","","","","","","","","","","","","","","",""
"","text-replacement","9","76109","0.0-8.0","03104233","wem/bandit_party_2","A2W547SNOCMC25","either","3","5800","","","32","","","","","","","","","","","","","","","","","","","","","","","","","","","","","","","","","","","","",""
"","text-replacement","10","85714","0.0-9.0","03104233","wem/bandit_party_2","A2W547SNOCMC25","either","3","9602","","","32","","","","","","","","","","","","","","","","","","","","","","","","","","","","","","","","","","","","",""
"","text-replacement","11","89322","0.0-10.0","03104233","wem/bandit_party_2","A2W547SNOCMC25","either","3","3606","","","32","","","","","","","","","","","","","","","","","","","","","","","","","","","","","","","","","","","","",""
"","text-replacement","12","93352","0.0-11.0","03104233","wem/bandit_party_2","A2W547SNOCMC25","either","3","4029","","","32","","","","","","","","","","","","","","","","","","","","","","","","","","","","","","","","","","","","",""
"","bandit","13","98209","0.0-12.0-0.0","03104233","wem/bandit_party_2","A2W547SNOCMC25","either","3","3341","","","","","","","0","0","1","0","0","","","","","0","","","","0","","","","","","","","","","","","","74","J","0","img/none_selected_demo.jpg","true","0","",""
"","bandit","14","103562","0.0-13.0-0.0","03104233","wem/bandit_party_2","A2W547SNOCMC25","either","3","3841","","","","","","","0","0","1","0","0","","","","","0","","","","0","","","","","","","","","","","","","75","K","0","img/none_selected_demo.jpg","true","0","",""
"","text-replacement","15","108784","0.0-14.0","03104233","wem/bandit_party_2","A2W547SNOCMC25","either","3","5219","","","32","","","","","","","","","","","","","","","","","","","","","","","","","","","","","","","","","","","","",""
"","text-replacement","16","114195","0.0-15.0","03104233","wem/bandit_party_2","A2W547SNOCMC25","either","3","5408","","","32","","","","","","","","","","","","","","","","","","","","","","","","","","","","","","","","","","","","",""
"","text-replacement","17","123536","0.0-16.0","03104233","wem/bandit_party_2","A2W547SNOCMC25","either","3","9338","","","32","","","","","","","","","","","","","","","","","","","","","","","","","","","","","","","","","","","","",""
"","text-replacement","18","126931","0.0-17.0","03104233","wem/bandit_party_2","A2W547SNOCMC25","either","3","3393","","","32","","","","","","","","","","","","","","","","","","","","","","","","","","","","","","","","","","","","",""
"","bandit","19","129058","0.0-18.0-0.0","03104233","wem/bandit_party_2","A2W547SNOCMC25","either","3","616","","","","","","","0","1","0","","0.8","0.5","0.5","","","0.8","0.2","","","","","","","","","","","","","","","","74","J","0","img/none_selected_demo.jpg","true","0","80_20_practice",""
"","bandit","20","131691","0.0-18.0-1.0","03104233","wem/bandit_party_2","A2W547SNOCMC25","either","3","1121","","","","","","","1","0","0","0.8","","0.5","0.5","","","","","","","0.8","0.2","","","","","","","","","","","","74","J","0","img/none_selected_demo.jpg","true","0","80_20_practice",""
"","bandit","21","134193","0.0-18.0-2.0","03104233","wem/bandit_party_2","A2W547SNOCMC25","either","3","993","","","","","","","0","1","0","","0.8","0.5","0.5","","","0.8","0.2","","","","","","","","","","","","","","","","74","J","0","img/none_selected_demo.jpg","true","0","80_20_practice",""
"","bandit","22","136209","0.0-18.0-3.0","03104233","wem/bandit_party_2","A2W547SNOCMC25","either","3","507","","","","","","","0","1","0","","0.8","0.5","0.5","","","0.8","0.2","","","","","","","","","","","","","","","","74","J","0","img/none_selected_demo.jpg","true","0","80_20_practice",""
"","bandit","23","138220","0.0-18.0-4.0","03104233","wem/bandit_party_2","A2W547SNOCMC25","either","3","500","","","","","","","0","1","0","","0.8","0.5","0.5","","","0.8","0.2","","","","","","","","","","","","","","","","74","J","0","img/none_selected_demo.jpg","true","0","80_20_practice",""
"","bandit","24","140235","0.0-18.0-5.0","03104233","wem/bandit_party_2","A2W547SNOCMC25","either","3","506","","","","","","","1","0","0","0.8","","0.5","0.5","","","","","","","0.8","0.2","","","","","","","","","","","","74","J","0","img/none_selected_demo.jpg","true","0","80_20_practice",""
"","bandit","25","142177","0.0-18.0-6.0","03104233","wem/bandit_party_2","A2W547SNOCMC25","either","3","431","","","","","","","1","0","0","0.8","","0.5","0.5","","","","","","","0.8","0.2","","","","","","","","","","","","74","J","0","img/none_selected_demo.jpg","true","0","80_20_practice",""
"","bandit","26","144153","0.0-18.0-7.0","03104233","wem/bandit_party_2","A2W547SNOCMC25","either","3","467","","","","","","","0","1","0","","0.8","0.5","0.5","","","0.8","0.2","","","","","","","","","","","","","","","","74","J","0","img/none_selected_demo.jpg","true","0","80_20_practice",""
"","bandit","27","145936","0.0-18.0-8.0","03104233","wem/bandit_party_2","A2W547SNOCMC25","either","3","271","","","","","","","0","0","1","0.8","","0.5","0.5","","","","","","","0.8","0.2","","","","","","","","","","","","74","J","0","img/none_selected_demo.jpg","true","0","80_20_practice",""
"","bandit","28","148505","0.0-18.0-9.0","03104233","wem/bandit_party_2","A2W547SNOCMC25","either","3","1060","","","","","","","0","1","0","","0.8","0.5","0.5","","","0.8","0.2","","","","","","","","","","","","","","","","74","J","0","img/none_selected_demo.jpg","true","0","80_20_practice",""
"","bandit","29","150441","0.0-18.0-10.0","03104233","wem/bandit_party_2","A2W547SNOCMC25","either","3","428","","","","","","","0","0","1","","0.2","0.5","0.5","","","0.8","0.2","","","","","","","","","","","","","","","","75","K","1","","true","0","80_20_practice",""
"","bandit","30","152209","0.0-18.0-11.0","03104233","wem/bandit_party_2","A2W547SNOCMC25","either","3","258","","","","","","","1","0","0","0.8","","0.5","0.5","","","","","","","0.8","0.2","","","","","","","","","","","","74","J","0","img/none_selected_demo.jpg","true","0","80_20_practice",""
"","bandit","31","154168","0.0-18.0-12.0","03104233","wem/bandit_party_2","A2W547SNOCMC25","either","3","448","","","","","","","1","0","0","0.8","","0.5","0.5","","","","","","","0.8","0.2","","","","","","","","","","","","74","J","0","img/none_selected_demo.jpg","true","0","80_20_practice",""
"","bandit","32","156210","0.0-18.0-13.0","03104233","wem/bandit_party_2","A2W547SNOCMC25","either","3","532","","","","","","","1","0","0","0.8","","0.5","0.5","","","","","","","0.8","0.2","","","","","","","","","","","","74","J","0","img/none_selected_demo.jpg","true","0","80_20_practice",""
"","bandit","33","158289","0.0-18.0-14.0","03104233","wem/bandit_party_2","A2W547SNOCMC25","either","3","568","","","","","","","0","1","0","","0.8","0.5","0.5","","","0.8","0.2","","","","","","","","","","","","","","","","74","J","0","img/none_selected_demo.jpg","true","0","80_20_practice",""
"","bandit","34","160176","0.0-18.0-15.0","03104233","wem/bandit_party_2","A2W547SNOCMC25","either","3","378","","","","","","","0","1","0","","0.8","0.5","0.5","","","0.8","0.2","","","","","","","","","","","","","","","","74","J","0","img/none_selected_demo.jpg","true","0","80_20_practice",""
"","bandit","35","162116","0.0-18.0-16.0","03104233","wem/bandit_party_2","A2W547SNOCMC25","either","3","428","","","","","","","1","0","0","0.8","","0.5","0.5","","","","","","","0.8","0.2","","","","","","","","","","","","74","J","0","img/none_selected_demo.jpg","true","0","80_20_practice",""
"","bandit","36","164012","0.0-18.0-17.0","03104233","wem/bandit_party_2","A2W547SNOCMC25","either","3","382","","","","","","","0","0","1","","0.8","0.5","0.5","","","0.8","0.2","","","","","","","","","","","","","","","","74","J","0","img/none_selected_demo.jpg","true","0","80_20_practice",""
"","bandit","37","165946","0.0-18.0-18.0","03104233","wem/bandit_party_2","A2W547SNOCMC25","either","3","422","","","","","","","1","0","0","0.8","","0.5","0.5","","","","","","","0.8","0.2","","","","","","","","","","","","74","J","0","img/none_selected_demo.jpg","true","0","80_20_practice",""
"","bandit","38","168776","0.0-18.0-19.0","03104233","wem/bandit_party_2","A2W547SNOCMC25","either","3","1321","","","","","","","1","0","0","0.8","","0.5","0.5","","","","","","","0.8","0.2","","","","","","","","","","","","74","J","0","img/none_selected_demo.jpg","true","0","80_20_practice",""
"","text-replacement","39","172608","0.0-19.0","03104233","wem/bandit_party_2","A2W547SNOCMC25","either","3","3827","","","32","","","","","","","","","","","","","","","","","","","","","","","","","","","","","","","","","","","","",""
"","bandit","40","174723","0.0-20.0-0.0","03104233","wem/bandit_party_2","A2W547SNOCMC25","either","3","601","","","","","","","1","0","0","1","0","","","","","0","1","","","1","0","","","","","","","","","","","","74","J","0","img/none_selected_demo.jpg","true","0","",""
"","text-replacement","41","180543","0.0-21.0","03104233","wem/bandit_party_2","A2W547SNOCMC25","either","3","5813","","","32","","","","","","","","","","","","","","","","","","","","","","","","","","","","","","","","","","","","",""
"","text-replacement","42","182752","0.0-22.0","03104233","wem/bandit_party_2","A2W547SNOCMC25","either","3","2205","","","32","","","","","","","","","","","","","","","","","","","","","","","","","","","","","","","","","","","","",""
"","text-replacement","43","185168","0.0-23.0","03104233","wem/bandit_party_2","A2W547SNOCMC25","either","3","2413","","","32","","","","","","","","","","","","","","","","","","","","","","","","","","","","","","","","","","","","",""
"","text-replacement","44","188472","0.0-24.0","03104233","wem/bandit_party_2","A2W547SNOCMC25","either","3","3300","","","32","","","","","","","","","","","","","","","","","","","","","","","","","","","","","","","","","","","","",""
"","text-replacement","45","193202","0.0-25.0","03104233","wem/bandit_party_2","A2W547SNOCMC25","either","3","4726","","","32","","","","","","","","","","","","","","","","","","","","","","","","","","","","","","","","","","","","",""
"","text-replacement","46","196104","0.0-26.0","03104233","wem/bandit_party_2","A2W547SNOCMC25","either","3","2897","","","32","","","","","","","","","","","","","","","","","","","","","","","","","","","","","","","","","","","","",""
"","text-replacement","47","201152","0.0-27.0","03104233","wem/bandit_party_2","A2W547SNOCMC25","either","3","5045","","","32","","","","","","","","","","","","","","","","","","","","","","","","","","","","","","","","","","","","",""
"","text-replacement","48","204801","0.0-28.0","03104233","wem/bandit_party_2","A2W547SNOCMC25","either","3","3645","","","32","","","","","","","","","","","","","","","","","","","","","","","","","","","","","","","","","","","","",""
"","text-replacement","49","209664","0.0-29.0","03104233","wem/bandit_party_2","A2W547SNOCMC25","either","3","4860","","","32","","","","","","","","","","","","","","","","","","","","","","","","","","","","","","","","","","","","",""
"","text-replacement","50","212808","0.0-30.0","03104233","wem/bandit_party_2","A2W547SNOCMC25","either","3","3140","","","32","","","","","","","","","","","","","","","","","","","","","","","","","","","","","","","","","","","","",""
"","text-replacement","51","216656","0.0-31.0","03104233","wem/bandit_party_2","A2W547SNOCMC25","either","3","3844","","","32","","","","","","","","","","","","","","","","","","","","","","","","","","","","","","","","","","","","",""
"","bandit","52","218887","0.0-32.0-0.0","03104233","wem/bandit_party_2","A2W547SNOCMC25","either","3","723","","","","","","","1","0","0","0.8","","0.5","0.5","0.5","0.5","","","","","0.8","0.2","0.6","0.2","","","","","","","","","","72","H","0","img/none_selected.jpg","true","0","full_practice",""
"","bandit","53","220967","0.0-32.0-1.0","03104233","wem/bandit_party_2","A2W547SNOCMC25","either","3","573","","","","","","","0","0","1","0.8","","0.5","0.5","0.5","0.5","","","","","0.8","0.2","0.6","0.2","","","","","","","","","","72","H","0","img/none_selected.jpg","true","0","full_practice",""
"","bandit","54","222778","0.0-32.0-2.0","03104233","wem/bandit_party_2","A2W547SNOCMC25","either","3","299","","","","","","","0","1","0","","0.8","0.5","0.5","0.5","0.5","0.8","0.2","0.6","0.2","","","","","","","","","","","","","","72","H","0","img/none_selected.jpg","true","0","full_practice",""
"","bandit","55","224663","0.0-32.0-3.0","03104233","wem/bandit_party_2","A2W547SNOCMC25","either","3","375","","","","","","","1","0","0","0.8","","0.5","0.5","0.5","0.5","","","","","0.8","0.2","0.6","0.2","","","","","","","","","","72","H","0","img/none_selected.jpg","true","0","full_practice",""
"","bandit","56","226401","0.0-32.0-4.0","03104233","wem/bandit_party_2","A2W547SNOCMC25","either","3","227","","","","","","","0","0","1","0.8","","0.5","0.5","0.5","0.5","","","","","0.8","0.2","0.6","0.2","","","","","","","","","","72","H","0","img/none_selected.jpg","true","0","full_practice",""
"","bandit","57","228176","0.0-32.0-5.0","03104233","wem/bandit_party_2","A2W547SNOCMC25","either","3","264","","","","","","","0","1","0","","0.2","0.5","0.5","0.5","0.5","0.8","0.2","0.6","0.2","","","","","","","","","","","","","","74","J","1","","true","0","full_practice",""
"","bandit","58","229990","0.0-32.0-6.0","03104233","wem/bandit_party_2","A2W547SNOCMC25","either","3","307","","","","","","","0","0","1","0.2","","0.5","0.5","0.5","0.5","","","","","0.8","0.2","0.6","0.2","","","","","","","","","","74","J","1","","true","0","full_practice",""
"","bandit","59","231727","0.0-32.0-7.0","03104233","wem/bandit_party_2","A2W547SNOCMC25","either","3","228","","","","","","","0","0","1","","0.2","0.5","0.5","0.5","0.5","0.8","0.2","0.6","0.2","","","","","","","","","","","","","","74","J","1","","true","0","full_practice",""
"","bandit","60","233457","0.0-32.0-8.0","03104233","wem/bandit_party_2","A2W547SNOCMC25","either","3","219","","","","","","","0","0","1","","0.6","0.5","0.5","0.5","0.5","0.8","0.2","0.6","0.2","","","","","","","","","","","","","","75","K","2","","true","0","full_practice",""
"","bandit","61","235184","0.0-32.0-9.0","03104233","wem/bandit_party_2","A2W547SNOCMC25","either","3","216","","","","","","","1","0","0","0.6","","0.5","0.5","0.5","0.5","","","","","0.8","0.2","0.6","0.2","","","","","","","","","","75","K","2","","true","0","full_practice",""
"","bandit","62","236943","0.0-32.0-10.0","03104233","wem/bandit_party_2","A2W547SNOCMC25","either","3","248","","","","","","","0","0","1","0.6","","0.5","0.5","0.5","0.5","","","","","0.8","0.2","0.6","0.2","","","","","","","","","","75","K","2","","true","0","full_practice",""
"","bandit","63","238474","0.0-32.0-11.0","03104233","wem/bandit_party_2","A2W547SNOCMC25","either","3","21","","","","","","","0","0","1","","0.2","0.5","0.5","0.5","0.5","0.8","0.2","0.6","0.2","","","","","","","","","","","","","","76","L","3","","true","0","full_practice",""
"","bandit","64","240128","0.0-32.0-12.0","03104233","wem/bandit_party_2","A2W547SNOCMC25","either","3","146","","","","","","","0","0","1","","0.2","0.5","0.5","0.5","0.5","0.8","0.2","0.6","0.2","","","","","","","","","","","","","","76","L","3","","true","0","full_practice",""
"","bandit","65","242639","0.0-32.0-13.0","03104233","wem/bandit_party_2","A2W547SNOCMC25","either","3","999","","","","","","","0","0","1","","0.8","0.5","0.5","0.5","0.5","0.8","0.2","0.6","0.2","","","","","","","","","","","","","","72","H","0","img/none_selected.jpg","true","0","full_practice",""
"","bandit","66","244407","0.0-32.0-14.0","03104233","wem/bandit_party_2","A2W547SNOCMC25","either","3","260","","","","","","","0","1","0","","0.8","0.5","0.5","0.5","0.5","0.8","0.2","0.6","0.2","","","","","","","","","","","","","","72","H","0","img/none_selected.jpg","true","0","full_practice",""
"","bandit","67","246168","0.0-32.0-15.0","03104233","wem/bandit_party_2","A2W547SNOCMC25","either","3","249","","","","","","","0","0","1","0.8","","0.5","0.5","0.5","0.5","","","","","0.8","0.2","0.6","0.2","","","","","","","","","","72","H","0","img/none_selected.jpg","true","0","full_practice",""
"","bandit","68","247905","0.0-32.0-16.0","03104233","wem/bandit_party_2","A2W547SNOCMC25","either","3","226","","","","","","","0","1","0","","0.8","0.5","0.5","0.5","0.5","0.8","0.2","0.6","0.2","","","","","","","","","","","","","","72","H","0","img/none_selected.jpg","true","0","full_practice",""
"","bandit","69","249480","0.0-32.0-17.0","03104233","wem/bandit_party_2","A2W547SNOCMC25","either","3","65","","","","","","","0","0","1","","0.8","0.5","0.5","0.5","0.5","0.8","0.2","0.6","0.2","","","","","","","","","","","","","","72","H","0","img/none_selected.jpg","true","0","full_practice",""
"","bandit","70","251369","0.0-32.0-18.0","03104233","wem/bandit_party_2","A2W547SNOCMC25","either","3","376","","","","","","","0","1","0","","0.8","0.5","0.5","0.5","0.5","0.8","0.2","0.6","0.2","","","","","","","","","","","","","","72","H","0","img/none_selected.jpg","true","0","full_practice",""
"","bandit","71","252951","0.0-32.0-19.0","03104233","wem/bandit_party_2","A2W547SNOCMC25","either","3","67","","","","","","","0","1","0","","0.8","0.5","0.5","0.5","0.5","0.8","0.2","0.6","0.2","","","","","","","","","","","","","","72","H","0","img/none_selected.jpg","true","0","full_practice",""
"","text","72","255584","0.0-33.0","03104233","wem/bandit_party_2","A2W547SNOCMC25","either","3","2622","","","32","","","","","","","","","","","","","","","","","","","","","","","","","","","","","","","","","","","","",""
"","text-replacement","73","270153","0.0-34.0","03104233","wem/bandit_party_2","A2W547SNOCMC25","either","3","13564","","","32","","","","","","","","","","","","","","","","","","","","","","","","","","","","","","","","","","","","",""
"","text-replacement","74","279072","0.0-35.0","03104233","wem/bandit_party_2","A2W547SNOCMC25","either","3","8911","","","32","","","","","","","","","","","","","","","","","","","","","","","","","","","","","","","","","","","","",""
"","text-replacement","75","282161","0.0-36.0","03104233","wem/bandit_party_2","A2W547SNOCMC25","either","3","3085","","","32","","","","","","","","","","","","","","","","","","","","","","","","","","","","","","","","","","","","",""
"","text-replacement","76","287519","0.0-37.0","03104233","wem/bandit_party_2","A2W547SNOCMC25","either","3","5353","","","32","","","","","","","","","","","","","","","","","","","","","","","","","","","","","","","","","","","","",""
"","text-replacement","77","289864","0.0-38.0","03104233","wem/bandit_party_2","A2W547SNOCMC25","either","3","2327","","","32","","","","","","","","","","","","","","","","","","","","","","","","","","","","","","","","","","","","",""
"","survey-multi-choice-replacement","78","295900","0.0-39.0-0.0","03104233","wem/bandit_party_2","A2W547SNOCMC25","either","3","6020","","","","","","","","","","","","","","","","","","","","","","","","Money will be added to the pool for <span style='color:blue;'>DEMOCRATS</span>","","","","","","","attn_check","","","","","","","","","0"
"","survey-multi-choice-replacement","79","300079","0.0-40.0-0.0","03104233","wem/bandit_party_2","A2W547SNOCMC25","either","3","3161","","","","","","","","","","","","","","","","","","","","","","","","Equal amounts of money will be added to the pool for <span style='color:blue;'>DEMOCRATS</span> and subtracted from the pool for <span style='color:red;'>REPUBLICANS</span>","","","","","","","attn_check","","","","","","","","","2"
"","survey-multi-choice-replacement","80","320661","0.0-41.0-0.0","03104233","wem/bandit_party_2","A2W547SNOCMC25","either","3","19568","","","","","","","","","","","","","","","","","","","","","","","","No money will be added to either pool","","","","","","","attn_check","","","","","","","","","3"
"","bandit","81","325832","0.0-42.0-0.0","03104233","wem/bandit_party_2","A2W547SNOCMC25","either","3","2657","","","","","","","0","1","0","","0.6494041588","0.6","0.2","0.8","0.4","0.6494041588","0.6473934842","0.4261870849","0.1387034319","","","","","","","","","","","","","","72","H","0","img/none_selected.jpg","","1","main_expt",""
"","bandit","82","328127","0.0-43.0-0.0","03104233","wem/bandit_party_2","A2W547SNOCMC25","either","3","783","","","","","","","0","1","0","","0.7608835745","0.6","0.2","0.8","0.4","0.7608835745","0.5221866694","0.3223101542","0.2166337036","","","","","","","","","","","","","","72","H","0","img/none_selected.jpg","","2","main_expt",""
"","bandit","83","331112","0.0-44.0-0.0","03104233","wem/bandit_party_2","A2W547SNOCMC25","either","3","1476","","","","","","","1","0","0","0.7745567172","","0.6","0.2","0.8","0.4","","","","","0.7745567172","0.5356292978","0.2541217019","0.3253899216","","","","","","","","","","72","H","0","img/none_selected.jpg","","3","main_expt",""
"","bandit","84","336010","0.0-45.0-0.0","03104233","wem/bandit_party_2","A2W547SNOCMC25","either","3","3381","","","","","","","0","0","1","0.8315703218","","0.6","0.2","0.8","0.4","","","","","0.8315703218","0.5154592071","0.2272043942","0.3003293127","","","","","","","","","","72","H","0","img/none_selected.jpg","","4","main_expt",""
"","bandit","85","338663","0.0-46.0-0.0","03104233","wem/bandit_party_2","A2W547SNOCMC25","either","3","1141","","","","","","","0","0","1","","0.4578896037","0.6","0.2","0.8","0.4","0.8380789219","0.4578896037","0.2967729676","0.3839660868","","","","","","","","","","","","","","74","J","1","","","5","main_expt",""
"","bandit","86","340456","0.0-47.0-0.0","03104233","wem/bandit_party_2","A2W547SNOCMC25","either","3","281","","","","","","","0","0","1","0.3211998527","","0.6","0.2","0.8","0.4","","","","","0.8233568153","0.4825789634","0.3211998527","0.3833463511","","","","","","","","","","75","K","2","","","6","main_expt",""
"","bandit","87","342407","0.0-48.0-0.0","03104233","wem/bandit_party_2","A2W547SNOCMC25","either","3","440","","","","","","","0","0","1","0.3173395401","","0.6","0.2","0.8","0.4","","","","","0.8672840292","0.4013658759","0.4190649117","0.3173395401","","","","","","","","","","76","L","3","","","7","main_expt",""
"","bandit","88","344014","0.0-49.0-0.0","03104233","wem/bandit_party_2","A2W547SNOCMC25","either","3","96","","","","","","","0","1","0","","0.7921451217","0.6","0.2","0.8","0.4","0.7921451217","0.3721769634","0.5253498774","0.3265190876","","","","","","","","","","","","","","72","H","0","img/none_selected.jpg","","8","main_expt",""
"","bandit","89","345903","0.0-50.0-0.0","03104233","wem/bandit_party_2","A2W547SNOCMC25","either","3","372","","","","","","","0","1","0","","0.7826569337","0.6","0.2","0.8","0.4","0.7826569337","0.3934089605","0.5552176016","0.4229840653","","","","","","","","","","","","","","72","H","0","img/none_selected.jpg","","9","main_expt",""
"","bandit","90","347679","0.0-51.0-0.0","03104233","wem/bandit_party_2","A2W547SNOCMC25","either","3","264","","","","","","","0","1","0","","0.7150392401","0.6","0.2","0.8","0.4","0.7150392401","0.3360942297","0.654745146","0.5107168356","","","","","","","","","","","","","","72","H","0","img/none_selected.jpg","","10","main_expt",""
"","bandit","91","349607","0.0-52.0-0.0","03104233","wem/bandit_party_2","A2W547SNOCMC25","either","3","416","","","","","","","0","0","1","0.6906605055","","0.6","0.2","0.8","0.4","","","","","0.6906605055","0.4969537907","0.6089063278","0.4383577931","","","","","","","","","","72","H","0","img/none_selected.jpg","","11","main_expt",""
"","bandit","92","352030","0.0-53.0-0.0","03104233","wem/bandit_party_2","A2W547SNOCMC25","either","3","913","","","","","","","0","0","1","","0.6725575113","0.6","0.2","0.8","0.4","0.6725575113","0.4760264401","0.559155858","0.5487148549","","","","","","","","","","","","","","72","H","0","img/none_selected.jpg","","12","main_expt",""
"","bandit","93","354617","0.0-54.0-0.0","03104233","wem/bandit_party_2","A2W547SNOCMC25","either","3","1073","","","","","","","0","1","0","","0.7404599176","0.6","0.2","0.8","0.4","0.7404599176","0.4008761295","0.6464491645","0.7407599438","","","","","","","","","","","","","","72","H","0","img/none_selected.jpg","","13","main_expt",""
"","bandit","94","357913","0.0-55.0-0.0","03104233","wem/bandit_party_2","A2W547SNOCMC25","either","3","1783","","","","","","","1","0","0","0.6751607758","","0.6","0.2","0.8","0.4","","","","","0.6751607758","0.358486362","0.6936958995","0.8307131687","","","","","","","","","","72","H","0","img/none_selected.jpg","","14","main_expt",""
"","bandit","95","360560","0.0-56.0-0.0","03104233","wem/bandit_party_2","A2W547SNOCMC25","either","3","1133","","","","","","","0","0","1","","0.6115440925","0.6","0.2","0.8","0.4","0.6115440925","0.395258373","0.731471075","0.8114394421","","","","","","","","","","","","","","72","H","0","img/none_selected.jpg","","15","main_expt",""
"","bandit","96","366065","0.0-57.0-0.0","03104233","wem/bandit_party_2","A2W547SNOCMC25","either","3","3993","","","","","","","1","0","0","0.7019001419","","0.6","0.2","0.8","0.4","","","","","0.7019001419","0.4197334966","0.6487541525","0.8242397169","","","","","","","","","","72","H","0","img/none_selected.jpg","","16","main_expt",""
"","bandit","97","368974","0.0-58.0-0.0","03104233","wem/bandit_party_2","A2W547SNOCMC25","either","3","1397","","","","","","","0","1","0","","0.7017998","0.6","0.2","0.8","0.4","0.7017998","0.2160816064","0.7654634758","0.8317633157","","","","","","","","","","","","","","72","H","0","img/none_selected.jpg","","17","main_expt",""
"","bandit","98","371047","0.0-59.0-0.0","03104233","wem/bandit_party_2","A2W547SNOCMC25","either","3","552","","","","","","","1","0","0","0.7672473748","","0.6","0.2","0.8","0.4","","","","","0.7672473748","0.2058632209","0.7160830043","0.8158638682","","","","","","","","","","72","H","0","img/none_selected.jpg","","18","main_expt",""
"","bandit","99","373199","0.0-60.0-0.0","03104233","wem/bandit_party_2","A2W547SNOCMC25","either","3","640","","","","","","","0","0","1","0.7950219121","","0.6","0.2","0.8","0.4","","","","","0.7950219121","0.2314559036","0.6856656502","0.8291878069","","","","","","","","","","72","H","0","img/none_selected.jpg","","19","main_expt",""
"","bandit","100","375791","0.0-61.0-0.0","03104233","wem/bandit_party_2","A2W547SNOCMC25","either","3","1077","","","","","","","0","1","0","","0.8460513568","0.6","0.2","0.8","0.4","0.8460513568","0.1762066147","0.6829400921","0.8665153398","","","","","","","","","","","","","","72","H","0","img/none_selected.jpg","","20","main_expt",""
"","bandit","101","379302","0.0-62.0-0.0","03104233","wem/bandit_party_2","A2W547SNOCMC25","either","3","2001","","","","","","","0","1","0","","0.8571228725","0.6","0.2","0.8","0.4","0.8571228725","0.150477598","0.6849203215","0.8181415858","","","","","","","","","","","","","","72","H","0","img/none_selected.jpg","","21","main_expt",""
"","bandit","102","382037","0.0-63.0-0.0","03104233","wem/bandit_party_2","A2W547SNOCMC25","either","3","1227","","","","","","","0","1","0","","0.8498483749","0.6","0.2","0.8","0.4","0.8498483749","0.1957635407","0.6832197831","0.7731960963","","","","","","","","","","","","","","72","H","0","img/none_selected.jpg","","22","main_expt",""
"","bandit","103","384774","0.0-64.0-0.0","03104233","wem/bandit_party_2","A2W547SNOCMC25","either","3","1227","","","","","","","0","1","0","","0.887495535","0.6","0.2","0.8","0.4","0.887495535","0.2193187944","0.6103957523","0.8004626553","","","","","","","","","","","","","","72","H","0","img/none_selected.jpg","","23","main_expt",""
"","bandit","104","386743","0.0-65.0-0.0","03104233","wem/bandit_party_2","A2W547SNOCMC25","either","3","457","","","","","","","1","0","0","0.918231735","","0.6","0.2","0.8","0.4","","","","","0.918231735","0.1836328706","0.5485819736","0.7941911222","","","","","","","","","","72","H","0","img/none_selected.jpg","","24","main_expt",""
"","bandit","105","388582","0.0-66.0-0.0","03104233","wem/bandit_party_2","A2W547SNOCMC25","either","3","328","","","","","","","1","0","0","0.9111146318","","0.6","0.2","0.8","0.4","","","","","0.9111146318","0.1410441375","0.5852935809","0.7100633829","","","","","","","","","","72","H","0","img/none_selected.jpg","","25","main_expt",""
"","bandit","106","390583","0.0-67.0-0.0","03104233","wem/bandit_party_2","A2W547SNOCMC25","either","3","489","","","","","","","1","0","0","0.9190640316","","0.6","0.2","0.8","0.4","","","","","0.9190640316","0.1082593399","0.6097892937","0.6872129375","","","","","","","","","","72","H","0","img/none_selected.jpg","","26","main_expt",""
"","bandit","107","392743","0.0-68.0-0.0","03104233","wem/bandit_party_2","A2W547SNOCMC25","either","3","648","","","","","","","0","1","0","","0.9372614837","0.6","0.2","0.8","0.4","0.9372614837","0.1042047793","0.6653335402","0.6798864795","","","","","","","","","","","","","","72","H","0","img/none_selected.jpg","","27","main_expt",""
"","bandit","108","395211","0.0-69.0-0.0","03104233","wem/bandit_party_2","A2W547SNOCMC25","either","3","950","","","","","","","0","1","0","","0.9269484959","0.6","0.2","0.8","0.4","0.9269484959","0.1153509117","0.6850825106","0.6812343762","","","","","","","","","","","","","","72","H","0","img/none_selected.jpg","","28","main_expt",""
"","bandit","109","397246","0.0-70.0-0.0","03104233","wem/bandit_party_2","A2W547SNOCMC25","either","3","521","","","","","","","0","0","1","","0.9376772981","0.6","0.2","0.8","0.4","0.9376772981","0.1601566248","0.7309016742","0.5305157647","","","","","","","","","","","","","","72","H","0","img/none_selected.jpg","","29","main_expt",""
"","bandit","110","399878","0.0-71.0-0.0","03104233","wem/bandit_party_2","A2W547SNOCMC25","either","3","1119","","","","","","","1","0","0","0.8795505253","","0.6","0.2","0.8","0.4","","","","","0.8795505253","0.09548927903","0.8141980113","0.4713174284","","","","","","","","","","72","H","0","img/none_selected.jpg","","30","main_expt",""
"","bandit","111","402648","0.0-72.0-0.0","03104233","wem/bandit_party_2","A2W547SNOCMC25","either","3","1255","","","","","","","1","0","0","0.8605863748","","0.6","0.2","0.8","0.4","","","","","0.8605863748","0.09272353297","0.8926711601","0.2938490869","","","","","","","","","","72","H","0","img/none_selected.jpg","","31","main_expt",""
"","bandit","112","405919","0.0-73.0-0.0","03104233","wem/bandit_party_2","A2W547SNOCMC25","either","3","1758","","","","","","","0","1","0","","0.757600507","0.6","0.2","0.8","0.4","0.757600507","0.09547929832","0.8397563013","0.3005160425","","","","","","","","","","","","","","72","H","0","img/none_selected.jpg","","32","main_expt",""
"","bandit","113","409302","0.0-74.0-0.0","03104233","wem/bandit_party_2","A2W547SNOCMC25","either","3","1868","","","","","","","0","1","0","","0.7257103923","0.6","0.2","0.8","0.4","0.7257103923","0.08683876107","0.8251988787","0.3661211491","","","","","","","","","","","","","","72","H","0","img/none_selected.jpg","","33","main_expt",""
"","bandit","114","412663","0.0-75.0-0.0","03104233","wem/bandit_party_2","A2W547SNOCMC25","either","3","1844","","","","","","","0","1","0","","0.5786815464","0.6","0.2","0.8","0.4","0.5786815464","0.08117088791","0.7303528712","0.4614725573","","","","","","","","","","","","","","72","H","0","img/none_selected.jpg","","34","main_expt",""
"","bandit","115","416006","0.0-76.0-0.0","03104233","wem/bandit_party_2","A2W547SNOCMC25","either","3","1825","","","","","","","1","0","0","0.4812266686","","0.6","0.2","0.8","0.4","","","","","0.4812266686","0.09593582107","0.8093673003","0.4597324626","","","","","","","","","","72","H","0","img/none_selected.jpg","","35","main_expt",""
"","bandit","116","417911","0.0-77.0-0.0","03104233","wem/bandit_party_2","A2W547SNOCMC25","either","3","389","","","","","","","0","0","1","0.4459447539","","0.6","0.2","0.8","0.4","","","","","0.4459447539","0.1392988708","0.79718131","0.4294742096","","","","","","","","","","72","H","0","img/none_selected.jpg","","36","main_expt",""
"","bandit","117","420167","0.0-78.0-0.0","03104233","wem/bandit_party_2","A2W547SNOCMC25","either","3","741","","","","","","","0","0","1","0.5737218407","","0.6","0.2","0.8","0.4","","","","","0.5737218407","0.07673209605","0.8157762275","0.5301274199","","","","","","","","","","72","H","0","img/none_selected.jpg","","37","main_expt",""
"","bandit","118","422375","0.0-79.0-0.0","03104233","wem/bandit_party_2","A2W547SNOCMC25","either","3","694","","","","","","","1","0","0","0.6008421093","","0.6","0.2","0.8","0.4","","","","","0.6008421093","0.1078843958","0.7941499978","0.5746889943","","","","","","","","","","72","H","0","img/none_selected.jpg","","38","main_expt",""
"","bandit","119","424721","0.0-80.0-0.0","03104233","wem/bandit_party_2","A2W547SNOCMC25","either","3","834","","","","","","","1","0","0","0.6076920036","","0.6","0.2","0.8","0.4","","","","","0.6076920036","0.09731722171","0.7352357368","0.6621100331","","","","","","","","","","72","H","0","img/none_selected.jpg","","39","main_expt",""
"","bandit","120","426855","0.0-81.0-0.0","03104233","wem/bandit_party_2","A2W547SNOCMC25","either","3","616","","","","","","","0","1","0","","0.6616622706","0.6","0.2","0.8","0.4","0.6616622706","0.2123509389","0.7920886563","0.6794361822","","","","","","","","","","","","","","72","H","0","img/none_selected.jpg","","40","main_expt",""
"","bandit","121","429389","0.0-82.0-0.0","03104233","wem/bandit_party_2","A2W547SNOCMC25","either","3","1018","","","","","","","1","0","0","0.6945341382","","0.6","0.2","0.8","0.4","","","","","0.6945341382","0.1265365425","0.8780543775","0.7140523024","","","","","","","","","","72","H","0","img/none_selected.jpg","","41","main_expt",""
"","bandit","122","431430","0.0-83.0-0.0","03104233","wem/bandit_party_2","A2W547SNOCMC25","either","3","527","","","","","","","1","0","0","0.6833149102","","0.6","0.2","0.8","0.4","","","","","0.6833149102","0.166138795","0.9167256642","0.6669732994","","","","","","","","","","72","H","0","img/none_selected.jpg","","42","main_expt",""
"","bandit","123","433596","0.0-84.0-0.0","03104233","wem/bandit_party_2","A2W547SNOCMC25","either","3","651","","","","","","","1","0","0","0.7094953576","","0.6","0.2","0.8","0.4","","","","","0.7094953576","0.1782339186","0.9407985187","0.5435093165","","","","","","","","","","72","H","0","img/none_selected.jpg","","43","main_expt",""
"","bandit","124","435304","0.0-85.0-0.0","03104233","wem/bandit_party_2","A2W547SNOCMC25","either","3","197","","","","","","","1","0","0","0.7519468023","","0.6","0.2","0.8","0.4","","","","","0.7519468023","0.1342945815","0.9000978766","0.6002661395","","","","","","","","","","72","H","0","img/none_selected.jpg","","44","main_expt",""
"","bandit","125","437494","0.0-86.0-0.0","03104233","wem/bandit_party_2","A2W547SNOCMC25","either","3","677","","","","","","","1","0","0","0.7673203249","","0.6","0.2","0.8","0.4","","","","","0.7673203249","0.09086288848","0.9190036262","0.5948203474","","","","","","","","","","72","H","0","img/none_selected.jpg","","45","main_expt",""
"","bandit","126","440517","0.0-87.0-0.0","03104233","wem/bandit_party_2","A2W547SNOCMC25","either","3","1512","","","","","","","0","0","1","","0.722836051","0.6","0.2","0.8","0.4","0.722836051","0.06420934006","0.8865788656","0.6230250108","","","","","","","","","","","","","","72","H","0","img/none_selected.jpg","","46","main_expt",""
"","bandit","127","443469","0.0-88.0-0.0","03104233","wem/bandit_party_2","A2W547SNOCMC25","either","3","1438","","","","","","","0","0","1","","0.7392487755","0.6","0.2","0.8","0.4","0.7392487755","0.02332738683","0.8207935484","0.7239235909","","","","","","","","","","","","","","72","H","0","img/none_selected.jpg","","47","main_expt",""
"","bandit","128","445816","0.0-89.0-0.0","03104233","wem/bandit_party_2","A2W547SNOCMC25","either","3","835","","","","","","","1","0","0","0.7551111279","","0.6","0.2","0.8","0.4","","","","","0.7551111279","0.03517565614","0.8170742187","0.7715310514","","","","","","","","","","72","H","0","img/none_selected.jpg","","48","main_expt",""
"","bandit","129","448456","0.0-90.0-0.0","03104233","wem/bandit_party_2","A2W547SNOCMC25","either","3","1128","","","","","","","1","0","0","0.6917772817","","0.6","0.2","0.8","0.4","","","","","0.6917772817","0.04466115719","0.7874830355","0.822179592","","","","","","","","","","72","H","0","img/none_selected.jpg","","49","main_expt",""
"","bandit","130","451405","0.0-91.0-0.0","03104233","wem/bandit_party_2","A2W547SNOCMC25","either","3","1436","","","","","","","0","1","0","","0.6689959301","0.6","0.2","0.8","0.4","0.6689959301","0.05053383529","0.8279472521","0.8108951243","","","","","","","","","","","","","","72","H","0","img/none_selected.jpg","","50","main_expt",""
"","bandit","131","453949","0.0-92.0-0.0","03104233","wem/bandit_party_2","A2W547SNOCMC25","either","3","1031","","","","","","","0","0","1","","0.6020608281","0.6","0.2","0.8","0.4","0.6020608281","0.04681033125","0.8426817256","0.7649170446","","","","","","","","","","","","","","72","H","0","img/none_selected.jpg","","51","main_expt",""
"","bandit","132","456566","0.0-93.0-0.0","03104233","wem/bandit_party_2","A2W547SNOCMC25","either","3","1104","","","","","","","1","0","0","0.6583182673","","0.6","0.2","0.8","0.4","","","","","0.6583182673","0.09308222201","0.8377647656","0.8169848275","","","","","","","","","","72","H","0","img/none_selected.jpg","","52","main_expt",""
"","bandit","133","459125","0.0-94.0-0.0","03104233","wem/bandit_party_2","A2W547SNOCMC25","either","3","1044","","","","","","","0","0","1","","0.5419436754","0.6","0.2","0.8","0.4","0.5419436754","0.1397702629","0.8241398149","0.8843577791","","","","","","","","","","","","","","72","H","0","img/none_selected.jpg","","53","main_expt",""
"","bandit","134","461895","0.0-95.0-0.0","03104233","wem/bandit_party_2","A2W547SNOCMC25","either","3","1254","","","","","","","0","0","1","0.5717614462","","0.6","0.2","0.8","0.4","","","","","0.5717614462","0.110287685","0.7289352116","0.8854515068","","","","","","","","","","72","H","0","img/none_selected.jpg","","54","main_expt",""
"","bandit","135","463711","0.0-96.0-0.0","03104233","wem/bandit_party_2","A2W547SNOCMC25","either","3","301","","","","","","","0","0","1","","0.1843384007","0.6","0.2","0.8","0.4","0.5497935615","0.1843384007","0.5895019519","0.8884574585","","","","","","","","","","","","","","74","J","1","","","55","main_expt",""
"","bandit","136","465820","0.0-97.0-0.0","03104233","wem/bandit_party_2","A2W547SNOCMC25","either","3","601","","","","","","","1","0","0","0.4622464331","","0.6","0.2","0.8","0.4","","","","","0.4902645195","0.2056752237","0.4622464331","0.8840911236","","","","","","","","","","75","K","2","","","56","main_expt",""
"","bandit","137","468824","0.0-98.0-0.0","03104233","wem/bandit_party_2","A2W547SNOCMC25","either","3","1491","","","","","","","0","0","1","0.490024734","","0.6","0.2","0.8","0.4","","","","","0.5258365243","0.3410726922","0.490024734","0.864283103","","","","","","","","","","75","K","2","","","57","main_expt",""
"","bandit","138","470815","0.0-99.0-0.0","03104233","wem/bandit_party_2","A2W547SNOCMC25","either","3","475","","","","","","","0","0","1","0.6182628796","","0.6","0.2","0.8","0.4","","","","","0.6097664349","0.3873695161","0.6182628796","0.7377821737","","","","","","","","","","75","K","2","","","58","main_expt",""
"","bandit","139","472648","0.0-100.0-0.0","03104233","wem/bandit_party_2","A2W547SNOCMC25","either","3","318","","","","","","","1","0","0","0.7469541206","","0.6","0.2","0.8","0.4","","","","","0.6016711108","0.3281321534","0.6976829826","0.7469541206","","","","","","","","","","76","L","3","","","59","main_expt",""
"","bandit","140","474806","0.0-101.0-0.0","03104233","wem/bandit_party_2","A2W547SNOCMC25","either","3","643","","","","","","","1","0","0","0.8019510571","","0.6","0.2","0.8","0.4","","","","","0.5544917648","0.2380439254","0.675433977","0.8019510571","","","","","","","","","","76","L","3","","","60","main_expt",""
"","bandit","141","477126","0.0-102.0-0.0","03104233","wem/bandit_party_2","A2W547SNOCMC25","either","3","807","","","","","","","0","1","0","","0.8943887388","0.6","0.2","0.8","0.4","0.6842720067","0.2228222105","0.7206550838","0.8943887388","","","","","","","","","","","","","","76","L","3","","","61","main_expt",""
"","bandit","142","479913","0.0-103.0-0.0","03104233","wem/bandit_party_2","A2W547SNOCMC25","either","3","1269","","","","","","","1","0","0","0.8942973556","","0.6","0.2","0.8","0.4","","","","","0.6824345281","0.2489253665","0.7184677658","0.8942973556","","","","","","","","","","76","L","3","","","62","main_expt",""
"","bandit","143","482213","0.0-104.0-0.0","03104233","wem/bandit_party_2","A2W547SNOCMC25","either","3","783","","","","","","","0","1","0","","0.8829609874","0.6","0.2","0.8","0.4","0.7321168219","0.2298237489","0.6785259816","0.8829609874","","","","","","","","","","","","","","76","L","3","","","63","main_expt",""
"","bandit","144","485533","0.0-105.0-0.0","03104233","wem/bandit_party_2","A2W547SNOCMC25","either","3","1805","","","","","","","1","0","0","0.8175344892","","0.6","0.2","0.8","0.4","","","","","0.8123013145","0.1849055857","0.6349383059","0.8175344892","","","","","","","","","","76","L","3","","","64","main_expt",""
"","bandit","145","487997","0.0-106.0-0.0","03104233","wem/bandit_party_2","A2W547SNOCMC25","either","3","951","","","","","","","1","0","0","0.7812905168","","0.6","0.2","0.8","0.4","","","","","0.8236121316","0.2285715909","0.629769122","0.7812905168","","","","","","","","","","76","L","3","","","65","main_expt",""
"","bandit","146","490554","0.0-107.0-0.0","03104233","wem/bandit_party_2","A2W547SNOCMC25","either","3","1038","","","","","","","0","1","0","","0.7848445355","0.6","0.2","0.8","0.4","0.8270077233","0.2477643906","0.7158950816","0.7848445355","","","","","","","","","","","","","","76","L","3","","","66","main_expt",""
"","bandit","147","493519","0.0-108.0-0.0","03104233","wem/bandit_party_2","A2W547SNOCMC25","either","3","1447","","","","","","","0","1","0","","0.763143195","0.6","0.2","0.8","0.4","0.7601471472","0.1801078726","0.6309271871","0.763143195","","","","","","","","","","","","","","76","L","3","","","67","main_expt",""
"","bandit","148","495293","0.0-109.0-0.0","03104233","wem/bandit_party_2","A2W547SNOCMC25","either","3","261","","","","","","","0","0","1","","0.7966751536","0.6","0.2","0.8","0.4","0.7567750057","0.08479184886","0.617221228","0.7966751536","","","","","","","","","","","","","","76","L","3","","","68","main_expt",""
"","bandit","149","497807","0.0-110.0-0.0","03104233","wem/bandit_party_2","A2W547SNOCMC25","either","3","999","","","","","","","0","1","0","","0.8534335227","0.6","0.2","0.8","0.4","0.6871277649","0.06982522498","0.6235929763","0.8534335227","","","","","","","","","","","","","","76","L","3","","","69","main_expt",""
"","bandit","150","500503","0.0-111.0-0.0","03104233","wem/bandit_party_2","A2W547SNOCMC25","either","3","1178","","","","","","","0","1","0","","0.8915498471","0.6","0.2","0.8","0.4","0.773099018","0.05029268469","0.5543620559","0.8915498471","","","","","","","","","","","","","","76","L","3","","","70","main_expt",""
"","bandit","151","503754","0.0-112.0-0.0","03104233","wem/bandit_party_2","A2W547SNOCMC25","either","3","1736","","","","","","","0","1","0","","0.8736989015","0.6","0.2","0.8","0.4","0.7412476729","0.06413839938","0.5333999135","0.8736989015","","","","","","","","","","","","","","76","L","3","","","71","main_expt",""
"","bandit","152","505364","0.0-113.0-0.0","03104233","wem/bandit_party_2","A2W547SNOCMC25","either","3","95","","","","","","","0","0","1","","0.8837551658","0.6","0.2","0.8","0.4","0.8080704968","0.05155778705","0.5905126671","0.8837551658","","","","","","","","","","","","","","76","L","3","","","72","main_expt",""
"","bandit","153","507655","0.0-114.0-0.0","03104233","wem/bandit_party_2","A2W547SNOCMC25","either","3","777","","","","","","","0","1","0","","0.8495494246","0.6","0.2","0.8","0.4","0.8270016227","0.0232747386","0.6925119087","0.8495494246","","","","","","","","","","","","","","76","L","3","","","73","main_expt",""
"","bandit","154","509749","0.0-115.0-0.0","03104233","wem/bandit_party_2","A2W547SNOCMC25","either","3","578","","","","","","","0","0","1","","0.9127472651","0.6","0.2","0.8","0.4","0.7872017979","0.04751547773","0.7134745341","0.9127472651","","","","","","","","","","","","","","76","L","3","","","74","main_expt",""
"","bandit","155","511871","0.0-116.0-0.0","03104233","wem/bandit_party_2","A2W547SNOCMC25","either","3","601","","","","","","","0","1","0","","0.9199060817","0.6","0.2","0.8","0.4","0.6167225576","0.05282531612","0.8065440948","0.9199060817","","","","","","","","","","","","","","76","L","3","","","75","main_expt",""
"","bandit","156","514488","0.0-117.0-0.0","03104233","wem/bandit_party_2","A2W547SNOCMC25","either","3","1101","","","","","","","1","0","0","0.8691294168","","0.6","0.2","0.8","0.4","","","","","0.637182095","0.08738729654","0.7849172319","0.8691294168","","","","","","","","","","76","L","3","","","76","main_expt",""
"","bandit","157","517006","0.0-118.0-0.0","03104233","wem/bandit_party_2","A2W547SNOCMC25","either","3","1001","","","","","","","0","1","0","","0.9111329321","0.6","0.2","0.8","0.4","0.7169911294","0.08851312664","0.7818962729","0.9111329321","","","","","","","","","","","","","","76","L","3","","","77","main_expt",""
"","bandit","158","519974","0.0-119.0-0.0","03104233","wem/bandit_party_2","A2W547SNOCMC25","either","3","1451","","","","","","","1","0","0","0.9286966754","","0.6","0.2","0.8","0.4","","","","","0.7446448061","0.145228539","0.7002933386","0.9286966754","","","","","","","","","","76","L","3","","","78","main_expt",""
"","bandit","159","521910","0.0-120.0-0.0","03104233","wem/bandit_party_2","A2W547SNOCMC25","either","3","422","","","","","","","0","1","0","","0.9616021792","0.6","0.2","0.8","0.4","0.8152221547","0.1669860915","0.6510109529","0.9616021792","","","","","","","","","","","","","","76","L","3","","","79","main_expt",""
"","bandit","160","524029","0.0-121.0-0.0","03104233","wem/bandit_party_2","A2W547SNOCMC25","either","3","604","","","","","","","0","1","0","","0.950571795","0.6","0.2","0.8","0.4","0.810351938","0.1922913003","0.6765614865","0.950571795","","","","","","","","","","","","","","76","L","3","","","80","main_expt",""
"","bandit","161","525904","0.0-122.0-0.0","03104233","wem/bandit_party_2","A2W547SNOCMC25","either","3","358","","","","","","","0","1","0","","0.9331160128","0.6","0.2","0.8","0.4","0.8895110989","0.2407870914","0.5908869344","0.9331160128","","","","","","","","","","","","","","76","L","3","","","81","main_expt",""
"","bandit","162","528040","0.0-123.0-0.0","03104233","wem/bandit_party_2","A2W547SNOCMC25","either","3","623","","","","","","","1","0","0","0.9465986336","","0.6","0.2","0.8","0.4","","","","","0.9046816681","0.3077898034","0.5267531711","0.9465986336","","","","","","","","","","76","L","3","","","82","main_expt",""
"","bandit","163","531085","0.0-124.0-0.0","03104233","wem/bandit_party_2","A2W547SNOCMC25","either","3","1529","","","","","","","1","0","0","0.9371159138","","0.6","0.2","0.8","0.4","","","","","0.8465278631","0.2337579628","0.6168373964","0.9371159138","","","","","","","","","","76","L","3","","","83","main_expt",""
"","bandit","164","534388","0.0-125.0-0.0","03104233","wem/bandit_party_2","A2W547SNOCMC25","either","3","1786","","","","","","","0","1","0","","0.8998840018","0.6","0.2","0.8","0.4","0.7584930438","0.2781329454","0.5733990252","0.8998840018","","","","","","","","","","","","","","76","L","3","","","84","main_expt",""
"","bandit","165","536068","0.0-126.0-0.0","03104233","wem/bandit_party_2","A2W547SNOCMC25","either","3","168","","","","","","","0","1","0","","0.9102188985","0.6","0.2","0.8","0.4","0.7727946294","0.3013149798","0.4719695616","0.9102188985","","","","","","","","","","","","","","76","L","3","","","85","main_expt",""
"","bandit","166","538164","0.0-127.0-0.0","03104233","wem/bandit_party_2","A2W547SNOCMC25","either","3","582","","","","","","","1","0","0","0.9000055418","","0.6","0.2","0.8","0.4","","","","","0.8216594778","0.3231836659","0.6941651786","0.9000055418","","","","","","","","","","76","L","3","","","86","main_expt",""
"","bandit","167","540404","0.0-128.0-0.0","03104233","wem/bandit_party_2","A2W547SNOCMC25","either","3","726","","","","","","","0","1","0","","0.8563468124","0.6","0.2","0.8","0.4","0.7833884788","0.3986379136","0.5408952125","0.8563468124","","","","","","","","","","","","","","76","L","3","","","87","main_expt",""
"","bandit","168","542815","0.0-129.0-0.0","03104233","wem/bandit_party_2","A2W547SNOCMC25","either","3","891","","","","","","","0","0","1","0.7349543302","","0.6","0.2","0.8","0.4","","","","","0.7804426693","0.4230151841","0.5438891422","0.7349543302","","","","","","","","","","76","L","3","","","88","main_expt",""
"","bandit","169","545149","0.0-130.0-0.0","03104233","wem/bandit_party_2","A2W547SNOCMC25","either","3","818","","","","","","","0","1","0","","0.7907967515","0.6","0.2","0.8","0.4","0.7930928848","0.3761858397","0.4294971294","0.7907967515","","","","","","","","","","","","","","76","L","3","","","89","main_expt",""
"","bandit","170","548704","0.0-131.0-0.0","03104233","wem/bandit_party_2","A2W547SNOCMC25","either","3","2037","","","","","","","0","1","0","","0.7883246469","0.6","0.2","0.8","0.4","0.7683039237","0.4799086841","0.4928337868","0.7883246469","","","","","","","","","","","","","","76","L","3","","","90","main_expt",""
"","bandit","171","552789","0.0-132.0-0.0","03104233","wem/bandit_party_2","A2W547SNOCMC25","either","3","2565","","","","","","","0","1","0","","0.8389096604","0.6","0.2","0.8","0.4","0.8072091422","0.4558425901","0.5655090935","0.8389096604","","","","","","","","","","","","","","76","L","3","","","91","main_expt",""
"","bandit","172","556638","0.0-133.0-0.0","03104233","wem/bandit_party_2","A2W547SNOCMC25","either","3","2329","","","","","","","1","0","0","0.8064187158","","0.6","0.2","0.8","0.4","","","","","0.7791444337","0.3781515597","0.6154818033","0.8064187158","","","","","","","","","","76","L","3","","","92","main_expt",""
"","bandit","173","560320","0.0-134.0-0.0","03104233","wem/bandit_party_2","A2W547SNOCMC25","either","3","2166","","","","","","","1","0","0","0.7542368763","","0.6","0.2","0.8","0.4","","","","","0.8498372391","0.2858753042","0.7381217307","0.7542368763","","","","","","","","","","76","L","3","","","93","main_expt",""
"","bandit","174","563045","0.0-135.0-0.0","03104233","wem/bandit_party_2","A2W547SNOCMC25","either","3","1214","","","","","","","0","1","0","","0.6932487021","0.6","0.2","0.8","0.4","0.8440610374","0.3914428564","0.7776388333","0.6932487021","","","","","","","","","","","","","","76","L","3","","","94","main_expt",""
"","bandit","175","565237","0.0-136.0-0.0","03104233","wem/bandit_party_2","A2W547SNOCMC25","either","3","677","","","","","","","0","0","1","","0.6706070003","0.6","0.2","0.8","0.4","0.8092418145","0.3800018616","0.8299152283","0.6706070003","","","","","","","","","","","","","","76","L","3","","","95","main_expt",""
"","bandit","176","567766","0.0-137.0-0.0","03104233","wem/bandit_party_2","A2W547SNOCMC25","either","3","1009","","","","","","","0","1","0","","0.6670251336","0.6","0.2","0.8","0.4","0.8655172998","0.3078584031","0.7697811485","0.6670251336","","","","","","","","","","","","","","76","L","3","","","96","main_expt",""
"","bandit","177","572154","0.0-138.0-0.0","03104233","wem/bandit_party_2","A2W547SNOCMC25","either","3","2866","","","","","","","0","0","1","","0.7023758817","0.6","0.2","0.8","0.4","0.8735151232","0.218486712","0.7487724405","0.7023758817","","","","","","","","","","","","","","76","L","3","","","97","main_expt",""
"","bandit","178","574919","0.0-139.0-0.0","03104233","wem/bandit_party_2","A2W547SNOCMC25","either","3","1250","","","","","","","0","1","0","","0.7036518389","0.6","0.2","0.8","0.4","0.84409386","0.2037628256","0.7450583294","0.7036518389","","","","","","","","","","","","","","76","L","3","","","98","main_expt",""
"","bandit","179","578149","0.0-140.0-0.0","03104233","wem/bandit_party_2","A2W547SNOCMC25","either","3","1718","","","","","","","0","1","0","","0.8401346726","0.6","0.2","0.8","0.4","0.8089648913","0.2400196326","0.7227120129","0.8401346726","","","","","","","","","","","","","","76","L","3","","","99","main_expt",""
"","bandit","180","580637","0.0-141.0-0.0","03104233","wem/bandit_party_2","A2W547SNOCMC25","either","3","974","","","","","","","0","1","0","","0.8640782416","0.6","0.2","0.8","0.4","0.7259557377","0.3298222115","0.5872141049","0.8640782416","","","","","","","","","","","","","","76","L","3","","","100","main_expt",""
"","bandit","181","583288","0.0-142.0-0.0","03104233","wem/bandit_party_2","A2W547SNOCMC25","either","3","1136","","","","","","","1","0","0","0.8232172207","","0.6","0.2","0.8","0.4","","","","","0.6332869741","0.3108047587","0.6432213136","0.8232172207","","","","","","","","","","76","L","3","","","101","main_expt",""
"","bandit","182","585525","0.0-143.0-0.0","03104233","wem/bandit_party_2","A2W547SNOCMC25","either","3","721","","","","","","","1","0","0","0.8451901448","","0.6","0.2","0.8","0.4","","","","","0.659443461","0.2869381514","0.6009476408","0.8451901448","","","","","","","","","","76","L","3","","","102","main_expt",""
"","bandit","183","588117","0.0-144.0-0.0","03104233","wem/bandit_party_2","A2W547SNOCMC25","either","3","1076","","","","","","","0","1","0","","0.8792283932","0.6","0.2","0.8","0.4","0.5959971703","0.246485708","0.6120105745","0.8792283932","","","","","","","","","","","","","","76","L","3","","","103","main_expt",""
"","bandit","184","592446","0.0-145.0-0.0","03104233","wem/bandit_party_2","A2W547SNOCMC25","either","3","2809","","","","","","","1","0","0","0.8887181638","","0.6","0.2","0.8","0.4","","","","","0.5643630141","0.2175667678","0.6821098495","0.8887181638","","","","","","","","","","76","L","3","","","104","main_expt",""
"","bandit","185","594871","0.0-146.0-0.0","03104233","wem/bandit_party_2","A2W547SNOCMC25","either","3","907","","","","","","","0","1","0","","0.8013578166","0.6","0.2","0.8","0.4","0.5489079514","0.2645808036","0.7228510016","0.8013578166","","","","","","","","","","","","","","76","L","3","","","105","main_expt",""
"","bandit","186","596767","0.0-147.0-0.0","03104233","wem/bandit_party_2","A2W547SNOCMC25","either","3","380","","","","","","","0","0","1","","0.7307006529","0.6","0.2","0.8","0.4","0.4336033326","0.2652424516","0.6639212405","0.7307006529","","","","","","","","","","","","","","76","L","3","","","106","main_expt",""
"","bandit","187","599349","0.0-148.0-0.0","03104233","wem/bandit_party_2","A2W547SNOCMC25","either","3","1067","","","","","","","0","1","0","","0.7519500851","0.6","0.2","0.8","0.4","0.4779201531","0.2481661544","0.6237034742","0.7519500851","","","","","","","","","","","","","","76","L","3","","","107","main_expt",""
"","bandit","188","601950","0.0-149.0-0.0","03104233","wem/bandit_party_2","A2W547SNOCMC25","either","3","1090","","","","","","","0","0","1","","0.7457577851","0.6","0.2","0.8","0.4","0.5075294874","0.2361720859","0.5847293191","0.7457577851","","","","","","","","","","","","","","76","L","3","","","108","main_expt",""
"","bandit","189","604085","0.0-150.0-0.0","03104233","wem/bandit_party_2","A2W547SNOCMC25","either","3","623","","","","","","","0","1","0","","0.77583868","0.6","0.2","0.8","0.4","0.522842385","0.2799679389","0.6260859175","0.77583868","","","","","","","","","","","","","","76","L","3","","","109","main_expt",""
"","bandit","190","607333","0.0-151.0-0.0","03104233","wem/bandit_party_2","A2W547SNOCMC25","either","3","1731","","","","","","","0","0","1","0.7520827962","","0.6","0.2","0.8","0.4","","","","","0.419893696","0.3333098602","0.4788227383","0.7520827962","","","","","","","","","","76","L","3","","","110","main_expt",""
"","bandit","191","609537","0.0-152.0-0.0","03104233","wem/bandit_party_2","A2W547SNOCMC25","either","3","684","","","","","","","0","1","0","","0.6512809768","0.6","0.2","0.8","0.4","0.431092028","0.3669732535","0.6019778282","0.6512809768","","","","","","","","","","","","","","76","L","3","","","111","main_expt",""
"","bandit","192","612652","0.0-153.0-0.0","03104233","wem/bandit_party_2","A2W547SNOCMC25","either","3","1599","","","","","","","0","0","1","","0.5891937939","0.6","0.2","0.8","0.4","0.3590071368","0.389765336","0.546445977","0.5891937939","","","","","","","","","","","","","","76","L","3","","","112","main_expt",""
"","bandit","193","614727","0.0-154.0-0.0","03104233","wem/bandit_party_2","A2W547SNOCMC25","either","3","557","","","","","","","0","0","1","","0.6490525038","0.6","0.2","0.8","0.4","0.4498419114","0.3191506652","0.6256092846","0.6490525038","","","","","","","","","","","","","","76","L","3","","","113","main_expt",""
"","bandit","194","616557","0.0-155.0-0.0","03104233","wem/bandit_party_2","A2W547SNOCMC25","either","3","314","","","","","","","1","0","0","0.6577617598","","0.6","0.2","0.8","0.4","","","","","0.4829831469","0.2090321438","0.6577617598","0.6283680234","","","","","","","","","","75","K","2","","","114","main_expt",""
"","bandit","195","619451","0.0-156.0-0.0","03104233","wem/bandit_party_2","A2W547SNOCMC25","either","3","1380","","","","","","","1","0","0","0.7140476354","","0.6","0.2","0.8","0.4","","","","","0.4846695964","0.2094439124","0.7140476354","0.6064224059","","","","","","","","","","75","K","2","","","115","main_expt",""
"","bandit","196","622184","0.0-157.0-0.0","03104233","wem/bandit_party_2","A2W547SNOCMC25","either","3","1216","","","","","","","0","1","0","","0.6589976567","0.6","0.2","0.8","0.4","0.5396909338","0.2695181069","0.6589976567","0.545813367","","","","","","","","","","","","","","75","K","2","","","116","main_expt",""
"","bandit","197","624556","0.0-158.0-0.0","03104233","wem/bandit_party_2","A2W547SNOCMC25","either","3","854","","","","","","","1","0","0","0.6937703341","","0.6","0.2","0.8","0.4","","","","","0.5378282835","0.3402036285","0.6937703341","0.5179373022","","","","","","","","","","75","K","2","","","117","main_expt",""
"","bandit","198","627157","0.0-159.0-0.0","03104233","wem/bandit_party_2","A2W547SNOCMC25","either","3","1085","","","","","","","1","0","0","0.77114399","","0.6","0.2","0.8","0.4","","","","","0.5729988564","0.3101634078","0.77114399","0.4014157923","","","","","","","","","","75","K","2","","","118","main_expt",""
"","bandit","199","630024","0.0-160.0-0.0","03104233","wem/bandit_party_2","A2W547SNOCMC25","either","3","1351","","","","","","","1","0","0","0.710000291","","0.6","0.2","0.8","0.4","","","","","0.5630251564","0.3242193616","0.710000291","0.4360264599","","","","","","","","","","75","K","2","","","119","main_expt",""
"","bandit","200","632654","0.0-161.0-0.0","03104233","wem/bandit_party_2","A2W547SNOCMC25","either","3","1111","","","","","","","0","0","1","0.6767982245","","0.6","0.2","0.8","0.4","","","","","0.6482115929","0.3334277272","0.6767982245","0.3297853269","","","","","","","","","","75","K","2","","","120","main_expt",""
"","bandit","201","635045","0.0-162.0-0.0","03104233","wem/bandit_party_2","A2W547SNOCMC25","either","3","874","","","","","","","0","0","1","0.7360115258","","0.6","0.2","0.8","0.4","","","","","0.5688505083","0.4066521311","0.7360115258","0.3767442019","","","","","","","","","","75","K","2","","","121","main_expt",""
"","bandit","202","637204","0.0-163.0-0.0","03104233","wem/bandit_party_2","A2W547SNOCMC25","either","3","644","","","","","","","0","0","1","","0.5193034213","0.6","0.2","0.8","0.4","0.5349597204","0.5193034213","0.7258716992","0.3589515546","","","","","","","","","","","","","","74","J","1","","","122","main_expt",""
"","bandit","203","639212","0.0-164.0-0.0","03104233","wem/bandit_party_2","A2W547SNOCMC25","either","3","493","","","","","","","0","0","1","","0.5594962391","0.6","0.2","0.8","0.4","0.412887176","0.5594962391","0.7848203729","0.3461890545","","","","","","","","","","","","","","74","J","1","","","123","main_expt",""
"","bandit","204","641207","0.0-165.0-0.0","03104233","wem/bandit_party_2","A2W547SNOCMC25","either","3","474","","","","","","","0","1","0","","0.6876014299","0.6","0.2","0.8","0.4","0.4137060999","0.6876014299","0.7673004895","0.2287340519","","","","","","","","","","","","","","74","J","1","","","124","main_expt",""
"","bandit","205","643260","0.0-166.0-0.0","03104233","wem/bandit_party_2","A2W547SNOCMC25","either","3","540","","","","","","","0","1","0","","0.7354493796","0.6","0.2","0.8","0.4","0.3226696341","0.7354493796","0.8020703208","0.2900718705","","","","","","","","","","","","","","74","J","1","","","125","main_expt",""
"","bandit","206","645348","0.0-167.0-0.0","03104233","wem/bandit_party_2","A2W547SNOCMC25","either","3","567","","","","","","","1","0","0","0.76840964","","0.6","0.2","0.8","0.4","","","","","0.3904211026","0.76840964","0.8196031782","0.2880997441","","","","","","","","","","74","J","1","","","126","main_expt",""
"","bandit","207","647439","0.0-168.0-0.0","03104233","wem/bandit_party_2","A2W547SNOCMC25","either","3","578","","","","","","","0","1","0","","0.7310750685","0.6","0.2","0.8","0.4","0.4227014292","0.7310750685","0.7095492128","0.3451069126","","","","","","","","","","","","","","74","J","1","","","127","main_expt",""
"","bandit","208","649546","0.0-169.0-0.0","03104233","wem/bandit_party_2","A2W547SNOCMC25","either","3","593","","","","","","","0","1","0","","0.6582635175","0.6","0.2","0.8","0.4","0.543317668","0.6582635175","0.711577854","0.3129298861","","","","","","","","","","","","","","74","J","1","","","128","main_expt",""
"","bandit","209","651739","0.0-170.0-0.0","03104233","wem/bandit_party_2","A2W547SNOCMC25","either","3","675","","","","","","","0","1","0","","0.7529887683","0.6","0.2","0.8","0.4","0.5906282681","0.7529887683","0.7022761705","0.3507055597","","","","","","","","","","","","","","74","J","1","","","129","main_expt",""
"","bandit","210","653910","0.0-171.0-0.0","03104233","wem/bandit_party_2","A2W547SNOCMC25","either","3","651","","","","","","","0","1","0","","0.7929301986","0.6","0.2","0.8","0.4","0.6636268631","0.7929301986","0.7309419319","0.3753424236","","","","","","","","","","","","","","74","J","1","","","130","main_expt",""
"","bandit","211","655523","0.0-172.0-0.0","03104233","wem/bandit_party_2","A2W547SNOCMC25","either","3","103","","","","","","","0","1","0","","0.8149544693","0.6","0.2","0.8","0.4","0.5686699027","0.8149544693","0.6904825683","0.3473486375","","","","","","","","","","","","","","74","J","1","","","131","main_expt",""
"","bandit","212","657669","0.0-173.0-0.0","03104233","wem/bandit_party_2","A2W547SNOCMC25","either","3","633","","","","","","","0","0","1","","0.7626544417","0.6","0.2","0.8","0.4","0.6564012045","0.7626544417","0.7153166113","0.303679922","","","","","","","","","","","","","","74","J","1","","","132","main_expt",""
"","bandit","213","660375","0.0-174.0-0.0","03104233","wem/bandit_party_2","A2W547SNOCMC25","either","3","1190","","","","","","","1","0","0","0.7584501248","","0.6","0.2","0.8","0.4","","","","","0.5876654864","0.7584501248","0.8135501627","0.3385565331","","","","","","","","","","74","J","1","","","133","main_expt",""
"","bandit","214","663027","0.0-175.0-0.0","03104233","wem/bandit_party_2","A2W547SNOCMC25","either","3","1137","","","","","","","0","1","0","","0.7905015291","0.6","0.2","0.8","0.4","0.5299368298","0.7905015291","0.7707892239","0.3686406913","","","","","","","","","","","","","","74","J","1","","","134","main_expt",""
"","bandit","215","665066","0.0-176.0-0.0","03104233","wem/bandit_party_2","A2W547SNOCMC25","either","3","527","","","","","","","0","1","0","","0.7515189777","0.6","0.2","0.8","0.4","0.4547966061","0.7515189777","0.7689088841","0.3672202126","","","","","","","","","","","","","","74","J","1","","","135","main_expt",""
"","bandit","216","668061","0.0-177.0-0.0","03104233","wem/bandit_party_2","A2W547SNOCMC25","either","3","1483","","","","","","","0","0","1","","0.7293518859","0.6","0.2","0.8","0.4","0.5290841583","0.7293518859","0.6641324257","0.4064769993","","","","","","","","","","","","","","74","J","1","","","136","main_expt",""
"","bandit","217","670941","0.0-178.0-0.0","03104233","wem/bandit_party_2","A2W547SNOCMC25","either","3","1364","","","","","","","0","1","0","","0.7286216209","0.6","0.2","0.8","0.4","0.419904672","0.7286216209","0.635388201","0.3492503667","","","","","","","","","","","","","","74","J","1","","","137","main_expt",""
"","bandit","218","672965","0.0-179.0-0.0","03104233","wem/bandit_party_2","A2W547SNOCMC25","either","3","508","","","","","","","0","1","0","","0.7425921641","0.6","0.2","0.8","0.4","0.4532768315","0.7425921641","0.6889508363","0.3315752647","","","","","","","","","","","","","","74","J","1","","","138","main_expt",""
"","bandit","219","675303","0.0-180.0-0.0","03104233","wem/bandit_party_2","A2W547SNOCMC25","either","3","825","","","","","","","0","1","0","","0.7356638012","0.6","0.2","0.8","0.4","0.4194835996","0.7356638012","0.6481427694","0.3080831972","","","","","","","","","","","","","","74","J","1","","","139","main_expt",""
"","bandit","220","677398","0.0-181.0-0.0","03104233","wem/bandit_party_2","A2W547SNOCMC25","either","3","576","","","","","","","0","1","0","","0.7334346803","0.6","0.2","0.8","0.4","0.420008375","0.7334346803","0.6497449761","0.3254670704","","","","","","","","","","","","","","74","J","1","","","140","main_expt",""
"","bandit","221","679894","0.0-182.0-0.0","03104233","wem/bandit_party_2","A2W547SNOCMC25","either","3","978","","","","","","","0","0","1","","0.7737071977","0.6","0.2","0.8","0.4","0.3908595681","0.7737071977","0.7328205829","0.3452870884","","","","","","","","","","","","","","74","J","1","","","141","main_expt",""
"","bandit","222","681965","0.0-183.0-0.0","03104233","wem/bandit_party_2","A2W547SNOCMC25","either","3","551","","","","","","","0","1","0","","0.7912630164","0.6","0.2","0.8","0.4","0.3994278682","0.7912630164","0.6396752577","0.2659846132","","","","","","","","","","","","","","74","J","1","","","142","main_expt",""
"","bandit","223","684987","0.0-184.0-0.0","03104233","wem/bandit_party_2","A2W547SNOCMC25","either","3","1499","","","","","","","0","1","0","","0.7709923268","0.6","0.2","0.8","0.4","0.3137486051","0.7709923268","0.5974809775","0.2549781044","","","","","","","","","","","","","","74","J","1","","","143","main_expt",""
"","bandit","224","687694","0.0-185.0-0.0","03104233","wem/bandit_party_2","A2W547SNOCMC25","either","3","1190","","","","","","","0","1","0","","0.7492848764","0.6","0.2","0.8","0.4","0.3961992406","0.7492848764","0.5953980303","0.3603981418","","","","","","","","","","","","","","74","J","1","","","144","main_expt",""
"","bandit","225","690434","0.0-186.0-0.0","03104233","wem/bandit_party_2","A2W547SNOCMC25","either","3","1223","","","","","","","0","1","0","","0.7343485297","0.6","0.2","0.8","0.4","0.3186856111","0.7343485297","0.6215671736","0.3682949958","","","","","","","","","","","","","","74","J","1","","","145","main_expt",""
"","bandit","226","693268","0.0-187.0-0.0","03104233","wem/bandit_party_2","A2W547SNOCMC25","either","3","1319","","","","","","","0","1","0","","0.7701032705","0.6","0.2","0.8","0.4","0.2724247948","0.7701032705","0.5766937592","0.5028772858","","","","","","","","","","","","","","74","J","1","","","146","main_expt",""
"","bandit","227","695836","0.0-188.0-0.0","03104233","wem/bandit_party_2","A2W547SNOCMC25","either","3","1048","","","","","","","0","1","0","","0.7521601774","0.6","0.2","0.8","0.4","0.2844288079","0.7521601774","0.4600492943","0.4186890645","","","","","","","","","","","","","","74","J","1","","","147","main_expt",""
"","bandit","228","699139","0.0-189.0-0.0","03104233","wem/bandit_party_2","A2W547SNOCMC25","either","3","1780","","","","","","","0","0","1","0.7762143641","","0.6","0.2","0.8","0.4","","","","","0.3095389551","0.7762143641","0.4575448178","0.3928328601","","","","","","","","","","74","J","1","","","148","main_expt",""
"","bandit","229","701251","0.0-190.0-0.0","03104233","wem/bandit_party_2","A2W547SNOCMC25","either","3","591","","","","","","","0","1","0","","0.716016993","0.6","0.2","0.8","0.4","0.2464654743","0.716016993","0.3840278576","0.4220063763","","","","","","","","","","","","","","74","J","1","","","149","main_expt",""
"","bandit","230","703602","0.0-191.0-0.0","03104233","wem/bandit_party_2","A2W547SNOCMC25","either","3","830","","","","","","","0","1","0","","0.7182774931","0.6","0.2","0.8","0.4","0.2088091358","0.7182774931","0.3004406684","0.3206822378","","","","","","","","","","","","","","74","J","1","","","150","main_expt",""
"","bandit","231","706163","0.0-192.0-0.0","03104233","wem/bandit_party_2","A2W547SNOCMC25","either","3","1043","","","","","","","0","1","0","","0.8028216805","0.6","0.2","0.8","0.4","0.2670014618","0.8028216805","0.2769981479","0.3380172956","","","","","","","","","","","","","","74","J","1","","","151","main_expt",""
"","bandit","232","708412","0.0-193.0-0.0","03104233","wem/bandit_party_2","A2W547SNOCMC25","either","3","730","","","","","","","0","1","0","","0.8634692279","0.6","0.2","0.8","0.4","0.3100930243","0.8634692279","0.40565407","0.2461440624","","","","","","","","","","","","","","74","J","1","","","152","main_expt",""
"","bandit","233","710421","0.0-194.0-0.0","03104233","wem/bandit_party_2","A2W547SNOCMC25","either","3","491","","","","","","","1","0","0","0.7719190238","","0.6","0.2","0.8","0.4","","","","","0.3796096158","0.7719190238","0.3829351634","0.1852716423","","","","","","","","","","74","J","1","","","153","main_expt",""
"","bandit","234","712378","0.0-195.0-0.0","03104233","wem/bandit_party_2","A2W547SNOCMC25","either","3","438","","","","","","","1","0","0","0.8343429945","","0.6","0.2","0.8","0.4","","","","","0.2265028128","0.8343429945","0.4912137185","0.1660439368","","","","","","","","","","74","J","1","","","154","main_expt",""
"","bandit","235","715586","0.0-196.0-0.0","03104233","wem/bandit_party_2","A2W547SNOCMC25","either","3","1693","","","","","","","1","0","0","0.7908731232","","0.6","0.2","0.8","0.4","","","","","0.2135741777","0.7908731232","0.5312535156","0.2241607793","","","","","","","","","","74","J","1","","","155","main_expt",""
"","bandit","236","717699","0.0-197.0-0.0","03104233","wem/bandit_party_2","A2W547SNOCMC25","either","3","595","","","","","","","0","0","1","","0.7848911391","0.6","0.2","0.8","0.4","0.1338357519","0.7848911391","0.5747898199","0.1566338899","","","","","","","","","","","","","","74","J","1","","","156","main_expt",""
"","bandit","237","720155","0.0-198.0-0.0","03104233","wem/bandit_party_2","A2W547SNOCMC25","either","3","937","","","","","","","0","1","0","","0.7467155263","0.6","0.2","0.8","0.4","0.1344370697","0.7467155263","0.5948125822","0.1839373886","","","","","","","","","","","","","","74","J","1","","","157","main_expt",""
"","bandit","238","722517","0.0-199.0-0.0","03104233","wem/bandit_party_2","A2W547SNOCMC25","either","3","841","","","","","","","0","1","0","","0.7413618202","0.6","0.2","0.8","0.4","0.1217930933","0.7413618202","0.6533804049","0.155802242","","","","","","","","","","","","","","74","J","1","","","158","main_expt",""
"","bandit","239","725844","0.0-200.0-0.0","03104233","wem/bandit_party_2","A2W547SNOCMC25","either","3","1809","","","","","","","0","0","1","","0.6882043704","0.6","0.2","0.8","0.4","0.08524485746","0.6882043704","0.5777198579","0.2304237345","","","","","","","","","","","","","","74","J","1","","","159","main_expt",""
"","bandit","240","728255","0.0-201.0-0.0","03104233","wem/bandit_party_2","A2W547SNOCMC25","either","3","889","","","","","","","0","0","1","0.7253096401","","0.6","0.2","0.8","0.4","","","","","0.07332219892","0.7253096401","0.6777741118","0.2242026456","","","","","","","","","","74","J","1","","","160","main_expt",""
"","bandit","241","730162","0.0-202.0-0.0","03104233","wem/bandit_party_2","A2W547SNOCMC25","either","3","389","","","","","","","1","0","0","0.6249074267","","0.6","0.2","0.8","0.4","","","","","0.1063489691","0.6989182833","0.6249074267","0.2708915048","","","","","","","","","","75","K","2","","","161","main_expt",""
"","bandit","242","732867","0.0-203.0-0.0","03104233","wem/bandit_party_2","A2W547SNOCMC25","either","3","1187","","","","","","","0","0","1","","0.6755041601","0.6","0.2","0.8","0.4","0.09670310095","0.7679575172","0.6755041601","0.2921592604","","","","","","","","","","","","","","75","K","2","","","162","main_expt",""
"","bandit","243","735042","0.0-204.0-0.0","03104233","wem/bandit_party_2","A2W547SNOCMC25","either","3","659","","","","","","","0","0","1","0.6461818487","","0.6","0.2","0.8","0.4","","","","","0.1266359811","0.6877390752","0.6461818487","0.2050535257","","","","","","","","","","75","K","2","","","163","main_expt",""
"","bandit","244","738029","0.0-205.0-0.0","03104233","wem/bandit_party_2","A2W547SNOCMC25","either","3","1464","","","","","","","0","0","1","","0.76368027","0.6","0.2","0.8","0.4","0.1212611996","0.6957575266","0.76368027","0.1998759094","","","","","","","","","","","","","","75","K","2","","","164","main_expt",""
"","bandit","245","740203","0.0-206.0-0.0","03104233","wem/bandit_party_2","A2W547SNOCMC25","either","3","656","","","","","","","1","0","0","0.8400099296","","0.6","0.2","0.8","0.4","","","","","0.1917887173","0.6760148625","0.8400099296","0.1821974317","","","","","","","","","","75","K","2","","","165","main_expt",""
"","bandit","246","743445","0.0-207.0-0.0","03104233","wem/bandit_party_2","A2W547SNOCMC25","either","3","1713","","","","","","","1","0","0","0.8573275969","","0.6","0.2","0.8","0.4","","","","","0.1560613016","0.6463317238","0.8573275969","0.2916844583","","","","","","","","","","75","K","2","","","166","main_expt",""
"","bandit","247","746612","0.0-208.0-0.0","03104233","wem/bandit_party_2","A2W547SNOCMC25","either","3","1648","","","","","","","1","0","0","0.7735369509","","0.6","0.2","0.8","0.4","","","","","0.2214887095","0.5613055562","0.7735369509","0.3087465624","","","","","","","","","","75","K","2","","","167","main_expt",""
"","bandit","248","749924","0.0-209.0-0.0","03104233","wem/bandit_party_2","A2W547SNOCMC25","either","3","1794","","","","","","","0","1","0","","0.8091314607","0.6","0.2","0.8","0.4","0.3463453368","0.5586162784","0.8091314607","0.3896626528","","","","","","","","","","","","","","75","K","2","","","168","main_expt",""
"","bandit","249","752181","0.0-210.0-0.0","03104233","wem/bandit_party_2","A2W547SNOCMC25","either","3","737","","","","","","","1","0","0","0.8364166478","","0.6","0.2","0.8","0.4","","","","","0.3222551453","0.597448185","0.8364166478","0.4458805252","","","","","","","","","","75","K","2","","","169","main_expt",""
"","bandit","250","755892","0.0-211.0-0.0","03104233","wem/bandit_party_2","A2W547SNOCMC25","either","3","2195","","","","","","","1","0","0","0.7867883415","","0.6","0.2","0.8","0.4","","","","","0.2556410415","0.5351242352","0.7867883415","0.4844269655","","","","","","","","","","75","K","2","","","170","main_expt",""
"","bandit","251","758889","0.0-212.0-0.0","03104233","wem/bandit_party_2","A2W547SNOCMC25","either","3","1486","","","","","","","1","0","0","0.8728822524","","0.6","0.2","0.8","0.4","","","","","0.2248109201","0.4819966971","0.8728822524","0.4858642724","","","","","","","","","","75","K","2","","","171","main_expt",""
"","bandit","252","760593","0.0-213.0-0.0","03104233","wem/bandit_party_2","A2W547SNOCMC25","either","3","189","","","","","","","0","1","0","","0.7804912391","0.6","0.2","0.8","0.4","0.3468742366","0.4038669266","0.7804912391","0.5060245996","","","","","","","","","","","","","","75","K","2","","","172","main_expt",""
"","bandit","253","764093","0.0-214.0-0.0","03104233","wem/bandit_party_2","A2W547SNOCMC25","either","3","1982","","","","","","","1","0","0","0.7728490534","","0.6","0.2","0.8","0.4","","","","","0.234408543","0.3102533384","0.7728490534","0.5413528159","","","","","","","","","","75","K","2","","","173","main_expt",""
"","bandit","254","767140","0.0-215.0-0.0","03104233","wem/bandit_party_2","A2W547SNOCMC25","either","3","1527","","","","","","","1","0","0","0.814185781","","0.6","0.2","0.8","0.4","","","","","0.1404050277","0.3818943333","0.814185781","0.6505326818","","","","","","","","","","75","K","2","","","174","main_expt",""
"","bandit","255","769394","0.0-216.0-0.0","03104233","wem/bandit_party_2","A2W547SNOCMC25","either","3","731","","","","","","","1","0","0","0.8010682597","","0.6","0.2","0.8","0.4","","","","","0.1081611795","0.2893198216","0.8010682597","0.6470977149","","","","","","","","","","75","K","2","","","175","main_expt",""
"","bandit","256","770963","0.0-217.0-0.0","03104233","wem/bandit_party_2","A2W547SNOCMC25","either","3","50","","","","","","","0","1","0","","0.7083228223","0.6","0.2","0.8","0.4","0.0730283124","0.226416223","0.7083228223","0.6844229635","","","","","","","","","","","","","","75","K","2","","","176","main_expt",""
"","bandit","257","773204","0.0-218.0-0.0","03104233","wem/bandit_party_2","A2W547SNOCMC25","either","3","725","","","","","","","1","0","0","0.7408938443","","0.6","0.2","0.8","0.4","","","","","0.07044941978","0.2786676386","0.7408938443","0.6883244284","","","","","","","","","","75","K","2","","","177","main_expt",""
"","bandit","258","775540","0.0-219.0-0.0","03104233","wem/bandit_party_2","A2W547SNOCMC25","either","3","814","","","","","","","0","0","1","0.6621187214","","0.6","0.2","0.8","0.4","","","","","0.06886985111","0.2279078815","0.6621187214","0.6098590842","","","","","","","","","","75","K","2","","","178","main_expt",""
"","bandit","259","777405","0.0-220.0-0.0","03104233","wem/bandit_party_2","A2W547SNOCMC25","either","3","345","","","","","","","0","0","1","0.6765487854","","0.6","0.2","0.8","0.4","","","","","0.07254371148","0.1690126781","0.6765487854","0.5924449164","","","","","","","","","","75","K","2","","","179","main_expt",""
"","bandit","260","779287","0.0-221.0-0.0","03104233","wem/bandit_party_2","A2W547SNOCMC25","either","3","365","","","","","","","1","0","0","0.7276027883","","0.6","0.2","0.8","0.4","","","","","0.055057054","0.1356066944","0.7276027883","0.4915111467","","","","","","","","","","75","K","2","","","180","main_expt",""
"","bandit","261","781580","0.0-222.0-0.0","03104233","wem/bandit_party_2","A2W547SNOCMC25","either","3","778","","","","","","","1","0","0","0.7083410305","","0.6","0.2","0.8","0.4","","","","","0.1187845962","0.1889441784","0.7083410305","0.4713933083","","","","","","","","","","75","K","2","","","181","main_expt",""
"","bandit","262","783881","0.0-223.0-0.0","03104233","wem/bandit_party_2","A2W547SNOCMC25","either","3","783","","","","","","","1","0","0","0.6489729838","","0.6","0.2","0.8","0.4","","","","","0.1304227184","0.2163976064","0.6489729838","0.500114893","","","","","","","","","","75","K","2","","","182","main_expt",""
"","bandit","263","786531","0.0-224.0-0.0","03104233","wem/bandit_party_2","A2W547SNOCMC25","either","3","1129","","","","","","","0","0","1","","0.6956751073","0.6","0.2","0.8","0.4","0.1374638341","0.1902524086","0.6956751073","0.4949273894","","","","","","","","","","","","","","75","K","2","","","183","main_expt",""
"","bandit","264","789580","0.0-225.0-0.0","03104233","wem/bandit_party_2","A2W547SNOCMC25","either","3","1527","","","","","","","1","0","0","0.6066537109","","0.6","0.2","0.8","0.4","","","","","0.1914365344","0.2265805791","0.6066537109","0.4271361476","","","","","","","","","","75","K","2","","","184","main_expt",""
"","bandit","265","792212","0.0-226.0-0.0","03104233","wem/bandit_party_2","A2W547SNOCMC25","either","3","1112","","","","","","","0","0","1","0.6337362372","","0.6","0.2","0.8","0.4","","","","","0.1939872458","0.1843452782","0.6337362372","0.4558255176","","","","","","","","","","75","K","2","","","185","main_expt",""
"","bandit","266","794483","0.0-227.0-0.0","03104233","wem/bandit_party_2","A2W547SNOCMC25","either","3","751","","","","","","","0","0","1","","0.5908962551","0.6","0.2","0.8","0.4","0.2219937035","0.1898387663","0.5908962551","0.4031301461","","","","","","","","","","","","","","75","K","2","","","186","main_expt",""
"","bandit","267","797362","0.0-228.0-0.0","03104233","wem/bandit_party_2","A2W547SNOCMC25","either","3","1361","","","","","","","0","0","1","0.3993697366","","0.6","0.2","0.8","0.4","","","","","0.2024523472","0.210498268","0.7651761031","0.3993697366","","","","","","","","","","76","L","3","","","187","main_expt",""
"","bandit","268","799547","0.0-229.0-0.0","03104233","wem/bandit_party_2","A2W547SNOCMC25","either","3","665","","","","","","","0","0","1","","0.4478687375","0.6","0.2","0.8","0.4","0.1930401344","0.2368649008","0.7928336054","0.4478687375","","","","","","","","","","","","","","76","L","3","","","188","main_expt",""
"","bandit","269","801162","0.0-230.0-0.0","03104233","wem/bandit_party_2","A2W547SNOCMC25","either","3","97","","","","","","","0","0","1","","0.291591963","0.6","0.2","0.8","0.4","0.3255404916","0.291591963","0.8917358491","0.3699601256","","","","","","","","","","","","","","74","J","1","","","189","main_expt",""
"","bandit","270","802915","0.0-231.0-0.0","03104233","wem/bandit_party_2","A2W547SNOCMC25","either","3","234","","","","","","","0","0","1","","0.4411779124","0.6","0.2","0.8","0.4","0.2364063212","0.4411779124","0.898448025","0.3723251068","","","","","","","","","","","","","","74","J","1","","","190","main_expt",""
"","bandit","271","804586","0.0-232.0-0.0","03104233","wem/bandit_party_2","A2W547SNOCMC25","either","3","152","","","","","","","0","0","1","0.2662767285","","0.6","0.2","0.8","0.4","","","","","0.2662767285","0.3968704403","0.9186708851","0.3309849287","","","","","","","","","","72","H","0","img/none_selected.jpg","","191","main_expt",""
"","bandit","272","806522","0.0-233.0-0.0","03104233","wem/bandit_party_2","A2W547SNOCMC25","either","3","414","","","","","","","0","0","1","","0.2815174114","0.6","0.2","0.8","0.4","0.2815174114","0.4512817608","0.9314477517","0.2865625263","","","","","","","","","","","","","","72","H","0","img/none_selected.jpg","","192","main_expt",""
"","bandit","273","808430","0.0-234.0-0.0","03104233","wem/bandit_party_2","A2W547SNOCMC25","either","3","382","","","","","","","0","0","1","0.3461293965","","0.6","0.2","0.8","0.4","","","","","0.3461293965","0.4788006455","0.9090465067","0.2862811746","","","","","","","","","","72","H","0","img/none_selected.jpg","","193","main_expt",""
"","bandit","274","810258","0.0-235.0-0.0","03104233","wem/bandit_party_2","A2W547SNOCMC25","either","3","315","","","","","","","1","0","0","0.4651889587","","0.6","0.2","0.8","0.4","","","","","0.3303735913","0.4651889587","0.8762249788","0.2785288642","","","","","","","","","","74","J","1","","","194","main_expt",""
"","bandit","275","812185","0.0-236.0-0.0","03104233","wem/bandit_party_2","A2W547SNOCMC25","either","3","406","","","","","","","0","1","0","","0.4718629942","0.6","0.2","0.8","0.4","0.3194565039","0.4718629942","0.8623185747","0.2283941808","","","","","","","","","","","","","","74","J","1","","","195","main_expt",""
"","bandit","276","814363","0.0-237.0-0.0","03104233","wem/bandit_party_2","A2W547SNOCMC25","either","3","663","","","","","","","1","0","0","0.3825708332","","0.6","0.2","0.8","0.4","","","","","0.4103944464","0.3825708332","0.7745977574","0.214282227","","","","","","","","","","74","J","1","","","196","main_expt",""
"","bandit","277","816427","0.0-238.0-0.0","03104233","wem/bandit_party_2","A2W547SNOCMC25","either","3","541","","","","","","","0","0","1","","0.4530864699","0.6","0.2","0.8","0.4","0.4445726534","0.4530864699","0.7723069829","0.1422959513","","","","","","","","","","","","","","74","J","1","","","197","main_expt",""
"","bandit","278","818779","0.0-239.0-0.0","03104233","wem/bandit_party_2","A2W547SNOCMC25","either","3","830","","","","","","","0","0","1","","0.4337652667","0.6","0.2","0.8","0.4","0.4351718099","0.4337652667","0.7084082875","0.1126324943","","","","","","","","","","","","","","74","J","1","","","198","main_expt",""
"","bandit","279","821195","0.0-240.0-0.0","03104233","wem/bandit_party_2","A2W547SNOCMC25","either","3","894","","","","","","","0","1","0","","0.4138332966","0.6","0.2","0.8","0.4","0.4641294157","0.4138332966","0.7016883558","0.1144166609","","","","","","","","","","","","","","74","J","1","","","199","main_expt",""
"","bandit","280","824744","0.0-241.0-0.0","03104233","wem/bandit_party_2","A2W547SNOCMC25","either","3","2020","","","","","","","0","0","1","0.5005175686","","0.6","0.2","0.8","0.4","","","","","0.4468687069","0.5005175686","0.6504384346","0.1518003708","","","","","","","","","","74","J","1","","","200","main_expt",""
"","bandit","281","826794","0.0-242.0-0.0","03104233","wem/bandit_party_2","A2W547SNOCMC25","either","3","527","","","","","","","0","0","1","0.5122642399","","0.6","0.2","0.8","0.4","","","","","0.5087435212","0.5122642399","0.7904945102","0.1974433607","","","","","","","","","","74","J","1","","","201","main_expt",""
"","bandit","282","828586","0.0-243.0-0.0","03104233","wem/bandit_party_2","A2W547SNOCMC25","either","3","268","","","","","","","1","0","0","0.7039472437","","0.6","0.2","0.8","0.4","","","","","0.4992132835","0.5414597976","0.7039472437","0.2000842809","","","","","","","","","","75","K","2","","","202","main_expt",""
"","bandit","283","830506","0.0-244.0-0.0","03104233","wem/bandit_party_2","A2W547SNOCMC25","either","3","396","","","","","","","1","0","0","0.7478807213","","0.6","0.2","0.8","0.4","","","","","0.4859842053","0.4993649945","0.7478807213","0.1715580826","","","","","","","","","","75","K","2","","","203","main_expt",""
"","bandit","284","832713","0.0-245.0-0.0","03104233","wem/bandit_party_2","A2W547SNOCMC25","either","3","685","","","","","","","1","0","0","0.7346150791","","0.6","0.2","0.8","0.4","","","","","0.6162755314","0.4056752737","0.7346150791","0.3028604286","","","","","","","","","","75","K","2","","","204","main_expt",""
"","bandit","285","835243","0.0-246.0-0.0","03104233","wem/bandit_party_2","A2W547SNOCMC25","either","3","1009","","","","","","","1","0","0","0.7240623961","","0.6","0.2","0.8","0.4","","","","","0.6204906845","0.4174768156","0.7240623961","0.3714949669","","","","","","","","","","75","K","2","","","205","main_expt",""
"","bandit","286","837433","0.0-247.0-0.0","03104233","wem/bandit_party_2","A2W547SNOCMC25","either","3","669","","","","","","","0","0","1","","0.733657826","0.6","0.2","0.8","0.4","0.6390595606","0.4364097613","0.733657826","0.3034865557","","","","","","","","","","","","","","75","K","2","","","206","main_expt",""
"","bandit","287","839336","0.0-248.0-0.0","03104233","wem/bandit_party_2","A2W547SNOCMC25","either","3","385","","","","","","","1","0","0","0.6797091947","","0.6","0.2","0.8","0.4","","","","","0.6022157482","0.4666062126","0.6797091947","0.2688105372","","","","","","","","","","75","K","2","","","207","main_expt",""
"","bandit","288","842036","0.0-249.0-0.0","03104233","wem/bandit_party_2","A2W547SNOCMC25","either","3","1181","","","","","","","1","0","0","0.472157919","","0.6","0.2","0.8","0.4","","","","","0.6598502583","0.4594719295","0.472157919","0.2240001326","","","","","","","","","","75","K","2","","","208","main_expt",""
"","bandit","289","844210","0.0-250.0-0.0","03104233","wem/bandit_party_2","A2W547SNOCMC25","either","3","653","","","","","","","0","0","1","0.4993955773","","0.6","0.2","0.8","0.4","","","","","0.6329069529","0.5415101973","0.4993955773","0.3284172364","","","","","","","","","","75","K","2","","","209","main_expt",""
"","bandit","290","846196","0.0-251.0-0.0","03104233","wem/bandit_party_2","A2W547SNOCMC25","either","3","465","","","","","","","0","0","1","0.3923888982","","0.6","0.2","0.8","0.4","","","","","0.5418549626","0.5627952802","0.3923888982","0.3178667136","","","","","","","","","","75","K","2","","","210","main_expt",""
"","bandit","291","847985","0.0-252.0-0.0","03104233","wem/bandit_party_2","A2W547SNOCMC25","either","3","267","","","","","","","0","1","0","","0.4183885941","0.6","0.2","0.8","0.4","0.7265410197","0.5779033475","0.4183885941","0.278360526","","","","","","","","","","","","","","75","K","2","","","211","main_expt",""
"","bandit","292","849881","0.0-253.0-0.0","03104233","wem/bandit_party_2","A2W547SNOCMC25","either","3","373","","","","","","","0","0","1","0.5367383083","","0.6","0.2","0.8","0.4","","","","","0.6550819281","0.6169713091","0.5367383083","0.2720231684","","","","","","","","","","75","K","2","","","212","main_expt",""
"","bandit","293","852259","0.0-254.0-0.0","03104233","wem/bandit_party_2","A2W547SNOCMC25","either","3","864","","","","","","","0","1","0","","0.5779451767","0.6","0.2","0.8","0.4","0.5812500281","0.5688165975","0.5779451767","0.3445332441","","","","","","","","","","","","","","75","K","2","","","213","main_expt",""
"","bandit","294","855444","0.0-255.0-0.0","03104233","wem/bandit_party_2","A2W547SNOCMC25","either","3","1661","","","","","","","0","0","1","0.5615700258","","0.6","0.2","0.8","0.4","","","","","0.6912727382","0.5354690829","0.5615700258","0.331154659","","","","","","","","","","75","K","2","","","214","main_expt",""
"","bandit","295","857278","0.0-256.0-0.0","03104233","wem/bandit_party_2","A2W547SNOCMC25","either","3","312","","","","","","","0","1","0","","0.5361399643","0.6","0.2","0.8","0.4","0.695573978","0.4395706401","0.5361399643","0.3168016653","","","","","","","","","","","","","","75","K","2","","","215","main_expt",""
"","bandit","296","859730","0.0-257.0-0.0","03104233","wem/bandit_party_2","A2W547SNOCMC25","either","3","932","","","","","","","1","0","0","0.620750855","","0.6","0.2","0.8","0.4","","","","","0.6531454011","0.4522294324","0.620750855","0.2870858596","","","","","","","","","","75","K","2","","","216","main_expt",""
"","bandit","297","862704","0.0-258.0-0.0","03104233","wem/bandit_party_2","A2W547SNOCMC25","either","3","1454","","","","","","","1","0","0","0.4812239037","","0.6","0.2","0.8","0.4","","","","","0.6459690495","0.4141575353","0.4812239037","0.2877345098","","","","","","","","","","75","K","2","","","217","main_expt",""
"","bandit","298","867563","0.0-259.0-0.0","03104233","wem/bandit_party_2","A2W547SNOCMC25","either","3","3336","","","","","","","1","0","0","0.4028497994","","0.6","0.2","0.8","0.4","","","","","0.6679944541","0.3009722504","0.4028497994","0.3608492067","","","","","","","","","","75","K","2","","","218","main_expt",""
"","bandit","299","870360","0.0-260.0-0.0","03104233","wem/bandit_party_2","A2W547SNOCMC25","either","3","1280","","","","","","","0","0","1","0.4441021312","","0.6","0.2","0.8","0.4","","","","","0.7159195147","0.2706893249","0.4441021312","0.4380407461","","","","","","","","","","75","K","2","","","219","main_expt",""
"","bandit","300","873704","0.0-261.0-0.0","03104233","wem/bandit_party_2","A2W547SNOCMC25","either","3","1826","","","","","","","0","0","1","0.4867825248","","0.6","0.2","0.8","0.4","","","","","0.6874484601","0.3821277721","0.4867825248","0.4769938592","","","","","","","","","","75","K","2","","","220","main_expt",""
"","bandit","301","876196","0.0-262.0-0.0","03104233","wem/bandit_party_2","A2W547SNOCMC25","either","3","970","","","","","","","1","0","0","0.5428062785","","0.6","0.2","0.8","0.4","","","","","0.6528128226","0.4534214389","0.5428062785","0.4612627877","","","","","","","","","","75","K","2","","","221","main_expt",""
"","bandit","302","878899","0.0-263.0-0.0","03104233","wem/bandit_party_2","A2W547SNOCMC25","either","3","1173","","","","","","","1","0","0","0.5993321864","","0.6","0.2","0.8","0.4","","","","","0.6836467719","0.6049712458","0.5993321864","0.4192901336","","","","","","","","","","75","K","2","","","222","main_expt",""
"","bandit","303","881809","0.0-264.0-0.0","03104233","wem/bandit_party_2","A2W547SNOCMC25","either","3","1388","","","","","","","0","0","1","0.4920604154","","0.6","0.2","0.8","0.4","","","","","0.7820879334","0.6389506418","0.4920604154","0.5559965486","","","","","","","","","","75","K","2","","","223","main_expt",""
"","bandit","304","884720","0.0-265.0-0.0","03104233","wem/bandit_party_2","A2W547SNOCMC25","either","3","1390","","","","","","","1","0","0","0.5344282052","","0.6","0.2","0.8","0.4","","","","","0.763226653","0.6677375732","0.5344282052","0.6687933923","","","","","","","","","","75","K","2","","","224","main_expt",""
"","bandit","305","887706","0.0-266.0-0.0","03104233","wem/bandit_party_2","A2W547SNOCMC25","either","3","1469","","","","","","","1","0","0","0.5583452501","","0.6","0.2","0.8","0.4","","","","","0.6931961842","0.7706853934","0.5583452501","0.5954484576","","","","","","","","","","75","K","2","","","225","main_expt",""
"","bandit","306","891708","0.0-267.0-0.0","03104233","wem/bandit_party_2","A2W547SNOCMC25","either","3","2479","","","","","","","1","0","0","0.5126042404","","0.6","0.2","0.8","0.4","","","","","0.6633974694","0.7624197083","0.5126042404","0.6152447968","","","","","","","","","","75","K","2","","","226","main_expt",""
"","bandit","307","895786","0.0-268.0-0.0","03104233","wem/bandit_party_2","A2W547SNOCMC25","either","3","2564","","","","","","","0","1","0","","0.5720595628","0.6","0.2","0.8","0.4","0.6567175756","0.7287840805","0.5720595628","0.6597553912","","","","","","","","","","","","","","75","K","2","","","227","main_expt",""
"","bandit","308","898108","0.0-269.0-0.0","03104233","wem/bandit_party_2","A2W547SNOCMC25","either","3","795","","","","","","","1","0","0","0.6134710885","","0.6","0.2","0.8","0.4","","","","","0.6052730858","0.7993891034","0.6134710885","0.594895186","","","","","","","","","","75","K","2","","","228","main_expt",""
"","bandit","309","900305","0.0-270.0-0.0","03104233","wem/bandit_party_2","A2W547SNOCMC25","either","3","676","","","","","","","0","1","0","","0.5669106804","0.6","0.2","0.8","0.4","0.5548990383","0.8374027748","0.5669106804","0.5722559027","","","","","","","","","","","","","","75","K","2","","","229","main_expt",""
"","bandit","310","902779","0.0-271.0-0.0","03104233","wem/bandit_party_2","A2W547SNOCMC25","either","3","953","","","","","","","1","0","0","0.6286782819","","0.6","0.2","0.8","0.4","","","","","0.6017114108","0.8414873787","0.6286782819","0.5409090622","","","","","","","","","","75","K","2","","","230","main_expt",""
"","bandit","311","905770","0.0-272.0-0.0","03104233","wem/bandit_party_2","A2W547SNOCMC25","either","3","1468","","","","","","","1","0","0","0.5594948871","","0.6","0.2","0.8","0.4","","","","","0.5525336349","0.8531648874","0.5594948871","0.518727512","","","","","","","","","","75","K","2","","","231","main_expt",""
"","bandit","312","909009","0.0-273.0-0.0","03104233","wem/bandit_party_2","A2W547SNOCMC25","either","3","1717","","","","","","","1","0","0","0.5817998964","","0.6","0.2","0.8","0.4","","","","","0.4493361955","0.8813812612","0.5817998964","0.5200298571","","","","","","","","","","75","K","2","","","232","main_expt",""
"","bandit","313","911784","0.0-274.0-0.0","03104233","wem/bandit_party_2","A2W547SNOCMC25","either","3","1260","","","","","","","1","0","0","0.5971875981","","0.6","0.2","0.8","0.4","","","","","0.5280832246","0.8916766345","0.5971875981","0.4564343731","","","","","","","","","","75","K","2","","","233","main_expt",""
"","bandit","314","914266","0.0-275.0-0.0","03104233","wem/bandit_party_2","A2W547SNOCMC25","either","3","959","","","","","","","0","0","1","0.5227237997","","0.6","0.2","0.8","0.4","","","","","0.6814540918","0.842820862","0.5227237997","0.4168065644","","","","","","","","","","75","K","2","","","234","main_expt",""
"","bandit","315","917470","0.0-276.0-0.0","03104233","wem/bandit_party_2","A2W547SNOCMC25","either","3","1679","","","","","","","1","0","0","0.6231997156","","0.6","0.2","0.8","0.4","","","","","0.5518959403","0.7856269381","0.6231997156","0.4340770274","","","","","","","","","","75","K","2","","","235","main_expt",""
"","bandit","316","920402","0.0-277.0-0.0","03104233","wem/bandit_party_2","A2W547SNOCMC25","either","3","1409","","","","","","","1","0","0","0.558272317","","0.6","0.2","0.8","0.4","","","","","0.4965619817","0.8092971262","0.558272317","0.4489205242","","","","","","","","","","75","K","2","","","236","main_expt",""
