"consent","trial_type","trial_index","time_elapsed","internal_node_id","subjID","study","MID","cond","drift","rt","responses","button_pressed","key_press","like","value","connected","gems","bombs","no_reward","GemPrChosen","BombPrChosen","GainOverPainPr_0","GainOverPainPr_1","GainOverPainPr_2","GainOverPainPr_3","LosePr_0","LosePr_1","LosePr_2","LosePr_3","WinPr_0","WinPr_1","WinPr_2","WinPr_3","Q0","Q1","Q2","gender","age","ethnicity","label","expt_phase","target","respCharCode","respKey","respChoiceNum","respChoice","practice","trial_counter","trial_label","Q0_index","view_history"
"GDM/GDM_behavioral_consent_30min_online.html","consent","0","6790","0.0-0.0","03236347","wem/bandit_party_2","A4ZW4GNQ98HV6","either","5","","","","","","","","","","","","","","","","","","","","","","","","","","","","","","","","","","","","","","","","","",""
"","survey-text","1","10998","0.0-1.0","03236347","wem/bandit_party_2","A4ZW4GNQ98HV6","either","5","3201","{""Q0"":""A4ZW4GNQ98HV6""}","","","","","","","","","","","","","","","","","","","","","","","","","","","","","","","","","","","","","","","",""
"","button-response","2","13189","0.0-2.0","03236347","wem/bandit_party_2","A4ZW4GNQ98HV6","either","5","1185","","1","","","","","","","","","","","","","","","","","","","","","","","","","","","","","","","","","","","","","","",""
"","text-replacement","3","24105","0.0-3.0","03236347","wem/bandit_party_2","A4ZW4GNQ98HV6","either","5","9911","","","32","","","","","","","","","","","","","","","","","","","","","","","","","","","","","","","","","","","","","",""
"","text-replacement","4","31745","0.0-4.0","03236347","wem/bandit_party_2","A4ZW4GNQ98HV6","either","5","7637","","","32","","","","","","","","","","","","","","","","","","","","","","","","","","","","","","","","","","","","","",""
"","identification","5","37982","0.0-6.0-0.0","03236347","wem/bandit_party_2","A4ZW4GNQ98HV6","either","5","6216","","","","3","3","3","","","","","","","","","","","","","","","","","","","","","","","","pre","identification_pre","the Democratic Party","","","","","","","","",""
"","identification","6","41794","0.0-6.0-1.0","03236347","wem/bandit_party_2","A4ZW4GNQ98HV6","either","5","2789","","","","0","0","0","","","","","","","","","","","","","","","","","","","","","","","","pre","identification_pre","the Republican Party","","","","","","","","",""
"","text-replacement","7","47892","0.0-7.0","03236347","wem/bandit_party_2","A4ZW4GNQ98HV6","either","5","5095","","","32","","","","","","","","","","","","","","","","","","","","","","","","","","","","","","","","","","","","","",""
"","text-replacement","8","51735","0.0-8.0","03236347","wem/bandit_party_2","A4ZW4GNQ98HV6","either","5","3840","","","32","","","","","","","","","","","","","","","","","","","","","","","","","","","","","","","","","","","","","",""
"","text-replacement","9","67228","0.0-9.0","03236347","wem/bandit_party_2","A4ZW4GNQ98HV6","either","5","15488","","","32","","","","","","","","","","","","","","","","","","","","","","","","","","","","","","","","","","","","","",""
"","text-replacement","10","70305","0.0-10.0","03236347","wem/bandit_party_2","A4ZW4GNQ98HV6","either","5","3074","","","32","","","","","","","","","","","","","","","","","","","","","","","","","","","","","","","","","","","","","",""
"","text-replacement","11","74741","0.0-11.0","03236347","wem/bandit_party_2","A4ZW4GNQ98HV6","either","5","4434","","","32","","","","","","","","","","","","","","","","","","","","","","","","","","","","","","","","","","","","","",""
"","bandit","12","77467","0.0-12.0-0.0","03236347","wem/bandit_party_2","A4ZW4GNQ98HV6","either","5","1217","","","","","","","0","0","1","0","0","","","","","0","","","","0","","","","","","","","","","","","","74","J","0","img/none_selected_demo.jpg","true","0","","",""
"","bandit","13","81179","0.0-13.0-0.0","03236347","wem/bandit_party_2","A4ZW4GNQ98HV6","either","5","2205","","","","","","","0","0","1","0","0","","","","","0","","","","0","","","","","","","","","","","","","75","K","0","img/none_selected_demo.jpg","true","0","","",""
"","text-replacement","14","84976","0.0-14.0","03236347","wem/bandit_party_2","A4ZW4GNQ98HV6","either","5","3793","","","32","","","","","","","","","","","","","","","","","","","","","","","","","","","","","","","","","","","","","",""
"","text-replacement","15","88708","0.0-15.0","03236347","wem/bandit_party_2","A4ZW4GNQ98HV6","either","5","3729","","","32","","","","","","","","","","","","","","","","","","","","","","","","","","","","","","","","","","","","","",""
"","text-replacement","16","91546","0.0-16.0","03236347","wem/bandit_party_2","A4ZW4GNQ98HV6","either","5","2835","","","32","","","","","","","","","","","","","","","","","","","","","","","","","","","","","","","","","","","","","",""
"","text-replacement","17","94040","0.0-17.0","03236347","wem/bandit_party_2","A4ZW4GNQ98HV6","either","5","2491","","","32","","","","","","","","","","","","","","","","","","","","","","","","","","","","","","","","","","","","","",""
"","bandit","18","96144","0.0-18.0-0.0","03236347","wem/bandit_party_2","A4ZW4GNQ98HV6","either","5","595","","","","","","","0","0","1","0.8","","0.5","0.5","","","","","","","0.8","0.2","","","","","","","","","","","","74","J","0","img/none_selected_demo.jpg","true","0","80_20_practice","",""
"","bandit","19","98000","0.0-18.0-1.0","03236347","wem/bandit_party_2","A4ZW4GNQ98HV6","either","5","345","","","","","","","1","0","0","0.8","","0.5","0.5","","","","","","","0.8","0.2","","","","","","","","","","","","74","J","0","img/none_selected_demo.jpg","true","0","80_20_practice","",""
"","bandit","20","99672","0.0-18.0-2.0","03236347","wem/bandit_party_2","A4ZW4GNQ98HV6","either","5","163","","","","","","","0","1","0","","0.8","0.5","0.5","","","0.8","0.2","","","","","","","","","","","","","","","","74","J","0","img/none_selected_demo.jpg","true","0","80_20_practice","",""
"","bandit","21","101330","0.0-18.0-3.0","03236347","wem/bandit_party_2","A4ZW4GNQ98HV6","either","5","147","","","","","","","0","0","1","","0.8","0.5","0.5","","","0.8","0.2","","","","","","","","","","","","","","","","74","J","0","img/none_selected_demo.jpg","true","0","80_20_practice","",""
"","bandit","22","103127","0.0-18.0-4.0","03236347","wem/bandit_party_2","A4ZW4GNQ98HV6","either","5","287","","","","","","","0","0","1","","0.2","0.5","0.5","","","0.8","0.2","","","","","","","","","","","","","","","","75","K","1","","true","0","80_20_practice","",""
"","bandit","23","105066","0.0-18.0-5.0","03236347","wem/bandit_party_2","A4ZW4GNQ98HV6","either","5","432","","","","","","","0","0","1","","0.2","0.5","0.5","","","0.8","0.2","","","","","","","","","","","","","","","","75","K","1","","true","0","80_20_practice","",""
"","bandit","24","106888","0.0-18.0-6.0","03236347","wem/bandit_party_2","A4ZW4GNQ98HV6","either","5","316","","","","","","","0","1","0","","0.8","0.5","0.5","","","0.8","0.2","","","","","","","","","","","","","","","","74","J","0","img/none_selected_demo.jpg","true","0","80_20_practice","",""
"","bandit","25","108658","0.0-18.0-7.0","03236347","wem/bandit_party_2","A4ZW4GNQ98HV6","either","5","263","","","","","","","0","0","1","0.2","","0.5","0.5","","","","","","","0.8","0.2","","","","","","","","","","","","75","K","1","","true","0","80_20_practice","",""
"","bandit","26","110412","0.0-18.0-8.0","03236347","wem/bandit_party_2","A4ZW4GNQ98HV6","either","5","247","","","","","","","0","1","0","","0.8","0.5","0.5","","","0.8","0.2","","","","","","","","","","","","","","","","74","J","0","img/none_selected_demo.jpg","true","0","80_20_practice","",""
"","bandit","27","112068","0.0-18.0-9.0","03236347","wem/bandit_party_2","A4ZW4GNQ98HV6","either","5","146","","","","","","","0","1","0","","0.8","0.5","0.5","","","0.8","0.2","","","","","","","","","","","","","","","","74","J","0","img/none_selected_demo.jpg","true","0","80_20_practice","",""
"","bandit","28","113834","0.0-18.0-10.0","03236347","wem/bandit_party_2","A4ZW4GNQ98HV6","either","5","228","","","","","","","0","1","0","","0.8","0.5","0.5","","","0.8","0.2","","","","","","","","","","","","","","","","74","J","0","img/none_selected_demo.jpg","true","0","80_20_practice","",""
"","bandit","29","115592","0.0-18.0-11.0","03236347","wem/bandit_party_2","A4ZW4GNQ98HV6","either","5","250","","","","","","","1","0","0","0.8","","0.5","0.5","","","","","","","0.8","0.2","","","","","","","","","","","","74","J","0","img/none_selected_demo.jpg","true","0","80_20_practice","",""
"","bandit","30","117269","0.0-18.0-12.0","03236347","wem/bandit_party_2","A4ZW4GNQ98HV6","either","5","169","","","","","","","1","0","0","0.8","","0.5","0.5","","","","","","","0.8","0.2","","","","","","","","","","","","74","J","0","img/none_selected_demo.jpg","true","0","80_20_practice","",""
"","bandit","31","118933","0.0-18.0-13.0","03236347","wem/bandit_party_2","A4ZW4GNQ98HV6","either","5","158","","","","","","","1","0","0","0.8","","0.5","0.5","","","","","","","0.8","0.2","","","","","","","","","","","","74","J","0","img/none_selected_demo.jpg","true","0","80_20_practice","",""
"","bandit","32","120498","0.0-18.0-14.0","03236347","wem/bandit_party_2","A4ZW4GNQ98HV6","either","5","56","","","","","","","1","0","0","0.8","","0.5","0.5","","","","","","","0.8","0.2","","","","","","","","","","","","74","J","0","img/none_selected_demo.jpg","true","0","80_20_practice","",""
"","bandit","33","122178","0.0-18.0-15.0","03236347","wem/bandit_party_2","A4ZW4GNQ98HV6","either","5","172","","","","","","","0","0","1","0.8","","0.5","0.5","","","","","","","0.8","0.2","","","","","","","","","","","","74","J","0","img/none_selected_demo.jpg","true","0","80_20_practice","",""
"","bandit","34","123866","0.0-18.0-16.0","03236347","wem/bandit_party_2","A4ZW4GNQ98HV6","either","5","179","","","","","","","0","0","1","","0.8","0.5","0.5","","","0.8","0.2","","","","","","","","","","","","","","","","74","J","0","img/none_selected_demo.jpg","true","0","80_20_practice","",""
"","bandit","35","126532","0.0-18.0-17.0","03236347","wem/bandit_party_2","A4ZW4GNQ98HV6","either","5","1159","","","","","","","0","0","1","","0.2","0.5","0.5","","","0.8","0.2","","","","","","","","","","","","","","","","75","K","1","","true","0","80_20_practice","",""
"","bandit","36","128063","0.0-18.0-18.0","03236347","wem/bandit_party_2","A4ZW4GNQ98HV6","either","5","25","","","","","","","1","0","0","0.8","","0.5","0.5","","","","","","","0.8","0.2","","","","","","","","","","","","74","J","0","img/none_selected_demo.jpg","true","0","80_20_practice","",""
"","bandit","37","129759","0.0-18.0-19.0","03236347","wem/bandit_party_2","A4ZW4GNQ98HV6","either","5","188","","","","","","","0","1","0","","0.8","0.5","0.5","","","0.8","0.2","","","","","","","","","","","","","","","","74","J","0","img/none_selected_demo.jpg","true","0","80_20_practice","",""
"","text-replacement","38","133144","0.0-19.0","03236347","wem/bandit_party_2","A4ZW4GNQ98HV6","either","5","3381","","","32","","","","","","","","","","","","","","","","","","","","","","","","","","","","","","","","","","","","","",""
"","bandit","39","135926","0.0-20.0-0.0","03236347","wem/bandit_party_2","A4ZW4GNQ98HV6","either","5","1270","","","","","","","1","0","0","1","0","","","","","0","1","","","1","0","","","","","","","","","","","","74","J","0","img/none_selected_demo.jpg","true","0","","",""
"","text-replacement","40","141144","0.0-21.0","03236347","wem/bandit_party_2","A4ZW4GNQ98HV6","either","5","5214","","","32","","","","","","","","","","","","","","","","","","","","","","","","","","","","","","","","","","","","","",""
"","text-replacement","41","143442","0.0-22.0","03236347","wem/bandit_party_2","A4ZW4GNQ98HV6","either","5","2293","","","32","","","","","","","","","","","","","","","","","","","","","","","","","","","","","","","","","","","","","",""
"","text-replacement","42","144554","0.0-23.0","03236347","wem/bandit_party_2","A4ZW4GNQ98HV6","either","5","1108","","","32","","","","","","","","","","","","","","","","","","","","","","","","","","","","","","","","","","","","","",""
"","text-replacement","43","147346","0.0-24.0","03236347","wem/bandit_party_2","A4ZW4GNQ98HV6","either","5","2789","","","32","","","","","","","","","","","","","","","","","","","","","","","","","","","","","","","","","","","","","",""
"","text-replacement","44","150144","0.0-25.0","03236347","wem/bandit_party_2","A4ZW4GNQ98HV6","either","5","2793","","","32","","","","","","","","","","","","","","","","","","","","","","","","","","","","","","","","","","","","","",""
"","text-replacement","45","150978","0.0-26.0","03236347","wem/bandit_party_2","A4ZW4GNQ98HV6","either","5","830","","","32","","","","","","","","","","","","","","","","","","","","","","","","","","","","","","","","","","","","","",""
"","text-replacement","46","155297","0.0-27.0","03236347","wem/bandit_party_2","A4ZW4GNQ98HV6","either","5","4315","","","32","","","","","","","","","","","","","","","","","","","","","","","","","","","","","","","","","","","","","",""
"","text-replacement","47","156841","0.0-28.0","03236347","wem/bandit_party_2","A4ZW4GNQ98HV6","either","5","1541","","","32","","","","","","","","","","","","","","","","","","","","","","","","","","","","","","","","","","","","","",""
"","text-replacement","48","160477","0.0-29.0","03236347","wem/bandit_party_2","A4ZW4GNQ98HV6","either","5","3633","","","32","","","","","","","","","","","","","","","","","","","","","","","","","","","","","","","","","","","","","",""
"","text-replacement","49","161758","0.0-30.0","03236347","wem/bandit_party_2","A4ZW4GNQ98HV6","either","5","1278","","","32","","","","","","","","","","","","","","","","","","","","","","","","","","","","","","","","","","","","","",""
"","text-replacement","50","163269","0.0-31.0","03236347","wem/bandit_party_2","A4ZW4GNQ98HV6","either","5","1508","","","32","","","","","","","","","","","","","","","","","","","","","","","","","","","","","","","","","","","","","",""
"","bandit","51","166338","0.0-32.0-0.0","03236347","wem/bandit_party_2","A4ZW4GNQ98HV6","either","5","1560","","","","","","","1","0","0","0.8","","0.5","0.5","0.5","0.5","","","","","0.8","0.2","0.6","0.2","","","","","","","","","","72","H","0","img/none_selected.jpg","true","0","full_practice","",""
"","bandit","52","168090","0.0-32.0-1.0","03236347","wem/bandit_party_2","A4ZW4GNQ98HV6","either","5","244","","","","","","","1","0","0","0.2","","0.5","0.5","0.5","0.5","","","","","0.8","0.2","0.6","0.2","","","","","","","","","","74","J","1","","true","0","full_practice","",""
"","bandit","53","169817","0.0-32.0-2.0","03236347","wem/bandit_party_2","A4ZW4GNQ98HV6","either","5","218","","","","","","","0","1","0","","0.6","0.5","0.5","0.5","0.5","0.8","0.2","0.6","0.2","","","","","","","","","","","","","","75","K","2","","true","0","full_practice","",""
"","bandit","54","171537","0.0-32.0-3.0","03236347","wem/bandit_party_2","A4ZW4GNQ98HV6","either","5","206","","","","","","","0","0","1","","0.2","0.5","0.5","0.5","0.5","0.8","0.2","0.6","0.2","","","","","","","","","","","","","","76","L","3","","true","0","full_practice","",""
"","bandit","55","173309","0.0-32.0-4.0","03236347","wem/bandit_party_2","A4ZW4GNQ98HV6","either","5","256","","","","","","","0","1","0","","0.8","0.5","0.5","0.5","0.5","0.8","0.2","0.6","0.2","","","","","","","","","","","","","","72","H","0","img/none_selected.jpg","true","0","full_practice","",""
"","bandit","56","174833","0.0-32.0-5.0","03236347","wem/bandit_party_2","A4ZW4GNQ98HV6","either","5","13","","","","","","","0","0","1","","0.2","0.5","0.5","0.5","0.5","0.8","0.2","0.6","0.2","","","","","","","","","","","","","","74","J","1","","true","0","full_practice","",""
"","bandit","57","176490","0.0-32.0-6.0","03236347","wem/bandit_party_2","A4ZW4GNQ98HV6","either","5","143","","","","","","","0","1","0","","0.6","0.5","0.5","0.5","0.5","0.8","0.2","0.6","0.2","","","","","","","","","","","","","","75","K","2","","true","0","full_practice","",""
"","bandit","58","178082","0.0-32.0-7.0","03236347","wem/bandit_party_2","A4ZW4GNQ98HV6","either","5","82","","","","","","","0","1","0","","0.6","0.5","0.5","0.5","0.5","0.8","0.2","0.6","0.2","","","","","","","","","","","","","","75","K","2","","true","0","full_practice","",""
"","bandit","59","179596","0.0-32.0-8.0","03236347","wem/bandit_party_2","A4ZW4GNQ98HV6","either","5","3","","","","","","","1","0","0","0.6","","0.5","0.5","0.5","0.5","","","","","0.8","0.2","0.6","0.2","","","","","","","","","","75","K","2","","true","0","full_practice","",""
"","bandit","60","181381","0.0-32.0-9.0","03236347","wem/bandit_party_2","A4ZW4GNQ98HV6","either","5","275","","","","","","","1","0","0","0.8","","0.5","0.5","0.5","0.5","","","","","0.8","0.2","0.6","0.2","","","","","","","","","","72","H","0","img/none_selected.jpg","true","0","full_practice","",""
"","bandit","61","182952","0.0-32.0-10.0","03236347","wem/bandit_party_2","A4ZW4GNQ98HV6","either","5","60","","","","","","","1","0","0","0.6","","0.5","0.5","0.5","0.5","","","","","0.8","0.2","0.6","0.2","","","","","","","","","","75","K","2","","true","0","full_practice","",""
"","bandit","62","184648","0.0-32.0-11.0","03236347","wem/bandit_party_2","A4ZW4GNQ98HV6","either","5","186","","","","","","","0","1","0","","0.8","0.5","0.5","0.5","0.5","0.8","0.2","0.6","0.2","","","","","","","","","","","","","","72","H","0","img/none_selected.jpg","true","0","full_practice","",""
"","bandit","63","186237","0.0-32.0-12.0","03236347","wem/bandit_party_2","A4ZW4GNQ98HV6","either","5","79","","","","","","","1","0","0","0.6","","0.5","0.5","0.5","0.5","","","","","0.8","0.2","0.6","0.2","","","","","","","","","","75","K","2","","true","0","full_practice","",""
"","bandit","64","187773","0.0-32.0-13.0","03236347","wem/bandit_party_2","A4ZW4GNQ98HV6","either","5","28","","","","","","","0","1","0","","0.8","0.5","0.5","0.5","0.5","0.8","0.2","0.6","0.2","","","","","","","","","","","","","","72","H","0","img/none_selected.jpg","true","0","full_practice","",""
"","bandit","65","189312","0.0-32.0-14.0","03236347","wem/bandit_party_2","A4ZW4GNQ98HV6","either","5","28","","","","","","","0","0","1","0.6","","0.5","0.5","0.5","0.5","","","","","0.8","0.2","0.6","0.2","","","","","","","","","","75","K","2","","true","0","full_practice","",""
"","bandit","66","191002","0.0-32.0-15.0","03236347","wem/bandit_party_2","A4ZW4GNQ98HV6","either","5","184","","","","","","","0","1","0","","0.8","0.5","0.5","0.5","0.5","0.8","0.2","0.6","0.2","","","","","","","","","","","","","","72","H","0","img/none_selected.jpg","true","0","full_practice","",""
"","bandit","67","192685","0.0-32.0-16.0","03236347","wem/bandit_party_2","A4ZW4GNQ98HV6","either","5","176","","","","","","","0","1","0","","0.8","0.5","0.5","0.5","0.5","0.8","0.2","0.6","0.2","","","","","","","","","","","","","","72","H","0","img/none_selected.jpg","true","0","full_practice","",""
"","bandit","68","194244","0.0-32.0-17.0","03236347","wem/bandit_party_2","A4ZW4GNQ98HV6","either","5","50","","","","","","","0","1","0","","0.8","0.5","0.5","0.5","0.5","0.8","0.2","0.6","0.2","","","","","","","","","","","","","","72","H","0","img/none_selected.jpg","true","0","full_practice","",""
"","bandit","69","195967","0.0-32.0-18.0","03236347","wem/bandit_party_2","A4ZW4GNQ98HV6","either","5","212","","","","","","","0","0","1","","0.2","0.5","0.5","0.5","0.5","0.8","0.2","0.6","0.2","","","","","","","","","","","","","","74","J","1","","true","0","full_practice","",""
"","bandit","70","197492","0.0-32.0-19.0","03236347","wem/bandit_party_2","A4ZW4GNQ98HV6","either","5","19","","","","","","","0","1","0","","0.8","0.5","0.5","0.5","0.5","0.8","0.2","0.6","0.2","","","","","","","","","","","","","","72","H","0","img/none_selected.jpg","true","0","full_practice","",""
"","text","71","202023","0.0-33.0","03236347","wem/bandit_party_2","A4ZW4GNQ98HV6","either","5","4520","","","32","","","","","","","","","","","","","","","","","","","","","","","","","","","","","","","","","","","","","",""
"","text-replacement","72","212197","0.0-34.0","03236347","wem/bandit_party_2","A4ZW4GNQ98HV6","either","5","9168","","","32","","","","","","","","","","","","","","","","","","","","","","","","","","","","","","","","","","","","","",""
"","text-replacement","73","219947","0.0-35.0","03236347","wem/bandit_party_2","A4ZW4GNQ98HV6","either","5","7745","","","32","","","","","","","","","","","","","","","","","","","","","","","","","","","","","","","","","","","","","",""
"","text-replacement","74","222770","0.0-36.0","03236347","wem/bandit_party_2","A4ZW4GNQ98HV6","either","5","2818","","","32","","","","","","","","","","","","","","","","","","","","","","","","","","","","","","","","","","","","","",""
"","text-replacement","75","224297","0.0-37.0","03236347","wem/bandit_party_2","A4ZW4GNQ98HV6","either","5","1522","","","32","","","","","","","","","","","","","","","","","","","","","","","","","","","","","","","","","","","","","",""
"","text-replacement","76","228004","0.0-38.0","03236347","wem/bandit_party_2","A4ZW4GNQ98HV6","either","5","3704","","","32","","","","","","","","","","","","","","","","","","","","","","","","","","","","","","","","","","","","","",""
"","survey-multi-choice-replacement","77","234795","0.0-39.0-0.0","03236347","wem/bandit_party_2","A4ZW4GNQ98HV6","either","5","6779","","","","","","","","","","","","","","","","","","","","","","","","Equal amounts of money will be added to the pool for <span style='color:blue;'>DEMOCRATS</span> and subtracted from the pool for <span style='color:red;'>REPUBLICANS</span>","","","","","","","attn_check","","","","","","","","","2",""
"","instructions","78","236906","0.0-39.0-1.0-0.0","03236347","wem/bandit_party_2","A4ZW4GNQ98HV6","either","5","1106","","","","","","","","","","","","","","","","","","","","","","","","","","","","","","","","","","","","","","","","","[{""page_index"":0,""viewing_time"":1105}]"
"","survey-multi-choice-replacement","79","239805","0.0-39.1-0.1","03236347","wem/bandit_party_2","A4ZW4GNQ98HV6","either","5","1887","","","","","","","","","","","","","","","","","","","","","","","","Money will be added to the pool for <span style='color:blue;'>DEMOCRATS</span>","","","","","","","attn_check","","","","","","","","","0",""
"","survey-multi-choice-replacement","80","249506","0.0-40.0-0.0","03236347","wem/bandit_party_2","A4ZW4GNQ98HV6","either","5","8671","","","","","","","","","","","","","","","","","","","","","","","","Equal amounts of money will be added to the pool for <span style='color:blue;'>DEMOCRATS</span> and subtracted from the pool for <span style='color:red;'>REPUBLICANS</span>","","","","","","","attn_check","","","","","","","","","2",""
"","survey-multi-choice-replacement","81","253381","0.0-41.0-0.0","03236347","wem/bandit_party_2","A4ZW4GNQ98HV6","either","5","2860","","","","","","","","","","","","","","","","","","","","","","","","No money will be added to either pool","","","","","","","attn_check","","","","","","","","","3",""
"","bandit","82","256681","0.0-42.0-0.0","03236347","wem/bandit_party_2","A4ZW4GNQ98HV6","either","5","785","","","","","","","0","0","1","0.4909711759","","0.8","0.6","0.4","0.2","","","","","0.4909711759","0.32692793","0.4253928501","0.6131215568","","","","","","","","","","72","H","0","img/none_selected.jpg","","1","main_expt","",""
"","bandit","83","258438","0.0-43.0-0.0","03236347","wem/bandit_party_2","A4ZW4GNQ98HV6","either","5","247","","","","","","","1","0","0","0.3068321923","","0.8","0.6","0.4","0.2","","","","","0.5514346198","0.3068321923","0.5447097682","0.6783759564","","","","","","","","","","74","J","1","","","2","main_expt","",""
"","bandit","84","260203","0.0-44.0-0.0","03236347","wem/bandit_party_2","A4ZW4GNQ98HV6","either","5","254","","","","","","","0","0","1","0.2871808385","","0.8","0.6","0.4","0.2","","","","","0.5966913043","0.2871808385","0.5631376832","0.6535049038","","","","","","","","","","74","J","1","","","3","main_expt","",""
"","bandit","85","261784","0.0-45.0-0.0","03236347","wem/bandit_party_2","A4ZW4GNQ98HV6","either","5","71","","","","","","","0","1","0","","0.5889355808","0.8","0.6","0.4","0.2","0.6236804691","0.3062311279","0.5889355808","0.5433476707","","","","","","","","","","","","","","75","K","2","","","4","main_expt","",""
"","bandit","86","263580","0.0-46.0-0.0","03236347","wem/bandit_party_2","A4ZW4GNQ98HV6","either","5","284","","","","","","","0","1","0","","0.6125363118","0.8","0.6","0.4","0.2","0.5844938386","0.2453374439","0.6125363118","0.4256320799","","","","","","","","","","","","","","75","K","2","","","5","main_expt","",""
"","bandit","87","265310","0.0-47.0-0.0","03236347","wem/bandit_party_2","A4ZW4GNQ98HV6","either","5","221","","","","","","","1","0","0","0.5204159956","","0.8","0.6","0.4","0.2","","","","","0.4929788692","0.2258644136","0.5204159956","0.4097031487","","","","","","","","","","75","K","2","","","6","main_expt","",""
"","bandit","88","266999","0.0-48.0-0.0","03236347","wem/bandit_party_2","A4ZW4GNQ98HV6","either","5","179","","","","","","","1","0","0","0.5949894572","","0.8","0.6","0.4","0.2","","","","","0.3978044106","0.2251512132","0.5949894572","0.4614862243","","","","","","","","","","75","K","2","","","7","main_expt","",""
"","bandit","89","268695","0.0-49.0-0.0","03236347","wem/bandit_party_2","A4ZW4GNQ98HV6","either","5","185","","","","","","","1","0","0","0.7043393759","","0.8","0.6","0.4","0.2","","","","","0.5080346622","0.1597376121","0.7043393759","0.4305419438","","","","","","","","","","75","K","2","","","8","main_expt","",""
"","bandit","90","270361","0.0-50.0-0.0","03236347","wem/bandit_party_2","A4ZW4GNQ98HV6","either","5","153","","","","","","","0","1","0","","0.6866437556","0.8","0.6","0.4","0.2","0.440708512","0.1395884133","0.6866437556","0.6000641755","","","","","","","","","","","","","","75","K","2","","","9","main_expt","",""
"","bandit","91","271971","0.0-51.0-0.0","03236347","wem/bandit_party_2","A4ZW4GNQ98HV6","either","5","99","","","","","","","1","0","0","0.6743415364","","0.8","0.6","0.4","0.2","","","","","0.4862198985","0.1529628815","0.6743415364","0.66675231","","","","","","","","","","75","K","2","","","10","main_expt","",""
"","bandit","92","273658","0.0-52.0-0.0","03236347","wem/bandit_party_2","A4ZW4GNQ98HV6","either","5","178","","","","","","","0","0","1","0.6907290289","","0.8","0.6","0.4","0.2","","","","","0.4942886423","0.1918890603","0.6907290289","0.538431352","","","","","","","","","","75","K","2","","","11","main_expt","",""
"","bandit","93","275353","0.0-53.0-0.0","03236347","wem/bandit_party_2","A4ZW4GNQ98HV6","either","5","183","","","","","","","0","1","0","","0.5683478731","0.8","0.6","0.4","0.2","0.4999864232","0.1412308375","0.7254617755","0.5683478731","","","","","","","","","","","","","","76","L","3","","","12","main_expt","",""
"","bandit","94","277129","0.0-54.0-0.0","03236347","wem/bandit_party_2","A4ZW4GNQ98HV6","either","5","263","","","","","","","0","0","1","","0.5870071372","0.8","0.6","0.4","0.2","0.3945724157","0.1854965676","0.7533793381","0.5870071372","","","","","","","","","","","","","","76","L","3","","","13","main_expt","",""
"","bandit","95","278656","0.0-55.0-0.0","03236347","wem/bandit_party_2","A4ZW4GNQ98HV6","either","5","18","","","","","","","1","0","0","0.3389967741","","0.8","0.6","0.4","0.2","","","","","0.458684297","0.2200151947","0.6909187676","0.3389967741","","","","","","","","","","76","L","3","","","14","main_expt","",""
"","bandit","96","280302","0.0-56.0-0.0","03236347","wem/bandit_party_2","A4ZW4GNQ98HV6","either","5","131","","","","","","","0","0","1","","0.2927381815","0.8","0.6","0.4","0.2","0.5338449271","0.1497743902","0.7916820586","0.2927381815","","","","","","","","","","","","","","76","L","3","","","15","main_expt","",""
"","bandit","97","281892","0.0-57.0-0.0","03236347","wem/bandit_party_2","A4ZW4GNQ98HV6","either","5","80","","","","","","","0","0","1","0.1767244745","","0.8","0.6","0.4","0.2","","","","","0.6821016448","0.1767244745","0.7991661796","0.2268478953","","","","","","","","","","74","J","1","","","16","main_expt","",""
"","bandit","98","283676","0.0-58.0-0.0","03236347","wem/bandit_party_2","A4ZW4GNQ98HV6","either","5","271","","","","","","","0","1","0","","0.1953364786","0.8","0.6","0.4","0.2","0.6963612506","0.1953364786","0.7352739439","0.2364877179","","","","","","","","","","","","","","74","J","1","","","17","main_expt","",""
"","bandit","99","285597","0.0-59.0-0.0","03236347","wem/bandit_party_2","A4ZW4GNQ98HV6","either","5","410","","","","","","","0","0","1","0.139355503","","0.8","0.6","0.4","0.2","","","","","0.7035779666","0.139355503","0.6911569498","0.280777314","","","","","","","","","","74","J","1","","","18","main_expt","",""
"","bandit","100","287136","0.0-60.0-0.0","03236347","wem/bandit_party_2","A4ZW4GNQ98HV6","either","5","32","","","","","","","0","0","1","0.677086514","","0.8","0.6","0.4","0.2","","","","","0.677086514","0.129677489","0.6372159304","0.3280428268","","","","","","","","","","72","H","0","img/none_selected.jpg","","19","main_expt","",""
"","bandit","101","288792","0.0-61.0-0.0","03236347","wem/bandit_party_2","A4ZW4GNQ98HV6","either","5","147","","","","","","","0","0","1","","0.5917564331","0.8","0.6","0.4","0.2","0.5211019236","0.1584506979","0.5917564331","0.213865824","","","","","","","","","","","","","","75","K","2","","","20","main_expt","",""
"","bandit","102","290602","0.0-62.0-0.0","03236347","wem/bandit_party_2","A4ZW4GNQ98HV6","either","5","301","","","","","","","0","0","1","","0.6351733259","0.8","0.6","0.4","0.2","0.6040081297","0.1934985877","0.6351733259","0.2755747612","","","","","","","","","","","","","","75","K","2","","","21","main_expt","",""
"","bandit","103","292164","0.0-63.0-0.0","03236347","wem/bandit_party_2","A4ZW4GNQ98HV6","either","5","50","","","","","","","0","0","1","0.3096891892","","0.8","0.6","0.4","0.2","","","","","0.5276460007","0.1184813826","0.57448168","0.3096891892","","","","","","","","","","76","L","3","","","22","main_expt","",""
"","bandit","104","294123","0.0-64.0-0.0","03236347","wem/bandit_party_2","A4ZW4GNQ98HV6","either","5","446","","","","","","","0","0","1","","0.1855444332","0.8","0.6","0.4","0.2","0.4373756081","0.1387482349","0.532235281","0.1855444332","","","","","","","","","","","","","","76","L","3","","","23","main_expt","",""
"","bandit","105","295725","0.0-65.0-0.0","03236347","wem/bandit_party_2","A4ZW4GNQ98HV6","either","5","91","","","","","","","0","1","0","","0.1275075135","0.8","0.6","0.4","0.2","0.4051577966","0.1275075135","0.4695599312","0.2026045625","","","","","","","","","","","","","","74","J","1","","","24","main_expt","",""
"","bandit","106","297283","0.0-66.0-0.0","03236347","wem/bandit_party_2","A4ZW4GNQ98HV6","either","5","46","","","","","","","0","0","1","0.1324238285","","0.8","0.6","0.4","0.2","","","","","0.3583026632","0.1324238285","0.3710761786","0.2610081957","","","","","","","","","","74","J","1","","","25","main_expt","",""
"","bandit","107","298872","0.0-67.0-0.0","03236347","wem/bandit_party_2","A4ZW4GNQ98HV6","either","5","77","","","","","","","0","0","1","","0.2222282692","0.8","0.6","0.4","0.2","0.4070676783","0.2222282692","0.3104834237","0.2068764453","","","","","","","","","","","","","","74","J","1","","","26","main_expt","",""
"","bandit","108","300408","0.0-68.0-0.0","03236347","wem/bandit_party_2","A4ZW4GNQ98HV6","either","5","23","","","","","","","1","0","0","0.3962805628","","0.8","0.6","0.4","0.2","","","","","0.3962805628","0.2367528544","0.4250638914","0.1387354037","","","","","","","","","","72","H","0","img/none_selected.jpg","","27","main_expt","",""
"","bandit","109","302046","0.0-69.0-0.0","03236347","wem/bandit_party_2","A4ZW4GNQ98HV6","either","5","128","","","","","","","0","0","1","0.3381264529","","0.8","0.6","0.4","0.2","","","","","0.3381264529","0.1581712713","0.3738912408","0.2065421522","","","","","","","","","","72","H","0","img/none_selected.jpg","","28","main_expt","",""
"","bandit","110","303623","0.0-70.0-0.0","03236347","wem/bandit_party_2","A4ZW4GNQ98HV6","either","5","69","","","","","","","0","0","1","0.2361440946","","0.8","0.6","0.4","0.2","","","","","0.3405446746","0.2361440946","0.411092256","0.2452437498","","","","","","","","","","74","J","1","","","29","main_expt","",""
"","bandit","111","305267","0.0-71.0-0.0","03236347","wem/bandit_party_2","A4ZW4GNQ98HV6","either","5","132","","","","","","","0","0","1","","0.306262239","0.8","0.6","0.4","0.2","0.3536414415","0.3051502752","0.306262239","0.3076129501","","","","","","","","","","","","","","75","K","2","","","30","main_expt","",""
"","bandit","112","306780","0.0-72.0-0.0","03236347","wem/bandit_party_2","A4ZW4GNQ98HV6","either","5","2","","","","","","","0","0","1","","0.275744379","0.8","0.6","0.4","0.2","0.3201297868","0.3588845582","0.2846857217","0.275744379","","","","","","","","","","","","","","76","L","3","","","31","main_expt","",""
"","bandit","113","308905","0.0-73.0-0.0","03236347","wem/bandit_party_2","A4ZW4GNQ98HV6","either","5","613","","","","","","","0","0","1","0.414050106","","0.8","0.6","0.4","0.2","","","","","0.414050106","0.3351264969","0.260797537","0.1582224348","","","","","","","","","","72","H","0","img/none_selected.jpg","","32","main_expt","",""
"","bandit","114","310448","0.0-74.0-0.0","03236347","wem/bandit_party_2","A4ZW4GNQ98HV6","either","5","30","","","","","","","0","0","1","0.4846208784","","0.8","0.6","0.4","0.2","","","","","0.4846208784","0.3369799553","0.3108282978","0.07234251762","","","","","","","","","","72","H","0","img/none_selected.jpg","","33","main_expt","",""
"","bandit","115","312181","0.0-75.0-0.0","03236347","wem/bandit_party_2","A4ZW4GNQ98HV6","either","5","222","","","","","","","0","0","1","","0.3040676539","0.8","0.6","0.4","0.2","0.4250330595","0.3040676539","0.3996464291","0.07244310326","","","","","","","","","","","","","","74","J","1","","","34","main_expt","",""
"","bandit","116","313778","0.0-76.0-0.0","03236347","wem/bandit_party_2","A4ZW4GNQ98HV6","either","5","82","","","","","","","0","1","0","","0.2974236485","0.8","0.6","0.4","0.2","0.499329675","0.2974236485","0.4368131495","0.07140094546","","","","","","","","","","","","","","74","J","1","","","35","main_expt","",""
"","bandit","117","315434","0.0-77.0-0.0","03236347","wem/bandit_party_2","A4ZW4GNQ98HV6","either","5","144","","","","","","","0","0","1","0.310238309","","0.8","0.6","0.4","0.2","","","","","0.3892953339","0.310238309","0.3396719642","0.08624361683","","","","","","","","","","74","J","1","","","36","main_expt","",""
"","bandit","118","317078","0.0-78.0-0.0","03236347","wem/bandit_party_2","A4ZW4GNQ98HV6","either","5","133","","","","","","","0","0","1","","0.4409026667","0.8","0.6","0.4","0.2","0.3680424748","0.2818719109","0.4409026667","0.07543251018","","","","","","","","","","","","","","75","K","2","","","37","main_expt","",""
"","bandit","119","318700","0.0-79.0-0.0","03236347","wem/bandit_party_2","A4ZW4GNQ98HV6","either","5","106","","","","","","","0","0","1","","0.1324785543","0.8","0.6","0.4","0.2","0.4909804269","0.2925765749","0.489392614","0.1324785543","","","","","","","","","","","","","","76","L","3","","","38","main_expt","",""
"","bandit","120","320419","0.0-80.0-0.0","03236347","wem/bandit_party_2","A4ZW4GNQ98HV6","either","5","204","","","","","","","0","0","1","","0.1824024676","0.8","0.6","0.4","0.2","0.5165168671","0.3033582507","0.4403114744","0.1824024676","","","","","","","","","","","","","","76","L","3","","","39","main_expt","",""
"","bandit","121","322179","0.0-81.0-0.0","03236347","wem/bandit_party_2","A4ZW4GNQ98HV6","either","5","248","","","","","","","1","0","0","0.09861269436","","0.8","0.6","0.4","0.2","","","","","0.6036007873","0.2371445562","0.343221944","0.09861269436","","","","","","","","","","76","L","3","","","40","main_expt","",""
"","bandit","122","323762","0.0-82.0-0.0","03236347","wem/bandit_party_2","A4ZW4GNQ98HV6","either","5","70","","","","","","","0","0","1","","0.1028082326","0.8","0.6","0.4","0.2","0.6078828369","0.2072661203","0.450343793","0.1028082326","","","","","","","","","","","","","","76","L","3","","","41","main_expt","",""
"","bandit","123","325563","0.0-83.0-0.0","03236347","wem/bandit_party_2","A4ZW4GNQ98HV6","either","5","294","","","","","","","0","1","0","","0.5757077757","0.8","0.6","0.4","0.2","0.5757077757","0.1850700716","0.4422822993","0.1326350751","","","","","","","","","","","","","","72","H","0","img/none_selected.jpg","","42","main_expt","",""
"","bandit","124","327288","0.0-84.0-0.0","03236347","wem/bandit_party_2","A4ZW4GNQ98HV6","either","5","207","","","","","","","0","1","0","","0.504524575","0.8","0.6","0.4","0.2","0.504524575","0.1700345657","0.4755437476","0.1591685393","","","","","","","","","","","","","","72","H","0","img/none_selected.jpg","","43","main_expt","",""
"","bandit","125","329065","0.0-85.0-0.0","03236347","wem/bandit_party_2","A4ZW4GNQ98HV6","either","5","261","","","","","","","0","0","1","","0.3354744533","0.8","0.6","0.4","0.2","0.3354744533","0.150922449","0.6211160782","0.1558361793","","","","","","","","","","","","","","72","H","0","img/none_selected.jpg","","44","main_expt","",""
"","bandit","126","330807","0.0-86.0-0.0","03236347","wem/bandit_party_2","A4ZW4GNQ98HV6","either","5","229","","","","","","","0","0","1","","0.2259933845","0.8","0.6","0.4","0.2","0.2259933845","0.08792573626","0.5950963145","0.08224127908","","","","","","","","","","","","","","72","H","0","img/none_selected.jpg","","45","main_expt","",""
"","bandit","127","332502","0.0-87.0-0.0","03236347","wem/bandit_party_2","A4ZW4GNQ98HV6","either","5","182","","","","","","","0","0","1","0.1991815266","","0.8","0.6","0.4","0.2","","","","","0.1991815266","0.05210962111","0.600883672","0.05681632526","","","","","","","","","","72","H","0","img/none_selected.jpg","","46","main_expt","",""
"","bandit","128","334250","0.0-88.0-0.0","03236347","wem/bandit_party_2","A4ZW4GNQ98HV6","either","5","233","","","","","","","0","0","1","0.1658512007","","0.8","0.6","0.4","0.2","","","","","0.1821259253","0.1658512007","0.6018426621","0.02046531905","","","","","","","","","","74","J","1","","","47","main_expt","",""
"","bandit","129","335839","0.0-89.0-0.0","03236347","wem/bandit_party_2","A4ZW4GNQ98HV6","either","5","76","","","","","","","0","0","1","0.2171730843","","0.8","0.6","0.4","0.2","","","","","0.1850219792","0.2171730843","0.6719149388","0.02793369594","","","","","","","","","","74","J","1","","","48","main_expt","",""
"","bandit","130","337411","0.0-90.0-0.0","03236347","wem/bandit_party_2","A4ZW4GNQ98HV6","either","5","60","","","","","","","1","0","0","0.5824093935","","0.8","0.6","0.4","0.2","","","","","0.2843491098","0.2545874694","0.5824093935","0.01520235592","","","","","","","","","","75","K","2","","","49","main_expt","",""
"","bandit","131","339083","0.0-91.0-0.0","03236347","wem/bandit_party_2","A4ZW4GNQ98HV6","either","5","158","","","","","","","0","0","1","0.5697547833","","0.8","0.6","0.4","0.2","","","","","0.2385085868","0.1971443839","0.5697547833","0.008868670712","","","","","","","","","","75","K","2","","","50","main_expt","",""
"","bandit","132","340649","0.0-92.0-0.0","03236347","wem/bandit_party_2","A4ZW4GNQ98HV6","either","5","52","","","","","","","1","0","0","0.5875551098","","0.8","0.6","0.4","0.2","","","","","0.2762119933","0.1743954459","0.5875551098","0.004668439046","","","","","","","","","","75","K","2","","","51","main_expt","",""
"","bandit","133","342302","0.0-93.0-0.0","03236347","wem/bandit_party_2","A4ZW4GNQ98HV6","either","5","138","","","","","","","0","0","1","","0.691822337","0.8","0.6","0.4","0.2","0.2350807626","0.1007451992","0.691822337","0.003090075005","","","","","","","","","","","","","","75","K","2","","","52","main_expt","",""
"","bandit","134","343962","0.0-94.0-0.0","03236347","wem/bandit_party_2","A4ZW4GNQ98HV6","either","5","147","","","","","","","0","1","0","","0.7363191169","0.8","0.6","0.4","0.2","0.2301492847","0.1648918076","0.7363191169","0.003474758773","","","","","","","","","","","","","","75","K","2","","","53","main_expt","",""
"","bandit","135","345984","0.0-95.0-0.0","03236347","wem/bandit_party_2","A4ZW4GNQ98HV6","either","5","516","","","","","","","0","1","0","","0.7639548597","0.8","0.6","0.4","0.2","0.2779325162","0.1761014763","0.7639548597","0.003279238457","","","","","","","","","","","","","","75","K","2","","","54","main_expt","",""
"","bandit","136","347671","0.0-96.0-0.0","03236347","wem/bandit_party_2","A4ZW4GNQ98HV6","either","5","177","","","","","","","1","0","0","0.7264154962","","0.8","0.6","0.4","0.2","","","","","0.2882189161","0.1460392243","0.7264154962","0.001847339967","","","","","","","","","","75","K","2","","","55","main_expt","",""
"","bandit","137","349628","0.0-97.0-0.0","03236347","wem/bandit_party_2","A4ZW4GNQ98HV6","either","5","449","","","","","","","1","0","0","0.7511403137","","0.8","0.6","0.4","0.2","","","","","0.2646822794","0.1882527018","0.7511403137","0.001186331615","","","","","","","","","","75","K","2","","","56","main_expt","",""
"","bandit","138","351398","0.0-98.0-0.0","03236347","wem/bandit_party_2","A4ZW4GNQ98HV6","either","5","258","","","","","","","0","0","1","0.6292194553","","0.8","0.6","0.4","0.2","","","","","0.3080117871","0.1836596221","0.6292194553","0.001917609755","","","","","","","","","","75","K","2","","","57","main_expt","",""
"","bandit","139","352913","0.0-99.0-0.0","03236347","wem/bandit_party_2","A4ZW4GNQ98HV6","either","5","0","","","","","","","0","0","1","","0.5622591622","0.8","0.6","0.4","0.2","0.2609020091","0.2259562874","0.5622591622","0.004115025419","","","","","","","","","","","","","","75","K","2","","","58","main_expt","",""
"","bandit","140","354742","0.0-100.0-0.0","03236347","wem/bandit_party_2","A4ZW4GNQ98HV6","either","5","323","","","","","","","0","1","0","","0.6394190939","0.8","0.6","0.4","0.2","0.3014652953","0.1673227733","0.6394190939","0.007083433589","","","","","","","","","","","","","","75","K","2","","","59","main_expt","",""
"","bandit","141","356521","0.0-101.0-0.0","03236347","wem/bandit_party_2","A4ZW4GNQ98HV6","either","5","266","","","","","","","1","0","0","0.502148976","","0.8","0.6","0.4","0.2","","","","","0.2872544729","0.1404143731","0.502148976","0.0100473459","","","","","","","","","","75","K","2","","","60","main_expt","",""
"","bandit","142","358263","0.0-102.0-0.0","03236347","wem/bandit_party_2","A4ZW4GNQ98HV6","either","5","228","","","","","","","0","1","0","","0.5541662771","0.8","0.6","0.4","0.2","0.2347068593","0.1087230511","0.5541662771","0.02288810402","","","","","","","","","","","","","","75","K","2","","","61","main_expt","",""
"","bandit","143","359898","0.0-103.0-0.0","03236347","wem/bandit_party_2","A4ZW4GNQ98HV6","either","5","124","","","","","","","1","0","0","0.6016144889","","0.8","0.6","0.4","0.2","","","","","0.1786743828","0.1173770395","0.6016144889","0.04890713094","","","","","","","","","","75","K","2","","","62","main_expt","",""
"","bandit","144","361493","0.0-104.0-0.0","03236347","wem/bandit_party_2","A4ZW4GNQ98HV6","either","5","81","","","","","","","0","0","1","0.6306423252","","0.8","0.6","0.4","0.2","","","","","0.1627017484","0.1173961002","0.6306423252","0.06015841579","","","","","","","","","","75","K","2","","","63","main_expt","",""
"","bandit","145","363104","0.0-105.0-0.0","03236347","wem/bandit_party_2","A4ZW4GNQ98HV6","either","5","98","","","","","","","0","0","1","0.5963496952","","0.8","0.6","0.4","0.2","","","","","0.2220220934","0.1093057248","0.5963496952","0.0697324588","","","","","","","","","","75","K","2","","","64","main_expt","",""
"","bandit","146","364681","0.0-106.0-0.0","03236347","wem/bandit_party_2","A4ZW4GNQ98HV6","either","5","63","","","","","","","0","1","0","","0.5835424673","0.8","0.6","0.4","0.2","0.1387290973","0.1437581537","0.5835424673","0.03955641554","","","","","","","","","","","","","","75","K","2","","","65","main_expt","",""
"","bandit","147","366322","0.0-107.0-0.0","03236347","wem/bandit_party_2","A4ZW4GNQ98HV6","either","5","128","","","","","","","0","0","1","","0.5789137396","0.8","0.6","0.4","0.2","0.1481952943","0.1321246006","0.5789137396","0.04104317144","","","","","","","","","","","","","","75","K","2","","","66","main_expt","",""
"","bandit","148","368076","0.0-108.0-0.0","03236347","wem/bandit_party_2","A4ZW4GNQ98HV6","either","5","239","","","","","","","0","1","0","","0.6503196648","0.8","0.6","0.4","0.2","0.1354395346","0.1441415222","0.6503196648","0.07749417123","","","","","","","","","","","","","","75","K","2","","","67","main_expt","",""
"","bandit","149","369923","0.0-109.0-0.0","03236347","wem/bandit_party_2","A4ZW4GNQ98HV6","either","5","332","","","","","","","0","1","0","","0.7295955131","0.8","0.6","0.4","0.2","0.09431815687","0.1794787892","0.7295955131","0.1606162296","","","","","","","","","","","","","","75","K","2","","","68","main_expt","",""
"","bandit","150","371481","0.0-110.0-0.0","03236347","wem/bandit_party_2","A4ZW4GNQ98HV6","either","5","44","","","","","","","0","1","0","","0.7924649224","0.8","0.6","0.4","0.2","0.09491494314","0.2467892919","0.7924649224","0.1458723802","","","","","","","","","","","","","","75","K","2","","","69","main_expt","",""
"","bandit","151","373053","0.0-111.0-0.0","03236347","wem/bandit_party_2","A4ZW4GNQ98HV6","either","5","60","","","","","","","1","0","0","0.7104550926","","0.8","0.6","0.4","0.2","","","","","0.144379617","0.2683381141","0.7104550926","0.09936082334","","","","","","","","","","75","K","2","","","70","main_expt","",""
"","bandit","152","375004","0.0-112.0-0.0","03236347","wem/bandit_party_2","A4ZW4GNQ98HV6","either","5","436","","","","","","","0","1","0","","0.6350436987","0.8","0.6","0.4","0.2","0.1522740794","0.3513633517","0.6350436987","0.08487306657","","","","","","","","","","","","","","75","K","2","","","71","main_expt","",""
"","bandit","153","376520","0.0-113.0-0.0","03236347","wem/bandit_party_2","A4ZW4GNQ98HV6","either","5","2","","","","","","","1","0","0","0.5987872161","","0.8","0.6","0.4","0.2","","","","","0.1668466162","0.2914052368","0.5987872161","0.08819471669","","","","","","","","","","75","K","2","","","72","main_expt","",""
"","bandit","154","378219","0.0-114.0-0.0","03236347","wem/bandit_party_2","A4ZW4GNQ98HV6","either","5","185","","","","","","","0","0","1","","0.5985066563","0.8","0.6","0.4","0.2","0.1896474075","0.2877488323","0.5985066563","0.1283432424","","","","","","","","","","","","","","75","K","2","","","73","main_expt","",""
"","bandit","155","379923","0.0-115.0-0.0","03236347","wem/bandit_party_2","A4ZW4GNQ98HV6","either","5","190","","","","","","","1","0","0","0.6384302553","","0.8","0.6","0.4","0.2","","","","","0.2374421278","0.2562899571","0.6384302553","0.09379917772","","","","","","","","","","75","K","2","","","74","main_expt","",""
"","bandit","156","381529","0.0-116.0-0.0","03236347","wem/bandit_party_2","A4ZW4GNQ98HV6","either","5","93","","","","","","","0","0","1","0.5658832615","","0.8","0.6","0.4","0.2","","","","","0.2083661751","0.2733605005","0.5658832615","0.09049970266","","","","","","","","","","75","K","2","","","75","main_expt","",""
"","bandit","157","383299","0.0-117.0-0.0","03236347","wem/bandit_party_2","A4ZW4GNQ98HV6","either","5","256","","","","","","","1","0","0","0.6242699585","","0.8","0.6","0.4","0.2","","","","","0.2438220339","0.3937912108","0.6242699585","0.08721668036","","","","","","","","","","75","K","2","","","76","main_expt","",""
"","bandit","158","385029","0.0-118.0-0.0","03236347","wem/bandit_party_2","A4ZW4GNQ98HV6","either","5","217","","","","","","","0","0","1","","0.5744400186","0.8","0.6","0.4","0.2","0.2688374605","0.2317864895","0.5744400186","0.06435523183","","","","","","","","","","","","","","75","K","2","","","77","main_expt","",""
"","bandit","159","386583","0.0-119.0-0.0","03236347","wem/bandit_party_2","A4ZW4GNQ98HV6","either","5","40","","","","","","","0","1","0","","0.5888420407","0.8","0.6","0.4","0.2","0.354885782","0.1809738678","0.5888420407","0.0482567949","","","","","","","","","","","","","","75","K","2","","","78","main_expt","",""
"","bandit","160","388226","0.0-120.0-0.0","03236347","wem/bandit_party_2","A4ZW4GNQ98HV6","either","5","127","","","","","","","0","0","1","","0.6367332082","0.8","0.6","0.4","0.2","0.3618930149","0.1139783564","0.6367332082","0.0437210955","","","","","","","","","","","","","","75","K","2","","","79","main_expt","",""
"","bandit","161","389914","0.0-121.0-0.0","03236347","wem/bandit_party_2","A4ZW4GNQ98HV6","either","5","176","","","","","","","0","1","0","","0.6870764151","0.8","0.6","0.4","0.2","0.2656346555","0.08785846653","0.6870764151","0.02877808334","","","","","","","","","","","","","","75","K","2","","","80","main_expt","",""
"","bandit","162","391551","0.0-122.0-0.0","03236347","wem/bandit_party_2","A4ZW4GNQ98HV6","either","5","123","","","","","","","0","1","0","","0.594282643","0.8","0.6","0.4","0.2","0.4245431589","0.09113866108","0.594282643","0.01921293631","","","","","","","","","","","","","","75","K","2","","","81","main_expt","",""
"","bandit","163","393094","0.0-123.0-0.0","03236347","wem/bandit_party_2","A4ZW4GNQ98HV6","either","5","26","","","","","","","0","0","1","","0.6134463007","0.8","0.6","0.4","0.2","0.4469352605","0.1055231707","0.6134463007","0.04933803159","","","","","","","","","","","","","","75","K","2","","","82","main_expt","",""
"","bandit","164","394888","0.0-124.0-0.0","03236347","wem/bandit_party_2","A4ZW4GNQ98HV6","either","5","277","","","","","","","0","0","1","","0.03134335394","0.8","0.6","0.4","0.2","0.4492602846","0.09865920741","0.573719985","0.03134335394","","","","","","","","","","","","","","76","L","3","","","83","main_expt","",""
"","bandit","165","396422","0.0-125.0-0.0","03236347","wem/bandit_party_2","A4ZW4GNQ98HV6","either","5","20","","","","","","","0","0","1","","0.08181594064","0.8","0.6","0.4","0.2","0.4800113203","0.06745845416","0.5666188995","0.08181594064","","","","","","","","","","","","","","76","L","3","","","84","main_expt","",""
"","bandit","166","398059","0.0-126.0-0.0","03236347","wem/bandit_party_2","A4ZW4GNQ98HV6","either","5","122","","","","","","","0","0","1","0.09326949564","","0.8","0.6","0.4","0.2","","","","","0.53417275","0.05723787215","0.5161506384","0.09326949564","","","","","","","","","","76","L","3","","","85","main_expt","",""
"","bandit","167","399749","0.0-127.0-0.0","03236347","wem/bandit_party_2","A4ZW4GNQ98HV6","either","5","173","","","","","","","0","0","1","","0.04283717318","0.8","0.6","0.4","0.2","0.4431594274","0.04283717318","0.4408304524","0.1365856799","","","","","","","","","","","","","","74","J","1","","","86","main_expt","",""
"","bandit","168","401446","0.0-128.0-0.0","03236347","wem/bandit_party_2","A4ZW4GNQ98HV6","either","5","183","","","","","","","0","0","1","","0.04801612347","0.8","0.6","0.4","0.2","0.4135642243","0.04801612347","0.4926691315","0.1845868617","","","","","","","","","","","","","","74","J","1","","","87","main_expt","",""
"","bandit","169","403094","0.0-129.0-0.0","03236347","wem/bandit_party_2","A4ZW4GNQ98HV6","either","5","132","","","","","","","1","0","0","0.1154775412","","0.8","0.6","0.4","0.2","","","","","0.4785462387","0.1154775412","0.6047228172","0.2304222619","","","","","","","","","","74","J","1","","","88","main_expt","",""
"","bandit","170","404819","0.0-130.0-0.0","03236347","wem/bandit_party_2","A4ZW4GNQ98HV6","either","5","210","","","","","","","0","0","1","","0.1308375778","0.8","0.6","0.4","0.2","0.6395163219","0.1308375778","0.5311406509","0.1408060154","","","","","","","","","","","","","","74","J","1","","","89","main_expt","",""
"","bandit","171","406544","0.0-131.0-0.0","03236347","wem/bandit_party_2","A4ZW4GNQ98HV6","either","5","211","","","","","","","0","0","1","","0.07282967421","0.8","0.6","0.4","0.2","0.6143207643","0.07282967421","0.6262376813","0.1870966622","","","","","","","","","","","","","","74","J","1","","","90","main_expt","",""
"","bandit","172","408253","0.0-132.0-0.0","03236347","wem/bandit_party_2","A4ZW4GNQ98HV6","either","5","197","","","","","","","0","0","1","0.446485487","","0.8","0.6","0.4","0.2","","","","","0.446485487","0.07599207753","0.690423555","0.192698437","","","","","","","","","","72","H","0","img/none_selected.jpg","","91","main_expt","",""
"","bandit","173","409984","0.0-133.0-0.0","03236347","wem/bandit_party_2","A4ZW4GNQ98HV6","either","5","216","","","","","","","0","0","1","0.5169677416","","0.8","0.6","0.4","0.2","","","","","0.5169677416","0.04323911508","0.6517149298","0.1683480261","","","","","","","","","","72","H","0","img/none_selected.jpg","","92","main_expt","",""
"","bandit","174","411579","0.0-134.0-0.0","03236347","wem/bandit_party_2","A4ZW4GNQ98HV6","either","5","81","","","","","","","0","0","1","0.4242737166","","0.8","0.6","0.4","0.2","","","","","0.4242737166","0.04253576945","0.5656193004","0.1330499919","","","","","","","","","","72","H","0","img/none_selected.jpg","","93","main_expt","",""
"","bandit","175","413498","0.0-135.0-0.0","03236347","wem/bandit_party_2","A4ZW4GNQ98HV6","either","5","405","","","","","","","0","0","1","0.3479993201","","0.8","0.6","0.4","0.2","","","","","0.3479993201","0.04534385772","0.4344563295","0.1880917327","","","","","","","","","","72","H","0","img/none_selected.jpg","","94","main_expt","",""
"","bandit","176","415337","0.0-136.0-0.0","03236347","wem/bandit_party_2","A4ZW4GNQ98HV6","either","5","326","","","","","","","0","1","0","","0.5651083109","0.8","0.6","0.4","0.2","0.3701135783","0.03318992591","0.5651083109","0.1867575465","","","","","","","","","","","","","","75","K","2","","","95","main_expt","",""
"","bandit","177","416890","0.0-137.0-0.0","03236347","wem/bandit_party_2","A4ZW4GNQ98HV6","either","5","39","","","","","","","0","0","1","0.5348041914","","0.8","0.6","0.4","0.2","","","","","0.3430407586","0.03408771876","0.5348041914","0.2231999883","","","","","","","","","","75","K","2","","","96","main_expt","",""
"","bandit","178","418513","0.0-138.0-0.0","03236347","wem/bandit_party_2","A4ZW4GNQ98HV6","either","5","107","","","","","","","0","1","0","","0.5627844697","0.8","0.6","0.4","0.2","0.2876443713","0.05013144164","0.5627844697","0.2149045243","","","","","","","","","","","","","","75","K","2","","","97","main_expt","",""
"","bandit","179","420050","0.0-139.0-0.0","03236347","wem/bandit_party_2","A4ZW4GNQ98HV6","either","5","23","","","","","","","0","0","1","0.6177525637","","0.8","0.6","0.4","0.2","","","","","0.3310412313","0.03739082544","0.6177525637","0.1963416079","","","","","","","","","","75","K","2","","","98","main_expt","",""
"","bandit","180","421582","0.0-140.0-0.0","03236347","wem/bandit_party_2","A4ZW4GNQ98HV6","either","5","16","","","","","","","0","0","1","0.7429557604","","0.8","0.6","0.4","0.2","","","","","0.3893078888","0.1018336486","0.7429557604","0.1659387142","","","","","","","","","","75","K","2","","","99","main_expt","",""
"","bandit","181","423180","0.0-141.0-0.0","03236347","wem/bandit_party_2","A4ZW4GNQ98HV6","either","5","86","","","","","","","0","1","0","","0.6717563967","0.8","0.6","0.4","0.2","0.4049224607","0.1398961818","0.6717563967","0.145948344","","","","","","","","","","","","","","75","K","2","","","100","main_expt","",""
"","bandit","182","424812","0.0-142.0-0.0","03236347","wem/bandit_party_2","A4ZW4GNQ98HV6","either","5","118","","","","","","","1","0","0","0.6929666651","","0.8","0.6","0.4","0.2","","","","","0.3259939159","0.1830356504","0.6929666651","0.1366695263","","","","","","","","","","75","K","2","","","101","main_expt","",""
"","bandit","183","426448","0.0-143.0-0.0","03236347","wem/bandit_party_2","A4ZW4GNQ98HV6","either","5","118","","","","","","","0","1","0","","0.6827494989","0.8","0.6","0.4","0.2","0.3598161211","0.1396005595","0.6827494989","0.1543059156","","","","","","","","","","","","","","75","K","2","","","102","main_expt","",""
"","bandit","184","428082","0.0-144.0-0.0","03236347","wem/bandit_party_2","A4ZW4GNQ98HV6","either","5","118","","","","","","","0","1","0","","0.7315485361","0.8","0.6","0.4","0.2","0.3385951472","0.0853830874","0.7315485361","0.1484193465","","","","","","","","","","","","","","75","K","2","","","103","main_expt","",""
"","bandit","185","429753","0.0-145.0-0.0","03236347","wem/bandit_party_2","A4ZW4GNQ98HV6","either","5","156","","","","","","","0","0","1","","0.6852971926","0.8","0.6","0.4","0.2","0.4881545817","0.09317924201","0.6852971926","0.1516288854","","","","","","","","","","","","","","75","K","2","","","104","main_expt","",""
"","bandit","186","431453","0.0-146.0-0.0","03236347","wem/bandit_party_2","A4ZW4GNQ98HV6","either","5","189","","","","","","","0","0","1","","0.693594393","0.8","0.6","0.4","0.2","0.4790883063","0.08203708102","0.693594393","0.1283123627","","","","","","","","","","","","","","75","K","2","","","105","main_expt","",""
"","bandit","187","433363","0.0-147.0-0.0","03236347","wem/bandit_party_2","A4ZW4GNQ98HV6","either","5","393","","","","","","","1","0","0","0.6101065231","","0.8","0.6","0.4","0.2","","","","","0.4354998123","0.07160056992","0.6101065231","0.2016068708","","","","","","","","","","75","K","2","","","106","main_expt","",""
"","bandit","188","435110","0.0-148.0-0.0","03236347","wem/bandit_party_2","A4ZW4GNQ98HV6","either","5","231","","","","","","","0","1","0","","0.5549317608","0.8","0.6","0.4","0.2","0.4789065637","0.09799112372","0.5549317608","0.2344181992","","","","","","","","","","","","","","75","K","2","","","107","main_expt","",""
"","bandit","189","436848","0.0-149.0-0.0","03236347","wem/bandit_party_2","A4ZW4GNQ98HV6","either","5","221","","","","","","","0","1","0","","0.5753690117","0.8","0.6","0.4","0.2","0.2921896665","0.1101799882","0.5753690117","0.2234564856","","","","","","","","","","","","","","75","K","2","","","108","main_expt","",""
"","bandit","190","438420","0.0-150.0-0.0","03236347","wem/bandit_party_2","A4ZW4GNQ98HV6","either","5","56","","","","","","","0","0","1","0.5748544728","","0.8","0.6","0.4","0.2","","","","","0.3545905428","0.07189968831","0.5748544728","0.2494485671","","","","","","","","","","75","K","2","","","109","main_expt","",""
"","bandit","191","440134","0.0-151.0-0.0","03236347","wem/bandit_party_2","A4ZW4GNQ98HV6","either","5","199","","","","","","","0","0","1","0.6473038793","","0.8","0.6","0.4","0.2","","","","","0.3110769573","0.06101418375","0.6473038793","0.2804015825","","","","","","","","","","75","K","2","","","110","main_expt","",""
"","bandit","192","441860","0.0-152.0-0.0","03236347","wem/bandit_party_2","A4ZW4GNQ98HV6","either","5","209","","","","","","","0","1","0","","0.6296147118","0.8","0.6","0.4","0.2","0.3673577619","0.1032726654","0.6296147118","0.254644275","","","","","","","","","","","","","","75","K","2","","","111","main_expt","",""
"","bandit","193","443565","0.0-153.0-0.0","03236347","wem/bandit_party_2","A4ZW4GNQ98HV6","either","5","195","","","","","","","0","0","1","","0.6174722021","0.8","0.6","0.4","0.2","0.3439961468","0.1061240248","0.6174722021","0.2686709136","","","","","","","","","","","","","","75","K","2","","","112","main_expt","",""
"","bandit","194","445267","0.0-154.0-0.0","03236347","wem/bandit_party_2","A4ZW4GNQ98HV6","either","5","188","","","","","","","0","1","0","","0.7467975424","0.8","0.6","0.4","0.2","0.3389202036","0.1150632514","0.7467975424","0.3211503982","","","","","","","","","","","","","","75","K","2","","","113","main_expt","",""
"","bandit","195","446796","0.0-155.0-0.0","03236347","wem/bandit_party_2","A4ZW4GNQ98HV6","either","5","15","","","","","","","0","1","0","","0.7797220863","0.8","0.6","0.4","0.2","0.3122185675","0.1491479201","0.7797220863","0.3067152309","","","","","","","","","","","","","","75","K","2","","","114","main_expt","",""
"","bandit","196","448531","0.0-156.0-0.0","03236347","wem/bandit_party_2","A4ZW4GNQ98HV6","either","5","220","","","","","","","0","1","0","","0.8152411921","0.8","0.6","0.4","0.2","0.2431064996","0.08304421353","0.8152411921","0.3274584286","","","","","","","","","","","","","","75","K","2","","","115","main_expt","",""
"","bandit","197","450136","0.0-157.0-0.0","03236347","wem/bandit_party_2","A4ZW4GNQ98HV6","either","5","88","","","","","","","1","0","0","0.7362727539","","0.8","0.6","0.4","0.2","","","","","0.2225404561","0.1391191417","0.7362727539","0.2491959293","","","","","","","","","","75","K","2","","","116","main_expt","",""
"","bandit","198","451775","0.0-158.0-0.0","03236347","wem/bandit_party_2","A4ZW4GNQ98HV6","either","5","123","","","","","","","0","1","0","","0.7051771602","0.8","0.6","0.4","0.2","0.2891792411","0.1689833708","0.7051771602","0.1425156065","","","","","","","","","","","","","","75","K","2","","","117","main_expt","",""
"","bandit","199","453388","0.0-159.0-0.0","03236347","wem/bandit_party_2","A4ZW4GNQ98HV6","either","5","96","","","","","","","1","0","0","0.7099604309","","0.8","0.6","0.4","0.2","","","","","0.3147139712","0.1341186766","0.7099604309","0.1550025764","","","","","","","","","","75","K","2","","","118","main_expt","",""
"","bandit","200","454970","0.0-160.0-0.0","03236347","wem/bandit_party_2","A4ZW4GNQ98HV6","either","5","65","","","","","","","0","0","1","0.6633752461","","0.8","0.6","0.4","0.2","","","","","0.4890071061","0.1211065448","0.6633752461","0.1733664784","","","","","","","","","","75","K","2","","","119","main_expt","",""
"","bandit","201","456537","0.0-161.0-0.0","03236347","wem/bandit_party_2","A4ZW4GNQ98HV6","either","5","54","","","","","","","0","1","0","","0.6748815414","0.8","0.6","0.4","0.2","0.5238994176","0.1317257861","0.6748815414","0.2091577514","","","","","","","","","","","","","","75","K","2","","","120","main_expt","",""
"","bandit","202","458262","0.0-162.0-0.0","03236347","wem/bandit_party_2","A4ZW4GNQ98HV6","either","5","208","","","","","","","0","1","0","","0.694041989","0.8","0.6","0.4","0.2","0.4821854017","0.08851148741","0.694041989","0.2038206067","","","","","","","","","","","","","","75","K","2","","","121","main_expt","",""
"","bandit","203","459778","0.0-163.0-0.0","03236347","wem/bandit_party_2","A4ZW4GNQ98HV6","either","5","2","","","","","","","1","0","0","0.7808088803","","0.8","0.6","0.4","0.2","","","","","0.5695824443","0.1313095228","0.7808088803","0.1646827865","","","","","","","","","","75","K","2","","","122","main_expt","",""
"","bandit","204","461345","0.0-164.0-0.0","03236347","wem/bandit_party_2","A4ZW4GNQ98HV6","either","5","48","","","","","","","0","0","1","","0.7513243775","0.8","0.6","0.4","0.2","0.5884468641","0.1990721176","0.7513243775","0.08951947698","","","","","","","","","","","","","","75","K","2","","","123","main_expt","",""
"","bandit","205","462893","0.0-165.0-0.0","03236347","wem/bandit_party_2","A4ZW4GNQ98HV6","either","5","32","","","","","","","0","1","0","","0.7095593687","0.8","0.6","0.4","0.2","0.6578864121","0.3510587203","0.7095593687","0.09676311751","","","","","","","","","","","","","","75","K","2","","","124","main_expt","",""
"","bandit","206","464462","0.0-166.0-0.0","03236347","wem/bandit_party_2","A4ZW4GNQ98HV6","either","5","49","","","","","","","0","0","1","","0.6464373278","0.8","0.6","0.4","0.2","0.6610648035","0.2829787335","0.6464373278","0.08914634913","","","","","","","","","","","","","","75","K","2","","","125","main_expt","",""
"","bandit","207","466548","0.0-167.0-0.0","03236347","wem/bandit_party_2","A4ZW4GNQ98HV6","either","5","568","","","","","","","1","0","0","0.69855693","","0.8","0.6","0.4","0.2","","","","","0.6745370829","0.3253732313","0.69855693","0.1104844084","","","","","","","","","","75","K","2","","","126","main_expt","",""
"","bandit","208","468264","0.0-168.0-0.0","03236347","wem/bandit_party_2","A4ZW4GNQ98HV6","either","5","199","","","","","","","0","0","1","","0.6394960802","0.8","0.6","0.4","0.2","0.6357656308","0.2969307539","0.6394960802","0.1302598269","","","","","","","","","","","","","","75","K","2","","","127","main_expt","",""
"","bandit","209","469912","0.0-169.0-0.0","03236347","wem/bandit_party_2","A4ZW4GNQ98HV6","either","5","133","","","","","","","0","0","1","","0.5912569563","0.8","0.6","0.4","0.2","0.6746479632","0.3862322559","0.5912569563","0.1739983423","","","","","","","","","","","","","","75","K","2","","","128","main_expt","",""
"","bandit","210","471617","0.0-170.0-0.0","03236347","wem/bandit_party_2","A4ZW4GNQ98HV6","either","5","195","","","","","","","1","0","0","0.6408154383","","0.8","0.6","0.4","0.2","","","","","0.609360971","0.3399993615","0.6408154383","0.2144078185","","","","","","","","","","75","K","2","","","129","main_expt","",""
"","bandit","211","473297","0.0-171.0-0.0","03236347","wem/bandit_party_2","A4ZW4GNQ98HV6","either","5","163","","","","","","","0","0","1","0.6160079471","","0.8","0.6","0.4","0.2","","","","","0.5791775941","0.4343217783","0.6160079471","0.2133227205","","","","","","","","","","75","K","2","","","130","main_expt","",""
"","bandit","212","475014","0.0-172.0-0.0","03236347","wem/bandit_party_2","A4ZW4GNQ98HV6","either","5","197","","","","","","","0","0","1","0.6639311205","","0.8","0.6","0.4","0.2","","","","","0.6039133906","0.4116870082","0.6639311205","0.3009586135","","","","","","","","","","75","K","2","","","131","main_expt","",""
"","bandit","213","476635","0.0-173.0-0.0","03236347","wem/bandit_party_2","A4ZW4GNQ98HV6","either","5","105","","","","","","","1","0","0","0.7314418876","","0.8","0.6","0.4","0.2","","","","","0.5564977279","0.3235444519","0.7314418876","0.3257006372","","","","","","","","","","75","K","2","","","132","main_expt","",""
"","bandit","214","478278","0.0-174.0-0.0","03236347","wem/bandit_party_2","A4ZW4GNQ98HV6","either","5","126","","","","","","","1","0","0","0.7343064015","","0.8","0.6","0.4","0.2","","","","","0.5453182718","0.4204005917","0.7343064015","0.3286432436","","","","","","","","","","75","K","2","","","133","main_expt","",""
"","bandit","215","479848","0.0-175.0-0.0","03236347","wem/bandit_party_2","A4ZW4GNQ98HV6","either","5","54","","","","","","","1","0","0","0.6345074403","","0.8","0.6","0.4","0.2","","","","","0.5557967555","0.5326734174","0.6345074403","0.3343575241","","","","","","","","","","75","K","2","","","134","main_expt","",""
"","bandit","216","481491","0.0-176.0-0.0","03236347","wem/bandit_party_2","A4ZW4GNQ98HV6","either","5","123","","","","","","","0","0","1","","0.752921597","0.8","0.6","0.4","0.2","0.5719827955","0.6096825818","0.752921597","0.2917270645","","","","","","","","","","","","","","75","K","2","","","135","main_expt","",""
"","bandit","217","483399","0.0-177.0-0.0","03236347","wem/bandit_party_2","A4ZW4GNQ98HV6","either","5","390","","","","","","","0","1","0","","0.7642539739","0.8","0.6","0.4","0.2","0.4756276611","0.6827328332","0.7642539739","0.3972485531","","","","","","","","","","","","","","75","K","2","","","136","main_expt","",""
"","bandit","218","485072","0.0-178.0-0.0","03236347","wem/bandit_party_2","A4ZW4GNQ98HV6","either","5","154","","","","","","","0","0","1","","0.7166238274","0.8","0.6","0.4","0.2","0.5078949877","0.6604068036","0.7166238274","0.4294090248","","","","","","","","","","","","","","75","K","2","","","137","main_expt","",""
"","bandit","219","486761","0.0-179.0-0.0","03236347","wem/bandit_party_2","A4ZW4GNQ98HV6","either","5","170","","","","","","","0","0","1","","0.713549589","0.8","0.6","0.4","0.2","0.4938131475","0.653661868","0.713549589","0.5009988565","","","","","","","","","","","","","","75","K","2","","","138","main_expt","",""
"","bandit","220","488296","0.0-180.0-0.0","03236347","wem/bandit_party_2","A4ZW4GNQ98HV6","either","5","18","","","","","","","1","0","0","0.6905374229","","0.8","0.6","0.4","0.2","","","","","0.654612375","0.6169918179","0.6905374229","0.4993746949","","","","","","","","","","75","K","2","","","139","main_expt","",""
"","bandit","221","489911","0.0-181.0-0.0","03236347","wem/bandit_party_2","A4ZW4GNQ98HV6","either","5","100","","","","","","","0","1","0","","0.6614813372","0.8","0.6","0.4","0.2","0.52663091","0.6657435074","0.6614813372","0.5448973659","","","","","","","","","","","","","","75","K","2","","","140","main_expt","",""
"","bandit","222","491576","0.0-182.0-0.0","03236347","wem/bandit_party_2","A4ZW4GNQ98HV6","either","5","155","","","","","","","0","1","0","","0.7024355817","0.8","0.6","0.4","0.2","0.5976356642","0.6349341703","0.7024355817","0.4829720837","","","","","","","","","","","","","","75","K","2","","","141","main_expt","",""
"","bandit","223","493334","0.0-183.0-0.0","03236347","wem/bandit_party_2","A4ZW4GNQ98HV6","either","5","241","","","","","","","0","0","1","","0.7185929435","0.8","0.6","0.4","0.2","0.5956183516","0.6379356982","0.7185929435","0.5402580016","","","","","","","","","","","","","","75","K","2","","","142","main_expt","",""
"","bandit","224","494931","0.0-184.0-0.0","03236347","wem/bandit_party_2","A4ZW4GNQ98HV6","either","5","79","","","","","","","1","0","0","0.6240660549","","0.8","0.6","0.4","0.2","","","","","0.6432894639","0.6022688156","0.6240660549","0.5478015274","","","","","","","","","","75","K","2","","","143","main_expt","",""
"","bandit","225","496549","0.0-185.0-0.0","03236347","wem/bandit_party_2","A4ZW4GNQ98HV6","either","5","102","","","","","","","0","0","1","","0.5797935966","0.8","0.6","0.4","0.2","0.6691106198","0.5806731621","0.5797935966","0.5189832842","","","","","","","","","","","","","","75","K","2","","","144","main_expt","",""
"","bandit","226","498238","0.0-186.0-0.0","03236347","wem/bandit_party_2","A4ZW4GNQ98HV6","either","5","171","","","","","","","0","0","1","0.520403766","","0.8","0.6","0.4","0.2","","","","","0.677031803","0.5512406412","0.520403766","0.4556604905","","","","","","","","","","75","K","2","","","145","main_expt","",""
"","bandit","227","499897","0.0-187.0-0.0","03236347","wem/bandit_party_2","A4ZW4GNQ98HV6","either","5","142","","","","","","","0","1","0","","0.5330345992","0.8","0.6","0.4","0.2","0.6697886415","0.6055708535","0.5330345992","0.48011385","","","","","","","","","","","","","","75","K","2","","","146","main_expt","",""
"","bandit","228","501552","0.0-188.0-0.0","03236347","wem/bandit_party_2","A4ZW4GNQ98HV6","either","5","139","","","","","","","0","0","1","0.5692896821","","0.8","0.6","0.4","0.2","","","","","0.7101623398","0.5711328773","0.5692896821","0.5363471167","","","","","","","","","","75","K","2","","","147","main_expt","",""
"","bandit","229","503209","0.0-189.0-0.0","03236347","wem/bandit_party_2","A4ZW4GNQ98HV6","either","5","135","","","","","","","0","0","1","0.4877368026","","0.8","0.6","0.4","0.2","","","","","0.733230793","0.4258462921","0.4877368026","0.4929714004","","","","","","","","","","75","K","2","","","148","main_expt","",""
"","bandit","230","504882","0.0-190.0-0.0","03236347","wem/bandit_party_2","A4ZW4GNQ98HV6","either","5","155","","","","","","","0","0","1","","0.5936336812","0.8","0.6","0.4","0.2","0.7010449773","0.327967402","0.5936336812","0.4356177925","","","","","","","","","","","","","","75","K","2","","","149","main_expt","",""
"","bandit","231","506562","0.0-191.0-0.0","03236347","wem/bandit_party_2","A4ZW4GNQ98HV6","either","5","162","","","","","","","0","0","1","","0.4054894896","0.8","0.6","0.4","0.2","0.6668672445","0.4343474627","0.7027445866","0.4054894896","","","","","","","","","","","","","","76","L","3","","","150","main_expt","",""
"","bandit","232","508295","0.0-192.0-0.0","03236347","wem/bandit_party_2","A4ZW4GNQ98HV6","either","5","214","","","","","","","0","0","1","","0.5283130311","0.8","0.6","0.4","0.2","0.5612636021","0.5382828223","0.7690633033","0.5283130311","","","","","","","","","","","","","","76","L","3","","","151","main_expt","",""
"","bandit","233","510004","0.0-193.0-0.0","03236347","wem/bandit_party_2","A4ZW4GNQ98HV6","either","5","195","","","","","","","0","1","0","","0.6572277468","0.8","0.6","0.4","0.2","0.7032448324","0.6572277468","0.5989969619","0.6323123958","","","","","","","","","","","","","","74","J","1","","","152","main_expt","",""
"","bandit","234","511759","0.0-194.0-0.0","03236347","wem/bandit_party_2","A4ZW4GNQ98HV6","either","5","238","","","","","","","0","1","0","","0.668560183","0.8","0.6","0.4","0.2","0.6918543646","0.668560183","0.6126787421","0.5847243132","","","","","","","","","","","","","","74","J","1","","","153","main_expt","",""
"","bandit","235","513352","0.0-195.0-0.0","03236347","wem/bandit_party_2","A4ZW4GNQ98HV6","either","5","76","","","","","","","0","0","1","0.6954524596","","0.8","0.6","0.4","0.2","","","","","0.647195156","0.6954524596","0.5461115941","0.4285456013","","","","","","","","","","74","J","1","","","154","main_expt","",""
"","bandit","236","514961","0.0-196.0-0.0","03236347","wem/bandit_party_2","A4ZW4GNQ98HV6","either","5","91","","","","","","","0","1","0","","0.5684527538","0.8","0.6","0.4","0.2","0.6135998722","0.5684527538","0.5456348337","0.4772645207","","","","","","","","","","","","","","74","J","1","","","155","main_expt","",""
"","bandit","237","516557","0.0-197.0-0.0","03236347","wem/bandit_party_2","A4ZW4GNQ98HV6","either","5","80","","","","","","","0","0","1","0.6034375159","","0.8","0.6","0.4","0.2","","","","","0.5591033916","0.6034375159","0.4782917504","0.4982711843","","","","","","","","","","74","J","1","","","156","main_expt","",""
"","bandit","238","518077","0.0-198.0-0.0","03236347","wem/bandit_party_2","A4ZW4GNQ98HV6","either","5","1","","","","","","","0","0","1","0.5835723018","","0.8","0.6","0.4","0.2","","","","","0.5090787948","0.5835723018","0.4868537485","0.5275183668","","","","","","","","","","74","J","1","","","157","main_expt","",""
"","bandit","239","519711","0.0-199.0-0.0","03236347","wem/bandit_party_2","A4ZW4GNQ98HV6","either","5","119","","","","","","","0","1","0","","0.5234712835","0.8","0.6","0.4","0.2","0.6087372924","0.5234712835","0.5361642224","0.4489423754","","","","","","","","","","","","","","74","J","1","","","158","main_expt","",""
"","bandit","240","521339","0.0-200.0-0.0","03236347","wem/bandit_party_2","A4ZW4GNQ98HV6","either","5","111","","","","","","","0","0","1","","0.5636881177","0.8","0.6","0.4","0.2","0.6064578463","0.5636881177","0.4947944436","0.4933275403","","","","","","","","","","","","","","74","J","1","","","159","main_expt","",""
"","bandit","241","522863","0.0-201.0-0.0","03236347","wem/bandit_party_2","A4ZW4GNQ98HV6","either","5","7","","","","","","","0","0","1","0.4785340868","","0.8","0.6","0.4","0.2","","","","","0.6951258233","0.4785340868","0.5106889885","0.4521998099","","","","","","","","","","74","J","1","","","160","main_expt","",""
"","bandit","242","524501","0.0-202.0-0.0","03236347","wem/bandit_party_2","A4ZW4GNQ98HV6","either","5","120","","","","","","","1","0","0","0.5038962889","","0.8","0.6","0.4","0.2","","","","","0.7129510734","0.5038962889","0.4566704777","0.5114636712","","","","","","","","","","74","J","1","","","161","main_expt","",""
"","bandit","243","526108","0.0-203.0-0.0","03236347","wem/bandit_party_2","A4ZW4GNQ98HV6","either","5","89","","","","","","","0","0","1","0.4448395692","","0.8","0.6","0.4","0.2","","","","","0.7028034005","0.4448395692","0.3259271754","0.5242674757","","","","","","","","","","74","J","1","","","162","main_expt","",""
"","bandit","244","527631","0.0-204.0-0.0","03236347","wem/bandit_party_2","A4ZW4GNQ98HV6","either","5","7","","","","","","","1","0","0","0.471982621","","0.8","0.6","0.4","0.2","","","","","0.6293758899","0.471982621","0.2806734392","0.5687322637","","","","","","","","","","74","J","1","","","163","main_expt","",""
"","bandit","245","529150","0.0-205.0-0.0","03236347","wem/bandit_party_2","A4ZW4GNQ98HV6","either","5","1","","","","","","","1","0","0","0.6517066897","","0.8","0.6","0.4","0.2","","","","","0.6813427096","0.6517066897","0.2973163189","0.5635146256","","","","","","","","","","74","J","1","","","164","main_expt","",""
"","bandit","246","530671","0.0-206.0-0.0","03236347","wem/bandit_party_2","A4ZW4GNQ98HV6","either","5","2","","","","","","","0","0","1","","0.6339143586","0.8","0.6","0.4","0.2","0.7231406025","0.6339143586","0.2872552927","0.6588968294","","","","","","","","","","","","","","74","J","1","","","165","main_expt","",""
"","bandit","247","532189","0.0-207.0-0.0","03236347","wem/bandit_party_2","A4ZW4GNQ98HV6","either","5","1","","","","","","","0","1","0","","0.6507743373","0.8","0.6","0.4","0.2","0.6274448994","0.6507743373","0.325395791","0.74872254","","","","","","","","","","","","","","74","J","1","","","166","main_expt","",""
"","bandit","248","533739","0.0-208.0-0.0","03236347","wem/bandit_party_2","A4ZW4GNQ98HV6","either","5","18","","","","","","","0","0","1","","0.6753437353","0.8","0.6","0.4","0.2","0.6778384319","0.6753437353","0.3307719744","0.7741304825","","","","","","","","","","","","","","74","J","1","","","167","main_expt","",""
"","bandit","249","535250","0.0-209.0-0.0","03236347","wem/bandit_party_2","A4ZW4GNQ98HV6","either","5","1","","","","","","","0","0","1","0.6308788189","","0.8","0.6","0.4","0.2","","","","","0.6928942004","0.6308788189","0.4033689778","0.8873722237","","","","","","","","","","74","J","1","","","168","main_expt","",""
"","bandit","250","536803","0.0-210.0-0.0","03236347","wem/bandit_party_2","A4ZW4GNQ98HV6","either","5","33","","","","","","","0","0","1","0.4089274666","","0.8","0.6","0.4","0.2","","","","","0.6181376835","0.6289357746","0.4089274666","0.8649989169","","","","","","","","","","75","K","2","","","169","main_expt","",""
"","bandit","251","538625","0.0-211.0-0.0","03236347","wem/bandit_party_2","A4ZW4GNQ98HV6","either","5","301","","","","","","","0","1","0","","0.4033631647","0.8","0.6","0.4","0.2","0.6539136718","0.6308829817","0.4033631647","0.8634323334","","","","","","","","","","","","","","75","K","2","","","170","main_expt","",""
"","bandit","252","540468","0.0-212.0-0.0","03236347","wem/bandit_party_2","A4ZW4GNQ98HV6","either","5","324","","","","","","","0","0","1","","0.3743415885","0.8","0.6","0.4","0.2","0.7935188527","0.6008061885","0.3743415885","0.8050812792","","","","","","","","","","","","","","75","K","2","","","171","main_expt","",""
"","bandit","253","542318","0.0-213.0-0.0","03236347","wem/bandit_party_2","A4ZW4GNQ98HV6","either","5","326","","","","","","","1","0","0","0.7959482017","","0.8","0.6","0.4","0.2","","","","","0.7959482017","0.6498855282","0.4145867416","0.7635000848","","","","","","","","","","72","H","0","img/none_selected.jpg","","172","main_expt","",""
"","bandit","254","543839","0.0-214.0-0.0","03236347","wem/bandit_party_2","A4ZW4GNQ98HV6","either","5","1","","","","","","","1","0","0","0.7720377381","","0.8","0.6","0.4","0.2","","","","","0.7720377381","0.6361658802","0.4421490518","0.7793560846","","","","","","","","","","72","H","0","img/none_selected.jpg","","173","main_expt","",""
"","bandit","255","545362","0.0-215.0-0.0","03236347","wem/bandit_party_2","A4ZW4GNQ98HV6","either","5","2","","","","","","","0","0","1","0.7751150559","","0.8","0.6","0.4","0.2","","","","","0.7751150559","0.5494915933","0.373112653","0.7290013271","","","","","","","","","","72","H","0","img/none_selected.jpg","","174","main_expt","",""
"","bandit","256","546986","0.0-216.0-0.0","03236347","wem/bandit_party_2","A4ZW4GNQ98HV6","either","5","107","","","","","","","1","0","0","0.7699246652","","0.8","0.6","0.4","0.2","","","","","0.7699246652","0.6292002022","0.372221374","0.8353873757","","","","","","","","","","72","H","0","img/none_selected.jpg","","175","main_expt","",""
"","bandit","257","548598","0.0-217.0-0.0","03236347","wem/bandit_party_2","A4ZW4GNQ98HV6","either","5","94","","","","","","","1","0","0","0.8092821718","","0.8","0.6","0.4","0.2","","","","","0.8092821718","0.4999600136","0.3594456443","0.8589437223","","","","","","","","","","72","H","0","img/none_selected.jpg","","176","main_expt","",""
"","bandit","258","550181","0.0-218.0-0.0","03236347","wem/bandit_party_2","A4ZW4GNQ98HV6","either","5","61","","","","","","","0","0","1","0.7728258073","","0.8","0.6","0.4","0.2","","","","","0.7728258073","0.4500304274","0.3705823864","0.8824379228","","","","","","","","","","72","H","0","img/none_selected.jpg","","177","main_expt","",""
"","bandit","259","551701","0.0-219.0-0.0","03236347","wem/bandit_party_2","A4ZW4GNQ98HV6","either","5","0","","","","","","","0","0","1","0.8128952128","","0.8","0.6","0.4","0.2","","","","","0.8128952128","0.4626099748","0.3042584581","0.8862787626","","","","","","","","","","72","H","0","img/none_selected.jpg","","178","main_expt","",""
"","bandit","260","553245","0.0-220.0-0.0","03236347","wem/bandit_party_2","A4ZW4GNQ98HV6","either","5","22","","","","","","","0","0","1","","0.7878088044","0.8","0.6","0.4","0.2","0.7878088044","0.3074659707","0.3056645996","0.8851661012","","","","","","","","","","","","","","72","H","0","img/none_selected.jpg","","179","main_expt","",""
"","bandit","261","554814","0.0-221.0-0.0","03236347","wem/bandit_party_2","A4ZW4GNQ98HV6","either","5","9","","","","","","","1","0","0","0.7626215198","","0.8","0.6","0.4","0.2","","","","","0.7626215198","0.2445312817","0.3124458775","0.8623840347","","","","","","","","","","72","H","0","img/none_selected.jpg","","180","main_expt","",""
"","bandit","262","556430","0.0-222.0-0.0","03236347","wem/bandit_party_2","A4ZW4GNQ98HV6","either","5","105","","","","","","","0","1","0","","0.7059637017","0.8","0.6","0.4","0.2","0.7059637017","0.2284870313","0.2597333415","0.8815853427","","","","","","","","","","","","","","72","H","0","img/none_selected.jpg","","181","main_expt","",""
"","bandit","263","558010","0.0-223.0-0.0","03236347","wem/bandit_party_2","A4ZW4GNQ98HV6","either","5","63","","","","","","","1","0","0","0.6691747745","","0.8","0.6","0.4","0.2","","","","","0.6691747745","0.2195648065","0.2117009826","0.8955826305","","","","","","","","","","72","H","0","img/none_selected.jpg","","182","main_expt","",""
"","bandit","264","559605","0.0-224.0-0.0","03236347","wem/bandit_party_2","A4ZW4GNQ98HV6","either","5","84","","","","","","","1","0","0","0.5523838876","","0.8","0.6","0.4","0.2","","","","","0.5523838876","0.2327716204","0.2327762041","0.9362873759","","","","","","","","","","72","H","0","img/none_selected.jpg","","183","main_expt","",""
"","bandit","265","561192","0.0-225.0-0.0","03236347","wem/bandit_party_2","A4ZW4GNQ98HV6","either","5","65","","","","","","","0","1","0","","0.5451875246","0.8","0.6","0.4","0.2","0.5451875246","0.3207903029","0.2750618684","0.9484326647","","","","","","","","","","","","","","72","H","0","img/none_selected.jpg","","184","main_expt","",""
"","bandit","266","562806","0.0-226.0-0.0","03236347","wem/bandit_party_2","A4ZW4GNQ98HV6","either","5","96","","","","","","","0","0","1","0.6090771744","","0.8","0.6","0.4","0.2","","","","","0.6090771744","0.3609723674","0.2305846964","0.9660783121","","","","","","","","","","72","H","0","img/none_selected.jpg","","185","main_expt","",""
"","bandit","267","564374","0.0-227.0-0.0","03236347","wem/bandit_party_2","A4ZW4GNQ98HV6","either","5","45","","","","","","","0","0","1","0.5810996076","","0.8","0.6","0.4","0.2","","","","","0.5810996076","0.4442397518","0.2597669424","0.9665376101","","","","","","","","","","72","H","0","img/none_selected.jpg","","186","main_expt","",""
"","bandit","268","565972","0.0-228.0-0.0","03236347","wem/bandit_party_2","A4ZW4GNQ98HV6","either","5","77","","","","","","","1","0","0","0.4445572548","","0.8","0.6","0.4","0.2","","","","","0.4445572548","0.4478442549","0.2143742246","0.9644184371","","","","","","","","","","72","H","0","img/none_selected.jpg","","187","main_expt","",""
"","bandit","269","567595","0.0-229.0-0.0","03236347","wem/bandit_party_2","A4ZW4GNQ98HV6","either","5","114","","","","","","","0","0","1","","0.4113554433","0.8","0.6","0.4","0.2","0.4113554433","0.4026396634","0.2294707647","0.9731237162","","","","","","","","","","","","","","72","H","0","img/none_selected.jpg","","188","main_expt","",""
"","bandit","270","569211","0.0-230.0-0.0","03236347","wem/bandit_party_2","A4ZW4GNQ98HV6","either","5","96","","","","","","","0","1","0","","0.4053553249","0.8","0.6","0.4","0.2","0.4053553249","0.5072589837","0.2469430613","0.9787475226","","","","","","","","","","","","","","72","H","0","img/none_selected.jpg","","189","main_expt","",""
"","bandit","271","570799","0.0-231.0-0.0","03236347","wem/bandit_party_2","A4ZW4GNQ98HV6","either","5","69","","","","","","","0","0","1","0.4927633492","","0.8","0.6","0.4","0.2","","","","","0.4927633492","0.5234843415","0.2437728268","0.9847816181","","","","","","","","","","72","H","0","img/none_selected.jpg","","190","main_expt","",""
"","bandit","272","572422","0.0-232.0-0.0","03236347","wem/bandit_party_2","A4ZW4GNQ98HV6","either","5","104","","","","","","","0","0","1","0.428678546","","0.8","0.6","0.4","0.2","","","","","0.428678546","0.5054414672","0.1655579887","0.9713064587","","","","","","","","","","72","H","0","img/none_selected.jpg","","191","main_expt","",""
"","bandit","273","574118","0.0-233.0-0.0","03236347","wem/bandit_party_2","A4ZW4GNQ98HV6","either","5","175","","","","","","","0","0","1","","0.3358015867","0.8","0.6","0.4","0.2","0.3358015867","0.7037613703","0.1501427492","0.9558555722","","","","","","","","","","","","","","72","H","0","img/none_selected.jpg","","192","main_expt","",""
"","bandit","274","575815","0.0-234.0-0.0","03236347","wem/bandit_party_2","A4ZW4GNQ98HV6","either","5","175","","","","","","","1","0","0","0.5980286963","","0.8","0.6","0.4","0.2","","","","","0.2816430679","0.5980286963","0.2062706367","0.9443800135","","","","","","","","","","74","J","1","","","193","main_expt","",""
"","bandit","275","577628","0.0-235.0-0.0","03236347","wem/bandit_party_2","A4ZW4GNQ98HV6","either","5","293","","","","","","","1","0","0","0.5607231578","","0.8","0.6","0.4","0.2","","","","","0.2951519504","0.5607231578","0.2782937815","0.947825408","","","","","","","","","","74","J","1","","","194","main_expt","",""
"","bandit","276","579188","0.0-236.0-0.0","03236347","wem/bandit_party_2","A4ZW4GNQ98HV6","either","5","36","","","","","","","0","1","0","","0.6222063369","0.8","0.6","0.4","0.2","0.2482291913","0.6222063369","0.2393938873","0.9531013361","","","","","","","","","","","","","","74","J","1","","","195","main_expt","",""
"","bandit","277","580731","0.0-237.0-0.0","03236347","wem/bandit_party_2","A4ZW4GNQ98HV6","either","5","25","","","","","","","0","0","1","","0.7092042058","0.8","0.6","0.4","0.2","0.2548661126","0.7092042058","0.3385483064","0.9653581558","","","","","","","","","","","","","","74","J","1","","","196","main_expt","",""
"","bandit","278","582270","0.0-238.0-0.0","03236347","wem/bandit_party_2","A4ZW4GNQ98HV6","either","5","1","","","","","","","1","0","0","0.7397780251","","0.8","0.6","0.4","0.2","","","","","0.2789697966","0.7397780251","0.3474357388","0.9774234012","","","","","","","","","","74","J","1","","","197","main_expt","",""
"","bandit","279","583820","0.0-239.0-0.0","03236347","wem/bandit_party_2","A4ZW4GNQ98HV6","either","5","27","","","","","","","0","0","1","0.6977166648","","0.8","0.6","0.4","0.2","","","","","0.2893473624","0.6977166648","0.4511600961","0.9866112083","","","","","","","","","","74","J","1","","","198","main_expt","",""
"","bandit","280","585456","0.0-240.0-0.0","03236347","wem/bandit_party_2","A4ZW4GNQ98HV6","either","5","113","","","","","","","1","0","0","0.591703898","","0.8","0.6","0.4","0.2","","","","","0.2499124536","0.591703898","0.4387406867","0.9889390623","","","","","","","","","","74","J","1","","","199","main_expt","",""
"","bandit","281","586990","0.0-241.0-0.0","03236347","wem/bandit_party_2","A4ZW4GNQ98HV6","either","5","15","","","","","","","0","0","1","","0.5107967375","0.8","0.6","0.4","0.2","0.2643429758","0.5107967375","0.4368135332","0.9894921125","","","","","","","","","","","","","","74","J","1","","","200","main_expt","",""
"","bandit","282","588517","0.0-242.0-0.0","03236347","wem/bandit_party_2","A4ZW4GNQ98HV6","either","5","2","","","","","","","0","0","1","0.6528148869","","0.8","0.6","0.4","0.2","","","","","0.2382870841","0.6528148869","0.3070084091","0.989248002","","","","","","","","","","74","J","1","","","201","main_expt","",""
"","bandit","283","590036","0.0-243.0-0.0","03236347","wem/bandit_party_2","A4ZW4GNQ98HV6","either","5","1","","","","","","","1","0","0","0.6892998309","","0.8","0.6","0.4","0.2","","","","","0.1604624283","0.6892998309","0.3603585946","0.9957983392","","","","","","","","","","74","J","1","","","202","main_expt","",""
"","bandit","284","592171","0.0-244.0-0.0","03236347","wem/bandit_party_2","A4ZW4GNQ98HV6","either","5","621","","","","","","","0","0","1","","0.6989476798","0.8","0.6","0.4","0.2","0.1407610566","0.6989476798","0.260320329","0.9958893","","","","","","","","","","","","","","74","J","1","","","203","main_expt","",""
"","bandit","285","593940","0.0-245.0-0.0","03236347","wem/bandit_party_2","A4ZW4GNQ98HV6","either","5","250","","","","","","","0","0","1","","0.2003029851","0.8","0.6","0.4","0.2","0.1343245238","0.772264117","0.2003029851","0.9955962674","","","","","","","","","","","","","","75","K","2","","","204","main_expt","",""
"","bandit","286","595949","0.0-246.0-0.0","03236347","wem/bandit_party_2","A4ZW4GNQ98HV6","either","5","494","","","","","","","0","0","1","","0.1922312923","0.8","0.6","0.4","0.2","0.1715400642","0.7366863645","0.1922312923","0.9943432705","","","","","","","","","","","","","","75","K","2","","","205","main_expt","",""
"","bandit","287","597503","0.0-247.0-0.0","03236347","wem/bandit_party_2","A4ZW4GNQ98HV6","either","5","32","","","","","","","0","0","1","","0.1936085521","0.8","0.6","0.4","0.2","0.117617648","0.7477287432","0.1936085521","0.9982320458","","","","","","","","","","","","","","75","K","2","","","206","main_expt","",""
"","bandit","288","599106","0.0-248.0-0.0","03236347","wem/bandit_party_2","A4ZW4GNQ98HV6","either","5","84","","","","","","","0","0","1","","0.8185776196","0.8","0.6","0.4","0.2","0.1182717864","0.8185776196","0.1821705986","0.9976530308","","","","","","","","","","","","","","74","J","1","","","207","main_expt","",""
"","bandit","289","600629","0.0-249.0-0.0","03236347","wem/bandit_party_2","A4ZW4GNQ98HV6","either","5","2","","","","","","","1","0","0","0.8161769506","","0.8","0.6","0.4","0.2","","","","","0.1445047472","0.8161769506","0.1145050302","0.9961811318","","","","","","","","","","74","J","1","","","208","main_expt","",""
"","bandit","290","602169","0.0-250.0-0.0","03236347","wem/bandit_party_2","A4ZW4GNQ98HV6","either","5","21","","","","","","","1","0","0","0.8224464957","","0.8","0.6","0.4","0.2","","","","","0.1264159314","0.8224464957","0.1206637037","0.9977639941","","","","","","","","","","74","J","1","","","209","main_expt","",""
"","bandit","291","603817","0.0-251.0-0.0","03236347","wem/bandit_party_2","A4ZW4GNQ98HV6","either","5","125","","","","","","","0","0","1","0.7392866018","","0.8","0.6","0.4","0.2","","","","","0.1208777168","0.7392866018","0.1422927172","0.9953783407","","","","","","","","","","74","J","1","","","210","main_expt","",""
"","bandit","292","605588","0.0-252.0-0.0","03236347","wem/bandit_party_2","A4ZW4GNQ98HV6","either","5","248","","","","","","","1","0","0","0.9976351195","","0.8","0.6","0.4","0.2","","","","","0.1733448518","0.7125411919","0.1811219169","0.9976351195","","","","","","","","","","76","L","3","","","211","main_expt","",""
"","bandit","293","607110","0.0-253.0-0.0","03236347","wem/bandit_party_2","A4ZW4GNQ98HV6","either","5","1","","","","","","","0","1","0","","0.9983589292","0.8","0.6","0.4","0.2","0.1085262221","0.7191881067","0.1982527665","0.9983589292","","","","","","","","","","","","","","76","L","3","","","212","main_expt","",""
"","bandit","294","608666","0.0-254.0-0.0","03236347","wem/bandit_party_2","A4ZW4GNQ98HV6","either","5","35","","","","","","","1","0","0","0.9960427138","","0.8","0.6","0.4","0.2","","","","","0.08145678985","0.7523845147","0.124448309","0.9960427138","","","","","","","","","","76","L","3","","","213","main_expt","",""
"","bandit","295","610359","0.0-255.0-0.0","03236347","wem/bandit_party_2","A4ZW4GNQ98HV6","either","5","175","","","","","","","0","1","0","","0.9924650588","0.8","0.6","0.4","0.2","0.05725631888","0.7193420906","0.1036015692","0.9924650588","","","","","","","","","","","","","","76","L","3","","","214","main_expt","",""
"","bandit","296","612020","0.0-256.0-0.0","03236347","wem/bandit_party_2","A4ZW4GNQ98HV6","either","5","142","","","","","","","0","1","0","","0.9858211903","0.8","0.6","0.4","0.2","0.04356988172","0.6784461291","0.14458031","0.9858211903","","","","","","","","","","","","","","76","L","3","","","215","main_expt","",""
"","bandit","297","613698","0.0-257.0-0.0","03236347","wem/bandit_party_2","A4ZW4GNQ98HV6","either","5","155","","","","","","","0","1","0","","0.9915289077","0.8","0.6","0.4","0.2","0.04316154837","0.5658185063","0.2094876981","0.9915289077","","","","","","","","","","","","","","76","L","3","","","216","main_expt","",""
"","bandit","298","615254","0.0-258.0-0.0","03236347","wem/bandit_party_2","A4ZW4GNQ98HV6","either","5","43","","","","","","","0","1","0","","0.9929544916","0.8","0.6","0.4","0.2","0.03453558383","0.4886301847","0.24936904","0.9929544916","","","","","","","","","","","","","","76","L","3","","","217","main_expt","",""
"","bandit","299","616842","0.0-259.0-0.0","03236347","wem/bandit_party_2","A4ZW4GNQ98HV6","either","5","67","","","","","","","0","1","0","","0.9741721496","0.8","0.6","0.4","0.2","0.03800932399","0.5674985979","0.2006789107","0.9741721496","","","","","","","","","","","","","","76","L","3","","","218","main_expt","",""
"","bandit","300","618488","0.0-260.0-0.0","03236347","wem/bandit_party_2","A4ZW4GNQ98HV6","either","5","127","","","","","","","0","1","0","","0.9413517393","0.8","0.6","0.4","0.2","0.07914639327","0.6088772151","0.2118480588","0.9413517393","","","","","","","","","","","","","","76","L","3","","","219","main_expt","",""
"","bandit","301","620090","0.0-261.0-0.0","03236347","wem/bandit_party_2","A4ZW4GNQ98HV6","either","5","83","","","","","","","0","1","0","","0.9230346446","0.8","0.6","0.4","0.2","0.07044987786","0.5856238885","0.2159213458","0.9230346446","","","","","","","","","","","","","","76","L","3","","","220","main_expt","",""
"","bandit","302","621685","0.0-262.0-0.0","03236347","wem/bandit_party_2","A4ZW4GNQ98HV6","either","5","77","","","","","","","0","1","0","","0.9216350241","0.8","0.6","0.4","0.2","0.1351506501","0.6601978635","0.2097338805","0.9216350241","","","","","","","","","","","","","","76","L","3","","","221","main_expt","",""
"","bandit","303","623308","0.0-263.0-0.0","03236347","wem/bandit_party_2","A4ZW4GNQ98HV6","either","5","105","","","","","","","0","1","0","","0.9093406134","0.8","0.6","0.4","0.2","0.2099108548","0.6540659739","0.1468233299","0.9093406134","","","","","","","","","","","","","","76","L","3","","","222","main_expt","",""
"","bandit","304","624942","0.0-264.0-0.0","03236347","wem/bandit_party_2","A4ZW4GNQ98HV6","either","5","125","","","","","","","0","1","0","","0.8361447498","0.8","0.6","0.4","0.2","0.2971693323","0.7010542315","0.1379540926","0.8361447498","","","","","","","","","","","","","","76","L","3","","","223","main_expt","",""
"","bandit","305","626656","0.0-265.0-0.0","03236347","wem/bandit_party_2","A4ZW4GNQ98HV6","either","5","202","","","","","","","0","0","1","","0.8626161161","0.8","0.6","0.4","0.2","0.2754671199","0.7972730751","0.1943723139","0.8626161161","","","","","","","","","","","","","","76","L","3","","","224","main_expt","",""
"","bandit","306","628324","0.0-266.0-0.0","03236347","wem/bandit_party_2","A4ZW4GNQ98HV6","either","5","148","","","","","","","0","1","0","","0.9176165053","0.8","0.6","0.4","0.2","0.2483133052","0.8726314772","0.2949344278","0.9176165053","","","","","","","","","","","","","","76","L","3","","","225","main_expt","",""
"","bandit","307","629989","0.0-267.0-0.0","03236347","wem/bandit_party_2","A4ZW4GNQ98HV6","either","5","144","","","","","","","0","1","0","","0.9516545376","0.8","0.6","0.4","0.2","0.2945032007","0.8569150835","0.4040967375","0.9516545376","","","","","","","","","","","","","","76","L","3","","","226","main_expt","",""
"","bandit","308","631660","0.0-268.0-0.0","03236347","wem/bandit_party_2","A4ZW4GNQ98HV6","either","5","162","","","","","","","0","1","0","","0.9448551655","0.8","0.6","0.4","0.2","0.2544933329","0.8773762417","0.4369809926","0.9448551655","","","","","","","","","","","","","","76","L","3","","","227","main_expt","",""
"","bandit","309","633183","0.0-269.0-0.0","03236347","wem/bandit_party_2","A4ZW4GNQ98HV6","either","5","1","","","","","","","0","1","0","","0.9298030406","0.8","0.6","0.4","0.2","0.22227057","0.8514828757","0.4228749262","0.9298030406","","","","","","","","","","","","","","76","L","3","","","228","main_expt","",""
"","bandit","310","634849","0.0-270.0-0.0","03236347","wem/bandit_party_2","A4ZW4GNQ98HV6","either","5","123","","","","","","","0","1","0","","0.9022116856","0.8","0.6","0.4","0.2","0.2319557967","0.893786405","0.4953143479","0.9022116856","","","","","","","","","","","","","","76","L","3","","","229","main_expt","",""
"","bandit","311","636522","0.0-271.0-0.0","03236347","wem/bandit_party_2","A4ZW4GNQ98HV6","either","5","164","","","","","","","0","1","0","","0.8934587516","0.8","0.6","0.4","0.2","0.3107577299","0.9350514117","0.4752889979","0.8934587516","","","","","","","","","","","","","","76","L","3","","","230","main_expt","",""
"","bandit","312","638186","0.0-272.0-0.0","03236347","wem/bandit_party_2","A4ZW4GNQ98HV6","either","5","142","","","","","","","0","1","0","","0.8403693225","0.8","0.6","0.4","0.2","0.3046703461","0.9139197991","0.4887049862","0.8403693225","","","","","","","","","","","","","","76","L","3","","","231","main_expt","",""
"","bandit","313","639704","0.0-273.0-0.0","03236347","wem/bandit_party_2","A4ZW4GNQ98HV6","either","5","1","","","","","","","0","1","0","","0.7373772703","0.8","0.6","0.4","0.2","0.4259459217","0.8753904063","0.6065944358","0.7373772703","","","","","","","","","","","","","","76","L","3","","","232","main_expt","",""
"","bandit","314","641387","0.0-274.0-0.0","03236347","wem/bandit_party_2","A4ZW4GNQ98HV6","either","5","165","","","","","","","1","0","0","0.7275490615","","0.8","0.6","0.4","0.2","","","","","0.3391655585","0.807664976","0.5320380184","0.7275490615","","","","","","","","","","76","L","3","","","233","main_expt","",""
"","bandit","315","643093","0.0-275.0-0.0","03236347","wem/bandit_party_2","A4ZW4GNQ98HV6","either","5","188","","","","","","","0","1","0","","0.6910989812","0.8","0.6","0.4","0.2","0.3380141995","0.817303243","0.5845689413","0.6910989812","","","","","","","","","","","","","","76","L","3","","","234","main_expt","",""
