"consent","trial_type","trial_index","time_elapsed","internal_node_id","subjID","study","MID","cond","drift","rt","responses","button_pressed","key_press","like","value","connected","gems","bombs","no_reward","GemPrChosen","BombPrChosen","GainOverPainPr_0","GainOverPainPr_1","GainOverPainPr_2","GainOverPainPr_3","LosePr_0","LosePr_1","LosePr_2","LosePr_3","WinPr_0","WinPr_1","WinPr_2","WinPr_3","Q0","Q1","Q2","gender","age","ethnicity","label","expt_phase","target","respCharCode","respKey","respChoiceNum","respChoice","practice","trial_counter","trial_label","Q0_index","view_history"
"GDM/GDM_behavioral_consent_30min_online.html","consent","0","8330","0.0-0.0","03643241","wem/bandit_party_2","A20MYUKGSXUKM7","either","2","","","","","","","","","","","","","","","","","","","","","","","","","","","","","","","","","","","","","","","","","",""
"","survey-text","1","11010","0.0-1.0","03643241","wem/bandit_party_2","A20MYUKGSXUKM7","either","2","1669","{""Q0"":""A20MYUKGSXUKM7""}","","","","","","","","","","","","","","","","","","","","","","","","","","","","","","","","","","","","","","","",""
"","button-response","2","14600","0.0-2.0","03643241","wem/bandit_party_2","A20MYUKGSXUKM7","either","2","2583","","2","","","","","","","","","","","","","","","","","","","","","","","","","","","","","","","","","","","","","","",""
"","text-replacement","3","21882","0.0-3.0","03643241","wem/bandit_party_2","A20MYUKGSXUKM7","either","2","6279","","","32","","","","","","","","","","","","","","","","","","","","","","","","","","","","","","","","","","","","","",""
"","text-replacement","4","22759","0.0-4.0","03643241","wem/bandit_party_2","A20MYUKGSXUKM7","either","2","873","","","32","","","","","","","","","","","","","","","","","","","","","","","","","","","","","","","","","","","","","",""
"","text-replacement","5","23303","0.0-5.0-0.0","03643241","wem/bandit_party_2","A20MYUKGSXUKM7","either","2","542","","","32","","","","","","","","","","","","","","","","","","","","","","","","","","","","","","","","","","","","","",""
"","identification","6","28415","0.0-6.0-0.0","03643241","wem/bandit_party_2","A20MYUKGSXUKM7","either","2","5094","","","","1","1","1","","","","","","","","","","","","","","","","","","","","","","","","pre","identification_pre","the Republican Party","","","","","","","","",""
"","identification","7","33256","0.0-6.0-1.0","03643241","wem/bandit_party_2","A20MYUKGSXUKM7","either","2","3821","","","","0","0","0","","","","","","","","","","","","","","","","","","","","","","","","pre","identification_pre","the Democratic Party","","","","","","","","",""
"","text-replacement","8","39336","0.0-7.0","03643241","wem/bandit_party_2","A20MYUKGSXUKM7","either","2","5076","","","32","","","","","","","","","","","","","","","","","","","","","","","","","","","","","","","","","","","","","",""
"","text-replacement","9","39880","0.0-8.0","03643241","wem/bandit_party_2","A20MYUKGSXUKM7","either","2","542","","","32","","","","","","","","","","","","","","","","","","","","","","","","","","","","","","","","","","","","","",""
"","text-replacement","10","40245","0.0-9.0","03643241","wem/bandit_party_2","A20MYUKGSXUKM7","either","2","361","","","32","","","","","","","","","","","","","","","","","","","","","","","","","","","","","","","","","","","","","",""
"","text-replacement","11","40578","0.0-10.0","03643241","wem/bandit_party_2","A20MYUKGSXUKM7","either","2","330","","","32","","","","","","","","","","","","","","","","","","","","","","","","","","","","","","","","","","","","","",""
"","text-replacement","12","40912","0.0-11.0","03643241","wem/bandit_party_2","A20MYUKGSXUKM7","either","2","331","","","32","","","","","","","","","","","","","","","","","","","","","","","","","","","","","","","","","","","","","",""
"","bandit","13","43898","0.0-12.0-0.0","03643241","wem/bandit_party_2","A20MYUKGSXUKM7","either","2","1477","","","","","","","0","0","1","0","0","","","","","0","","","","0","","","","","","","","","","","","","74","J","0","img/none_selected_demo.jpg","true","0","","",""
"","bandit","14","45803","0.0-13.0-0.0","03643241","wem/bandit_party_2","A20MYUKGSXUKM7","either","2","399","","","","","","","0","0","1","0","0","","","","","0","","","","0","","","","","","","","","","","","","75","K","0","img/none_selected_demo.jpg","true","0","","",""
"","text-replacement","15","46706","0.0-14.0","03643241","wem/bandit_party_2","A20MYUKGSXUKM7","either","2","900","","","32","","","","","","","","","","","","","","","","","","","","","","","","","","","","","","","","","","","","","",""
"","text-replacement","16","47070","0.0-15.0","03643241","wem/bandit_party_2","A20MYUKGSXUKM7","either","2","362","","","32","","","","","","","","","","","","","","","","","","","","","","","","","","","","","","","","","","","","","",""
"","text-replacement","17","47358","0.0-16.0","03643241","wem/bandit_party_2","A20MYUKGSXUKM7","either","2","286","","","32","","","","","","","","","","","","","","","","","","","","","","","","","","","","","","","","","","","","","",""
"","text-replacement","18","47602","0.0-17.0","03643241","wem/bandit_party_2","A20MYUKGSXUKM7","either","2","242","","","32","","","","","","","","","","","","","","","","","","","","","","","","","","","","","","","","","","","","","",""
"","bandit","19","49739","0.0-18.0-0.0","03643241","wem/bandit_party_2","A20MYUKGSXUKM7","either","2","632","","","","","","","0","0","1","0.2","","0.5","0.5","","","","","","","0.8","0.2","","","","","","","","","","","","75","K","1","","true","0","80_20_practice","",""
"","bandit","20","51767","0.0-18.0-1.0","03643241","wem/bandit_party_2","A20MYUKGSXUKM7","either","2","521","","","","","","","1","0","0","0.2","","0.5","0.5","","","","","","","0.8","0.2","","","","","","","","","","","","75","K","1","","true","0","80_20_practice","",""
"","bandit","21","53672","0.0-18.0-2.0","03643241","wem/bandit_party_2","A20MYUKGSXUKM7","either","2","397","","","","","","","0","0","1","0.2","","0.5","0.5","","","","","","","0.8","0.2","","","","","","","","","","","","75","K","1","","true","0","80_20_practice","",""
"","bandit","22","55517","0.0-18.0-3.0","03643241","wem/bandit_party_2","A20MYUKGSXUKM7","either","2","338","","","","","","","0","0","1","0.8","","0.5","0.5","","","","","","","0.8","0.2","","","","","","","","","","","","74","J","0","img/none_selected_demo.jpg","true","0","80_20_practice","",""
"","bandit","23","57303","0.0-18.0-4.0","03643241","wem/bandit_party_2","A20MYUKGSXUKM7","either","2","278","","","","","","","0","0","1","","0.8","0.5","0.5","","","0.8","0.2","","","","","","","","","","","","","","","","74","J","0","img/none_selected_demo.jpg","true","0","80_20_practice","",""
"","bandit","24","58937","0.0-18.0-5.0","03643241","wem/bandit_party_2","A20MYUKGSXUKM7","either","2","127","","","","","","","0","0","1","0.2","","0.5","0.5","","","","","","","0.8","0.2","","","","","","","","","","","","75","K","1","","true","0","80_20_practice","",""
"","bandit","25","60723","0.0-18.0-6.0","03643241","wem/bandit_party_2","A20MYUKGSXUKM7","either","2","278","","","","","","","0","1","0","","0.2","0.5","0.5","","","0.8","0.2","","","","","","","","","","","","","","","","75","K","1","","true","0","80_20_practice","",""
"","bandit","26","62629","0.0-18.0-7.0","03643241","wem/bandit_party_2","A20MYUKGSXUKM7","either","2","399","","","","","","","0","0","1","","0.2","0.5","0.5","","","0.8","0.2","","","","","","","","","","","","","","","","75","K","1","","true","0","80_20_practice","",""
"","bandit","27","64413","0.0-18.0-8.0","03643241","wem/bandit_party_2","A20MYUKGSXUKM7","either","2","277","","","","","","","0","0","1","","0.2","0.5","0.5","","","0.8","0.2","","","","","","","","","","","","","","","","75","K","1","","true","0","80_20_practice","",""
"","bandit","28","66229","0.0-18.0-9.0","03643241","wem/bandit_party_2","A20MYUKGSXUKM7","either","2","309","","","","","","","0","1","0","","0.8","0.5","0.5","","","0.8","0.2","","","","","","","","","","","","","","","","74","J","0","img/none_selected_demo.jpg","true","0","80_20_practice","",""
"","bandit","29","68014","0.0-18.0-10.0","03643241","wem/bandit_party_2","A20MYUKGSXUKM7","either","2","277","","","","","","","0","0","1","0.2","","0.5","0.5","","","","","","","0.8","0.2","","","","","","","","","","","","75","K","1","","true","0","80_20_practice","",""
"","bandit","30","69748","0.0-18.0-11.0","03643241","wem/bandit_party_2","A20MYUKGSXUKM7","either","2","227","","","","","","","0","1","0","","0.2","0.5","0.5","","","0.8","0.2","","","","","","","","","","","","","","","","75","K","1","","true","0","80_20_practice","",""
"","bandit","31","71503","0.0-18.0-12.0","03643241","wem/bandit_party_2","A20MYUKGSXUKM7","either","2","248","","","","","","","0","1","0","","0.8","0.5","0.5","","","0.8","0.2","","","","","","","","","","","","","","","","74","J","0","img/none_selected_demo.jpg","true","0","80_20_practice","",""
"","bandit","32","73288","0.0-18.0-13.0","03643241","wem/bandit_party_2","A20MYUKGSXUKM7","either","2","278","","","","","","","0","0","1","","0.2","0.5","0.5","","","0.8","0.2","","","","","","","","","","","","","","","","75","K","1","","true","0","80_20_practice","",""
"","bandit","33","75042","0.0-18.0-14.0","03643241","wem/bandit_party_2","A20MYUKGSXUKM7","either","2","247","","","","","","","0","0","1","","0.2","0.5","0.5","","","0.8","0.2","","","","","","","","","","","","","","","","75","K","1","","true","0","80_20_practice","",""
"","bandit","34","76736","0.0-18.0-15.0","03643241","wem/bandit_party_2","A20MYUKGSXUKM7","either","2","187","","","","","","","0","0","1","0.2","","0.5","0.5","","","","","","","0.8","0.2","","","","","","","","","","","","75","K","1","","true","0","80_20_practice","",""
"","bandit","35","78341","0.0-18.0-16.0","03643241","wem/bandit_party_2","A20MYUKGSXUKM7","either","2","96","","","","","","","1","0","0","0.2","","0.5","0.5","","","","","","","0.8","0.2","","","","","","","","","","","","75","K","1","","true","0","80_20_practice","",""
"","bandit","36","80095","0.0-18.0-17.0","03643241","wem/bandit_party_2","A20MYUKGSXUKM7","either","2","248","","","","","","","1","0","0","0.2","","0.5","0.5","","","","","","","0.8","0.2","","","","","","","","","","","","75","K","1","","true","0","80_20_practice","",""
"","bandit","37","81850","0.0-18.0-18.0","03643241","wem/bandit_party_2","A20MYUKGSXUKM7","either","2","248","","","","","","","0","0","1","","0.2","0.5","0.5","","","0.8","0.2","","","","","","","","","","","","","","","","75","K","1","","true","0","80_20_practice","",""
"","bandit","38","83425","0.0-18.0-19.0","03643241","wem/bandit_party_2","A20MYUKGSXUKM7","either","2","68","","","","","","","0","0","1","","0.2","0.5","0.5","","","0.8","0.2","","","","","","","","","","","","","","","","75","K","1","","true","0","80_20_practice","",""
"","text-replacement","39","85371","0.0-19.0","03643241","wem/bandit_party_2","A20MYUKGSXUKM7","either","2","1943","","","32","","","","","","","","","","","","","","","","","","","","","","","","","","","","","","","","","","","","","",""
"","bandit","40","87451","0.0-20.0-0.0","03643241","wem/bandit_party_2","A20MYUKGSXUKM7","either","2","571","","","","","","","0","1","0","0","1","","","","","0","1","","","1","0","","","","","","","","","","","","75","K","1","","true","0","","",""
"","text-replacement","41","88669","0.0-21.0","03643241","wem/bandit_party_2","A20MYUKGSXUKM7","either","2","1214","","","32","","","","","","","","","","","","","","","","","","","","","","","","","","","","","","","","","","","","","",""
"","text-replacement","42","91518","0.0-22.0","03643241","wem/bandit_party_2","A20MYUKGSXUKM7","either","2","2846","","","32","","","","","","","","","","","","","","","","","","","","","","","","","","","","","","","","","","","","","",""
"","text-replacement","43","91909","0.0-23.0","03643241","wem/bandit_party_2","A20MYUKGSXUKM7","either","2","388","","","32","","","","","","","","","","","","","","","","","","","","","","","","","","","","","","","","","","","","","",""
"","text-replacement","44","92304","0.0-24.0","03643241","wem/bandit_party_2","A20MYUKGSXUKM7","either","2","391","","","32","","","","","","","","","","","","","","","","","","","","","","","","","","","","","","","","","","","","","",""
"","text-replacement","45","93694","0.0-25.0","03643241","wem/bandit_party_2","A20MYUKGSXUKM7","either","2","1387","","","32","","","","","","","","","","","","","","","","","","","","","","","","","","","","","","","","","","","","","",""
"","text-replacement","46","94844","0.0-26.0","03643241","wem/bandit_party_2","A20MYUKGSXUKM7","either","2","1147","","","32","","","","","","","","","","","","","","","","","","","","","","","","","","","","","","","","","","","","","",""
"","text-replacement","47","95451","0.0-27.0","03643241","wem/bandit_party_2","A20MYUKGSXUKM7","either","2","604","","","32","","","","","","","","","","","","","","","","","","","","","","","","","","","","","","","","","","","","","",""
"","text-replacement","48","96601","0.0-28.0","03643241","wem/bandit_party_2","A20MYUKGSXUKM7","either","2","1145","","","32","","","","","","","","","","","","","","","","","","","","","","","","","","","","","","","","","","","","","",""
"","text-replacement","49","97221","0.0-29.0","03643241","wem/bandit_party_2","A20MYUKGSXUKM7","either","2","616","","","32","","","","","","","","","","","","","","","","","","","","","","","","","","","","","","","","","","","","","",""
"","text-replacement","50","97779","0.0-30.0","03643241","wem/bandit_party_2","A20MYUKGSXUKM7","either","2","555","","","32","","","","","","","","","","","","","","","","","","","","","","","","","","","","","","","","","","","","","",""
"","text-replacement","51","101245","0.0-31.0","03643241","wem/bandit_party_2","A20MYUKGSXUKM7","either","2","3463","","","32","","","","","","","","","","","","","","","","","","","","","","","","","","","","","","","","","","","","","",""
"","bandit","52","103663","0.0-32.0-0.0","03643241","wem/bandit_party_2","A20MYUKGSXUKM7","either","2","911","","","","","","","0","1","0","","0.8","0.5","0.5","0.5","0.5","0.8","0.2","0.6","0.2","","","","","","","","","","","","","","72","H","0","img/none_selected.jpg","true","0","full_practice","",""
"","bandit","53","105569","0.0-32.0-1.0","03643241","wem/bandit_party_2","A20MYUKGSXUKM7","either","2","399","","","","","","","1","0","0","0.2","","0.5","0.5","0.5","0.5","","","","","0.8","0.2","0.6","0.2","","","","","","","","","","74","J","1","","true","0","full_practice","",""
"","bandit","54","107415","0.0-32.0-2.0","03643241","wem/bandit_party_2","A20MYUKGSXUKM7","either","2","336","","","","","","","0","0","1","0.6","","0.5","0.5","0.5","0.5","","","","","0.8","0.2","0.6","0.2","","","","","","","","","","75","K","2","","true","0","full_practice","",""
"","bandit","55","109200","0.0-32.0-3.0","03643241","wem/bandit_party_2","A20MYUKGSXUKM7","either","2","278","","","","","","","0","0","1","","0.2","0.5","0.5","0.5","0.5","0.8","0.2","0.6","0.2","","","","","","","","","","","","","","76","L","3","","true","0","full_practice","",""
"","bandit","56","110805","0.0-32.0-4.0","03643241","wem/bandit_party_2","A20MYUKGSXUKM7","either","2","97","","","","","","","1","0","0","0.2","","0.5","0.5","0.5","0.5","","","","","0.8","0.2","0.6","0.2","","","","","","","","","","74","J","1","","true","0","full_practice","",""
"","bandit","57","112863","0.0-32.0-5.0","03643241","wem/bandit_party_2","A20MYUKGSXUKM7","either","2","550","","","","","","","0","0","1","","0.2","0.5","0.5","0.5","0.5","0.8","0.2","0.6","0.2","","","","","","","","","","","","","","74","J","1","","true","0","full_practice","",""
"","bandit","58","114770","0.0-32.0-6.0","03643241","wem/bandit_party_2","A20MYUKGSXUKM7","either","2","399","","","","","","","0","0","1","","0.2","0.5","0.5","0.5","0.5","0.8","0.2","0.6","0.2","","","","","","","","","","","","","","74","J","1","","true","0","full_practice","",""
"","bandit","59","116585","0.0-32.0-7.0","03643241","wem/bandit_party_2","A20MYUKGSXUKM7","either","2","308","","","","","","","0","0","1","0.2","","0.5","0.5","0.5","0.5","","","","","0.8","0.2","0.6","0.2","","","","","","","","","","74","J","1","","true","0","full_practice","",""
"","bandit","60","118340","0.0-32.0-8.0","03643241","wem/bandit_party_2","A20MYUKGSXUKM7","either","2","248","","","","","","","0","1","0","","0.2","0.5","0.5","0.5","0.5","0.8","0.2","0.6","0.2","","","","","","","","","","","","","","74","J","1","","true","0","full_practice","",""
"","bandit","61","120276","0.0-32.0-9.0","03643241","wem/bandit_party_2","A20MYUKGSXUKM7","either","2","430","","","","","","","0","0","1","0.2","","0.5","0.5","0.5","0.5","","","","","0.8","0.2","0.6","0.2","","","","","","","","","","74","J","1","","true","0","full_practice","",""
"","bandit","62","122000","0.0-32.0-10.0","03643241","wem/bandit_party_2","A20MYUKGSXUKM7","either","2","216","","","","","","","0","0","1","0.2","","0.5","0.5","0.5","0.5","","","","","0.8","0.2","0.6","0.2","","","","","","","","","","74","J","1","","true","0","full_practice","",""
"","bandit","63","123606","0.0-32.0-11.0","03643241","wem/bandit_party_2","A20MYUKGSXUKM7","either","2","97","","","","","","","0","0","1","0.2","","0.5","0.5","0.5","0.5","","","","","0.8","0.2","0.6","0.2","","","","","","","","","","74","J","1","","true","0","full_practice","",""
"","bandit","64","125429","0.0-32.0-12.0","03643241","wem/bandit_party_2","A20MYUKGSXUKM7","either","2","312","","","","","","","0","0","1","","0.2","0.5","0.5","0.5","0.5","0.8","0.2","0.6","0.2","","","","","","","","","","","","","","74","J","1","","true","0","full_practice","",""
"","bandit","65","127239","0.0-32.0-13.0","03643241","wem/bandit_party_2","A20MYUKGSXUKM7","either","2","304","","","","","","","0","0","1","0.2","","0.5","0.5","0.5","0.5","","","","","0.8","0.2","0.6","0.2","","","","","","","","","","74","J","1","","true","0","full_practice","",""
"","bandit","66","128993","0.0-32.0-14.0","03643241","wem/bandit_party_2","A20MYUKGSXUKM7","either","2","247","","","","","","","0","0","1","0.2","","0.5","0.5","0.5","0.5","","","","","0.8","0.2","0.6","0.2","","","","","","","","","","74","J","1","","true","0","full_practice","",""
"","bandit","67","130959","0.0-32.0-15.0","03643241","wem/bandit_party_2","A20MYUKGSXUKM7","either","2","457","","","","","","","0","0","1","0.2","","0.5","0.5","0.5","0.5","","","","","0.8","0.2","0.6","0.2","","","","","","","","","","74","J","1","","true","0","full_practice","",""
"","bandit","68","132835","0.0-32.0-16.0","03643241","wem/bandit_party_2","A20MYUKGSXUKM7","either","2","369","","","","","","","0","0","1","","0.2","0.5","0.5","0.5","0.5","0.8","0.2","0.6","0.2","","","","","","","","","","","","","","74","J","1","","true","0","full_practice","",""
"","bandit","69","134742","0.0-32.0-17.0","03643241","wem/bandit_party_2","A20MYUKGSXUKM7","either","2","398","","","","","","","0","0","1","0.2","","0.5","0.5","0.5","0.5","","","","","0.8","0.2","0.6","0.2","","","","","","","","","","74","J","1","","true","0","full_practice","",""
"","bandit","70","136769","0.0-32.0-18.0","03643241","wem/bandit_party_2","A20MYUKGSXUKM7","either","2","519","","","","","","","0","0","1","","0.2","0.5","0.5","0.5","0.5","0.8","0.2","0.6","0.2","","","","","","","","","","","","","","74","J","1","","true","0","full_practice","",""
"","bandit","71","138744","0.0-32.0-19.0","03643241","wem/bandit_party_2","A20MYUKGSXUKM7","either","2","462","","","","","","","0","0","1","","0.2","0.5","0.5","0.5","0.5","0.8","0.2","0.6","0.2","","","","","","","","","","","","","","74","J","1","","true","0","full_practice","",""
"","text","72","141688","0.0-33.0","03643241","wem/bandit_party_2","A20MYUKGSXUKM7","either","2","2936","","","32","","","","","","","","","","","","","","","","","","","","","","","","","","","","","","","","","","","","","",""
"","text-replacement","73","151671","0.0-34.0","03643241","wem/bandit_party_2","A20MYUKGSXUKM7","either","2","8979","","","32","","","","","","","","","","","","","","","","","","","","","","","","","","","","","","","","","","","","","",""
"","text-replacement","74","162318","0.0-35.0","03643241","wem/bandit_party_2","A20MYUKGSXUKM7","either","2","10643","","","32","","","","","","","","","","","","","","","","","","","","","","","","","","","","","","","","","","","","","",""
"","text-replacement","75","164617","0.0-36.0","03643241","wem/bandit_party_2","A20MYUKGSXUKM7","either","2","2295","","","32","","","","","","","","","","","","","","","","","","","","","","","","","","","","","","","","","","","","","",""
"","text-replacement","76","166069","0.0-37.0","03643241","wem/bandit_party_2","A20MYUKGSXUKM7","either","2","1449","","","32","","","","","","","","","","","","","","","","","","","","","","","","","","","","","","","","","","","","","",""
"","text-replacement","77","172058","0.0-38.0","03643241","wem/bandit_party_2","A20MYUKGSXUKM7","either","2","5985","","","32","","","","","","","","","","","","","","","","","","","","","","","","","","","","","","","","","","","","","",""
"","survey-multi-choice-replacement","78","181527","0.0-39.0-0.0","03643241","wem/bandit_party_2","A20MYUKGSXUKM7","either","2","9459","","","","","","","","","","","","","","","","","","","","","","","","Money will be added to the pool for <span style='color:blue;'>DEMOCRATS</span>","","","","","","","attn_check","","","","","","","","","0",""
"","survey-multi-choice-replacement","79","186838","0.0-40.0-0.0","03643241","wem/bandit_party_2","A20MYUKGSXUKM7","either","2","4296","","","","","","","","","","","","","","","","","","","","","","","","Money will be subtracted from the pool for <span style='color:red;'>REPUBLICANS</span>","","","","","","","attn_check","","","","","","","","","1",""
"","instructions","80","188916","0.0-40.0-1.0-0.0","03643241","wem/bandit_party_2","A20MYUKGSXUKM7","either","2","1074","","","","","","","","","","","","","","","","","","","","","","","","","","","","","","","","","","","","","","","","","[{""page_index"":0,""viewing_time"":1073}]"
"","survey-multi-choice-replacement","81","192957","0.0-40.1-0.1","03643241","wem/bandit_party_2","A20MYUKGSXUKM7","either","2","3030","","","","","","","","","","","","","","","","","","","","","","","","Equal amounts of money will be added to the pool for <span style='color:blue;'>DEMOCRATS</span> and subtracted from the pool for <span style='color:red;'>REPUBLICANS</span>","","","","","","","attn_check","","","","","","","","","2",""
"","survey-multi-choice-replacement","82","196140","0.0-41.0-0.0","03643241","wem/bandit_party_2","A20MYUKGSXUKM7","either","2","2172","","","","","","","","","","","","","","","","","","","","","","","","No money will be added to either pool","","","","","","","attn_check","","","","","","","","","3",""
"","bandit","83","200420","0.0-42.0-0.0","03643241","wem/bandit_party_2","A20MYUKGSXUKM7","either","2","1767","","","","","","","0","0","1","","0.4841938304","0.4","0.2","0.6","0.8","0.9925337928","0.4841938304","0.7961415707","0.7092854079","","","","","","","","","","","","","","74","J","1","","","1","main_expt","",""
"","bandit","84","202266","0.0-43.0-0.0","03643241","wem/bandit_party_2","A20MYUKGSXUKM7","either","2","337","","","","","","","0","1","0","","0.7739630809","0.4","0.2","0.6","0.8","0.9909612399","0.5300888233","0.7739630809","0.7343230146","","","","","","","","","","","","","","75","K","2","","","2","main_expt","",""
"","bandit","85","203929","0.0-44.0-0.0","03643241","wem/bandit_party_2","A20MYUKGSXUKM7","either","2","155","","","","","","","0","1","0","","0.4747636274","0.4","0.2","0.6","0.8","0.9875934203","0.4747636274","0.807852523","0.7616266478","","","","","","","","","","","","","","74","J","1","","","3","main_expt","",""
"","bandit","86","205654","0.0-45.0-0.0","03643241","wem/bandit_party_2","A20MYUKGSXUKM7","either","2","218","","","","","","","1","0","0","0.7555889459","","0.4","0.2","0.6","0.8","","","","","0.9782241123","0.4841015375","0.7922386472","0.7555889459","","","","","","","","","","76","L","3","","","4","main_expt","",""
"","bandit","87","207167","0.0-46.0-0.0","03643241","wem/bandit_party_2","A20MYUKGSXUKM7","either","2","4","","","","","","","0","1","0","","0.733520678","0.4","0.2","0.6","0.8","0.9756627961","0.5545204825","0.865094385","0.733520678","","","","","","","","","","","","","","76","L","3","","","5","main_expt","",""
"","bandit","88","208861","0.0-47.0-0.0","03643241","wem/bandit_party_2","A20MYUKGSXUKM7","either","2","183","","","","","","","1","0","0","0.6705264102","","0.4","0.2","0.6","0.8","","","","","0.967089612","0.6032406034","0.800956518","0.6705264102","","","","","","","","","","76","L","3","","","6","main_expt","",""
"","bandit","89","210556","0.0-48.0-0.0","03643241","wem/bandit_party_2","A20MYUKGSXUKM7","either","2","187","","","","","","","0","0","1","0.6395389268","","0.4","0.2","0.6","0.8","","","","","0.9581374084","0.6629125932","0.826484282","0.6395389268","","","","","","","","","","76","L","3","","","7","main_expt","",""
"","bandit","90","212159","0.0-49.0-0.0","03643241","wem/bandit_party_2","A20MYUKGSXUKM7","either","2","95","","","","","","","0","0","1","","0.6463283336","0.4","0.2","0.6","0.8","0.9470057872","0.6179372523","0.8721258401","0.6463283336","","","","","","","","","","","","","","76","L","3","","","8","main_expt","",""
"","bandit","91","213792","0.0-50.0-0.0","03643241","wem/bandit_party_2","A20MYUKGSXUKM7","either","2","124","","","","","","","1","0","0","0.5257156782","","0.4","0.2","0.6","0.8","","","","","0.9776699295","0.7126464358","0.9123847657","0.5257156782","","","","","","","","","","76","L","3","","","9","main_expt","",""
"","bandit","92","215518","0.0-51.0-0.0","03643241","wem/bandit_party_2","A20MYUKGSXUKM7","either","2","218","","","","","","","0","0","1","0.4763364632","","0.4","0.2","0.6","0.8","","","","","0.9728878591","0.7356985298","0.8996742502","0.4763364632","","","","","","","","","","76","L","3","","","10","main_expt","",""
"","bandit","93","217150","0.0-52.0-0.0","03643241","wem/bandit_party_2","A20MYUKGSXUKM7","either","2","126","","","","","","","1","0","0","0.4284616273","","0.4","0.2","0.6","0.8","","","","","0.9593139104","0.768711937","0.9131723876","0.4284616273","","","","","","","","","","76","L","3","","","11","main_expt","",""
"","bandit","94","218795","0.0-53.0-0.0","03643241","wem/bandit_party_2","A20MYUKGSXUKM7","either","2","136","","","","","","","0","0","1","0.3846657661","","0.4","0.2","0.6","0.8","","","","","0.9498917819","0.775032537","0.8766857583","0.3846657661","","","","","","","","","","76","L","3","","","12","main_expt","",""
"","bandit","95","220398","0.0-54.0-0.0","03643241","wem/bandit_party_2","A20MYUKGSXUKM7","either","2","96","","","","","","","0","1","0","","0.8395211377","0.4","0.2","0.6","0.8","0.9541602679","0.8005481332","0.8395211377","0.4534267517","","","","","","","","","","","","","","75","K","2","","","13","main_expt","",""
"","bandit","96","221942","0.0-55.0-0.0","03643241","wem/bandit_party_2","A20MYUKGSXUKM7","either","2","36","","","","","","","1","0","0","0.5781166702","","0.4","0.2","0.6","0.8","","","","","0.9457654821","0.8437703121","0.8716273459","0.5781166702","","","","","","","","","","76","L","3","","","14","main_expt","",""
"","bandit","97","223576","0.0-56.0-0.0","03643241","wem/bandit_party_2","A20MYUKGSXUKM7","either","2","126","","","","","","","1","0","0","0.6683268695","","0.4","0.2","0.6","0.8","","","","","0.961431504","0.7878475566","0.8884181174","0.6683268695","","","","","","","","","","76","L","3","","","15","main_expt","",""
"","bandit","98","225240","0.0-57.0-0.0","03643241","wem/bandit_party_2","A20MYUKGSXUKM7","either","2","153","","","","","","","1","0","0","0.6948649322","","0.4","0.2","0.6","0.8","","","","","0.9614480804","0.7873795395","0.9144873871","0.6948649322","","","","","","","","","","76","L","3","","","16","main_expt","",""
"","bandit","99","226905","0.0-58.0-0.0","03643241","wem/bandit_party_2","A20MYUKGSXUKM7","either","2","157","","","","","","","0","0","1","0.7674725463","","0.4","0.2","0.6","0.8","","","","","0.981184269","0.8084550093","0.915766025","0.7674725463","","","","","","","","","","76","L","3","","","17","main_expt","",""
"","bandit","100","228447","0.0-59.0-0.0","03643241","wem/bandit_party_2","A20MYUKGSXUKM7","either","2","33","","","","","","","0","1","0","","0.7706733977","0.4","0.2","0.6","0.8","0.9861919244","0.8436933745","0.9357816117","0.7706733977","","","","","","","","","","","","","","76","L","3","","","18","main_expt","",""
"","bandit","101","230292","0.0-60.0-0.0","03643241","wem/bandit_party_2","A20MYUKGSXUKM7","either","2","338","","","","","","","0","1","0","","0.8059530903","0.4","0.2","0.6","0.8","0.986789567","0.8059530903","0.9482019282","0.7396491891","","","","","","","","","","","","","","74","J","1","","","19","main_expt","",""
"","bandit","102","232051","0.0-61.0-0.0","03643241","wem/bandit_party_2","A20MYUKGSXUKM7","either","2","247","","","","","","","0","0","1","0.6712916173","","0.4","0.2","0.6","0.8","","","","","0.986183881","0.7839513496","0.9433726768","0.6712916173","","","","","","","","","","76","L","3","","","20","main_expt","",""
"","bandit","103","233833","0.0-62.0-0.0","03643241","wem/bandit_party_2","A20MYUKGSXUKM7","either","2","273","","","","","","","1","0","0","0.6728887443","","0.4","0.2","0.6","0.8","","","","","0.9887099493","0.7841815244","0.9488284628","0.6728887443","","","","","","","","","","76","L","3","","","21","main_expt","",""
"","bandit","104","235709","0.0-63.0-0.0","03643241","wem/bandit_party_2","A20MYUKGSXUKM7","either","2","367","","","","","","","0","0","1","0.7838502077","","0.4","0.2","0.6","0.8","","","","","0.992558567","0.8256278583","0.9500515088","0.7838502077","","","","","","","","","","76","L","3","","","22","main_expt","",""
"","bandit","105","237425","0.0-64.0-0.0","03643241","wem/bandit_party_2","A20MYUKGSXUKM7","either","2","208","","","","","","","0","1","0","","0.8711917965","0.4","0.2","0.6","0.8","0.9906074595","0.7043778873","0.9645760881","0.8711917965","","","","","","","","","","","","","","76","L","3","","","23","main_expt","",""
"","bandit","106","239251","0.0-65.0-0.0","03643241","wem/bandit_party_2","A20MYUKGSXUKM7","either","2","308","","","","","","","1","0","0","0.946785539","","0.4","0.2","0.6","0.8","","","","","0.9828703082","0.7662705475","0.946785539","0.861124964","","","","","","","","","","75","K","2","","","24","main_expt","",""
"","bandit","107","241147","0.0-66.0-0.0","03643241","wem/bandit_party_2","A20MYUKGSXUKM7","either","2","387","","","","","","","1","0","0","0.8551403996","","0.4","0.2","0.6","0.8","","","","","0.984618899","0.6915147264","0.9229473608","0.8551403996","","","","","","","","","","76","L","3","","","25","main_expt","",""
"","bandit","108","243174","0.0-67.0-0.0","03643241","wem/bandit_party_2","A20MYUKGSXUKM7","either","2","518","","","","","","","1","0","0","0.8959771014","","0.4","0.2","0.6","0.8","","","","","0.9780938917","0.6844606422","0.8729820127","0.8959771014","","","","","","","","","","76","L","3","","","26","main_expt","",""
"","bandit","109","245110","0.0-68.0-0.0","03643241","wem/bandit_party_2","A20MYUKGSXUKM7","either","2","429","","","","","","","1","0","0","0.8786292531","","0.4","0.2","0.6","0.8","","","","","0.9634866904","0.7953701942","0.859067388","0.8786292531","","","","","","","","","","76","L","3","","","27","main_expt","",""
"","bandit","110","247289","0.0-69.0-0.0","03643241","wem/bandit_party_2","A20MYUKGSXUKM7","either","2","670","","","","","","","0","1","0","","0.8920593834","0.4","0.2","0.6","0.8","0.946494378","0.622657036","0.836267867","0.8920593834","","","","","","","","","","","","","","76","L","3","","","28","main_expt","",""
"","bandit","111","249134","0.0-70.0-0.0","03643241","wem/bandit_party_2","A20MYUKGSXUKM7","either","2","336","","","","","","","0","0","1","","0.8234517222","0.4","0.2","0.6","0.8","0.9338647731","0.5757463716","0.7158546556","0.8234517222","","","","","","","","","","","","","","76","L","3","","","29","main_expt","",""
"","bandit","112","251040","0.0-71.0-0.0","03643241","wem/bandit_party_2","A20MYUKGSXUKM7","either","2","398","","","","","","","0","0","1","0.7963444676","","0.4","0.2","0.6","0.8","","","","","0.9354801528","0.6048158844","0.7262950886","0.7963444676","","","","","","","","","","76","L","3","","","30","main_expt","",""
"","bandit","113","254307","0.0-72.0-0.0","03643241","wem/bandit_party_2","A20MYUKGSXUKM7","either","2","1755","","","","","","","0","1","0","","0.6847131082","0.4","0.2","0.6","0.8","0.9323861487","0.4831208743","0.7049485024","0.6847131082","","","","","","","","","","","","","","76","L","3","","","31","main_expt","",""
"","bandit","114","256364","0.0-73.0-0.0","03643241","wem/bandit_party_2","A20MYUKGSXUKM7","either","2","549","","","","","","","0","0","1","0.6294605358","","0.4","0.2","0.6","0.8","","","","","0.9159531952","0.4413454117","0.6294605358","0.7745616343","","","","","","","","","","75","K","2","","","32","main_expt","",""
"","bandit","115","258332","0.0-74.0-0.0","03643241","wem/bandit_party_2","A20MYUKGSXUKM7","either","2","459","","","","","","","1","0","0","0.8111568365","","0.4","0.2","0.6","0.8","","","","","0.9501333659","0.589686364","0.7097184707","0.8111568365","","","","","","","","","","76","L","3","","","33","main_expt","",""
"","bandit","116","260419","0.0-75.0-0.0","03643241","wem/bandit_party_2","A20MYUKGSXUKM7","either","2","579","","","","","","","1","0","0","0.7291364049","","0.4","0.2","0.6","0.8","","","","","0.9485118263","0.5789977489","0.6324728327","0.7291364049","","","","","","","","","","76","L","3","","","34","main_expt","",""
"","bandit","117","262324","0.0-76.0-0.0","03643241","wem/bandit_party_2","A20MYUKGSXUKM7","either","2","397","","","","","","","1","0","0","0.7920219322","","0.4","0.2","0.6","0.8","","","","","0.959491173","0.5605822786","0.6809104991","0.7920219322","","","","","","","","","","76","L","3","","","35","main_expt","",""
"","bandit","118","264472","0.0-77.0-0.0","03643241","wem/bandit_party_2","A20MYUKGSXUKM7","either","2","640","","","","","","","1","0","0","0.7889809596","","0.4","0.2","0.6","0.8","","","","","0.9523687656","0.3330948712","0.5745256001","0.7889809596","","","","","","","","","","76","L","3","","","36","main_expt","",""
"","bandit","119","266348","0.0-78.0-0.0","03643241","wem/bandit_party_2","A20MYUKGSXUKM7","either","2","365","","","","","","","0","0","1","","0.8060385269","0.4","0.2","0.6","0.8","0.9504344127","0.2430176499","0.6249275122","0.8060385269","","","","","","","","","","","","","","76","L","3","","","37","main_expt","",""
"","bandit","120","268073","0.0-79.0-0.0","03643241","wem/bandit_party_2","A20MYUKGSXUKM7","either","2","215","","","","","","","0","0","1","","0.7188782676","0.4","0.2","0.6","0.8","0.9321408283","0.3106083343","0.5582777804","0.7188782676","","","","","","","","","","","","","","76","L","3","","","38","main_expt","",""
"","bandit","121","269676","0.0-80.0-0.0","03643241","wem/bandit_party_2","A20MYUKGSXUKM7","either","2","96","","","","","","","0","1","0","","0.7387945131","0.4","0.2","0.6","0.8","0.9135525369","0.3239447463","0.6619895395","0.7387945131","","","","","","","","","","","","","","76","L","3","","","39","main_expt","",""
"","bandit","122","271400","0.0-81.0-0.0","03643241","wem/bandit_party_2","A20MYUKGSXUKM7","either","2","215","","","","","","","1","0","0","0.6522152691","","0.4","0.2","0.6","0.8","","","","","0.8840916364","0.2946631509","0.6522152691","0.7478035428","","","","","","","","","","75","K","2","","","40","main_expt","",""
"","bandit","123","273278","0.0-82.0-0.0","03643241","wem/bandit_party_2","A20MYUKGSXUKM7","either","2","367","","","","","","","1","0","0","0.7802386085","","0.4","0.2","0.6","0.8","","","","","0.8747037504","0.193597671","0.6714070371","0.7802386085","","","","","","","","","","76","L","3","","","41","main_expt","",""
"","bandit","124","275001","0.0-83.0-0.0","03643241","wem/bandit_party_2","A20MYUKGSXUKM7","either","2","214","","","","","","","1","0","0","0.7994277013","","0.4","0.2","0.6","0.8","","","","","0.826315498","0.1834529884","0.6390104416","0.7994277013","","","","","","","","","","76","L","3","","","42","main_expt","",""
"","bandit","125","276696","0.0-84.0-0.0","03643241","wem/bandit_party_2","A20MYUKGSXUKM7","either","2","186","","","","","","","1","0","0","0.8718069658","","0.4","0.2","0.6","0.8","","","","","0.7681371561","0.1558663495","0.6318841448","0.8718069658","","","","","","","","","","76","L","3","","","43","main_expt","",""
"","bandit","126","278572","0.0-85.0-0.0","03643241","wem/bandit_party_2","A20MYUKGSXUKM7","either","2","366","","","","","","","1","0","0","0.7725207311","","0.4","0.2","0.6","0.8","","","","","0.7584360225","0.1573065196","0.5708139437","0.7725207311","","","","","","","","","","76","L","3","","","44","main_expt","",""
"","bandit","127","280356","0.0-86.0-0.0","03643241","wem/bandit_party_2","A20MYUKGSXUKM7","either","2","276","","","","","","","0","1","0","","0.8399140445","0.4","0.2","0.6","0.8","0.816959585","0.1743203636","0.5703812278","0.8399140445","","","","","","","","","","","","","","76","L","3","","","45","main_expt","",""
"","bandit","128","282141","0.0-87.0-0.0","03643241","wem/bandit_party_2","A20MYUKGSXUKM7","either","2","275","","","","","","","0","0","1","","0.4520700595","0.4","0.2","0.6","0.8","0.7571269921","0.1234040722","0.4520700595","0.7830678696","","","","","","","","","","","","","","75","K","2","","","46","main_expt","",""
"","bandit","129","283744","0.0-88.0-0.0","03643241","wem/bandit_party_2","A20MYUKGSXUKM7","either","2","94","","","","","","","1","0","0","0.8255209912","","0.4","0.2","0.6","0.8","","","","","0.7086567283","0.1592846429","0.4953600952","0.8255209912","","","","","","","","","","76","L","3","","","47","main_expt","",""
"","bandit","130","285529","0.0-89.0-0.0","03643241","wem/bandit_party_2","A20MYUKGSXUKM7","either","2","276","","","","","","","1","0","0","0.7728754614","","0.4","0.2","0.6","0.8","","","","","0.6428227569","0.1880090658","0.4912921637","0.7728754614","","","","","","","","","","76","L","3","","","48","main_expt","",""
"","bandit","131","287344","0.0-90.0-0.0","03643241","wem/bandit_party_2","A20MYUKGSXUKM7","either","2","307","","","","","","","1","0","0","0.8607162984","","0.4","0.2","0.6","0.8","","","","","0.7004196772","0.3190576765","0.4694413912","0.8607162984","","","","","","","","","","76","L","3","","","49","main_expt","",""
"","bandit","132","289038","0.0-91.0-0.0","03643241","wem/bandit_party_2","A20MYUKGSXUKM7","either","2","186","","","","","","","1","0","0","0.8526113732","","0.4","0.2","0.6","0.8","","","","","0.6418514465","0.277770718","0.5835687148","0.8526113732","","","","","","","","","","76","L","3","","","50","main_expt","",""
"","bandit","133","290885","0.0-92.0-0.0","03643241","wem/bandit_party_2","A20MYUKGSXUKM7","either","2","338","","","","","","","1","0","0","0.8630835666","","0.4","0.2","0.6","0.8","","","","","0.6322169777","0.3304163056","0.581499138","0.8630835666","","","","","","","","","","76","L","3","","","51","main_expt","",""
"","bandit","134","292518","0.0-93.0-0.0","03643241","wem/bandit_party_2","A20MYUKGSXUKM7","either","2","124","","","","","","","0","0","1","","0.8689990829","0.4","0.2","0.6","0.8","0.6160259873","0.3074301744","0.6521379128","0.8689990829","","","","","","","","","","","","","","76","L","3","","","52","main_expt","",""
"","bandit","135","294093","0.0-94.0-0.0","03643241","wem/bandit_party_2","A20MYUKGSXUKM7","either","2","64","","","","","","","1","0","0","0.8829627288","","0.4","0.2","0.6","0.8","","","","","0.6635838846","0.3292402402","0.5743957808","0.8829627288","","","","","","","","","","76","L","3","","","53","main_expt","",""
"","bandit","136","295816","0.0-95.0-0.0","03643241","wem/bandit_party_2","A20MYUKGSXUKM7","either","2","212","","","","","","","0","0","1","","0.8577096669","0.4","0.2","0.6","0.8","0.7334380463","0.3701383524","0.4765250731","0.8577096669","","","","","","","","","","","","","","76","L","3","","","54","main_expt","",""
"","bandit","137","297449","0.0-96.0-0.0","03643241","wem/bandit_party_2","A20MYUKGSXUKM7","either","2","123","","","","","","","1","0","0","0.7951355038","","0.4","0.2","0.6","0.8","","","","","0.6625049704","0.4023440482","0.472038817","0.7951355038","","","","","","","","","","76","L","3","","","55","main_expt","",""
"","bandit","138","299054","0.0-97.0-0.0","03643241","wem/bandit_party_2","A20MYUKGSXUKM7","either","2","93","","","","","","","1","0","0","0.7832403428","","0.4","0.2","0.6","0.8","","","","","0.6244126183","0.3320470731","0.6060805283","0.7832403428","","","","","","","","","","76","L","3","","","56","main_expt","",""
"","bandit","139","300716","0.0-98.0-0.0","03643241","wem/bandit_party_2","A20MYUKGSXUKM7","either","2","151","","","","","","","1","0","0","0.7165346004","","0.4","0.2","0.6","0.8","","","","","0.693445159","0.3398704556","0.5733746242","0.7165346004","","","","","","","","","","76","L","3","","","57","main_expt","",""
"","bandit","140","302445","0.0-99.0-0.0","03643241","wem/bandit_party_2","A20MYUKGSXUKM7","either","2","215","","","","","","","1","0","0","0.7840704931","","0.4","0.2","0.6","0.8","","","","","0.6603141298","0.3171476707","0.5268086549","0.7840704931","","","","","","","","","","76","L","3","","","58","main_expt","",""
"","bandit","141","304105","0.0-100.0-0.0","03643241","wem/bandit_party_2","A20MYUKGSXUKM7","either","2","151","","","","","","","1","0","0","0.7166558068","","0.4","0.2","0.6","0.8","","","","","0.6435133917","0.1868584885","0.5298916697","0.7166558068","","","","","","","","","","76","L","3","","","59","main_expt","",""
"","bandit","142","305768","0.0-101.0-0.0","03643241","wem/bandit_party_2","A20MYUKGSXUKM7","either","2","154","","","","","","","1","0","0","0.6505055492","","0.4","0.2","0.6","0.8","","","","","0.6720075741","0.2163153633","0.5547432704","0.6505055492","","","","","","","","","","76","L","3","","","60","main_expt","",""
"","bandit","143","307523","0.0-102.0-0.0","03643241","wem/bandit_party_2","A20MYUKGSXUKM7","either","2","245","","","","","","","0","1","0","","0.6465946667","0.4","0.2","0.6","0.8","0.6703611074","0.2086512551","0.5407031957","0.6465946667","","","","","","","","","","","","","","76","L","3","","","61","main_expt","",""
"","bandit","144","309309","0.0-103.0-0.0","03643241","wem/bandit_party_2","A20MYUKGSXUKM7","either","2","276","","","","","","","0","1","0","","0.709990362","0.4","0.2","0.6","0.8","0.64477312","0.2250062338","0.6993449034","0.709990362","","","","","","","","","","","","","","76","L","3","","","62","main_expt","",""
"","bandit","145","310973","0.0-104.0-0.0","03643241","wem/bandit_party_2","A20MYUKGSXUKM7","either","2","154","","","","","","","0","1","0","","0.7542168012","0.4","0.2","0.6","0.8","0.509049177","0.2739380208","0.6342967703","0.7542168012","","","","","","","","","","","","","","76","L","3","","","63","main_expt","",""
"","bandit","146","312637","0.0-105.0-0.0","03643241","wem/bandit_party_2","A20MYUKGSXUKM7","either","2","156","","","","","","","1","0","0","0.7660604158","","0.4","0.2","0.6","0.8","","","","","0.5535424332","0.3449536465","0.5961490325","0.7660604158","","","","","","","","","","76","L","3","","","64","main_expt","",""
"","bandit","147","314694","0.0-106.0-0.0","03643241","wem/bandit_party_2","A20MYUKGSXUKM7","either","2","547","","","","","","","1","0","0","0.7572602099","","0.4","0.2","0.6","0.8","","","","","0.6608621899","0.34640195","0.5771190674","0.7572602099","","","","","","","","","","76","L","3","","","65","main_expt","",""
"","bandit","148","316449","0.0-107.0-0.0","03643241","wem/bandit_party_2","A20MYUKGSXUKM7","either","2","246","","","","","","","0","0","1","","0.686926195","0.4","0.2","0.6","0.8","0.6535341977","0.5266288285","0.4765921407","0.686926195","","","","","","","","","","","","","","76","L","3","","","66","main_expt","",""
"","bandit","149","318173","0.0-108.0-0.0","03643241","wem/bandit_party_2","A20MYUKGSXUKM7","either","2","212","","","","","","","0","1","0","","0.7334195653","0.4","0.2","0.6","0.8","0.6592628399","0.5588671697","0.5714361875","0.7334195653","","","","","","","","","","","","","","76","L","3","","","67","main_expt","",""
"","bandit","150","320049","0.0-109.0-0.0","03643241","wem/bandit_party_2","A20MYUKGSXUKM7","either","2","366","","","","","","","0","0","1","","0.6114245881","0.4","0.2","0.6","0.8","0.6735013879","0.6097536784","0.6231829193","0.6114245881","","","","","","","","","","","","","","76","L","3","","","68","main_expt","",""
"","bandit","151","322197","0.0-110.0-0.0","03643241","wem/bandit_party_2","A20MYUKGSXUKM7","either","2","636","","","","","","","1","0","0","0.6460921668","","0.4","0.2","0.6","0.8","","","","","0.7209687993","0.533457584","0.5130256365","0.6460921668","","","","","","","","","","76","L","3","","","69","main_expt","",""
"","bandit","152","324316","0.0-111.0-0.0","03643241","wem/bandit_party_2","A20MYUKGSXUKM7","either","2","608","","","","","","","0","0","1","0.6700702736","","0.4","0.2","0.6","0.8","","","","","0.690528825","0.4124750721","0.5167166","0.6700702736","","","","","","","","","","76","L","3","","","70","main_expt","",""
"","bandit","153","326160","0.0-112.0-0.0","03643241","wem/bandit_party_2","A20MYUKGSXUKM7","either","2","334","","","","","","","0","0","1","","0.6388012411","0.4","0.2","0.6","0.8","0.6453310316","0.4486526525","0.6448170737","0.6388012411","","","","","","","","","","","","","","76","L","3","","","71","main_expt","",""
"","bandit","154","327976","0.0-113.0-0.0","03643241","wem/bandit_party_2","A20MYUKGSXUKM7","either","2","306","","","","","","","0","0","1","0.6046900378","","0.4","0.2","0.6","0.8","","","","","0.8140348339","0.4313602212","0.5640434706","0.6046900378","","","","","","","","","","76","L","3","","","72","main_expt","",""
"","bandit","155","330003","0.0-114.0-0.0","03643241","wem/bandit_party_2","A20MYUKGSXUKM7","either","2","518","","","","","","","0","1","0","","0.6062428704","0.4","0.2","0.6","0.8","0.820931829","0.3639072561","0.6296110197","0.6062428704","","","","","","","","","","","","","","76","L","3","","","73","main_expt","",""
"","bandit","156","331727","0.0-115.0-0.0","03643241","wem/bandit_party_2","A20MYUKGSXUKM7","either","2","215","","","","","","","0","1","0","","0.6237194739","0.4","0.2","0.6","0.8","0.8096233945","0.2882181569","0.6730210969","0.6237194739","","","","","","","","","","","","","","76","L","3","","","74","main_expt","",""
"","bandit","157","333482","0.0-116.0-0.0","03643241","wem/bandit_party_2","A20MYUKGSXUKM7","either","2","246","","","","","","","0","0","1","","0.5971007372","0.4","0.2","0.6","0.8","0.7615001707","0.3561187133","0.5720403827","0.5971007372","","","","","","","","","","","","","","76","L","3","","","75","main_expt","",""
"","bandit","158","335026","0.0-117.0-0.0","03643241","wem/bandit_party_2","A20MYUKGSXUKM7","either","2","34","","","","","","","0","0","1","","0.5810032438","0.4","0.2","0.6","0.8","0.8147365981","0.4480894403","0.6303512149","0.5810032438","","","","","","","","","","","","","","76","L","3","","","76","main_expt","",""
"","bandit","159","336719","0.0-118.0-0.0","03643241","wem/bandit_party_2","A20MYUKGSXUKM7","either","2","183","","","","","","","1","0","0","0.5792233978","","0.4","0.2","0.6","0.8","","","","","0.8926338818","0.3220850356","0.5531797874","0.5792233978","","","","","","","","","","76","L","3","","","77","main_expt","",""
"","bandit","160","338413","0.0-119.0-0.0","03643241","wem/bandit_party_2","A20MYUKGSXUKM7","either","2","185","","","","","","","0","1","0","","0.692511921","0.4","0.2","0.6","0.8","0.8669072201","0.3281133775","0.5449672882","0.692511921","","","","","","","","","","","","","","76","L","3","","","78","main_expt","",""
"","bandit","161","340168","0.0-120.0-0.0","03643241","wem/bandit_party_2","A20MYUKGSXUKM7","either","2","245","","","","","","","0","0","1","","0.7019625083","0.4","0.2","0.6","0.8","0.9114006046","0.3814329202","0.4484013318","0.7019625083","","","","","","","","","","","","","","76","L","3","","","79","main_expt","",""
"","bandit","162","342105","0.0-121.0-0.0","03643241","wem/bandit_party_2","A20MYUKGSXUKM7","either","2","426","","","","","","","1","0","0","0.6785675641","","0.4","0.2","0.6","0.8","","","","","0.9268398106","0.3512572076","0.5041425745","0.6785675641","","","","","","","","","","76","L","3","","","80","main_expt","",""
"","bandit","163","344103","0.0-122.0-0.0","03643241","wem/bandit_party_2","A20MYUKGSXUKM7","either","2","487","","","","","","","1","0","0","0.7101061672","","0.4","0.2","0.6","0.8","","","","","0.9582858862","0.3624285329","0.3462078978","0.7101061672","","","","","","","","","","76","L","3","","","81","main_expt","",""
"","bandit","164","346129","0.0-123.0-0.0","03643241","wem/bandit_party_2","A20MYUKGSXUKM7","either","2","516","","","","","","","1","0","0","0.7217376576","","0.4","0.2","0.6","0.8","","","","","0.9590071975","0.3111883408","0.3226795418","0.7217376576","","","","","","","","","","76","L","3","","","82","main_expt","",""
"","bandit","165","348519","0.0-124.0-0.0","03643241","wem/bandit_party_2","A20MYUKGSXUKM7","either","2","880","","","","","","","1","0","0","0.6437777395","","0.4","0.2","0.6","0.8","","","","","0.9379973093","0.243162563","0.3023868023","0.6437777395","","","","","","","","","","76","L","3","","","83","main_expt","",""
"","bandit","166","350303","0.0-125.0-0.0","03643241","wem/bandit_party_2","A20MYUKGSXUKM7","either","2","276","","","","","","","1","0","0","0.6533183273","","0.4","0.2","0.6","0.8","","","","","0.9411979228","0.347146949","0.4040419094","0.6533183273","","","","","","","","","","76","L","3","","","84","main_expt","",""
"","bandit","167","352250","0.0-126.0-0.0","03643241","wem/bandit_party_2","A20MYUKGSXUKM7","either","2","438","","","","","","","0","1","0","","0.7469548387","0.4","0.2","0.6","0.8","0.9441700551","0.4416309426","0.4716136817","0.7469548387","","","","","","","","","","","","","","76","L","3","","","85","main_expt","",""
"","bandit","168","354048","0.0-127.0-0.0","03643241","wem/bandit_party_2","A20MYUKGSXUKM7","either","2","285","","","","","","","1","0","0","0.7366570046","","0.4","0.2","0.6","0.8","","","","","0.9323605113","0.4523797492","0.4455883603","0.7366570046","","","","","","","","","","76","L","3","","","86","main_expt","",""
"","bandit","169","356227","0.0-128.0-0.0","03643241","wem/bandit_party_2","A20MYUKGSXUKM7","either","2","669","","","","","","","0","0","1","0.7142428019","","0.4","0.2","0.6","0.8","","","","","0.8871332711","0.4621103264","0.5952575165","0.7142428019","","","","","","","","","","76","L","3","","","87","main_expt","",""
"","bandit","170","357742","0.0-129.0-0.0","03643241","wem/bandit_party_2","A20MYUKGSXUKM7","either","2","1","","","","","","","1","0","0","0.7057172343","","0.4","0.2","0.6","0.8","","","","","0.8520973281","0.3800084876","0.5333825583","0.7057172343","","","","","","","","","","76","L","3","","","88","main_expt","",""
"","bandit","171","359555","0.0-130.0-0.0","03643241","wem/bandit_party_2","A20MYUKGSXUKM7","either","2","303","","","","","","","0","1","0","","0.7289934888","0.4","0.2","0.6","0.8","0.7882210871","0.2354372355","0.4583166828","0.7289934888","","","","","","","","","","","","","","76","L","3","","","89","main_expt","",""
"","bandit","172","361309","0.0-131.0-0.0","03643241","wem/bandit_party_2","A20MYUKGSXUKM7","either","2","245","","","","","","","0","0","1","0.7475354559","","0.4","0.2","0.6","0.8","","","","","0.720110267","0.2978482647","0.4782349553","0.7475354559","","","","","","","","","","76","L","3","","","90","main_expt","",""
"","bandit","173","363216","0.0-132.0-0.0","03643241","wem/bandit_party_2","A20MYUKGSXUKM7","either","2","393","","","","","","","1","0","0","0.6316706059","","0.4","0.2","0.6","0.8","","","","","0.7390342074","0.3723871884","0.464138054","0.6316706059","","","","","","","","","","76","L","3","","","91","main_expt","",""
"","bandit","174","365061","0.0-133.0-0.0","03643241","wem/bandit_party_2","A20MYUKGSXUKM7","either","2","334","","","","","","","0","0","1","","0.6957908828","0.4","0.2","0.6","0.8","0.8135224625","0.5400298203","0.5084128334","0.6957908828","","","","","","","","","","","","","","76","L","3","","","92","main_expt","",""
"","bandit","175","366847","0.0-134.0-0.0","03643241","wem/bandit_party_2","A20MYUKGSXUKM7","either","2","275","","","","","","","0","0","1","0.6812665662","","0.4","0.2","0.6","0.8","","","","","0.7814404678","0.5134744583","0.5211356389","0.6812665662","","","","","","","","","","76","L","3","","","93","main_expt","",""
"","bandit","176","368601","0.0-135.0-0.0","03643241","wem/bandit_party_2","A20MYUKGSXUKM7","either","2","243","","","","","","","1","0","0","0.6412933588","","0.4","0.2","0.6","0.8","","","","","0.7672416568","0.4101580275","0.4554037602","0.6412933588","","","","","","","","","","76","L","3","","","94","main_expt","",""
"","bandit","177","370688","0.0-136.0-0.0","03643241","wem/bandit_party_2","A20MYUKGSXUKM7","either","2","577","","","","","","","1","0","0","0.5696630174","","0.4","0.2","0.6","0.8","","","","","0.7573973965","0.2995167601","0.4195046205","0.5696630174","","","","","","","","","","76","L","3","","","95","main_expt","",""
"","bandit","178","372545","0.0-137.0-0.0","03643241","wem/bandit_party_2","A20MYUKGSXUKM7","either","2","348","","","","","","","1","0","0","0.6076398096","","0.4","0.2","0.6","0.8","","","","","0.8177369732","0.2934894425","0.3638478563","0.6076398096","","","","","","","","","","76","L","3","","","96","main_expt","",""
"","bandit","179","374432","0.0-138.0-0.0","03643241","wem/bandit_party_2","A20MYUKGSXUKM7","either","2","376","","","","","","","0","1","0","","0.5551612935","0.4","0.2","0.6","0.8","0.8124666872","0.2802715202","0.2839735208","0.5551612935","","","","","","","","","","","","","","76","L","3","","","97","main_expt","",""
"","bandit","180","376218","0.0-139.0-0.0","03643241","wem/bandit_party_2","A20MYUKGSXUKM7","either","2","274","","","","","","","1","0","0","0.6354974245","","0.4","0.2","0.6","0.8","","","","","0.881496875","0.2703087955","0.2109275999","0.6354974245","","","","","","","","","","76","L","3","","","98","main_expt","",""
"","bandit","181","379122","0.0-140.0-0.0","03643241","wem/bandit_party_2","A20MYUKGSXUKM7","either","2","1393","","","","","","","0","0","1","0.5945745664","","0.4","0.2","0.6","0.8","","","","","0.8785981907","0.3027543159","0.1531506719","0.5945745664","","","","","","","","","","76","L","3","","","99","main_expt","",""
"","bandit","182","381179","0.0-141.0-0.0","03643241","wem/bandit_party_2","A20MYUKGSXUKM7","either","2","544","","","","","","","0","0","1","0.5679097985","","0.4","0.2","0.6","0.8","","","","","0.8494581726","0.3645318829","0.1262108991","0.5679097985","","","","","","","","","","76","L","3","","","100","main_expt","",""
"","bandit","183","384537","0.0-142.0-0.0","03643241","wem/bandit_party_2","A20MYUKGSXUKM7","either","2","1847","","","","","","","1","0","0","0.6430580454","","0.4","0.2","0.6","0.8","","","","","0.7754784616","0.4315832637","0.1340220502","0.6430580454","","","","","","","","","","76","L","3","","","101","main_expt","",""
"","bandit","184","386442","0.0-143.0-0.0","03643241","wem/bandit_party_2","A20MYUKGSXUKM7","either","2","396","","","","","","","0","1","0","","0.6340200926","0.4","0.2","0.6","0.8","0.7626736499","0.3608531129","0.2167126086","0.6340200926","","","","","","","","","","","","","","76","L","3","","","102","main_expt","",""
"","bandit","185","388318","0.0-144.0-0.0","03643241","wem/bandit_party_2","A20MYUKGSXUKM7","either","2","366","","","","","","","0","0","1","0.6377668076","","0.4","0.2","0.6","0.8","","","","","0.7329996306","0.3688981903","0.2796352144","0.6377668076","","","","","","","","","","76","L","3","","","103","main_expt","",""
"","bandit","186","390044","0.0-145.0-0.0","03643241","wem/bandit_party_2","A20MYUKGSXUKM7","either","2","215","","","","","","","0","0","1","0.6578341575","","0.4","0.2","0.6","0.8","","","","","0.7467689404","0.3758155051","0.3556406549","0.6578341575","","","","","","","","","","76","L","3","","","104","main_expt","",""
"","bandit","187","391707","0.0-146.0-0.0","03643241","wem/bandit_party_2","A20MYUKGSXUKM7","either","2","153","","","","","","","0","1","0","","0.6727034752","0.4","0.2","0.6","0.8","0.737018723","0.4508947075","0.3233911601","0.6727034752","","","","","","","","","","","","","","76","L","3","","","105","main_expt","",""
"","bandit","188","393341","0.0-147.0-0.0","03643241","wem/bandit_party_2","A20MYUKGSXUKM7","either","2","121","","","","","","","0","0","1","0.6386482702","","0.4","0.2","0.6","0.8","","","","","0.655194185","0.4132181144","0.2024631506","0.6386482702","","","","","","","","","","76","L","3","","","106","main_expt","",""
"","bandit","189","394945","0.0-148.0-0.0","03643241","wem/bandit_party_2","A20MYUKGSXUKM7","either","2","92","","","","","","","1","0","0","0.6788938686","","0.4","0.2","0.6","0.8","","","","","0.7122819559","0.4393512677","0.2290393164","0.6788938686","","","","","","","","","","76","L","3","","","107","main_expt","",""
"","bandit","190","396790","0.0-149.0-0.0","03643241","wem/bandit_party_2","A20MYUKGSXUKM7","either","2","334","","","","","","","1","0","0","0.7076498576","","0.4","0.2","0.6","0.8","","","","","0.7326995505","0.4964319729","0.2217712157","0.7076498576","","","","","","","","","","76","L","3","","","108","main_expt","",""
"","bandit","191","399059","0.0-150.0-0.0","03643241","wem/bandit_party_2","A20MYUKGSXUKM7","either","2","759","","","","","","","1","0","0","0.6932550908","","0.4","0.2","0.6","0.8","","","","","0.7165499475","0.4790921069","0.1566860935","0.6932550908","","","","","","","","","","76","L","3","","","109","main_expt","",""
"","bandit","192","402005","0.0-151.0-0.0","03643241","wem/bandit_party_2","A20MYUKGSXUKM7","either","2","1435","","","","","","","1","0","0","0.7436061547","","0.4","0.2","0.6","0.8","","","","","0.6058017554","0.5856434505","0.1083987113","0.7436061547","","","","","","","","","","76","L","3","","","110","main_expt","",""
"","bandit","193","407782","0.0-152.0-0.0","03643241","wem/bandit_party_2","A20MYUKGSXUKM7","either","2","4267","","","","","","","1","0","0","0.657194241","","0.4","0.2","0.6","0.8","","","","","0.5476823758","0.6444230696","0.217828795","0.657194241","","","","","","","","","","76","L","3","","","111","main_expt","",""
"","bandit","194","409809","0.0-153.0-0.0","03643241","wem/bandit_party_2","A20MYUKGSXUKM7","either","2","517","","","","","","","1","0","0","0.6317228327","","0.4","0.2","0.6","0.8","","","","","0.5688313193","0.603417252","0.2212119155","0.6317228327","","","","","","","","","","76","L","3","","","112","main_expt","",""
"","bandit","195","411957","0.0-154.0-0.0","03643241","wem/bandit_party_2","A20MYUKGSXUKM7","either","2","637","","","","","","","0","0","1","0.4985892417","","0.4","0.2","0.6","0.8","","","","","0.50852785","0.420613871","0.2374112476","0.4985892417","","","","","","","","","","76","L","3","","","113","main_expt","",""
"","bandit","196","414014","0.0-155.0-0.0","03643241","wem/bandit_party_2","A20MYUKGSXUKM7","either","2","547","","","","","","","1","0","0","0.579071345","","0.4","0.2","0.6","0.8","","","","","0.5711084253","0.2851569533","0.2703699348","0.579071345","","","","","","","","","","76","L","3","","","114","main_expt","",""
"","bandit","197","416173","0.0-156.0-0.0","03643241","wem/bandit_party_2","A20MYUKGSXUKM7","either","2","648","","","","","","","0","0","1","0.4595939904","","0.4","0.2","0.6","0.8","","","","","0.4177754351","0.3166589884","0.1928485376","0.4595939904","","","","","","","","","","76","L","3","","","115","main_expt","",""
"","bandit","198","418180","0.0-157.0-0.0","03643241","wem/bandit_party_2","A20MYUKGSXUKM7","either","2","497","","","","","","","1","0","0","0.3744567546","","0.4","0.2","0.6","0.8","","","","","0.387840809","0.3928451607","0.136356343","0.3744567546","","","","","","","","","","76","L","3","","","116","main_expt","",""
"","bandit","199","421508","0.0-158.0-0.0","03643241","wem/bandit_party_2","A20MYUKGSXUKM7","either","2","1817","","","","","","","0","0","1","0.302145019","","0.4","0.2","0.6","0.8","","","","","0.4456731606","0.560845346","0.2193113504","0.302145019","","","","","","","","","","76","L","3","","","117","main_expt","",""
"","bandit","200","423536","0.0-159.0-0.0","03643241","wem/bandit_party_2","A20MYUKGSXUKM7","either","2","516","","","","","","","0","0","1","0.3522466686","","0.4","0.2","0.6","0.8","","","","","0.3045880574","0.5536818424","0.2686792008","0.3522466686","","","","","","","","","","76","L","3","","","118","main_expt","",""
"","bandit","201","425381","0.0-160.0-0.0","03643241","wem/bandit_party_2","A20MYUKGSXUKM7","either","2","335","","","","","","","0","1","0","","0.4425542362","0.4","0.2","0.6","0.8","0.3994134075","0.3617659687","0.2668270476","0.4425542362","","","","","","","","","","","","","","76","L","3","","","119","main_expt","",""
"","bandit","202","427225","0.0-161.0-0.0","03643241","wem/bandit_party_2","A20MYUKGSXUKM7","either","2","334","","","","","","","0","0","1","0.3377532805","","0.4","0.2","0.6","0.8","","","","","0.351449483","0.3454740543","0.3723992114","0.3377532805","","","","","","","","","","76","L","3","","","120","main_expt","",""
"","bandit","203","429041","0.0-162.0-0.0","03643241","wem/bandit_party_2","A20MYUKGSXUKM7","either","2","305","","","","","","","0","0","1","","0.2798257893","0.4","0.2","0.6","0.8","0.3641911367","0.2798257893","0.4001238515","0.2929504356","","","","","","","","","","","","","","74","J","1","","","121","main_expt","",""
"","bandit","204","430675","0.0-163.0-0.0","03643241","wem/bandit_party_2","A20MYUKGSXUKM7","either","2","123","","","","","","","1","0","0","0.4090120715","","0.4","0.2","0.6","0.8","","","","","0.2673706252","0.2261540995","0.4090120715","0.2504028886","","","","","","","","","","75","K","2","","","122","main_expt","",""
"","bandit","205","432431","0.0-164.0-0.0","03643241","wem/bandit_party_2","A20MYUKGSXUKM7","either","2","245","","","","","","","0","1","0","","0.4746108064","0.4","0.2","0.6","0.8","0.3455372181","0.2766663047","0.4746108064","0.2414849785","","","","","","","","","","","","","","75","K","2","","","123","main_expt","",""
"","bandit","206","434126","0.0-165.0-0.0","03643241","wem/bandit_party_2","A20MYUKGSXUKM7","either","2","180","","","","","","","1","0","0","0.453231646","","0.4","0.2","0.6","0.8","","","","","0.3524137631","0.3126864395","0.453231646","0.1791255979","","","","","","","","","","75","K","2","","","124","main_expt","",""
"","bandit","207","435849","0.0-166.0-0.0","03643241","wem/bandit_party_2","A20MYUKGSXUKM7","either","2","212","","","","","","","0","0","1","0.4888945922","","0.4","0.2","0.6","0.8","","","","","0.3680881866","0.2772507379","0.4888945922","0.1952456852","","","","","","","","","","75","K","2","","","125","main_expt","",""
"","bandit","208","437482","0.0-167.0-0.0","03643241","wem/bandit_party_2","A20MYUKGSXUKM7","either","2","121","","","","","","","0","0","1","0.396932523","","0.4","0.2","0.6","0.8","","","","","0.2884444508","0.2441417391","0.396932523","0.2614303707","","","","","","","","","","75","K","2","","","126","main_expt","",""
"","bandit","209","439207","0.0-168.0-0.0","03643241","wem/bandit_party_2","A20MYUKGSXUKM7","either","2","215","","","","","","","1","0","0","0.4026562496","","0.4","0.2","0.6","0.8","","","","","0.2931854252","0.2304038214","0.4026562496","0.267511235","","","","","","","","","","75","K","2","","","127","main_expt","",""
"","bandit","210","440881","0.0-169.0-0.0","03643241","wem/bandit_party_2","A20MYUKGSXUKM7","either","2","162","","","","","","","1","0","0","0.3072143153","","0.4","0.2","0.6","0.8","","","","","0.3115494401","0.2463692943","0.3072143153","0.2582460394","","","","","","","","","","75","K","2","","","128","main_expt","",""
"","bandit","211","442695","0.0-170.0-0.0","03643241","wem/bandit_party_2","A20MYUKGSXUKM7","either","2","304","","","","","","","0","0","1","0.3024431642","","0.4","0.2","0.6","0.8","","","","","0.287093163","0.262841392","0.3024431642","0.249100023","","","","","","","","","","75","K","2","","","129","main_expt","",""
"","bandit","212","444268","0.0-171.0-0.0","03643241","wem/bandit_party_2","A20MYUKGSXUKM7","either","2","63","","","","","","","1","0","0","0.383823705","","0.4","0.2","0.6","0.8","","","","","0.242368994","0.3044503748","0.383823705","0.2014680341","","","","","","","","","","75","K","2","","","130","main_expt","",""
"","bandit","213","446025","0.0-172.0-0.0","03643241","wem/bandit_party_2","A20MYUKGSXUKM7","either","2","245","","","","","","","0","0","1","0.5448185218","","0.4","0.2","0.6","0.8","","","","","0.3141093292","0.2231782293","0.5448185218","0.2514612397","","","","","","","","","","75","K","2","","","131","main_expt","",""
"","bandit","214","447749","0.0-173.0-0.0","03643241","wem/bandit_party_2","A20MYUKGSXUKM7","either","2","212","","","","","","","0","0","1","0.5741986762","","0.4","0.2","0.6","0.8","","","","","0.3186943837","0.265126842","0.5741986762","0.1719215191","","","","","","","","","","75","K","2","","","132","main_expt","",""
"","bandit","215","449513","0.0-174.0-0.0","03643241","wem/bandit_party_2","A20MYUKGSXUKM7","either","2","255","","","","","","","0","0","1","0.54298015","","0.4","0.2","0.6","0.8","","","","","0.3218599317","0.1996467811","0.54298015","0.151851594","","","","","","","","","","75","K","2","","","133","main_expt","",""
"","bandit","216","451237","0.0-175.0-0.0","03643241","wem/bandit_party_2","A20MYUKGSXUKM7","either","2","213","","","","","","","1","0","0","0.5504084981","","0.4","0.2","0.6","0.8","","","","","0.3372263261","0.1900899503","0.5504084981","0.1693242304","","","","","","","","","","75","K","2","","","134","main_expt","",""
"","bandit","217","453052","0.0-176.0-0.0","03643241","wem/bandit_party_2","A20MYUKGSXUKM7","either","2","304","","","","","","","1","0","0","0.4874659601","","0.4","0.2","0.6","0.8","","","","","0.3515125386","0.172295534","0.4874659601","0.1541174352","","","","","","","","","","75","K","2","","","135","main_expt","",""
"","bandit","218","454686","0.0-177.0-0.0","03643241","wem/bandit_party_2","A20MYUKGSXUKM7","either","2","122","","","","","","","0","0","1","","0.3677382912","0.4","0.2","0.6","0.8","0.2312583875","0.1171098277","0.3677382912","0.1374012581","","","","","","","","","","","","","","75","K","2","","","136","main_expt","",""
"","bandit","219","456381","0.0-178.0-0.0","03643241","wem/bandit_party_2","A20MYUKGSXUKM7","either","2","185","","","","","","","0","0","1","0.2944012193","","0.4","0.2","0.6","0.8","","","","","0.3496768842","0.1390909791","0.2944012193","0.2889288236","","","","","","","","","","75","K","2","","","137","main_expt","",""
"","bandit","220","458136","0.0-179.0-0.0","03643241","wem/bandit_party_2","A20MYUKGSXUKM7","either","2","243","","","","","","","1","0","0","0.3020033879","","0.4","0.2","0.6","0.8","","","","","0.4217982028","0.1209370274","0.3020033879","0.2177367931","","","","","","","","","","75","K","2","","","138","main_expt","",""
"","bandit","221","460040","0.0-180.0-0.0","03643241","wem/bandit_party_2","A20MYUKGSXUKM7","either","2","394","","","","","","","0","0","1","","0.2908104057","0.4","0.2","0.6","0.8","0.5123523738","0.1441291996","0.2908104057","0.1704259453","","","","","","","","","","","","","","75","K","2","","","139","main_expt","",""
"","bandit","222","461795","0.0-181.0-0.0","03643241","wem/bandit_party_2","A20MYUKGSXUKM7","either","2","244","","","","","","","0","0","1","0.2738290205","","0.4","0.2","0.6","0.8","","","","","0.3892042576","0.1380406349","0.2738290205","0.1827322183","","","","","","","","","","75","K","2","","","140","main_expt","",""
"","bandit","223","463489","0.0-182.0-0.0","03643241","wem/bandit_party_2","A20MYUKGSXUKM7","either","2","184","","","","","","","0","0","1","0.3865798498","","0.4","0.2","0.6","0.8","","","","","0.4680147771","0.1312769784","0.3865798498","0.2030288612","","","","","","","","","","75","K","2","","","141","main_expt","",""
"","bandit","224","465123","0.0-183.0-0.0","03643241","wem/bandit_party_2","A20MYUKGSXUKM7","either","2","122","","","","","","","0","0","1","0.3507917403","","0.4","0.2","0.6","0.8","","","","","0.3970866904","0.1880730553","0.3507917403","0.1760536641","","","","","","","","","","75","K","2","","","142","main_expt","",""
"","bandit","225","466789","0.0-184.0-0.0","03643241","wem/bandit_party_2","A20MYUKGSXUKM7","either","2","154","","","","","","","1","0","0","0.2787839286","","0.4","0.2","0.6","0.8","","","","","0.3609481858","0.1798266991","0.2787839286","0.1428921374","","","","","","","","","","75","K","2","","","143","main_expt","",""
"","bandit","226","468724","0.0-185.0-0.0","03643241","wem/bandit_party_2","A20MYUKGSXUKM7","either","2","423","","","","","","","0","0","1","","0.2106619402","0.4","0.2","0.6","0.8","0.3701270871","0.1881666754","0.2106619402","0.1260474704","","","","","","","","","","","","","","75","K","2","","","144","main_expt","",""
"","bandit","227","470267","0.0-186.0-0.0","03643241","wem/bandit_party_2","A20MYUKGSXUKM7","either","2","32","","","","","","","1","0","0","0.3211677341","","0.4","0.2","0.6","0.8","","","","","0.3110645609","0.1683386122","0.3211677341","0.151337539","","","","","","","","","","75","K","2","","","145","main_expt","",""
"","bandit","228","472206","0.0-187.0-0.0","03643241","wem/bandit_party_2","A20MYUKGSXUKM7","either","2","423","","","","","","","1","0","0","0.4417580917","","0.4","0.2","0.6","0.8","","","","","0.356964637","0.2609121533","0.4417580917","0.1600114734","","","","","","","","","","75","K","2","","","146","main_expt","",""
"","bandit","229","474382","0.0-188.0-0.0","03643241","wem/bandit_party_2","A20MYUKGSXUKM7","either","2","662","","","","","","","0","0","1","0.278611551","","0.4","0.2","0.6","0.8","","","","","0.5143633813","0.280259565","0.278611551","0.1262446547","","","","","","","","","","75","K","2","","","147","main_expt","",""
"","bandit","230","476318","0.0-189.0-0.0","03643241","wem/bandit_party_2","A20MYUKGSXUKM7","either","2","426","","","","","","","1","0","0","0.2811332351","","0.4","0.2","0.6","0.8","","","","","0.5086187798","0.2972918914","0.2811332351","0.1030311585","","","","","","","","","","75","K","2","","","148","main_expt","",""
"","bandit","231","479708","0.0-190.0-0.0","03643241","wem/bandit_party_2","A20MYUKGSXUKM7","either","2","1879","","","","","","","0","0","1","","0.2606345315","0.4","0.2","0.6","0.8","0.4676315778","0.3284309668","0.2606345315","0.123834606","","","","","","","","","","","","","","75","K","2","","","149","main_expt","",""
"","bandit","232","481319","0.0-191.0-0.0","03643241","wem/bandit_party_2","A20MYUKGSXUKM7","either","2","100","","","","","","","0","0","1","","0.260677327","0.4","0.2","0.6","0.8","0.4737351686","0.3186890608","0.260677327","0.06566206942","","","","","","","","","","","","","","75","K","2","","","150","main_expt","",""
"","bandit","233","483347","0.0-192.0-0.0","03643241","wem/bandit_party_2","A20MYUKGSXUKM7","either","2","517","","","","","","","0","0","1","0.2579624968","","0.4","0.2","0.6","0.8","","","","","0.5387476985","0.3331747037","0.2579624968","0.06342121736","","","","","","","","","","75","K","2","","","151","main_expt","",""
"","bandit","234","484991","0.0-193.0-0.0","03643241","wem/bandit_party_2","A20MYUKGSXUKM7","either","2","132","","","","","","","0","0","1","0.2536911072","","0.4","0.2","0.6","0.8","","","","","0.5065138565","0.364096089","0.2536911072","0.1162046696","","","","","","","","","","75","K","2","","","152","main_expt","",""
"","bandit","235","486715","0.0-194.0-0.0","03643241","wem/bandit_party_2","A20MYUKGSXUKM7","either","2","213","","","","","","","0","0","1","0.1427943183","","0.4","0.2","0.6","0.8","","","","","0.5190676077","0.3189440566","0.1427943183","0.1388943584","","","","","","","","","","75","K","2","","","153","main_expt","",""
"","bandit","236","488470","0.0-195.0-0.0","03643241","wem/bandit_party_2","A20MYUKGSXUKM7","either","2","244","","","","","","","0","0","1","0.08934943386","","0.4","0.2","0.6","0.8","","","","","0.4944482457","0.486858514","0.08934943386","0.1188489222","","","","","","","","","","75","K","2","","","154","main_expt","",""
"","bandit","237","490174","0.0-196.0-0.0","03643241","wem/bandit_party_2","A20MYUKGSXUKM7","either","2","193","","","","","","","0","0","1","","0.1048919666","0.4","0.2","0.6","0.8","0.4987902374","0.398958755","0.1048919666","0.1255079792","","","","","","","","","","","","","","75","K","2","","","155","main_expt","",""
"","bandit","238","491838","0.0-197.0-0.0","03643241","wem/bandit_party_2","A20MYUKGSXUKM7","either","2","152","","","","","","","0","0","1","","0.1348874752","0.4","0.2","0.6","0.8","0.4151199053","0.3508932217","0.1348874752","0.1705129017","","","","","","","","","","","","","","75","K","2","","","156","main_expt","",""
"","bandit","239","493622","0.0-198.0-0.0","03643241","wem/bandit_party_2","A20MYUKGSXUKM7","either","2","273","","","","","","","0","1","0","","0.1197456909","0.4","0.2","0.6","0.8","0.4215128153","0.3736640956","0.1197456909","0.1892203872","","","","","","","","","","","","","","75","K","2","","","157","main_expt","",""
"","bandit","240","495135","0.0-199.0-0.0","03643241","wem/bandit_party_2","A20MYUKGSXUKM7","either","2","2","","","","","","","0","0","1","0.1343935597","","0.4","0.2","0.6","0.8","","","","","0.3666899102","0.3215678611","0.1343935597","0.1589595026","","","","","","","","","","75","K","2","","","158","main_expt","",""
"","bandit","241","496784","0.0-200.0-0.0","03643241","wem/bandit_party_2","A20MYUKGSXUKM7","either","2","134","","","","","","","0","0","1","","0.1426383857","0.4","0.2","0.6","0.8","0.3906786657","0.2732838962","0.04604274909","0.1426383857","","","","","","","","","","","","","","76","L","3","","","159","main_expt","",""
"","bandit","242","498321","0.0-201.0-0.0","03643241","wem/bandit_party_2","A20MYUKGSXUKM7","either","2","29","","","","","","","1","0","0","0.2747613825","","0.4","0.2","0.6","0.8","","","","","0.4769972016","0.2323229575","0.08927965808","0.2747613825","","","","","","","","","","76","L","3","","","160","main_expt","",""
"","bandit","243","500050","0.0-202.0-0.0","03643241","wem/bandit_party_2","A20MYUKGSXUKM7","either","2","215","","","","","","","1","0","0","0.2046882866","","0.4","0.2","0.6","0.8","","","","","0.4405879513","0.399022808","0.1038156196","0.2046882866","","","","","","","","","","76","L","3","","","161","main_expt","",""
"","bandit","244","501590","0.0-203.0-0.0","03643241","wem/bandit_party_2","A20MYUKGSXUKM7","either","2","28","","","","","","","0","0","1","","0.1715152701","0.4","0.2","0.6","0.8","0.44055992","0.4967313539","0.1470739062","0.1715152701","","","","","","","","","","","","","","76","L","3","","","162","main_expt","",""
"","bandit","245","503286","0.0-204.0-0.0","03643241","wem/bandit_party_2","A20MYUKGSXUKM7","either","2","180","","","","","","","0","0","1","","0.2396687428","0.4","0.2","0.6","0.8","0.3434222481","0.5245029489","0.1214264794","0.2396687428","","","","","","","","","","","","","","76","L","3","","","163","main_expt","",""
"","bandit","246","504924","0.0-205.0-0.0","03643241","wem/bandit_party_2","A20MYUKGSXUKM7","either","2","122","","","","","","","0","0","1","0.3359744524","","0.4","0.2","0.6","0.8","","","","","0.3862652833","0.5808119749","0.1563758897","0.3359744524","","","","","","","","","","76","L","3","","","164","main_expt","",""
"","bandit","247","506614","0.0-206.0-0.0","03643241","wem/bandit_party_2","A20MYUKGSXUKM7","either","2","180","","","","","","","0","1","0","","0.4940159592","0.4","0.2","0.6","0.8","0.4270444342","0.6473032069","0.1311500467","0.4940159592","","","","","","","","","","","","","","76","L","3","","","165","main_expt","",""
"","bandit","248","508169","0.0-207.0-0.0","03643241","wem/bandit_party_2","A20MYUKGSXUKM7","either","2","42","","","","","","","0","0","1","0.5922229292","","0.4","0.2","0.6","0.8","","","","","0.5073102058","0.6790689848","0.1419689761","0.5922229292","","","","","","","","","","76","L","3","","","166","main_expt","",""
"","bandit","249","509954","0.0-208.0-0.0","03643241","wem/bandit_party_2","A20MYUKGSXUKM7","either","2","274","","","","","","","0","0","1","0.5562626425","","0.4","0.2","0.6","0.8","","","","","0.5417092253","0.5959653185","0.150246256","0.5562626425","","","","","","","","","","76","L","3","","","167","main_expt","",""
"","bandit","250","511891","0.0-209.0-0.0","03643241","wem/bandit_party_2","A20MYUKGSXUKM7","either","2","424","","","","","","","1","0","0","0.6489587791","","0.4","0.2","0.6","0.8","","","","","0.6505471885","0.361841396","0.2070971521","0.6489587791","","","","","","","","","","76","L","3","","","168","main_expt","",""
"","bandit","251","513645","0.0-210.0-0.0","03643241","wem/bandit_party_2","A20MYUKGSXUKM7","either","2","243","","","","","","","1","0","0","0.5652428614","","0.4","0.2","0.6","0.8","","","","","0.6226729341","0.2594844845","0.2564452127","0.5652428614","","","","","","","","","","76","L","3","","","169","main_expt","",""
"","bandit","252","515581","0.0-211.0-0.0","03643241","wem/bandit_party_2","A20MYUKGSXUKM7","either","2","424","","","","","","","1","0","0","0.5344749526","","0.4","0.2","0.6","0.8","","","","","0.7574543886","0.1987556041","0.2845729388","0.5344749526","","","","","","","","","","76","L","3","","","170","main_expt","",""
"","bandit","253","517337","0.0-212.0-0.0","03643241","wem/bandit_party_2","A20MYUKGSXUKM7","either","2","243","","","","","","","0","0","1","0.6364900983","","0.4","0.2","0.6","0.8","","","","","0.774201251","0.1583585206","0.2360657399","0.6364900983","","","","","","","","","","76","L","3","","","171","main_expt","",""
"","bandit","254","519363","0.0-213.0-0.0","03643241","wem/bandit_party_2","A20MYUKGSXUKM7","either","2","516","","","","","","","1","0","0","0.5516193693","","0.4","0.2","0.6","0.8","","","","","0.7739789177","0.1494938987","0.3453554921","0.5516193693","","","","","","","","","","76","L","3","","","172","main_expt","",""
"","bandit","255","521482","0.0-214.0-0.0","03643241","wem/bandit_party_2","A20MYUKGSXUKM7","either","2","608","","","","","","","0","1","0","","0.5081608063","0.4","0.2","0.6","0.8","0.7146420849","0.1996494969","0.2909261263","0.5081608063","","","","","","","","","","","","","","76","L","3","","","173","main_expt","",""
"","bandit","256","523752","0.0-215.0-0.0","03643241","wem/bandit_party_2","A20MYUKGSXUKM7","either","2","758","","","","","","","0","0","1","0.5247340446","","0.4","0.2","0.6","0.8","","","","","0.683245412","0.2200767262","0.3807546558","0.5247340446","","","","","","","","","","76","L","3","","","174","main_expt","",""
"","bandit","257","525475","0.0-216.0-0.0","03643241","wem/bandit_party_2","A20MYUKGSXUKM7","either","2","211","","","","","","","1","0","0","0.5823110366","","0.4","0.2","0.6","0.8","","","","","0.7163731774","0.1929710708","0.3889518003","0.5823110366","","","","","","","","","","76","L","3","","","175","main_expt","",""
"","bandit","258","527079","0.0-217.0-0.0","03643241","wem/bandit_party_2","A20MYUKGSXUKM7","either","2","92","","","","","","","1","0","0","0.7693722391","","0.4","0.2","0.6","0.8","","","","","0.6676116703","0.1756556012","0.3662842853","0.7693722391","","","","","","","","","","76","L","3","","","176","main_expt","",""
"","bandit","259","528683","0.0-218.0-0.0","03643241","wem/bandit_party_2","A20MYUKGSXUKM7","either","2","90","","","","","","","0","0","1","0.8048595062","","0.4","0.2","0.6","0.8","","","","","0.711116056","0.2404611203","0.3102656016","0.8048595062","","","","","","","","","","76","L","3","","","177","main_expt","",""
"","bandit","260","530467","0.0-219.0-0.0","03643241","wem/bandit_party_2","A20MYUKGSXUKM7","either","2","272","","","","","","","0","0","1","","0.1651874793","0.4","0.2","0.6","0.8","0.6541247318","0.1651874793","0.3272385177","0.8147320782","","","","","","","","","","","","","","74","J","1","","","178","main_expt","",""
"","bandit","261","531981","0.0-220.0-0.0","03643241","wem/bandit_party_2","A20MYUKGSXUKM7","either","2","1","","","","","","","1","0","0","0.7755432213","","0.4","0.2","0.6","0.8","","","","","0.600925469","0.1297692321","0.3185807274","0.7755432213","","","","","","","","","","76","L","3","","","179","main_expt","",""
"","bandit","262","533736","0.0-221.0-0.0","03643241","wem/bandit_party_2","A20MYUKGSXUKM7","either","2","242","","","","","","","1","0","0","0.7309951384","","0.4","0.2","0.6","0.8","","","","","0.6321701674","0.1311169289","0.3896265469","0.7309951384","","","","","","","","","","76","L","3","","","180","main_expt","",""
"","bandit","263","535639","0.0-222.0-0.0","03643241","wem/bandit_party_2","A20MYUKGSXUKM7","either","2","391","","","","","","","0","1","0","","0.8068071681","0.4","0.2","0.6","0.8","0.7040606398","0.2184653543","0.4381139349","0.8068071681","","","","","","","","","","","","","","76","L","3","","","181","main_expt","",""
"","bandit","264","537183","0.0-223.0-0.0","03643241","wem/bandit_party_2","A20MYUKGSXUKM7","either","2","32","","","","","","","0","0","1","","0.4339703771","0.4","0.2","0.6","0.8","0.6551517927","0.156745214","0.4339703771","0.8096694819","","","","","","","","","","","","","","75","K","2","","","182","main_expt","",""
"","bandit","265","538727","0.0-224.0-0.0","03643241","wem/bandit_party_2","A20MYUKGSXUKM7","either","2","31","","","","","","","0","0","1","0.8522040983","","0.4","0.2","0.6","0.8","","","","","0.7709035389","0.07710569088","0.5270594011","0.8522040983","","","","","","","","","","76","L","3","","","183","main_expt","",""
"","bandit","266","540390","0.0-225.0-0.0","03643241","wem/bandit_party_2","A20MYUKGSXUKM7","either","2","151","","","","","","","1","0","0","0.8636776132","","0.4","0.2","0.6","0.8","","","","","0.7869666122","0.07901501252","0.4791569234","0.8636776132","","","","","","","","","","76","L","3","","","184","main_expt","",""
"","bandit","267","542175","0.0-226.0-0.0","03643241","wem/bandit_party_2","A20MYUKGSXUKM7","either","2","272","","","","","","","1","0","0","0.8605951951","","0.4","0.2","0.6","0.8","","","","","0.804571828","0.05695362571","0.464074867","0.8605951951","","","","","","","","","","76","L","3","","","185","main_expt","",""
"","bandit","268","543870","0.0-227.0-0.0","03643241","wem/bandit_party_2","A20MYUKGSXUKM7","either","2","182","","","","","","","1","0","0","0.8578427848","","0.4","0.2","0.6","0.8","","","","","0.7866627628","0.03796608352","0.4654947356","0.8578427848","","","","","","","","","","76","L","3","","","186","main_expt","",""
"","bandit","269","545684","0.0-228.0-0.0","03643241","wem/bandit_party_2","A20MYUKGSXUKM7","either","2","302","","","","","","","1","0","0","0.8253306036","","0.4","0.2","0.6","0.8","","","","","0.8006736442","0.05986429342","0.4338668179","0.8253306036","","","","","","","","","","76","L","3","","","187","main_expt","",""
"","bandit","270","547469","0.0-229.0-0.0","03643241","wem/bandit_party_2","A20MYUKGSXUKM7","either","2","273","","","","","","","0","0","1","0.8118593573","","0.4","0.2","0.6","0.8","","","","","0.7687627789","0.05827831728","0.4679469354","0.8118593573","","","","","","","","","","76","L","3","","","188","main_expt","",""
"","bandit","271","549103","0.0-230.0-0.0","03643241","wem/bandit_party_2","A20MYUKGSXUKM7","either","2","120","","","","","","","1","0","0","0.8319104568","","0.4","0.2","0.6","0.8","","","","","0.7009429779","0.06499387038","0.4645116859","0.8319104568","","","","","","","","","","76","L","3","","","189","main_expt","",""
"","bandit","272","550797","0.0-231.0-0.0","03643241","wem/bandit_party_2","A20MYUKGSXUKM7","either","2","182","","","","","","","0","1","0","","0.8949986836","0.4","0.2","0.6","0.8","0.7531121838","0.0878029059","0.4260553166","0.8949986836","","","","","","","","","","","","","","76","L","3","","","190","main_expt","",""
"","bandit","273","552431","0.0-232.0-0.0","03643241","wem/bandit_party_2","A20MYUKGSXUKM7","either","2","121","","","","","","","0","0","1","","0.5323747461","0.4","0.2","0.6","0.8","0.6174616994","0.1101088583","0.5323747461","0.9258368343","","","","","","","","","","","","","","75","K","2","","","191","main_expt","",""
"","bandit","274","554279","0.0-233.0-0.0","03643241","wem/bandit_party_2","A20MYUKGSXUKM7","either","2","335","","","","","","","1","0","0","0.9221438833","","0.4","0.2","0.6","0.8","","","","","0.6331996982","0.1559643099","0.6013900654","0.9221438833","","","","","","","","","","76","L","3","","","192","main_expt","",""
"","bandit","275","555975","0.0-234.0-0.0","03643241","wem/bandit_party_2","A20MYUKGSXUKM7","either","2","179","","","","","","","1","0","0","0.878376231","","0.4","0.2","0.6","0.8","","","","","0.5596167322","0.1348882638","0.5332063066","0.878376231","","","","","","","","","","76","L","3","","","193","main_expt","",""
"","bandit","276","557790","0.0-235.0-0.0","03643241","wem/bandit_party_2","A20MYUKGSXUKM7","either","2","302","","","","","","","0","1","0","","0.7914694382","0.4","0.2","0.6","0.8","0.5887018809","0.243093686","0.5499496643","0.7914694382","","","","","","","","","","","","","","76","L","3","","","194","main_expt","",""
"","bandit","277","559305","0.0-236.0-0.0","03643241","wem/bandit_party_2","A20MYUKGSXUKM7","either","2","1","","","","","","","0","0","1","0.4170732774","","0.4","0.2","0.6","0.8","","","","","0.561552955","0.2792315856","0.4170732774","0.7843027812","","","","","","","","","","75","K","2","","","195","main_expt","",""
"","bandit","278","562692","0.0-237.0-0.0","03643241","wem/bandit_party_2","A20MYUKGSXUKM7","either","2","1875","","","","","","","0","1","0","","0.7888241066","0.4","0.2","0.6","0.8","0.6199522587","0.2075419965","0.4050854298","0.7888241066","","","","","","","","","","","","","","76","L","3","","","196","main_expt","",""
"","bandit","279","564599","0.0-238.0-0.0","03643241","wem/bandit_party_2","A20MYUKGSXUKM7","either","2","393","","","","","","","1","0","0","0.4522405917","","0.4","0.2","0.6","0.8","","","","","0.6886125155","0.1899284635","0.4522405917","0.8145025162","","","","","","","","","","75","K","2","","","197","main_expt","",""
"","bandit","280","566234","0.0-239.0-0.0","03643241","wem/bandit_party_2","A20MYUKGSXUKM7","either","2","120","","","","","","","0","1","0","","0.8795467387","0.4","0.2","0.6","0.8","0.6468609917","0.1632143895","0.4547961131","0.8795467387","","","","","","","","","","","","","","76","L","3","","","198","main_expt","",""
"","bandit","281","568017","0.0-240.0-0.0","03643241","wem/bandit_party_2","A20MYUKGSXUKM7","either","2","266","","","","","","","0","0","1","","0.1580048483","0.4","0.2","0.6","0.8","0.7134983028","0.1580048483","0.456709553","0.8716255916","","","","","","","","","","","","","","74","J","1","","","199","main_expt","",""
"","bandit","282","569802","0.0-241.0-0.0","03643241","wem/bandit_party_2","A20MYUKGSXUKM7","either","2","271","","","","","","","1","0","0","0.4197111003","","0.4","0.2","0.6","0.8","","","","","0.6545285445","0.1815025648","0.4197111003","0.8596876402","","","","","","","","","","75","K","2","","","200","main_expt","",""
"","bandit","283","571405","0.0-242.0-0.0","03643241","wem/bandit_party_2","A20MYUKGSXUKM7","either","2","88","","","","","","","0","0","1","","0.4468864226","0.4","0.2","0.6","0.8","0.6827561938","0.1453003075","0.4468864226","0.8714244785","","","","","","","","","","","","","","75","K","2","","","201","main_expt","",""
"","bandit","284","572980","0.0-243.0-0.0","03643241","wem/bandit_party_2","A20MYUKGSXUKM7","either","2","58","","","","","","","1","0","0","0.8679491409","","0.4","0.2","0.6","0.8","","","","","0.6590680519","0.1061510446","0.3852152277","0.8679491409","","","","","","","","","","76","L","3","","","202","main_expt","",""
"","bandit","285","575038","0.0-244.0-0.0","03643241","wem/bandit_party_2","A20MYUKGSXUKM7","either","2","545","","","","","","","1","0","0","0.8421855008","","0.4","0.2","0.6","0.8","","","","","0.67998256","0.09667757311","0.3481501846","0.8421855008","","","","","","","","","","76","L","3","","","203","main_expt","",""
"","bandit","286","576822","0.0-245.0-0.0","03643241","wem/bandit_party_2","A20MYUKGSXUKM7","either","2","270","","","","","","","1","0","0","0.8741547355","","0.4","0.2","0.6","0.8","","","","","0.7157802034","0.109576977","0.3688904748","0.8741547355","","","","","","","","","","76","L","3","","","204","main_expt","",""
"","bandit","287","578607","0.0-246.0-0.0","03643241","wem/bandit_party_2","A20MYUKGSXUKM7","either","2","271","","","","","","","0","0","1","","0.8589537271","0.4","0.2","0.6","0.8","0.6750594522","0.1370524017","0.4196025605","0.8589537271","","","","","","","","","","","","","","76","L","3","","","205","main_expt","",""
"","bandit","288","580151","0.0-247.0-0.0","03643241","wem/bandit_party_2","A20MYUKGSXUKM7","either","2","31","","","","","","","0","0","1","0.3558717694","","0.4","0.2","0.6","0.8","","","","","0.7170784861","0.1005848846","0.3558717694","0.8009191088","","","","","","","","","","75","K","2","","","206","main_expt","",""
"","bandit","289","581724","0.0-248.0-0.0","03643241","wem/bandit_party_2","A20MYUKGSXUKM7","either","2","60","","","","","","","0","0","1","0.3978287694","","0.4","0.2","0.6","0.8","","","","","0.6886550294","0.1100528349","0.3978287694","0.8146279372","","","","","","","","","","75","K","2","","","207","main_expt","",""
"","bandit","290","583279","0.0-249.0-0.0","03643241","wem/bandit_party_2","A20MYUKGSXUKM7","either","2","42","","","","","","","1","0","0","0.7498886323","","0.4","0.2","0.6","0.8","","","","","0.7340041914","0.1165568201","0.3647175361","0.7498886323","","","","","","","","","","76","L","3","","","208","main_expt","",""
"","bandit","291","584822","0.0-250.0-0.0","03643241","wem/bandit_party_2","A20MYUKGSXUKM7","either","2","29","","","","","","","1","0","0","0.781298432","","0.4","0.2","0.6","0.8","","","","","0.7108339061","0.1607141963","0.2942091963","0.781298432","","","","","","","","","","76","L","3","","","209","main_expt","",""
"","bandit","292","586546","0.0-251.0-0.0","03643241","wem/bandit_party_2","A20MYUKGSXUKM7","either","2","211","","","","","","","0","0","1","0.8374694261","","0.4","0.2","0.6","0.8","","","","","0.7322658343","0.2005879304","0.3228874634","0.8374694261","","","","","","","","","","76","L","3","","","210","main_expt","",""
"","bandit","293","588210","0.0-252.0-0.0","03643241","wem/bandit_party_2","A20MYUKGSXUKM7","either","2","150","","","","","","","1","0","0","0.7461264045","","0.4","0.2","0.6","0.8","","","","","0.6220956771","0.1999716741","0.3300931135","0.7461264045","","","","","","","","","","76","L","3","","","211","main_expt","",""
"","bandit","294","589815","0.0-253.0-0.0","03643241","wem/bandit_party_2","A20MYUKGSXUKM7","either","2","91","","","","","","","1","0","0","0.7267359419","","0.4","0.2","0.6","0.8","","","","","0.5400145011","0.2135957141","0.4044608811","0.7267359419","","","","","","","","","","76","L","3","","","212","main_expt","",""
"","bandit","295","591541","0.0-254.0-0.0","03643241","wem/bandit_party_2","A20MYUKGSXUKM7","either","2","213","","","","","","","1","0","0","0.6529835343","","0.4","0.2","0.6","0.8","","","","","0.5419994818","0.2041793084","0.4916994921","0.6529835343","","","","","","","","","","76","L","3","","","213","main_expt","",""
"","bandit","296","593177","0.0-255.0-0.0","03643241","wem/bandit_party_2","A20MYUKGSXUKM7","either","2","123","","","","","","","1","0","0","0.5734554779","","0.4","0.2","0.6","0.8","","","","","0.6195319152","0.2563089198","0.5387088508","0.5734554779","","","","","","","","","","76","L","3","","","214","main_expt","",""
"","bandit","297","594781","0.0-256.0-0.0","03643241","wem/bandit_party_2","A20MYUKGSXUKM7","either","2","90","","","","","","","1","0","0","0.7056003711","","0.4","0.2","0.6","0.8","","","","","0.7405966814","0.2870699064","0.567041903","0.7056003711","","","","","","","","","","76","L","3","","","215","main_expt","",""
"","bandit","298","596427","0.0-257.0-0.0","03643241","wem/bandit_party_2","A20MYUKGSXUKM7","either","2","132","","","","","","","0","0","1","","0.7717913507","0.4","0.2","0.6","0.8","0.8005734678","0.2715554895","0.539749723","0.7717913507","","","","","","","","","","","","","","76","L","3","","","216","main_expt","",""
"","bandit","299","598226","0.0-258.0-0.0","03643241","wem/bandit_party_2","A20MYUKGSXUKM7","either","2","284","","","","","","","0","1","0","","0.834894728","0.4","0.2","0.6","0.8","0.8392159132","0.2027777883","0.3803352486","0.834894728","","","","","","","","","","","","","","76","L","3","","","217","main_expt","",""
"","bandit","300","599829","0.0-259.0-0.0","03643241","wem/bandit_party_2","A20MYUKGSXUKM7","either","2","88","","","","","","","0","0","1","","0.3236333655","0.4","0.2","0.6","0.8","0.7445585264","0.2169787163","0.3236333655","0.868580258","","","","","","","","","","","","","","75","K","2","","","218","main_expt","",""
"","bandit","301","601801","0.0-260.0-0.0","03643241","wem/bandit_party_2","A20MYUKGSXUKM7","either","2","454","","","","","","","1","0","0","0.8236231074","","0.4","0.2","0.6","0.8","","","","","0.7174829008","0.2292932202","0.2612589469","0.8236231074","","","","","","","","","","76","L","3","","","219","main_expt","",""
"","bandit","302","603551","0.0-261.0-0.0","03643241","wem/bandit_party_2","A20MYUKGSXUKM7","either","2","237","","","","","","","1","0","0","0.7719294443","","0.4","0.2","0.6","0.8","","","","","0.6601767392","0.2829053382","0.2228319794","0.7719294443","","","","","","","","","","76","L","3","","","220","main_expt","",""
"","bandit","303","605156","0.0-262.0-0.0","03643241","wem/bandit_party_2","A20MYUKGSXUKM7","either","2","90","","","","","","","0","1","0","","0.7609360252","0.4","0.2","0.6","0.8","0.703996204","0.2691731019","0.2204856404","0.7609360252","","","","","","","","","","","","","","76","L","3","","","221","main_expt","",""
"","bandit","304","606851","0.0-263.0-0.0","03643241","wem/bandit_party_2","A20MYUKGSXUKM7","either","2","180","","","","","","","0","1","0","","0.7319851961","0.4","0.2","0.6","0.8","0.6188024556","0.1974112065","0.2269951902","0.7319851961","","","","","","","","","","","","","","76","L","3","","","222","main_expt","",""
"","bandit","305","608424","0.0-264.0-0.0","03643241","wem/bandit_party_2","A20MYUKGSXUKM7","either","2","57","","","","","","","0","0","1","0.3417830843","","0.4","0.2","0.6","0.8","","","","","0.5695888615","0.08486155027","0.3417830843","0.6994646324","","","","","","","","","","75","K","2","","","223","main_expt","",""
"","bandit","306","609998","0.0-265.0-0.0","03643241","wem/bandit_party_2","A20MYUKGSXUKM7","either","2","60","","","","","","","1","0","0","0.6817307813","","0.4","0.2","0.6","0.8","","","","","0.6590173842","0.1930609847","0.4057490183","0.6817307813","","","","","","","","","","76","L","3","","","224","main_expt","",""
"","bandit","307","611854","0.0-266.0-0.0","03643241","wem/bandit_party_2","A20MYUKGSXUKM7","either","2","342","","","","","","","0","1","0","","0.67394888","0.4","0.2","0.6","0.8","0.6779124893","0.2026087193","0.4266979185","0.67394888","","","","","","","","","","","","","","76","L","3","","","225","main_expt","",""
"","bandit","308","613427","0.0-267.0-0.0","03643241","wem/bandit_party_2","A20MYUKGSXUKM7","either","2","58","","","","","","","1","0","0","0.4723095555","","0.4","0.2","0.6","0.8","","","","","0.6433757785","0.1295559036","0.4723095555","0.6520670614","","","","","","","","","","75","K","2","","","226","main_expt","",""
"","bandit","309","615286","0.0-268.0-0.0","03643241","wem/bandit_party_2","A20MYUKGSXUKM7","either","2","341","","","","","","","0","0","1","","0.4396274322","0.4","0.2","0.6","0.8","0.6050090536","0.1014701128","0.4396274322","0.6598054912","","","","","","","","","","","","","","75","K","2","","","227","main_expt","",""
"","bandit","310","616977","0.0-269.0-0.0","03643241","wem/bandit_party_2","A20MYUKGSXUKM7","either","2","175","","","","","","","0","0","1","","0.7313296172","0.4","0.2","0.6","0.8","0.5614220587","0.1374428951","0.4581465293","0.7313296172","","","","","","","","","","","","","","76","L","3","","","228","main_expt","",""
"","bandit","311","618764","0.0-270.0-0.0","03643241","wem/bandit_party_2","A20MYUKGSXUKM7","either","2","273","","","","","","","0","0","1","0.5771612872","","0.4","0.2","0.6","0.8","","","","","0.536938762","0.2147377822","0.3635076811","0.5771612872","","","","","","","","","","76","L","3","","","229","main_expt","",""
"","bandit","312","620488","0.0-271.0-0.0","03643241","wem/bandit_party_2","A20MYUKGSXUKM7","either","2","209","","","","","","","0","0","1","0.4109812081","","0.4","0.2","0.6","0.8","","","","","0.4691369301","0.2128984172","0.4109812081","0.6474737632","","","","","","","","","","75","K","2","","","230","main_expt","",""
"","bandit","313","622303","0.0-272.0-0.0","03643241","wem/bandit_party_2","A20MYUKGSXUKM7","either","2","302","","","","","","","1","0","0","0.77083729","","0.4","0.2","0.6","0.8","","","","","0.3801843724","0.2566260117","0.3769467169","0.77083729","","","","","","","","","","76","L","3","","","231","main_expt","",""
"","bandit","314","623888","0.0-273.0-0.0","03643241","wem/bandit_party_2","A20MYUKGSXUKM7","either","2","72","","","","","","","0","0","1","","0.7372448464","0.4","0.2","0.6","0.8","0.4401380948","0.307190163","0.4489681289","0.7372448464","","","","","","","","","","","","","","76","L","3","","","232","main_expt","",""
"","bandit","315","625676","0.0-274.0-0.0","03643241","wem/bandit_party_2","A20MYUKGSXUKM7","either","2","274","","","","","","","1","0","0","0.8061851957","","0.4","0.2","0.6","0.8","","","","","0.4589823784","0.3235632008","0.5191563331","0.8061851957","","","","","","","","","","76","L","3","","","233","main_expt","",""
"","bandit","316","627493","0.0-275.0-0.0","03643241","wem/bandit_party_2","A20MYUKGSXUKM7","either","2","302","","","","","","","1","0","0","0.7628128465","","0.4","0.2","0.6","0.8","","","","","0.412850409","0.2229472669","0.5635532962","0.7628128465","","","","","","","","","","76","L","3","","","234","main_expt","",""
"","bandit","317","629168","0.0-276.0-0.0","03643241","wem/bandit_party_2","A20MYUKGSXUKM7","either","2","161","","","","","","","0","1","0","","0.7139354314","0.4","0.2","0.6","0.8","0.3071086281","0.3245092944","0.6059211115","0.7139354314","","","","","","","","","","","","","","76","L","3","","","235","main_expt","",""
"","bandit","318","630895","0.0-277.0-0.0","03643241","wem/bandit_party_2","A20MYUKGSXUKM7","either","2","211","","","","","","","0","0","1","0.5767319418","","0.4","0.2","0.6","0.8","","","","","0.3088172556","0.3817813951","0.5767319418","0.8459685894","","","","","","","","","","75","K","2","","","236","main_expt","",""
"","bandit","319","632422","0.0-278.0-0.0","03643241","wem/bandit_party_2","A20MYUKGSXUKM7","either","2","9","","","","","","","1","0","0","0.8258062243","","0.4","0.2","0.6","0.8","","","","","0.2725525041","0.5108794425","0.6195352853","0.8258062243","","","","","","","","","","76","L","3","","","237","main_expt","",""
