"consent","trial_type","trial_index","time_elapsed","internal_node_id","subjID","study","MID","cond","drift","rt","responses","button_pressed","key_press","like","value","connected","gems","bombs","no_reward","GemPrChosen","BombPrChosen","GainOverPainPr_0","GainOverPainPr_1","GainOverPainPr_2","GainOverPainPr_3","LosePr_0","LosePr_1","LosePr_2","LosePr_3","WinPr_0","WinPr_1","WinPr_2","WinPr_3","Q0","Q1","Q2","gender","age","ethnicity","label","expt_phase","target","respCharCode","respKey","respChoiceNum","respChoice","practice","trial_counter","trial_label","Q0_index"
"GDM/GDM_behavioral_consent_30min_online.html","consent","0","64588","0.0-0.0","03682295","wem/bandit_party_2","A1ROQLNF06YHZX","either","6","","","","","","","","","","","","","","","","","","","","","","","","","","","","","","","","","","","","","","","","",""
"","survey-text","1","74728","0.0-1.0","03682295","wem/bandit_party_2","A1ROQLNF06YHZX","either","6","9130","{""Q0"":""A1ROQLNF06YHZX""}","","","","","","","","","","","","","","","","","","","","","","","","","","","","","","","","","","","","","","",""
"","button-response","2","78505","0.0-2.0","03682295","wem/bandit_party_2","A1ROQLNF06YHZX","either","6","2772","","2","","","","","","","","","","","","","","","","","","","","","","","","","","","","","","","","","","","","","",""
"","text-replacement","3","90278","0.0-3.0","03682295","wem/bandit_party_2","A1ROQLNF06YHZX","either","6","10770","","","32","","","","","","","","","","","","","","","","","","","","","","","","","","","","","","","","","","","","",""
"","text-replacement","4","112718","0.0-4.0","03682295","wem/bandit_party_2","A1ROQLNF06YHZX","either","6","22439","","","32","","","","","","","","","","","","","","","","","","","","","","","","","","","","","","","","","","","","",""
"","text-replacement","5","144760","0.0-5.0-0.0","03682295","wem/bandit_party_2","A1ROQLNF06YHZX","either","6","32041","","","32","","","","","","","","","","","","","","","","","","","","","","","","","","","","","","","","","","","","",""
"","identification","6","157426","0.0-6.0-0.0","03682295","wem/bandit_party_2","A1ROQLNF06YHZX","either","6","12655","","","","3","2","1","","","","","","","","","","","","","","","","","","","","","","","","pre","identification_pre","the Republican Party","","","","","","","",""
"","identification","7","167722","0.0-6.0-1.0","03682295","wem/bandit_party_2","A1ROQLNF06YHZX","either","6","9284","","","","4","4","3","","","","","","","","","","","","","","","","","","","","","","","","pre","identification_pre","the Democratic Party","","","","","","","",""
"","text-replacement","8","175273","0.0-7.0","03682295","wem/bandit_party_2","A1ROQLNF06YHZX","either","6","6548","","","32","","","","","","","","","","","","","","","","","","","","","","","","","","","","","","","","","","","","",""
"","text-replacement","9","183738","0.0-8.0","03682295","wem/bandit_party_2","A1ROQLNF06YHZX","either","6","8464","","","32","","","","","","","","","","","","","","","","","","","","","","","","","","","","","","","","","","","","",""
"","text-replacement","10","199450","0.0-9.0","03682295","wem/bandit_party_2","A1ROQLNF06YHZX","either","6","15710","","","32","","","","","","","","","","","","","","","","","","","","","","","","","","","","","","","","","","","","",""
"","text-replacement","11","202762","0.0-10.0","03682295","wem/bandit_party_2","A1ROQLNF06YHZX","either","6","3310","","","32","","","","","","","","","","","","","","","","","","","","","","","","","","","","","","","","","","","","",""
"","text-replacement","12","207029","0.0-11.0","03682295","wem/bandit_party_2","A1ROQLNF06YHZX","either","6","4267","","","32","","","","","","","","","","","","","","","","","","","","","","","","","","","","","","","","","","","","",""
"","bandit","13","210518","0.0-12.0-0.0","03682295","wem/bandit_party_2","A1ROQLNF06YHZX","either","6","1981","","","","","","","0","0","1","0","0","","","","","0","","","","0","","","","","","","","","","","","","74","J","0","img/none_selected_demo.jpg","true","0","",""
"","bandit","14","213711","0.0-13.0-0.0","03682295","wem/bandit_party_2","A1ROQLNF06YHZX","either","6","1686","","","","","","","0","0","1","0","0","","","","","0","","","","0","","","","","","","","","","","","","75","K","0","img/none_selected_demo.jpg","true","0","",""
"","text-replacement","15","219171","0.0-14.0","03682295","wem/bandit_party_2","A1ROQLNF06YHZX","either","6","5458","","","32","","","","","","","","","","","","","","","","","","","","","","","","","","","","","","","","","","","","",""
"","text-replacement","16","227525","0.0-15.0","03682295","wem/bandit_party_2","A1ROQLNF06YHZX","either","6","8353","","","32","","","","","","","","","","","","","","","","","","","","","","","","","","","","","","","","","","","","",""
"","text-replacement","17","236502","0.0-16.0","03682295","wem/bandit_party_2","A1ROQLNF06YHZX","either","6","8976","","","32","","","","","","","","","","","","","","","","","","","","","","","","","","","","","","","","","","","","",""
"","text-replacement","18","241000","0.0-17.0","03682295","wem/bandit_party_2","A1ROQLNF06YHZX","either","6","4496","","","32","","","","","","","","","","","","","","","","","","","","","","","","","","","","","","","","","","","","",""
"","bandit","19","243167","0.0-18.0-0.0","03682295","wem/bandit_party_2","A1ROQLNF06YHZX","either","6","661","","","","","","","0","0","1","","0.8","0.5","0.5","","","0.8","0.2","","","","","","","","","","","","","","","","74","J","0","img/none_selected_demo.jpg","true","0","80_20_practice",""
"","bandit","20","245262","0.0-18.0-1.0","03682295","wem/bandit_party_2","A1ROQLNF06YHZX","either","6","590","","","","","","","1","0","0","0.8","","0.5","0.5","","","","","","","0.8","0.2","","","","","","","","","","","","74","J","0","img/none_selected_demo.jpg","true","0","80_20_practice",""
"","bandit","21","247406","0.0-18.0-2.0","03682295","wem/bandit_party_2","A1ROQLNF06YHZX","either","6","639","","","","","","","1","0","0","0.8","","0.5","0.5","","","","","","","0.8","0.2","","","","","","","","","","","","74","J","0","img/none_selected_demo.jpg","true","0","80_20_practice",""
"","bandit","22","249687","0.0-18.0-3.0","03682295","wem/bandit_party_2","A1ROQLNF06YHZX","either","6","774","","","","","","","0","1","0","","0.8","0.5","0.5","","","0.8","0.2","","","","","","","","","","","","","","","","74","J","0","img/none_selected_demo.jpg","true","0","80_20_practice",""
"","bandit","23","251742","0.0-18.0-4.0","03682295","wem/bandit_party_2","A1ROQLNF06YHZX","either","6","550","","","","","","","0","0","1","0.2","","0.5","0.5","","","","","","","0.8","0.2","","","","","","","","","","","","75","K","1","","true","0","80_20_practice",""
"","bandit","24","253881","0.0-18.0-5.0","03682295","wem/bandit_party_2","A1ROQLNF06YHZX","either","6","631","","","","","","","0","0","1","","0.8","0.5","0.5","","","0.8","0.2","","","","","","","","","","","","","","","","74","J","0","img/none_selected_demo.jpg","true","0","80_20_practice",""
"","bandit","25","255838","0.0-18.0-6.0","03682295","wem/bandit_party_2","A1ROQLNF06YHZX","either","6","452","","","","","","","0","1","0","","0.8","0.5","0.5","","","0.8","0.2","","","","","","","","","","","","","","","","74","J","0","img/none_selected_demo.jpg","true","0","80_20_practice",""
"","bandit","26","257910","0.0-18.0-7.0","03682295","wem/bandit_party_2","A1ROQLNF06YHZX","either","6","568","","","","","","","0","1","0","","0.8","0.5","0.5","","","0.8","0.2","","","","","","","","","","","","","","","","74","J","0","img/none_selected_demo.jpg","true","0","80_20_practice",""
"","bandit","27","259903","0.0-18.0-8.0","03682295","wem/bandit_party_2","A1ROQLNF06YHZX","either","6","487","","","","","","","0","0","1","0.2","","0.5","0.5","","","","","","","0.8","0.2","","","","","","","","","","","","75","K","1","","true","0","80_20_practice",""
"","bandit","28","261855","0.0-18.0-9.0","03682295","wem/bandit_party_2","A1ROQLNF06YHZX","either","6","446","","","","","","","1","0","0","0.8","","0.5","0.5","","","","","","","0.8","0.2","","","","","","","","","","","","74","J","0","img/none_selected_demo.jpg","true","0","80_20_practice",""
"","bandit","29","263960","0.0-18.0-10.0","03682295","wem/bandit_party_2","A1ROQLNF06YHZX","either","6","599","","","","","","","1","0","0","0.8","","0.5","0.5","","","","","","","0.8","0.2","","","","","","","","","","","","74","J","0","img/none_selected_demo.jpg","true","0","80_20_practice",""
"","bandit","30","265991","0.0-18.0-11.0","03682295","wem/bandit_party_2","A1ROQLNF06YHZX","either","6","525","","","","","","","1","0","0","0.8","","0.5","0.5","","","","","","","0.8","0.2","","","","","","","","","","","","74","J","0","img/none_selected_demo.jpg","true","0","80_20_practice",""
"","bandit","31","268111","0.0-18.0-12.0","03682295","wem/bandit_party_2","A1ROQLNF06YHZX","either","6","613","","","","","","","1","0","0","0.8","","0.5","0.5","","","","","","","0.8","0.2","","","","","","","","","","","","74","J","0","img/none_selected_demo.jpg","true","0","80_20_practice",""
"","bandit","32","269999","0.0-18.0-13.0","03682295","wem/bandit_party_2","A1ROQLNF06YHZX","either","6","382","","","","","","","0","0","1","","0.8","0.5","0.5","","","0.8","0.2","","","","","","","","","","","","","","","","74","J","0","img/none_selected_demo.jpg","true","0","80_20_practice",""
"","bandit","33","271927","0.0-18.0-14.0","03682295","wem/bandit_party_2","A1ROQLNF06YHZX","either","6","422","","","","","","","0","0","1","","0.8","0.5","0.5","","","0.8","0.2","","","","","","","","","","","","","","","","74","J","0","img/none_selected_demo.jpg","true","0","80_20_practice",""
"","bandit","34","273799","0.0-18.0-15.0","03682295","wem/bandit_party_2","A1ROQLNF06YHZX","either","6","367","","","","","","","0","1","0","","0.8","0.5","0.5","","","0.8","0.2","","","","","","","","","","","","","","","","74","J","0","img/none_selected_demo.jpg","true","0","80_20_practice",""
"","bandit","35","275608","0.0-18.0-16.0","03682295","wem/bandit_party_2","A1ROQLNF06YHZX","either","6","303","","","","","","","0","0","1","","0.2","0.5","0.5","","","0.8","0.2","","","","","","","","","","","","","","","","75","K","1","","true","0","80_20_practice",""
"","bandit","36","277472","0.0-18.0-17.0","03682295","wem/bandit_party_2","A1ROQLNF06YHZX","either","6","356","","","","","","","0","0","1","","0.2","0.5","0.5","","","0.8","0.2","","","","","","","","","","","","","","","","75","K","1","","true","0","80_20_practice",""
"","bandit","37","279358","0.0-18.0-18.0","03682295","wem/bandit_party_2","A1ROQLNF06YHZX","either","6","380","","","","","","","1","0","0","0.8","","0.5","0.5","","","","","","","0.8","0.2","","","","","","","","","","","","74","J","0","img/none_selected_demo.jpg","true","0","80_20_practice",""
"","bandit","38","281200","0.0-18.0-19.0","03682295","wem/bandit_party_2","A1ROQLNF06YHZX","either","6","335","","","","","","","0","1","0","","0.8","0.5","0.5","","","0.8","0.2","","","","","","","","","","","","","","","","74","J","0","img/none_selected_demo.jpg","true","0","80_20_practice",""
"","text-replacement","39","283064","0.0-19.0","03682295","wem/bandit_party_2","A1ROQLNF06YHZX","either","6","1862","","","32","","","","","","","","","","","","","","","","","","","","","","","","","","","","","","","","","","","","",""
"","bandit","40","285079","0.0-20.0-0.0","03682295","wem/bandit_party_2","A1ROQLNF06YHZX","either","6","510","","","","","","","1","0","0","1","0","","","","","0","1","","","1","0","","","","","","","","","","","","74","J","0","img/none_selected_demo.jpg","true","0","",""
"","text-replacement","41","288858","0.0-21.0","03682295","wem/bandit_party_2","A1ROQLNF06YHZX","either","6","3776","","","32","","","","","","","","","","","","","","","","","","","","","","","","","","","","","","","","","","","","",""
"","text-replacement","42","291232","0.0-22.0","03682295","wem/bandit_party_2","A1ROQLNF06YHZX","either","6","2371","","","32","","","","","","","","","","","","","","","","","","","","","","","","","","","","","","","","","","","","",""
"","text-replacement","43","293512","0.0-23.0","03682295","wem/bandit_party_2","A1ROQLNF06YHZX","either","6","2278","","","32","","","","","","","","","","","","","","","","","","","","","","","","","","","","","","","","","","","","",""
"","text-replacement","44","296240","0.0-24.0","03682295","wem/bandit_party_2","A1ROQLNF06YHZX","either","6","2727","","","32","","","","","","","","","","","","","","","","","","","","","","","","","","","","","","","","","","","","",""
"","text-replacement","45","305919","0.0-25.0","03682295","wem/bandit_party_2","A1ROQLNF06YHZX","either","6","9677","","","32","","","","","","","","","","","","","","","","","","","","","","","","","","","","","","","","","","","","",""
"","text-replacement","46","309343","0.0-26.0","03682295","wem/bandit_party_2","A1ROQLNF06YHZX","either","6","3422","","","32","","","","","","","","","","","","","","","","","","","","","","","","","","","","","","","","","","","","",""
"","text-replacement","47","315419","0.0-27.0","03682295","wem/bandit_party_2","A1ROQLNF06YHZX","either","6","6074","","","32","","","","","","","","","","","","","","","","","","","","","","","","","","","","","","","","","","","","",""
"","text-replacement","48","318499","0.0-28.0","03682295","wem/bandit_party_2","A1ROQLNF06YHZX","either","6","3079","","","32","","","","","","","","","","","","","","","","","","","","","","","","","","","","","","","","","","","","",""
"","text-replacement","49","323930","0.0-29.0","03682295","wem/bandit_party_2","A1ROQLNF06YHZX","either","6","5429","","","32","","","","","","","","","","","","","","","","","","","","","","","","","","","","","","","","","","","","",""
"","text-replacement","50","325274","0.0-30.0","03682295","wem/bandit_party_2","A1ROQLNF06YHZX","either","6","1343","","","32","","","","","","","","","","","","","","","","","","","","","","","","","","","","","","","","","","","","",""
"","text-replacement","51","326827","0.0-31.0","03682295","wem/bandit_party_2","A1ROQLNF06YHZX","either","6","1551","","","32","","","","","","","","","","","","","","","","","","","","","","","","","","","","","","","","","","","","",""
"","bandit","52","329010","0.0-32.0-0.0","03682295","wem/bandit_party_2","A1ROQLNF06YHZX","either","6","677","","","","","","","0","0","1","0.8","","0.5","0.5","0.5","0.5","","","","","0.8","0.2","0.6","0.2","","","","","","","","","","72","H","0","img/none_selected.jpg","true","0","full_practice",""
"","bandit","53","330971","0.0-32.0-1.0","03682295","wem/bandit_party_2","A1ROQLNF06YHZX","either","6","453","","","","","","","1","0","0","0.8","","0.5","0.5","0.5","0.5","","","","","0.8","0.2","0.6","0.2","","","","","","","","","","72","H","0","img/none_selected.jpg","true","0","full_practice",""
"","bandit","54","332810","0.0-32.0-2.0","03682295","wem/bandit_party_2","A1ROQLNF06YHZX","either","6","334","","","","","","","0","1","0","","0.8","0.5","0.5","0.5","0.5","0.8","0.2","0.6","0.2","","","","","","","","","","","","","","72","H","0","img/none_selected.jpg","true","0","full_practice",""
"","bandit","55","334658","0.0-32.0-3.0","03682295","wem/bandit_party_2","A1ROQLNF06YHZX","either","6","342","","","","","","","1","0","0","0.8","","0.5","0.5","0.5","0.5","","","","","0.8","0.2","0.6","0.2","","","","","","","","","","72","H","0","img/none_selected.jpg","true","0","full_practice",""
"","bandit","56","336562","0.0-32.0-4.0","03682295","wem/bandit_party_2","A1ROQLNF06YHZX","either","6","399","","","","","","","0","0","1","0.2","","0.5","0.5","0.5","0.5","","","","","0.8","0.2","0.6","0.2","","","","","","","","","","74","J","1","","true","0","full_practice",""
"","bandit","57","338450","0.0-32.0-5.0","03682295","wem/bandit_party_2","A1ROQLNF06YHZX","either","6","383","","","","","","","0","0","1","","0.6","0.5","0.5","0.5","0.5","0.8","0.2","0.6","0.2","","","","","","","","","","","","","","75","K","2","","true","0","full_practice",""
"","bandit","58","340306","0.0-32.0-6.0","03682295","wem/bandit_party_2","A1ROQLNF06YHZX","either","6","349","","","","","","","0","0","1","0.2","","0.5","0.5","0.5","0.5","","","","","0.8","0.2","0.6","0.2","","","","","","","","","","76","L","3","","true","0","full_practice",""
"","bandit","59","342075","0.0-32.0-7.0","03682295","wem/bandit_party_2","A1ROQLNF06YHZX","either","6","263","","","","","","","0","0","1","0.8","","0.5","0.5","0.5","0.5","","","","","0.8","0.2","0.6","0.2","","","","","","","","","","72","H","0","img/none_selected.jpg","true","0","full_practice",""
"","bandit","60","343906","0.0-32.0-8.0","03682295","wem/bandit_party_2","A1ROQLNF06YHZX","either","6","325","","","","","","","1","0","0","0.8","","0.5","0.5","0.5","0.5","","","","","0.8","0.2","0.6","0.2","","","","","","","","","","72","H","0","img/none_selected.jpg","true","0","full_practice",""
"","bandit","61","345769","0.0-32.0-9.0","03682295","wem/bandit_party_2","A1ROQLNF06YHZX","either","6","357","","","","","","","1","0","0","0.6","","0.5","0.5","0.5","0.5","","","","","0.8","0.2","0.6","0.2","","","","","","","","","","75","K","2","","true","0","full_practice",""
"","bandit","62","347611","0.0-32.0-10.0","03682295","wem/bandit_party_2","A1ROQLNF06YHZX","either","6","334","","","","","","","0","1","0","","0.6","0.5","0.5","0.5","0.5","0.8","0.2","0.6","0.2","","","","","","","","","","","","","","75","K","2","","true","0","full_practice",""
"","bandit","63","349450","0.0-32.0-11.0","03682295","wem/bandit_party_2","A1ROQLNF06YHZX","either","6","334","","","","","","","0","0","1","0.6","","0.5","0.5","0.5","0.5","","","","","0.8","0.2","0.6","0.2","","","","","","","","","","75","K","2","","true","0","full_practice",""
"","bandit","64","351298","0.0-32.0-12.0","03682295","wem/bandit_party_2","A1ROQLNF06YHZX","either","6","342","","","","","","","0","0","1","0.2","","0.5","0.5","0.5","0.5","","","","","0.8","0.2","0.6","0.2","","","","","","","","","","74","J","1","","true","0","full_practice",""
"","bandit","65","353131","0.0-32.0-13.0","03682295","wem/bandit_party_2","A1ROQLNF06YHZX","either","6","327","","","","","","","0","0","1","","0.2","0.5","0.5","0.5","0.5","0.8","0.2","0.6","0.2","","","","","","","","","","","","","","76","L","3","","true","0","full_practice",""
"","bandit","66","354955","0.0-32.0-14.0","03682295","wem/bandit_party_2","A1ROQLNF06YHZX","either","6","316","","","","","","","0","0","1","","0.2","0.5","0.5","0.5","0.5","0.8","0.2","0.6","0.2","","","","","","","","","","","","","","76","L","3","","true","0","full_practice",""
"","bandit","67","356770","0.0-32.0-15.0","03682295","wem/bandit_party_2","A1ROQLNF06YHZX","either","6","309","","","","","","","1","0","0","0.6","","0.5","0.5","0.5","0.5","","","","","0.8","0.2","0.6","0.2","","","","","","","","","","75","K","2","","true","0","full_practice",""
"","bandit","68","358587","0.0-32.0-16.0","03682295","wem/bandit_party_2","A1ROQLNF06YHZX","either","6","310","","","","","","","1","0","0","0.6","","0.5","0.5","0.5","0.5","","","","","0.8","0.2","0.6","0.2","","","","","","","","","","75","K","2","","true","0","full_practice",""
"","bandit","69","360410","0.0-32.0-17.0","03682295","wem/bandit_party_2","A1ROQLNF06YHZX","either","6","317","","","","","","","1","0","0","0.8","","0.5","0.5","0.5","0.5","","","","","0.8","0.2","0.6","0.2","","","","","","","","","","72","H","0","img/none_selected.jpg","true","0","full_practice",""
"","bandit","70","362161","0.0-32.0-18.0","03682295","wem/bandit_party_2","A1ROQLNF06YHZX","either","6","245","","","","","","","1","0","0","0.8","","0.5","0.5","0.5","0.5","","","","","0.8","0.2","0.6","0.2","","","","","","","","","","72","H","0","img/none_selected.jpg","true","0","full_practice",""
"","bandit","71","363956","0.0-32.0-19.0","03682295","wem/bandit_party_2","A1ROQLNF06YHZX","either","6","286","","","","","","","0","1","0","","0.8","0.5","0.5","0.5","0.5","0.8","0.2","0.6","0.2","","","","","","","","","","","","","","72","H","0","img/none_selected.jpg","true","0","full_practice",""
"","text","72","367958","0.0-33.0","03682295","wem/bandit_party_2","A1ROQLNF06YHZX","either","6","3997","","","32","","","","","","","","","","","","","","","","","","","","","","","","","","","","","","","","","","","","",""
"","text-replacement","73","376654","0.0-34.0","03682295","wem/bandit_party_2","A1ROQLNF06YHZX","either","6","7693","","","32","","","","","","","","","","","","","","","","","","","","","","","","","","","","","","","","","","","","",""
"","text-replacement","74","386113","0.0-35.0","03682295","wem/bandit_party_2","A1ROQLNF06YHZX","either","6","9457","","","32","","","","","","","","","","","","","","","","","","","","","","","","","","","","","","","","","","","","",""
"","text-replacement","75","390731","0.0-36.0","03682295","wem/bandit_party_2","A1ROQLNF06YHZX","either","6","4616","","","32","","","","","","","","","","","","","","","","","","","","","","","","","","","","","","","","","","","","",""
"","text-replacement","76","395829","0.0-37.0","03682295","wem/bandit_party_2","A1ROQLNF06YHZX","either","6","5097","","","32","","","","","","","","","","","","","","","","","","","","","","","","","","","","","","","","","","","","",""
"","text-replacement","77","399365","0.0-38.0","03682295","wem/bandit_party_2","A1ROQLNF06YHZX","either","6","3533","","","32","","","","","","","","","","","","","","","","","","","","","","","","","","","","","","","","","","","","",""
"","survey-multi-choice-replacement","78","405893","0.0-39.0-0.0","03682295","wem/bandit_party_2","A1ROQLNF06YHZX","either","6","6521","","","","","","","","","","","","","","","","","","","","","","","","Money will be added to the pool for <span style='color:red;'>REPUBLICANS</span>","","","","","","","attn_check","","","","","","","","","0"
"","survey-multi-choice-replacement","79","420632","0.0-40.0-0.0","03682295","wem/bandit_party_2","A1ROQLNF06YHZX","either","6","13730","","","","","","","","","","","","","","","","","","","","","","","","Equal amounts of money will be added to the pool for <span style='color:red;'>REPUBLICANS</span> and subtracted from the pool for <span style='color:blue;'>DEMOCRATS</span>","","","","","","","attn_check","","","","","","","","","2"
"","survey-multi-choice-replacement","80","424821","0.0-41.0-0.0","03682295","wem/bandit_party_2","A1ROQLNF06YHZX","either","6","3181","","","","","","","","","","","","","","","","","","","","","","","","No money will be added to either pool","","","","","","","attn_check","","","","","","","","","3"
"","bandit","81","429989","0.0-42.0-0.0","03682295","wem/bandit_party_2","A1ROQLNF06YHZX","either","6","2657","","","","","","","0","0","1","0.3049938501","","0.6","0.4","0.2","0.8","","","","","0.3049938501","0.2309914537","0.1947351938","0.7197236342","","","","","","","","","","72","H","0","img/none_selected.jpg","","1","main_expt",""
"","bandit","82","432035","0.0-43.0-0.0","03682295","wem/bandit_party_2","A1ROQLNF06YHZX","either","6","542","","","","","","","0","0","1","0.3105507028","","0.6","0.4","0.2","0.8","","","","","0.3105507028","0.2351366282","0.1865171684","0.7453792406","","","","","","","","","","72","H","0","img/none_selected.jpg","","2","main_expt",""
"","bandit","83","433884","0.0-44.0-0.0","03682295","wem/bandit_party_2","A1ROQLNF06YHZX","either","6","342","","","","","","","1","0","0","0.3338792953","","0.6","0.4","0.2","0.8","","","","","0.347932066","0.3338792953","0.1578482069","0.7422746785","","","","","","","","","","74","J","1","","","3","main_expt",""
"","bandit","84","436005","0.0-45.0-0.0","03682295","wem/bandit_party_2","A1ROQLNF06YHZX","either","6","614","","","","","","","0","0","1","","0.1733557992","0.6","0.4","0.2","0.8","0.294099503","0.2578124611","0.1733557992","0.8152876082","","","","","","","","","","","","","","75","K","2","","","4","main_expt",""
"","bandit","85","437831","0.0-46.0-0.0","03682295","wem/bandit_party_2","A1ROQLNF06YHZX","either","6","317","","","","","","","1","0","0","0.8494846052","","0.6","0.4","0.2","0.8","","","","","0.256228135","0.152782507","0.1275681293","0.8494846052","","","","","","","","","","76","L","3","","","5","main_expt",""
"","bandit","86","439661","0.0-47.0-0.0","03682295","wem/bandit_party_2","A1ROQLNF06YHZX","either","6","324","","","","","","","0","0","1","0.8036792828","","0.6","0.4","0.2","0.8","","","","","0.3142053347","0.200224935","0.1776351543","0.8036792828","","","","","","","","","","76","L","3","","","6","main_expt",""
"","bandit","87","441566","0.0-48.0-0.0","03682295","wem/bandit_party_2","A1ROQLNF06YHZX","either","6","397","","","","","","","0","0","1","","0.2200442108","0.6","0.4","0.2","0.8","0.2382568898","0.2200442108","0.1412615145","0.8659664865","","","","","","","","","","","","","","74","J","1","","","7","main_expt",""
"","bandit","88","443397","0.0-49.0-0.0","03682295","wem/bandit_party_2","A1ROQLNF06YHZX","either","6","324","","","","","","","0","1","0","","0.8475436228","0.6","0.4","0.2","0.8","0.220471749","0.1516915951","0.1508054742","0.8475436228","","","","","","","","","","","","","","76","L","3","","","8","main_expt",""
"","bandit","89","445286","0.0-50.0-0.0","03682295","wem/bandit_party_2","A1ROQLNF06YHZX","either","6","380","","","","","","","0","0","1","0.8034999265","","0.6","0.4","0.2","0.8","","","","","0.2842820234","0.1468829212","0.1882404854","0.8034999265","","","","","","","","","","76","L","3","","","9","main_expt",""
"","bandit","90","447125","0.0-51.0-0.0","03682295","wem/bandit_party_2","A1ROQLNF06YHZX","either","6","331","","","","","","","0","0","1","0.1731305678","","0.6","0.4","0.2","0.8","","","","","0.3392415315","0.1507643719","0.1731305678","0.7148412232","","","","","","","","","","75","K","2","","","10","main_expt",""
"","bandit","91","448958","0.0-52.0-0.0","03682295","wem/bandit_party_2","A1ROQLNF06YHZX","either","6","326","","","","","","","0","0","1","0.4470346709","","0.6","0.4","0.2","0.8","","","","","0.4470346709","0.18301","0.2475279461","0.7213030285","","","","","","","","","","72","H","0","img/none_selected.jpg","","11","main_expt",""
"","bandit","92","450876","0.0-53.0-0.0","03682295","wem/bandit_party_2","A1ROQLNF06YHZX","either","6","413","","","","","","","0","0","1","","0.209562337","0.6","0.4","0.2","0.8","0.5143820195","0.209562337","0.2068792089","0.7396148754","","","","","","","","","","","","","","74","J","1","","","12","main_expt",""
"","bandit","93","452669","0.0-54.0-0.0","03682295","wem/bandit_party_2","A1ROQLNF06YHZX","either","6","287","","","","","","","0","0","1","0.6870781676","","0.6","0.4","0.2","0.8","","","","","0.4934308908","0.2133897639","0.1594062408","0.6870781676","","","","","","","","","","76","L","3","","","13","main_expt",""
"","bandit","94","454477","0.0-55.0-0.0","03682295","wem/bandit_party_2","A1ROQLNF06YHZX","either","6","301","","","","","","","1","0","0","0.6561171826","","0.6","0.4","0.2","0.8","","","","","0.5884397519","0.1865122749","0.1808320347","0.6561171826","","","","","","","","","","76","L","3","","","14","main_expt",""
"","bandit","95","456270","0.0-56.0-0.0","03682295","wem/bandit_party_2","A1ROQLNF06YHZX","either","6","286","","","","","","","0","0","1","0.6255101569","","0.6","0.4","0.2","0.8","","","","","0.425765204","0.3169691733","0.2401125286","0.6255101569","","","","","","","","","","76","L","3","","","15","main_expt",""
"","bandit","96","458078","0.0-57.0-0.0","03682295","wem/bandit_party_2","A1ROQLNF06YHZX","either","6","301","","","","","","","0","0","1","","0.1823220599","0.6","0.4","0.2","0.8","0.4458974369","0.3927767979","0.1823220599","0.6101220295","","","","","","","","","","","","","","75","K","2","","","16","main_expt",""
"","bandit","97","459903","0.0-58.0-0.0","03682295","wem/bandit_party_2","A1ROQLNF06YHZX","either","6","318","","","","","","","1","0","0","0.6233337625","","0.6","0.4","0.2","0.8","","","","","0.4907358526","0.2882183284","0.2076179308","0.6233337625","","","","","","","","","","76","L","3","","","17","main_expt",""
"","bandit","98","461758","0.0-59.0-0.0","03682295","wem/bandit_party_2","A1ROQLNF06YHZX","either","6","346","","","","","","","0","1","0","","0.598865074","0.6","0.4","0.2","0.8","0.4895096529","0.3212622409","0.2310064443","0.598865074","","","","","","","","","","","","","","76","L","3","","","18","main_expt",""
"","bandit","99","463630","0.0-60.0-0.0","03682295","wem/bandit_party_2","A1ROQLNF06YHZX","either","6","363","","","","","","","0","0","1","0.6318918302","","0.6","0.4","0.2","0.8","","","","","0.5437378015","0.3678238944","0.1919199612","0.6318918302","","","","","","","","","","76","L","3","","","19","main_expt",""
"","bandit","100","465478","0.0-61.0-0.0","03682295","wem/bandit_party_2","A1ROQLNF06YHZX","either","6","340","","","","","","","1","0","0","0.543071052","","0.6","0.4","0.2","0.8","","","","","0.543071052","0.4357360734","0.2150176637","0.5667690756","","","","","","","","","","72","H","0","img/none_selected.jpg","","20","main_expt",""
"","bandit","101","467302","0.0-62.0-0.0","03682295","wem/bandit_party_2","A1ROQLNF06YHZX","either","6","317","","","","","","","1","0","0","0.5457928974","","0.6","0.4","0.2","0.8","","","","","0.5457928974","0.4486518506","0.2980309021","0.6364396753","","","","","","","","","","72","H","0","img/none_selected.jpg","","21","main_expt",""
"","bandit","102","469173","0.0-63.0-0.0","03682295","wem/bandit_party_2","A1ROQLNF06YHZX","either","6","363","","","","","","","0","1","0","","0.4531799458","0.6","0.4","0.2","0.8","0.4531799458","0.5145372488","0.3238742104","0.5563436533","","","","","","","","","","","","","","72","H","0","img/none_selected.jpg","","22","main_expt",""
"","bandit","103","471015","0.0-64.0-0.0","03682295","wem/bandit_party_2","A1ROQLNF06YHZX","either","6","335","","","","","","","0","0","1","","0.4321579995","0.6","0.4","0.2","0.8","0.4321579995","0.6324996067","0.4158928209","0.4555064456","","","","","","","","","","","","","","72","H","0","img/none_selected.jpg","","23","main_expt",""
"","bandit","104","472870","0.0-65.0-0.0","03682295","wem/bandit_party_2","A1ROQLNF06YHZX","either","6","347","","","","","","","0","0","1","","0.3892872195","0.6","0.4","0.2","0.8","0.3892872195","0.6665025749","0.2798670784","0.4398961724","","","","","","","","","","","","","","72","H","0","img/none_selected.jpg","","24","main_expt",""
"","bandit","105","474693","0.0-66.0-0.0","03682295","wem/bandit_party_2","A1ROQLNF06YHZX","either","6","316","","","","","","","0","0","1","0.4322880781","","0.6","0.4","0.2","0.8","","","","","0.4322880781","0.5316582614","0.3932164435","0.3810464824","","","","","","","","","","72","H","0","img/none_selected.jpg","","25","main_expt",""
"","bandit","106","476510","0.0-67.0-0.0","03682295","wem/bandit_party_2","A1ROQLNF06YHZX","either","6","309","","","","","","","0","1","0","","0.4282094451","0.6","0.4","0.2","0.8","0.4560392573","0.4282094451","0.3243459504","0.451695138","","","","","","","","","","","","","","74","J","1","","","26","main_expt",""
"","bandit","107","478308","0.0-68.0-0.0","03682295","wem/bandit_party_2","A1ROQLNF06YHZX","either","6","293","","","","","","","0","0","1","0.4711380508","","0.6","0.4","0.2","0.8","","","","","0.5372901799","0.4711380508","0.4266302179","0.4423729324","","","","","","","","","","74","J","1","","","27","main_expt",""
"","bandit","108","480149","0.0-69.0-0.0","03682295","wem/bandit_party_2","A1ROQLNF06YHZX","either","6","334","","","","","","","0","0","1","0.4221124674","","0.6","0.4","0.2","0.8","","","","","0.6619872032","0.4539290932","0.4206607535","0.4221124674","","","","","","","","","","76","L","3","","","28","main_expt",""
"","bandit","109","481895","0.0-70.0-0.0","03682295","wem/bandit_party_2","A1ROQLNF06YHZX","either","6","238","","","","","","","0","1","0","","0.440099583","0.6","0.4","0.2","0.8","0.5939885142","0.4378511583","0.440099583","0.489207998","","","","","","","","","","","","","","75","K","2","","","29","main_expt",""
"","bandit","110","483709","0.0-71.0-0.0","03682295","wem/bandit_party_2","A1ROQLNF06YHZX","either","6","309","","","","","","","0","1","0","","0.3982168329","0.6","0.4","0.2","0.8","0.5602145404","0.3425428874","0.3982168329","0.4406356357","","","","","","","","","","","","","","75","K","2","","","30","main_expt",""
"","bandit","111","485541","0.0-72.0-0.0","03682295","wem/bandit_party_2","A1ROQLNF06YHZX","either","6","324","","","","","","","0","0","1","","0.3573437221","0.6","0.4","0.2","0.8","0.5376870091","0.2354865125","0.3573437221","0.484130952","","","","","","","","","","","","","","75","K","2","","","31","main_expt",""
"","bandit","112","487407","0.0-73.0-0.0","03682295","wem/bandit_party_2","A1ROQLNF06YHZX","either","6","357","","","","","","","0","0","1","0.3712986889","","0.6","0.4","0.2","0.8","","","","","0.6346195819","0.2552437171","0.3712986889","0.432294219","","","","","","","","","","75","K","2","","","32","main_expt",""
"","bandit","113","489310","0.0-74.0-0.0","03682295","wem/bandit_party_2","A1ROQLNF06YHZX","either","6","395","","","","","","","0","0","1","","0.45096985","0.6","0.4","0.2","0.8","0.7540961955","0.2470382599","0.45096985","0.4821309474","","","","","","","","","","","","","","75","K","2","","","33","main_expt",""
"","bandit","114","491553","0.0-75.0-0.0","03682295","wem/bandit_party_2","A1ROQLNF06YHZX","either","6","732","","","","","","","0","0","1","0.699797925","","0.6","0.4","0.2","0.8","","","","","0.699797925","0.2951894024","0.5559331637","0.4702474349","","","","","","","","","","72","H","0","img/none_selected.jpg","","34","main_expt",""
"","bandit","115","493392","0.0-76.0-0.0","03682295","wem/bandit_party_2","A1ROQLNF06YHZX","either","6","330","","","","","","","0","0","1","0.2596626779","","0.6","0.4","0.2","0.8","","","","","0.7410295452","0.2596626779","0.7354386419","0.5363697359","","","","","","","","","","74","J","1","","","35","main_expt",""
"","bandit","116","495199","0.0-77.0-0.0","03682295","wem/bandit_party_2","A1ROQLNF06YHZX","either","6","300","","","","","","","0","0","1","","0.602250539","0.6","0.4","0.2","0.8","0.7332281969","0.3164764808","0.6934166837","0.602250539","","","","","","","","","","","","","","76","L","3","","","36","main_expt",""
"","bandit","117","497030","0.0-78.0-0.0","03682295","wem/bandit_party_2","A1ROQLNF06YHZX","either","6","324","","","","","","","1","0","0","0.5337433964","","0.6","0.4","0.2","0.8","","","","","0.736713329","0.3672962009","0.6311869688","0.5337433964","","","","","","","","","","76","L","3","","","37","main_expt",""
"","bandit","118","498871","0.0-79.0-0.0","03682295","wem/bandit_party_2","A1ROQLNF06YHZX","either","6","334","","","","","","","1","0","0","0.5970413872","","0.6","0.4","0.2","0.8","","","","","0.6860808007","0.4056598401","0.6583504975","0.5970413872","","","","","","","","","","76","L","3","","","38","main_expt",""
"","bandit","119","500718","0.0-80.0-0.0","03682295","wem/bandit_party_2","A1ROQLNF06YHZX","either","6","340","","","","","","","0","0","1","","0.6529448079","0.6","0.4","0.2","0.8","0.7498761973","0.4236995386","0.5861321806","0.6529448079","","","","","","","","","","","","","","76","L","3","","","39","main_expt",""
"","bandit","120","502494","0.0-81.0-0.0","03682295","wem/bandit_party_2","A1ROQLNF06YHZX","either","6","269","","","","","","","1","0","0","0.6612991154","","0.6","0.4","0.2","0.8","","","","","0.7043283504","0.4365163158","0.4892836735","0.6612991154","","","","","","","","","","76","L","3","","","40","main_expt",""
"","bandit","121","504343","0.0-82.0-0.0","03682295","wem/bandit_party_2","A1ROQLNF06YHZX","either","6","342","","","","","","","1","0","0","0.7390431107","","0.6","0.4","0.2","0.8","","","","","0.6469690382","0.4854269132","0.3479900608","0.7390431107","","","","","","","","","","76","L","3","","","41","main_expt",""
"","bandit","122","506198","0.0-83.0-0.0","03682295","wem/bandit_party_2","A1ROQLNF06YHZX","either","6","347","","","","","","","0","1","0","","0.7609423287","0.6","0.4","0.2","0.8","0.6388905256","0.4753587859","0.376709287","0.7609423287","","","","","","","","","","","","","","76","L","3","","","42","main_expt",""
"","bandit","123","508087","0.0-84.0-0.0","03682295","wem/bandit_party_2","A1ROQLNF06YHZX","either","6","381","","","","","","","0","0","1","0.8039673949","","0.6","0.4","0.2","0.8","","","","","0.6383372244","0.452202747","0.4319300722","0.8039673949","","","","","","","","","","76","L","3","","","43","main_expt",""
"","bandit","124","509935","0.0-85.0-0.0","03682295","wem/bandit_party_2","A1ROQLNF06YHZX","either","6","340","","","","","","","0","0","1","0.8216753652","","0.6","0.4","0.2","0.8","","","","","0.6247854939","0.5522191005","0.4458636389","0.8216753652","","","","","","","","","","76","L","3","","","44","main_expt",""
"","bandit","125","511775","0.0-86.0-0.0","03682295","wem/bandit_party_2","A1ROQLNF06YHZX","either","6","332","","","","","","","0","1","0","","0.4323480181","0.6","0.4","0.2","0.8","0.6341880498","0.4878962787","0.4323480181","0.7636866317","","","","","","","","","","","","","","75","K","2","","","45","main_expt",""
"","bandit","126","513639","0.0-87.0-0.0","03682295","wem/bandit_party_2","A1ROQLNF06YHZX","either","6","357","","","","","","","1","0","0","0.4348202433","","0.6","0.4","0.2","0.8","","","","","0.5081310512","0.487595293","0.4348202433","0.8203755575","","","","","","","","","","75","K","2","","","46","main_expt",""
"","bandit","127","515504","0.0-88.0-0.0","03682295","wem/bandit_party_2","A1ROQLNF06YHZX","either","6","358","","","","","","","0","1","0","","0.3430847618","0.6","0.4","0.2","0.8","0.4202927251","0.444754188","0.3430847618","0.8706375764","","","","","","","","","","","","","","75","K","2","","","47","main_expt",""
"","bandit","128","517358","0.0-89.0-0.0","03682295","wem/bandit_party_2","A1ROQLNF06YHZX","either","6","346","","","","","","","0","0","1","","0.2601977795","0.6","0.4","0.2","0.8","0.4767868938","0.5044276746","0.2601977795","0.8019506245","","","","","","","","","","","","","","75","K","2","","","48","main_expt",""
"","bandit","129","519159","0.0-90.0-0.0","03682295","wem/bandit_party_2","A1ROQLNF06YHZX","either","6","293","","","","","","","0","1","0","","0.2368144698","0.6","0.4","0.2","0.8","0.3749468019","0.3766714482","0.2368144698","0.7331224435","","","","","","","","","","","","","","75","K","2","","","49","main_expt",""
"","bandit","130","520967","0.0-91.0-0.0","03682295","wem/bandit_party_2","A1ROQLNF06YHZX","either","6","301","","","","","","","0","0","1","","0.2484527115","0.6","0.4","0.2","0.8","0.3532902347","0.406992786","0.2484527115","0.7908344101","","","","","","","","","","","","","","75","K","2","","","50","main_expt",""
"","bandit","131","522807","0.0-92.0-0.0","03682295","wem/bandit_party_2","A1ROQLNF06YHZX","either","6","333","","","","","","","0","0","1","0.230268934","","0.6","0.4","0.2","0.8","","","","","0.2413466802","0.3854505747","0.230268934","0.7922828235","","","","","","","","","","75","K","2","","","51","main_expt",""
"","bandit","132","524614","0.0-93.0-0.0","03682295","wem/bandit_party_2","A1ROQLNF06YHZX","either","6","300","","","","","","","1","0","0","0.7485378942","","0.6","0.4","0.2","0.8","","","","","0.2673723166","0.3956915145","0.3429002399","0.7485378942","","","","","","","","","","76","L","3","","","52","main_expt",""
"","bandit","133","526448","0.0-94.0-0.0","03682295","wem/bandit_party_2","A1ROQLNF06YHZX","either","6","325","","","","","","","1","0","0","0.6603794952","","0.6","0.4","0.2","0.8","","","","","0.2806035608","0.3062348001","0.2871029552","0.6603794952","","","","","","","","","","76","L","3","","","53","main_expt",""
"","bandit","134","528247","0.0-95.0-0.0","03682295","wem/bandit_party_2","A1ROQLNF06YHZX","either","6","292","","","","","","","1","0","0","0.6931449795","","0.6","0.4","0.2","0.8","","","","","0.2544312064","0.2996500993","0.2594444468","0.6931449795","","","","","","","","","","76","L","3","","","54","main_expt",""
"","bandit","135","530095","0.0-96.0-0.0","03682295","wem/bandit_party_2","A1ROQLNF06YHZX","either","6","338","","","","","","","0","1","0","","0.7553272845","0.6","0.4","0.2","0.8","0.3362815808","0.2518247787","0.3333749245","0.7553272845","","","","","","","","","","","","","","76","L","3","","","55","main_expt",""
"","bandit","136","531879","0.0-97.0-0.0","03682295","wem/bandit_party_2","A1ROQLNF06YHZX","either","6","277","","","","","","","0","1","0","","0.7231548626","0.6","0.4","0.2","0.8","0.3798256012","0.3014763065","0.3049104067","0.7231548626","","","","","","","","","","","","","","76","L","3","","","56","main_expt",""
"","bandit","137","533663","0.0-98.0-0.0","03682295","wem/bandit_party_2","A1ROQLNF06YHZX","either","6","276","","","","","","","1","0","0","0.7485901337","","0.6","0.4","0.2","0.8","","","","","0.3989549393","0.2730843718","0.3623273811","0.7485901337","","","","","","","","","","76","L","3","","","57","main_expt",""
"","bandit","138","535447","0.0-99.0-0.0","03682295","wem/bandit_party_2","A1ROQLNF06YHZX","either","6","277","","","","","","","1","0","0","0.797082508","","0.6","0.4","0.2","0.8","","","","","0.3373398956","0.367239041","0.3621169042","0.797082508","","","","","","","","","","76","L","3","","","58","main_expt",""
"","bandit","139","537264","0.0-100.0-0.0","03682295","wem/bandit_party_2","A1ROQLNF06YHZX","either","6","309","","","","","","","1","0","0","0.7466963627","","0.6","0.4","0.2","0.8","","","","","0.3381045731","0.4005220403","0.3672848169","0.7466963627","","","","","","","","","","76","L","3","","","59","main_expt",""
"","bandit","140","539078","0.0-101.0-0.0","03682295","wem/bandit_party_2","A1ROQLNF06YHZX","either","6","306","","","","","","","0","0","1","0.6359615323","","0.6","0.4","0.2","0.8","","","","","0.4838111383","0.4863912708","0.5123874715","0.6359615323","","","","","","","","","","76","L","3","","","60","main_expt",""
"","bandit","141","540887","0.0-102.0-0.0","03682295","wem/bandit_party_2","A1ROQLNF06YHZX","either","6","302","","","","","","","0","0","1","0.7125939799","","0.6","0.4","0.2","0.8","","","","","0.4290776342","0.5220595343","0.5218319631","0.7125939799","","","","","","","","","","76","L","3","","","61","main_expt",""
"","bandit","142","542719","0.0-103.0-0.0","03682295","wem/bandit_party_2","A1ROQLNF06YHZX","either","6","324","","","","","","","0","0","1","","0.5978650666","0.6","0.4","0.2","0.8","0.4387439774","0.5447889898","0.6482151027","0.5978650666","","","","","","","","","","","","","","76","L","3","","","62","main_expt",""
"","bandit","143","544575","0.0-104.0-0.0","03682295","wem/bandit_party_2","A1ROQLNF06YHZX","either","6","348","","","","","","","1","0","0","0.5166338879","","0.6","0.4","0.2","0.8","","","","","0.3670418014","0.5517390004","0.6966290852","0.5166338879","","","","","","","","","","76","L","3","","","63","main_expt",""
"","bandit","144","546432","0.0-105.0-0.0","03682295","wem/bandit_party_2","A1ROQLNF06YHZX","either","6","348","","","","","","","0","1","0","","0.4901650138","0.6","0.4","0.2","0.8","0.3470393933","0.6576188384","0.6497033777","0.4901650138","","","","","","","","","","","","","","76","L","3","","","64","main_expt",""
"","bandit","145","548305","0.0-106.0-0.0","03682295","wem/bandit_party_2","A1ROQLNF06YHZX","either","6","365","","","","","","","0","0","1","0.459365688","","0.6","0.4","0.2","0.8","","","","","0.3361574661","0.5156176703","0.6925184903","0.459365688","","","","","","","","","","76","L","3","","","65","main_expt",""
"","bandit","146","550311","0.0-107.0-0.0","03682295","wem/bandit_party_2","A1ROQLNF06YHZX","either","6","498","","","","","","","0","0","1","","0.3851410914","0.6","0.4","0.2","0.8","0.34308242","0.3851410914","0.8298767513","0.4666104807","","","","","","","","","","","","","","74","J","1","","","66","main_expt",""
"","bandit","147","552078","0.0-108.0-0.0","03682295","wem/bandit_party_2","A1ROQLNF06YHZX","either","6","260","","","","","","","1","0","0","0.3730603492","","0.6","0.4","0.2","0.8","","","","","0.3730603492","0.3925250542","0.8506596021","0.5547259005","","","","","","","","","","72","H","0","img/none_selected.jpg","","67","main_expt",""
"","bandit","148","553901","0.0-109.0-0.0","03682295","wem/bandit_party_2","A1ROQLNF06YHZX","either","6","318","","","","","","","0","0","1","","0.4089949532","0.6","0.4","0.2","0.8","0.4089949532","0.3884113518","0.8536910832","0.6038719492","","","","","","","","","","","","","","72","H","0","img/none_selected.jpg","","68","main_expt",""
"","bandit","149","555711","0.0-110.0-0.0","03682295","wem/bandit_party_2","A1ROQLNF06YHZX","either","6","302","","","","","","","1","0","0","0.3749002533","","0.6","0.4","0.2","0.8","","","","","0.3749002533","0.3434478979","0.8642538991","0.6148283845","","","","","","","","","","72","H","0","img/none_selected.jpg","","69","main_expt",""
"","bandit","150","557527","0.0-111.0-0.0","03682295","wem/bandit_party_2","A1ROQLNF06YHZX","either","6","309","","","","","","","0","0","1","0.4133869845","","0.6","0.4","0.2","0.8","","","","","0.4133869845","0.4426642051","0.8073802352","0.6683283761","","","","","","","","","","72","H","0","img/none_selected.jpg","","70","main_expt",""
"","bandit","151","559385","0.0-112.0-0.0","03682295","wem/bandit_party_2","A1ROQLNF06YHZX","either","6","349","","","","","","","0","0","1","0.3302164541","","0.6","0.4","0.2","0.8","","","","","0.3302164541","0.4518046004","0.8059201048","0.738459761","","","","","","","","","","72","H","0","img/none_selected.jpg","","71","main_expt",""
"","bandit","152","561184","0.0-113.0-0.0","03682295","wem/bandit_party_2","A1ROQLNF06YHZX","either","6","291","","","","","","","1","0","0","0.6525166508","","0.6","0.4","0.2","0.8","","","","","0.2570952275","0.4903223245","0.8262275011","0.6525166508","","","","","","","","","","76","L","3","","","72","main_expt",""
"","bandit","153","563007","0.0-114.0-0.0","03682295","wem/bandit_party_2","A1ROQLNF06YHZX","either","6","316","","","","","","","0","0","1","0.5715134512","","0.6","0.4","0.2","0.8","","","","","0.2042885023","0.5296083002","0.7334390718","0.5715134512","","","","","","","","","","76","L","3","","","73","main_expt",""
"","bandit","154","564823","0.0-115.0-0.0","03682295","wem/bandit_party_2","A1ROQLNF06YHZX","either","6","308","","","","","","","0","1","0","","0.7490977197","0.6","0.4","0.2","0.8","0.2152837516","0.4883026933","0.7490977197","0.6228045854","","","","","","","","","","","","","","75","K","2","","","74","main_expt",""
"","bandit","155","566615","0.0-116.0-0.0","03682295","wem/bandit_party_2","A1ROQLNF06YHZX","either","6","284","","","","","","","1","0","0","0.7554087461","","0.6","0.4","0.2","0.8","","","","","0.2044775694","0.4914171484","0.7554087461","0.613630376","","","","","","","","","","75","K","2","","","75","main_expt",""
"","bandit","156","568560","0.0-117.0-0.0","03682295","wem/bandit_party_2","A1ROQLNF06YHZX","either","6","437","","","","","","","0","1","0","","0.804443878","0.6","0.4","0.2","0.8","0.2247613499","0.6059218973","0.804443878","0.7047266053","","","","","","","","","","","","","","75","K","2","","","76","main_expt",""
"","bandit","157","570417","0.0-118.0-0.0","03682295","wem/bandit_party_2","A1ROQLNF06YHZX","either","6","348","","","","","","","0","1","0","","0.6656620098","0.6","0.4","0.2","0.8","0.2266335256","0.553792366","0.6656620098","0.6910360943","","","","","","","","","","","","","","75","K","2","","","77","main_expt",""
"","bandit","158","572271","0.0-119.0-0.0","03682295","wem/bandit_party_2","A1ROQLNF06YHZX","either","6","346","","","","","","","0","1","0","","0.5898140708","0.6","0.4","0.2","0.8","0.1659731505","0.6884193839","0.5898140708","0.5515992215","","","","","","","","","","","","","","75","K","2","","","78","main_expt",""
"","bandit","159","574199","0.0-120.0-0.0","03682295","wem/bandit_party_2","A1ROQLNF06YHZX","either","6","420","","","","","","","0","1","0","","0.613215191","0.6","0.4","0.2","0.8","0.2343921172","0.7214277645","0.613215191","0.6448399581","","","","","","","","","","","","","","75","K","2","","","79","main_expt",""
"","bandit","160","576024","0.0-121.0-0.0","03682295","wem/bandit_party_2","A1ROQLNF06YHZX","either","6","318","","","","","","","0","1","0","","0.4605925783","0.6","0.4","0.2","0.8","0.2164054515","0.7328142644","0.4605925783","0.739479497","","","","","","","","","","","","","","75","K","2","","","80","main_expt",""
"","bandit","161","577920","0.0-122.0-0.0","03682295","wem/bandit_party_2","A1ROQLNF06YHZX","either","6","387","","","","","","","0","0","1","","0.5390789087","0.6","0.4","0.2","0.8","0.1361232007","0.7101675561","0.5390789087","0.6956071838","","","","","","","","","","","","","","75","K","2","","","81","main_expt",""
"","bandit","162","579784","0.0-123.0-0.0","03682295","wem/bandit_party_2","A1ROQLNF06YHZX","either","6","355","","","","","","","0","0","1","","0.621290364","0.6","0.4","0.2","0.8","0.2275447725","0.6984384541","0.621290364","0.5886517937","","","","","","","","","","","","","","75","K","2","","","82","main_expt",""
"","bandit","163","581633","0.0-124.0-0.0","03682295","wem/bandit_party_2","A1ROQLNF06YHZX","either","6","340","","","","","","","0","1","0","","0.6359424421","0.6","0.4","0.2","0.8","0.1900607051","0.7447883659","0.6359424421","0.4764182235","","","","","","","","","","","","","","75","K","2","","","83","main_expt",""
"","bandit","164","583496","0.0-125.0-0.0","03682295","wem/bandit_party_2","A1ROQLNF06YHZX","either","6","355","","","","","","","0","0","1","","0.6133664729","0.6","0.4","0.2","0.8","0.1306868958","0.6900592863","0.6133664729","0.5149027494","","","","","","","","","","","","","","75","K","2","","","84","main_expt",""
"","bandit","165","585328","0.0-126.0-0.0","03682295","wem/bandit_party_2","A1ROQLNF06YHZX","either","6","324","","","","","","","1","0","0","0.7010597455","","0.6","0.4","0.2","0.8","","","","","0.1683201849","0.7010597455","0.7815463305","0.4908067213","","","","","","","","","","74","J","1","","","85","main_expt",""
"","bandit","166","587248","0.0-127.0-0.0","03682295","wem/bandit_party_2","A1ROQLNF06YHZX","either","6","411","","","","","","","1","0","0","0.6171062652","","0.6","0.4","0.2","0.8","","","","","0.1290314955","0.6171062652","0.7355789231","0.4139472458","","","","","","","","","","74","J","1","","","86","main_expt",""
"","bandit","167","589158","0.0-128.0-0.0","03682295","wem/bandit_party_2","A1ROQLNF06YHZX","either","6","404","","","","","","","0","1","0","","0.5629375242","0.6","0.4","0.2","0.8","0.2297537383","0.5629375242","0.7267399876","0.4253818619","","","","","","","","","","","","","","74","J","1","","","87","main_expt",""
"","bandit","168","591072","0.0-129.0-0.0","03682295","wem/bandit_party_2","A1ROQLNF06YHZX","either","6","405","","","","","","","1","0","0","0.6434443074","","0.6","0.4","0.2","0.8","","","","","0.1878263516","0.6434443074","0.7703195612","0.4448862761","","","","","","","","","","74","J","1","","","88","main_expt",""
"","bandit","169","592945","0.0-130.0-0.0","03682295","wem/bandit_party_2","A1ROQLNF06YHZX","either","6","366","","","","","","","1","0","0","0.7296698787","","0.6","0.4","0.2","0.8","","","","","0.1896964823","0.7296698787","0.81872988","0.4295642349","","","","","","","","","","74","J","1","","","89","main_expt",""
"","bandit","170","594872","0.0-131.0-0.0","03682295","wem/bandit_party_2","A1ROQLNF06YHZX","either","6","418","","","","","","","0","1","0","","0.7042864347","0.6","0.4","0.2","0.8","0.1614970172","0.7042864347","0.8032570632","0.3655203192","","","","","","","","","","","","","","74","J","1","","","90","main_expt",""
"","bandit","171","596760","0.0-132.0-0.0","03682295","wem/bandit_party_2","A1ROQLNF06YHZX","either","6","380","","","","","","","0","1","0","","0.7606559624","0.6","0.4","0.2","0.8","0.2107705911","0.7606559624","0.8257352781","0.402428746","","","","","","","","","","","","","","74","J","1","","","91","main_expt",""
"","bandit","172","598576","0.0-133.0-0.0","03682295","wem/bandit_party_2","A1ROQLNF06YHZX","either","6","309","","","","","","","0","0","1","","0.8466818248","0.6","0.4","0.2","0.8","0.1317951273","0.8466818248","0.7762210657","0.452733603","","","","","","","","","","","","","","74","J","1","","","92","main_expt",""
"","bandit","173","600432","0.0-134.0-0.0","03682295","wem/bandit_party_2","A1ROQLNF06YHZX","either","6","349","","","","","","","0","0","1","0.8181600593","","0.6","0.4","0.2","0.8","","","","","0.09268613222","0.8181600593","0.8293629201","0.5416456901","","","","","","","","","","74","J","1","","","93","main_expt",""
"","bandit","174","602416","0.0-135.0-0.0","03682295","wem/bandit_party_2","A1ROQLNF06YHZX","either","6","473","","","","","","","0","0","1","","0.7259749053","0.6","0.4","0.2","0.8","0.06418168538","0.7259749053","0.7849393417","0.5246039132","","","","","","","","","","","","","","74","J","1","","","94","main_expt",""
"","bandit","175","604250","0.0-136.0-0.0","03682295","wem/bandit_party_2","A1ROQLNF06YHZX","either","6","326","","","","","","","1","0","0","0.6538641892","","0.6","0.4","0.2","0.8","","","","","0.100072779","0.6538641892","0.7850226125","0.606801291","","","","","","","","","","74","J","1","","","95","main_expt",""
"","bandit","176","606096","0.0-137.0-0.0","03682295","wem/bandit_party_2","A1ROQLNF06YHZX","either","6","337","","","","","","","0","1","0","","0.6384360591","0.6","0.4","0.2","0.8","0.09628221604","0.6384360591","0.8013150942","0.7175242067","","","","","","","","","","","","","","74","J","1","","","96","main_expt",""
"","bandit","177","607929","0.0-138.0-0.0","03682295","wem/bandit_party_2","A1ROQLNF06YHZX","either","6","324","","","","","","","0","1","0","","0.6836118029","0.6","0.4","0.2","0.8","0.1335622201","0.6836118029","0.70340399","0.7706560561","","","","","","","","","","","","","","74","J","1","","","97","main_expt",""
"","bandit","178","609825","0.0-139.0-0.0","03682295","wem/bandit_party_2","A1ROQLNF06YHZX","either","6","386","","","","","","","0","1","0","","0.659457158","0.6","0.4","0.2","0.8","0.167202632","0.659457158","0.7562517051","0.7234704616","","","","","","","","","","","","","","74","J","1","","","98","main_expt",""
"","bandit","179","611681","0.0-140.0-0.0","03682295","wem/bandit_party_2","A1ROQLNF06YHZX","either","6","347","","","","","","","1","0","0","0.7726162223","","0.6","0.4","0.2","0.8","","","","","0.1216125457","0.7726162223","0.6514659141","0.6582042781","","","","","","","","","","74","J","1","","","99","main_expt",""
"","bandit","180","613496","0.0-141.0-0.0","03682295","wem/bandit_party_2","A1ROQLNF06YHZX","either","6","308","","","","","","","0","1","0","","0.8446518706","0.6","0.4","0.2","0.8","0.1163239148","0.8446518706","0.7112237606","0.6530973887","","","","","","","","","","","","","","74","J","1","","","100","main_expt",""
"","bandit","181","615330","0.0-142.0-0.0","03682295","wem/bandit_party_2","A1ROQLNF06YHZX","either","6","326","","","","","","","1","0","0","0.8784151442","","0.6","0.4","0.2","0.8","","","","","0.1037928869","0.8784151442","0.6865981462","0.6690961394","","","","","","","","","","74","J","1","","","101","main_expt",""
"","bandit","182","617169","0.0-143.0-0.0","03682295","wem/bandit_party_2","A1ROQLNF06YHZX","either","6","331","","","","","","","0","1","0","","0.8781202538","0.6","0.4","0.2","0.8","0.0991068806","0.8781202538","0.6663704066","0.6268844929","","","","","","","","","","","","","","74","J","1","","","102","main_expt",""
"","bandit","183","619047","0.0-144.0-0.0","03682295","wem/bandit_party_2","A1ROQLNF06YHZX","either","6","370","","","","","","","0","1","0","","0.8123732176","0.6","0.4","0.2","0.8","0.1226752409","0.8123732176","0.6006744832","0.6657789595","","","","","","","","","","","","","","74","J","1","","","103","main_expt",""
"","bandit","184","620921","0.0-145.0-0.0","03682295","wem/bandit_party_2","A1ROQLNF06YHZX","either","6","364","","","","","","","0","1","0","","0.8461937008","0.6","0.4","0.2","0.8","0.1552466415","0.8461937008","0.518723913","0.6951589836","","","","","","","","","","","","","","74","J","1","","","104","main_expt",""
"","bandit","185","622756","0.0-146.0-0.0","03682295","wem/bandit_party_2","A1ROQLNF06YHZX","either","6","327","","","","","","","1","0","0","0.8664825842","","0.6","0.4","0.2","0.8","","","","","0.1702138509","0.8664825842","0.5343999165","0.6382729445","","","","","","","","","","74","J","1","","","105","main_expt",""
"","bandit","186","624652","0.0-147.0-0.0","03682295","wem/bandit_party_2","A1ROQLNF06YHZX","either","6","387","","","","","","","1","0","0","0.8703997655","","0.6","0.4","0.2","0.8","","","","","0.2021425125","0.8703997655","0.4959998489","0.7139624249","","","","","","","","","","74","J","1","","","106","main_expt",""
"","bandit","187","626674","0.0-148.0-0.0","03682295","wem/bandit_party_2","A1ROQLNF06YHZX","either","6","512","","","","","","","0","1","0","","0.8964314806","0.6","0.4","0.2","0.8","0.2196373816","0.8964314806","0.5052663648","0.7718136471","","","","","","","","","","","","","","74","J","1","","","107","main_expt",""
"","bandit","188","628537","0.0-149.0-0.0","03682295","wem/bandit_party_2","A1ROQLNF06YHZX","either","6","356","","","","","","","0","1","0","","0.9080126319","0.6","0.4","0.2","0.8","0.2393661099","0.9080126319","0.4859582203","0.8818715302","","","","","","","","","","","","","","74","J","1","","","108","main_expt",""
"","bandit","189","630385","0.0-150.0-0.0","03682295","wem/bandit_party_2","A1ROQLNF06YHZX","either","6","340","","","","","","","1","0","0","0.8880845243","","0.6","0.4","0.2","0.8","","","","","0.2516352594","0.8880845243","0.523617738","0.8757741924","","","","","","","","","","74","J","1","","","109","main_expt",""
"","bandit","190","632297","0.0-151.0-0.0","03682295","wem/bandit_party_2","A1ROQLNF06YHZX","either","6","403","","","","","","","0","1","0","","0.899251136","0.6","0.4","0.2","0.8","0.2424291788","0.899251136","0.5492010791","0.8657151097","","","","","","","","","","","","","","74","J","1","","","110","main_expt",""
"","bandit","191","634105","0.0-152.0-0.0","03682295","wem/bandit_party_2","A1ROQLNF06YHZX","either","6","299","","","","","","","0","1","0","","0.9019514556","0.6","0.4","0.2","0.8","0.2033086481","0.9019514556","0.5467154696","0.8457624762","","","","","","","","","","","","","","74","J","1","","","111","main_expt",""
"","bandit","192","635912","0.0-153.0-0.0","03682295","wem/bandit_party_2","A1ROQLNF06YHZX","either","6","299","","","","","","","0","1","0","","0.9315537639","0.6","0.4","0.2","0.8","0.208613213","0.9315537639","0.5396215981","0.8756116827","","","","","","","","","","","","","","74","J","1","","","112","main_expt",""
"","bandit","193","637739","0.0-154.0-0.0","03682295","wem/bandit_party_2","A1ROQLNF06YHZX","either","6","319","","","","","","","0","1","0","","0.9254394702","0.6","0.4","0.2","0.8","0.2743958833","0.9254394702","0.5542875214","0.8773181328","","","","","","","","","","","","","","74","J","1","","","113","main_expt",""
"","bandit","194","639633","0.0-155.0-0.0","03682295","wem/bandit_party_2","A1ROQLNF06YHZX","either","6","385","","","","","","","0","1","0","","0.9394904604","0.6","0.4","0.2","0.8","0.2657329006","0.9394904604","0.6411428718","0.8842236373","","","","","","","","","","","","","","74","J","1","","","114","main_expt",""
"","bandit","195","641569","0.0-156.0-0.0","03682295","wem/bandit_party_2","A1ROQLNF06YHZX","either","6","428","","","","","","","0","0","1","","0.9533355239","0.6","0.4","0.2","0.8","0.3234316928","0.9533355239","0.7261400339","0.8499121835","","","","","","","","","","","","","","74","J","1","","","115","main_expt",""
"","bandit","196","643417","0.0-157.0-0.0","03682295","wem/bandit_party_2","A1ROQLNF06YHZX","either","6","339","","","","","","","1","0","0","0.960842596","","0.6","0.4","0.2","0.8","","","","","0.3625587123","0.960842596","0.7395407697","0.7890056153","","","","","","","","","","74","J","1","","","116","main_expt",""
"","bandit","197","645224","0.0-158.0-0.0","03682295","wem/bandit_party_2","A1ROQLNF06YHZX","either","6","300","","","","","","","0","1","0","","0.937733065","0.6","0.4","0.2","0.8","0.4946904956","0.937733065","0.8231731708","0.7709890197","","","","","","","","","","","","","","74","J","1","","","117","main_expt",""
"","bandit","198","647081","0.0-159.0-0.0","03682295","wem/bandit_party_2","A1ROQLNF06YHZX","either","6","349","","","","","","","1","0","0","0.9561499645","","0.6","0.4","0.2","0.8","","","","","0.6246330079","0.9561499645","0.8278750807","0.7459937787","","","","","","","","","","74","J","1","","","118","main_expt",""
"","bandit","199","648915","0.0-160.0-0.0","03682295","wem/bandit_party_2","A1ROQLNF06YHZX","either","6","325","","","","","","","1","0","0","0.9595118281","","0.6","0.4","0.2","0.8","","","","","0.5818097722","0.9595118281","0.8715827524","0.716881491","","","","","","","","","","74","J","1","","","119","main_expt",""
"","bandit","200","650874","0.0-161.0-0.0","03682295","wem/bandit_party_2","A1ROQLNF06YHZX","either","6","449","","","","","","","1","0","0","0.9548463758","","0.6","0.4","0.2","0.8","","","","","0.5990025551","0.9548463758","0.8522670476","0.6595649419","","","","","","","","","","74","J","1","","","120","main_expt",""
"","bandit","201","652777","0.0-162.0-0.0","03682295","wem/bandit_party_2","A1ROQLNF06YHZX","either","6","395","","","","","","","1","0","0","0.958085665","","0.6","0.4","0.2","0.8","","","","","0.6534424477","0.958085665","0.8266542562","0.6576447048","","","","","","","","","","74","J","1","","","121","main_expt",""
"","bandit","202","654737","0.0-163.0-0.0","03682295","wem/bandit_party_2","A1ROQLNF06YHZX","either","6","451","","","","","","","0","1","0","","0.9630601427","0.6","0.4","0.2","0.8","0.5952731017","0.9630601427","0.81688531","0.6391957719","","","","","","","","","","","","","","74","J","1","","","122","main_expt",""
"","bandit","203","656569","0.0-164.0-0.0","03682295","wem/bandit_party_2","A1ROQLNF06YHZX","either","6","324","","","","","","","1","0","0","0.6469086187","","0.6","0.4","0.2","0.8","","","","","0.6469086187","0.9790283764","0.8307363081","0.5873908865","","","","","","","","","","72","H","0","img/none_selected.jpg","","123","main_expt",""
"","bandit","204","658378","0.0-165.0-0.0","03682295","wem/bandit_party_2","A1ROQLNF06YHZX","either","6","299","","","","","","","0","1","0","","0.9718765302","0.6","0.4","0.2","0.8","0.6911454426","0.9718765302","0.6943824695","0.6592760984","","","","","","","","","","","","","","74","J","1","","","124","main_expt",""
"","bandit","205","660251","0.0-166.0-0.0","03682295","wem/bandit_party_2","A1ROQLNF06YHZX","either","6","364","","","","","","","0","1","0","","0.9845173964","0.6","0.4","0.2","0.8","0.750572215","0.9845173964","0.7137568944","0.6012083746","","","","","","","","","","","","","","74","J","1","","","125","main_expt",""
"","bandit","206","662073","0.0-167.0-0.0","03682295","wem/bandit_party_2","A1ROQLNF06YHZX","either","6","313","","","","","","","1","0","0","0.9804670004","","0.6","0.4","0.2","0.8","","","","","0.8108432581","0.9804670004","0.6878742658","0.6043440275","","","","","","","","","","74","J","1","","","126","main_expt",""
"","bandit","207","663913","0.0-168.0-0.0","03682295","wem/bandit_party_2","A1ROQLNF06YHZX","either","6","332","","","","","","","0","1","0","","0.9792667249","0.6","0.4","0.2","0.8","0.8338196277","0.9792667249","0.6175454059","0.5043142332","","","","","","","","","","","","","","74","J","1","","","127","main_expt",""
"","bandit","208","665738","0.0-169.0-0.0","03682295","wem/bandit_party_2","A1ROQLNF06YHZX","either","6","316","","","","","","","1","0","0","0.9853815399","","0.6","0.4","0.2","0.8","","","","","0.8624128669","0.9853815399","0.5556505876","0.5778209799","","","","","","","","","","74","J","1","","","128","main_expt",""
"","bandit","209","667560","0.0-170.0-0.0","03682295","wem/bandit_party_2","A1ROQLNF06YHZX","either","6","314","","","","","","","0","1","0","","0.9026068167","0.6","0.4","0.2","0.8","0.9026068167","0.9838319732","0.5948532478","0.5806273004","","","","","","","","","","","","","","72","H","0","img/none_selected.jpg","","129","main_expt",""
"","bandit","210","669369","0.0-171.0-0.0","03682295","wem/bandit_party_2","A1ROQLNF06YHZX","either","6","300","","","","","","","0","1","0","","0.9798768453","0.6","0.4","0.2","0.8","0.8983636673","0.9798768453","0.6646968067","0.4152233618","","","","","","","","","","","","","","74","J","1","","","130","main_expt",""
"","bandit","211","671180","0.0-172.0-0.0","03682295","wem/bandit_party_2","A1ROQLNF06YHZX","either","6","302","","","","","","","0","0","1","","0.9628017066","0.6","0.4","0.2","0.8","0.888478962","0.9628017066","0.6676177377","0.4527057242","","","","","","","","","","","","","","74","J","1","","","131","main_expt",""
"","bandit","212","673017","0.0-173.0-0.0","03682295","wem/bandit_party_2","A1ROQLNF06YHZX","either","6","328","","","","","","","1","0","0","0.9723970119","","0.6","0.4","0.2","0.8","","","","","0.8470567254","0.9723970119","0.7638630926","0.5185753891","","","","","","","","","","74","J","1","","","132","main_expt",""
"","bandit","213","674824","0.0-174.0-0.0","03682295","wem/bandit_party_2","A1ROQLNF06YHZX","either","6","299","","","","","","","0","1","0","","0.9754432393","0.6","0.4","0.2","0.8","0.8852081265","0.9754432393","0.726350598","0.4567386081","","","","","","","","","","","","","","74","J","1","","","133","main_expt",""
"","bandit","214","676634","0.0-175.0-0.0","03682295","wem/bandit_party_2","A1ROQLNF06YHZX","either","6","301","","","","","","","1","0","0","0.9635376407","","0.6","0.4","0.2","0.8","","","","","0.8317422298","0.9635376407","0.7638059904","0.4494056808","","","","","","","","","","74","J","1","","","134","main_expt",""
"","bandit","215","678482","0.0-176.0-0.0","03682295","wem/bandit_party_2","A1ROQLNF06YHZX","either","6","340","","","","","","","1","0","0","0.9304273523","","0.6","0.4","0.2","0.8","","","","","0.8121858422","0.9304273523","0.7337835984","0.4608562393","","","","","","","","","","74","J","1","","","135","main_expt",""
"","bandit","216","680298","0.0-177.0-0.0","03682295","wem/bandit_party_2","A1ROQLNF06YHZX","either","6","308","","","","","","","1","0","0","0.9295592062","","0.6","0.4","0.2","0.8","","","","","0.8473276522","0.9295592062","0.7869055623","0.6684020244","","","","","","","","","","74","J","1","","","136","main_expt",""
"","bandit","217","682131","0.0-178.0-0.0","03682295","wem/bandit_party_2","A1ROQLNF06YHZX","either","6","325","","","","","","","1","0","0","0.9343332129","","0.6","0.4","0.2","0.8","","","","","0.8251243182","0.9343332129","0.8033651193","0.614137061","","","","","","","","","","74","J","1","","","137","main_expt",""
"","bandit","218","683954","0.0-179.0-0.0","03682295","wem/bandit_party_2","A1ROQLNF06YHZX","either","6","312","","","","","","","0","0","1","0.7892590299","","0.6","0.4","0.2","0.8","","","","","0.7892590299","0.9325781127","0.7620089345","0.711021659","","","","","","","","","","72","H","0","img/none_selected.jpg","","138","main_expt",""
"","bandit","219","685754","0.0-180.0-0.0","03682295","wem/bandit_party_2","A1ROQLNF06YHZX","either","6","292","","","","","","","1","0","0","0.9687763229","","0.6","0.4","0.2","0.8","","","","","0.753698647","0.9687763229","0.8098853196","0.5731932267","","","","","","","","","","74","J","1","","","139","main_expt",""
"","bandit","220","687570","0.0-181.0-0.0","03682295","wem/bandit_party_2","A1ROQLNF06YHZX","either","6","307","","","","","","","0","0","1","0.7281837229","","0.6","0.4","0.2","0.8","","","","","0.7281837229","0.9520204639","0.8737133651","0.6553783698","","","","","","","","","","72","H","0","img/none_selected.jpg","","140","main_expt",""
"","bandit","221","689434","0.0-182.0-0.0","03682295","wem/bandit_party_2","A1ROQLNF06YHZX","either","6","356","","","","","","","1","0","0","0.9615613541","","0.6","0.4","0.2","0.8","","","","","0.7913145473","0.9615613541","0.8464817719","0.5665224918","","","","","","","","","","74","J","1","","","141","main_expt",""
"","bandit","222","691274","0.0-183.0-0.0","03682295","wem/bandit_party_2","A1ROQLNF06YHZX","either","6","332","","","","","","","1","0","0","0.9438722422","","0.6","0.4","0.2","0.8","","","","","0.7498898283","0.9438722422","0.8457688645","0.5230460729","","","","","","","","","","74","J","1","","","142","main_expt",""
"","bandit","223","693123","0.0-184.0-0.0","03682295","wem/bandit_party_2","A1ROQLNF06YHZX","either","6","341","","","","","","","0","1","0","","0.9419241064","0.6","0.4","0.2","0.8","0.723110339","0.9419241064","0.8801682128","0.5401897842","","","","","","","","","","","","","","74","J","1","","","143","main_expt",""
"","bandit","224","695002","0.0-185.0-0.0","03682295","wem/bandit_party_2","A1ROQLNF06YHZX","either","6","370","","","","","","","1","0","0","0.9383966058","","0.6","0.4","0.2","0.8","","","","","0.7697142539","0.9383966058","0.7806105972","0.5495292383","","","","","","","","","","74","J","1","","","144","main_expt",""
"","bandit","225","696810","0.0-186.0-0.0","03682295","wem/bandit_party_2","A1ROQLNF06YHZX","either","6","299","","","","","","","0","1","0","","0.9442204223","0.6","0.4","0.2","0.8","0.8279494337","0.9442204223","0.7384744451","0.4718854897","","","","","","","","","","","","","","74","J","1","","","145","main_expt",""
"","bandit","226","698627","0.0-187.0-0.0","03682295","wem/bandit_party_2","A1ROQLNF06YHZX","either","6","307","","","","","","","0","1","0","","0.9461270134","0.6","0.4","0.2","0.8","0.747104877","0.9461270134","0.7078417075","0.3790577705","","","","","","","","","","","","","","74","J","1","","","146","main_expt",""
"","bandit","227","700458","0.0-188.0-0.0","03682295","wem/bandit_party_2","A1ROQLNF06YHZX","either","6","323","","","","","","","0","1","0","","0.9677113618","0.6","0.4","0.2","0.8","0.7635883185","0.9677113618","0.7671729372","0.3671333747","","","","","","","","","","","","","","74","J","1","","","147","main_expt",""
"","bandit","228","702339","0.0-189.0-0.0","03682295","wem/bandit_party_2","A1ROQLNF06YHZX","either","6","370","","","","","","","1","0","0","0.9603287673","","0.6","0.4","0.2","0.8","","","","","0.6650729927","0.9603287673","0.7515071201","0.4462771912","","","","","","","","","","74","J","1","","","148","main_expt",""
"","bandit","229","704147","0.0-190.0-0.0","03682295","wem/bandit_party_2","A1ROQLNF06YHZX","either","6","299","","","","","","","0","1","0","","0.9256305183","0.6","0.4","0.2","0.8","0.594527628","0.9256305183","0.7582160768","0.3929125452","","","","","","","","","","","","","","74","J","1","","","149","main_expt",""
"","bandit","230","705986","0.0-191.0-0.0","03682295","wem/bandit_party_2","A1ROQLNF06YHZX","either","6","330","","","","","","","1","0","0","0.9222609783","","0.6","0.4","0.2","0.8","","","","","0.5101412162","0.9222609783","0.6843302658","0.3825194633","","","","","","","","","","74","J","1","","","150","main_expt",""
"","bandit","231","707794","0.0-192.0-0.0","03682295","wem/bandit_party_2","A1ROQLNF06YHZX","either","6","300","","","","","","","1","0","0","0.9522131909","","0.6","0.4","0.2","0.8","","","","","0.5755011036","0.9522131909","0.4980827124","0.3889652011","","","","","","","","","","74","J","1","","","151","main_expt",""
"","bandit","232","709682","0.0-193.0-0.0","03682295","wem/bandit_party_2","A1ROQLNF06YHZX","either","6","378","","","","","","","1","0","0","0.9351777179","","0.6","0.4","0.2","0.8","","","","","0.5415628766","0.9351777179","0.5418861514","0.372169082","","","","","","","","","","74","J","1","","","152","main_expt",""
"","bandit","233","711602","0.0-194.0-0.0","03682295","wem/bandit_party_2","A1ROQLNF06YHZX","either","6","412","","","","","","","0","1","0","","0.9526549669","0.6","0.4","0.2","0.8","0.6392888902","0.9526549669","0.6424708626","0.4275919172","","","","","","","","","","","","","","74","J","1","","","153","main_expt",""
"","bandit","234","713482","0.0-195.0-0.0","03682295","wem/bandit_party_2","A1ROQLNF06YHZX","either","6","371","","","","","","","0","1","0","","0.944677936","0.6","0.4","0.2","0.8","0.6798835142","0.944677936","0.6200403258","0.3978897223","","","","","","","","","","","","","","74","J","1","","","154","main_expt",""
"","bandit","235","715467","0.0-196.0-0.0","03682295","wem/bandit_party_2","A1ROQLNF06YHZX","either","6","476","","","","","","","1","0","0","0.9443948233","","0.6","0.4","0.2","0.8","","","","","0.7376683638","0.9443948233","0.5087788092","0.4922143253","","","","","","","","","","74","J","1","","","155","main_expt",""
"","bandit","236","717442","0.0-197.0-0.0","03682295","wem/bandit_party_2","A1ROQLNF06YHZX","either","6","464","","","","","","","1","0","0","0.9312029685","","0.6","0.4","0.2","0.8","","","","","0.7740838489","0.9312029685","0.4397360723","0.5060601407","","","","","","","","","","74","J","1","","","156","main_expt",""
"","bandit","237","719298","0.0-198.0-0.0","03682295","wem/bandit_party_2","A1ROQLNF06YHZX","either","6","349","","","","","","","0","0","1","0.9009413449","","0.6","0.4","0.2","0.8","","","","","0.7526352547","0.9009413449","0.4529934193","0.56460533","","","","","","","","","","74","J","1","","","157","main_expt",""
"","bandit","238","721186","0.0-199.0-0.0","03682295","wem/bandit_party_2","A1ROQLNF06YHZX","either","6","378","","","","","","","0","1","0","","0.8799225656","0.6","0.4","0.2","0.8","0.807066173","0.8799225656","0.522014142","0.5551408743","","","","","","","","","","","","","","74","J","1","","","158","main_expt",""
"","bandit","239","723115","0.0-200.0-0.0","03682295","wem/bandit_party_2","A1ROQLNF06YHZX","either","6","420","","","","","","","0","1","0","","0.9103166083","0.6","0.4","0.2","0.8","0.8348587906","0.9103166083","0.447178695","0.6362487126","","","","","","","","","","","","","","74","J","1","","","159","main_expt",""
"","bandit","240","724955","0.0-201.0-0.0","03682295","wem/bandit_party_2","A1ROQLNF06YHZX","either","6","330","","","","","","","0","0","1","","0.9575168601","0.6","0.4","0.2","0.8","0.8054329593","0.9575168601","0.4293784973","0.5818198138","","","","","","","","","","","","","","74","J","1","","","160","main_expt",""
"","bandit","241","726820","0.0-202.0-0.0","03682295","wem/bandit_party_2","A1ROQLNF06YHZX","either","6","357","","","","","","","0","1","0","","0.9323430526","0.6","0.4","0.2","0.8","0.8263011938","0.9323430526","0.4263694152","0.5079421761","","","","","","","","","","","","","","74","J","1","","","161","main_expt",""
"","bandit","242","728658","0.0-203.0-0.0","03682295","wem/bandit_party_2","A1ROQLNF06YHZX","either","6","328","","","","","","","0","0","1","0.4394756583","","0.6","0.4","0.2","0.8","","","","","0.8468561623","0.8731035433","0.4394756583","0.3944353318","","","","","","","","","","75","K","2","","","162","main_expt",""
"","bandit","243","730483","0.0-204.0-0.0","03682295","wem/bandit_party_2","A1ROQLNF06YHZX","either","6","317","","","","","","","1","0","0","0.4560534757","","0.6","0.4","0.2","0.8","","","","","0.866861138","0.860239847","0.4632532181","0.4560534757","","","","","","","","","","76","L","3","","","163","main_expt",""
"","bandit","244","732337","0.0-205.0-0.0","03682295","wem/bandit_party_2","A1ROQLNF06YHZX","either","6","347","","","","","","","1","0","0","0.4338988853","","0.6","0.4","0.2","0.8","","","","","0.8621839131","0.8327160304","0.469091439","0.4338988853","","","","","","","","","","76","L","3","","","164","main_expt",""
"","bandit","245","734211","0.0-206.0-0.0","03682295","wem/bandit_party_2","A1ROQLNF06YHZX","either","6","365","","","","","","","1","0","0","0.3640020004","","0.6","0.4","0.2","0.8","","","","","0.8368369455","0.8780399083","0.4691854483","0.3640020004","","","","","","","","","","76","L","3","","","165","main_expt",""
"","bandit","246","736099","0.0-207.0-0.0","03682295","wem/bandit_party_2","A1ROQLNF06YHZX","either","6","377","","","","","","","1","0","0","0.4433911144","","0.6","0.4","0.2","0.8","","","","","0.8543831227","0.8659509199","0.424594696","0.4433911144","","","","","","","","","","76","L","3","","","166","main_expt",""
"","bandit","247","737956","0.0-208.0-0.0","03682295","wem/bandit_party_2","A1ROQLNF06YHZX","either","6","348","","","","","","","0","0","1","0.4852122499","","0.6","0.4","0.2","0.8","","","","","0.8444257961","0.8458676595","0.4691217736","0.4852122499","","","","","","","","","","76","L","3","","","167","main_expt",""
"","bandit","248","739804","0.0-209.0-0.0","03682295","wem/bandit_party_2","A1ROQLNF06YHZX","either","6","339","","","","","","","0","1","0","","0.7368025647","0.6","0.4","0.2","0.8","0.8895061166","0.7368025647","0.4605946041","0.4829488348","","","","","","","","","","","","","","74","J","1","","","168","main_expt",""
"","bandit","249","741643","0.0-210.0-0.0","03682295","wem/bandit_party_2","A1ROQLNF06YHZX","either","6","330","","","","","","","0","1","0","","0.6811301937","0.6","0.4","0.2","0.8","0.8980662015","0.6811301937","0.4302520818","0.467087579","","","","","","","","","","","","","","74","J","1","","","169","main_expt",""
"","bandit","250","743475","0.0-211.0-0.0","03682295","wem/bandit_party_2","A1ROQLNF06YHZX","either","6","322","","","","","","","1","0","0","0.6781719117","","0.6","0.4","0.2","0.8","","","","","0.9399190154","0.6781719117","0.3846086554","0.3575164989","","","","","","","","","","74","J","1","","","170","main_expt",""
"","bandit","251","745332","0.0-212.0-0.0","03682295","wem/bandit_party_2","A1ROQLNF06YHZX","either","6","347","","","","","","","0","1","0","","0.5779776893","0.6","0.4","0.2","0.8","0.9199626721","0.5779776893","0.4938912128","0.3433755155","","","","","","","","","","","","","","74","J","1","","","171","main_expt",""
"","bandit","252","747299","0.0-213.0-0.0","03682295","wem/bandit_party_2","A1ROQLNF06YHZX","either","6","458","","","","","","","0","0","1","","0.5461867433","0.6","0.4","0.2","0.8","0.8885959212","0.5461867433","0.5409242696","0.2921203137","","","","","","","","","","","","","","74","J","1","","","172","main_expt",""
"","bandit","253","749125","0.0-214.0-0.0","03682295","wem/bandit_party_2","A1ROQLNF06YHZX","either","6","316","","","","","","","0","0","1","0.5898781272","","0.6","0.4","0.2","0.8","","","","","0.8502068985","0.5898781272","0.4899310385","0.3237382503","","","","","","","","","","74","J","1","","","173","main_expt",""
"","bandit","254","751075","0.0-215.0-0.0","03682295","wem/bandit_party_2","A1ROQLNF06YHZX","either","6","440","","","","","","","0","0","1","","0.5990225055","0.6","0.4","0.2","0.8","0.9054067092","0.5990225055","0.4464532747","0.2935635685","","","","","","","","","","","","","","74","J","1","","","174","main_expt",""
"","bandit","255","752971","0.0-216.0-0.0","03682295","wem/bandit_party_2","A1ROQLNF06YHZX","either","6","386","","","","","","","0","0","1","","0.6129624105","0.6","0.4","0.2","0.8","0.9096893241","0.6129624105","0.4363040476","0.2797951809","","","","","","","","","","","","","","74","J","1","","","175","main_expt",""
"","bandit","256","754843","0.0-217.0-0.0","03682295","wem/bandit_party_2","A1ROQLNF06YHZX","either","6","363","","","","","","","0","1","0","","0.2067270565","0.6","0.4","0.2","0.8","0.9081003197","0.5434192492","0.4198776974","0.2067270565","","","","","","","","","","","","","","76","L","3","","","176","main_expt",""
"","bandit","257","756692","0.0-218.0-0.0","03682295","wem/bandit_party_2","A1ROQLNF06YHZX","either","6","338","","","","","","","0","0","1","0.19266164","","0.6","0.4","0.2","0.8","","","","","0.8417535431","0.5893108522","0.4001478854","0.19266164","","","","","","","","","","76","L","3","","","177","main_expt",""
"","bandit","258","758555","0.0-219.0-0.0","03682295","wem/bandit_party_2","A1ROQLNF06YHZX","either","6","354","","","","","","","0","0","1","0.1393448617","","0.6","0.4","0.2","0.8","","","","","0.8045518304","0.4862463398","0.3015477047","0.1393448617","","","","","","","","","","76","L","3","","","178","main_expt",""
"","bandit","259","760421","0.0-220.0-0.0","03682295","wem/bandit_party_2","A1ROQLNF06YHZX","either","6","356","","","","","","","1","0","0","0.8250115846","","0.6","0.4","0.2","0.8","","","","","0.8250115846","0.4227787996","0.2700131006","0.1149816072","","","","","","","","","","72","H","0","img/none_selected.jpg","","179","main_expt",""
"","bandit","260","762260","0.0-221.0-0.0","03682295","wem/bandit_party_2","A1ROQLNF06YHZX","either","6","328","","","","","","","1","0","0","0.7418096358","","0.6","0.4","0.2","0.8","","","","","0.7418096358","0.3583368423","0.3473069","0.1231561222","","","","","","","","","","72","H","0","img/none_selected.jpg","","180","main_expt",""
"","bandit","261","764115","0.0-222.0-0.0","03682295","wem/bandit_party_2","A1ROQLNF06YHZX","either","6","345","","","","","","","0","0","1","0.7180260456","","0.6","0.4","0.2","0.8","","","","","0.7180260456","0.3820052134","0.3478804011","0.1134989143","","","","","","","","","","72","H","0","img/none_selected.jpg","","181","main_expt",""
"","bandit","262","765947","0.0-223.0-0.0","03682295","wem/bandit_party_2","A1ROQLNF06YHZX","either","6","323","","","","","","","0","1","0","","0.6777378447","0.6","0.4","0.2","0.8","0.6777378447","0.437769555","0.3304981007","0.07317944644","","","","","","","","","","","","","","72","H","0","img/none_selected.jpg","","182","main_expt",""
"","bandit","263","767772","0.0-224.0-0.0","03682295","wem/bandit_party_2","A1ROQLNF06YHZX","either","6","314","","","","","","","1","0","0","0.6331465848","","0.6","0.4","0.2","0.8","","","","","0.6331465848","0.3951330089","0.2578466268","0.05085611098","","","","","","","","","","72","H","0","img/none_selected.jpg","","183","main_expt",""
"","bandit","264","769620","0.0-225.0-0.0","03682295","wem/bandit_party_2","A1ROQLNF06YHZX","either","6","338","","","","","","","0","1","0","","0.6578519513","0.6","0.4","0.2","0.8","0.6578519513","0.4062376343","0.3550464129","0.07152820202","","","","","","","","","","","","","","72","H","0","img/none_selected.jpg","","184","main_expt",""
"","bandit","265","771669","0.0-226.0-0.0","03682295","wem/bandit_party_2","A1ROQLNF06YHZX","either","6","538","","","","","","","0","0","1","0.7160298793","","0.6","0.4","0.2","0.8","","","","","0.7160298793","0.4035727276","0.2993299556","0.08814522307","","","","","","","","","","72","H","0","img/none_selected.jpg","","185","main_expt",""
"","bandit","266","773588","0.0-227.0-0.0","03682295","wem/bandit_party_2","A1ROQLNF06YHZX","either","6","408","","","","","","","1","0","0","0.7081703269","","0.6","0.4","0.2","0.8","","","","","0.7081703269","0.4595565904","0.3985972224","0.0931487442","","","","","","","","","","72","H","0","img/none_selected.jpg","","186","main_expt",""
"","bandit","267","775468","0.0-228.0-0.0","03682295","wem/bandit_party_2","A1ROQLNF06YHZX","either","6","370","","","","","","","0","1","0","","0.7670757258","0.6","0.4","0.2","0.8","0.7670757258","0.4956959756","0.4563810555","0.05847154344","","","","","","","","","","","","","","72","H","0","img/none_selected.jpg","","187","main_expt",""
"","bandit","268","777324","0.0-229.0-0.0","03682295","wem/bandit_party_2","A1ROQLNF06YHZX","either","6","344","","","","","","","1","0","0","0.7986884496","","0.6","0.4","0.2","0.8","","","","","0.7986884496","0.4295585103","0.4621092719","0.05005107021","","","","","","","","","","72","H","0","img/none_selected.jpg","","188","main_expt",""
"","bandit","269","779235","0.0-230.0-0.0","03682295","wem/bandit_party_2","A1ROQLNF06YHZX","either","6","402","","","","","","","0","1","0","","0.8113194514","0.6","0.4","0.2","0.8","0.8113194514","0.4121259827","0.4214675273","0.05158958255","","","","","","","","","","","","","","72","H","0","img/none_selected.jpg","","189","main_expt",""
"","bandit","270","781260","0.0-231.0-0.0","03682295","wem/bandit_party_2","A1ROQLNF06YHZX","either","6","515","","","","","","","0","1","0","","0.8311477635","0.6","0.4","0.2","0.8","0.8311477635","0.40505342","0.4445162903","0.0530996007","","","","","","","","","","","","","","72","H","0","img/none_selected.jpg","","190","main_expt",""
"","bandit","271","783613","0.0-232.0-0.0","03682295","wem/bandit_party_2","A1ROQLNF06YHZX","either","6","843","","","","","","","1","0","0","0.7941336253","","0.6","0.4","0.2","0.8","","","","","0.7941336253","0.3671493273","0.4077799102","0.05342003941","","","","","","","","","","72","H","0","img/none_selected.jpg","","191","main_expt",""
"","bandit","272","785508","0.0-233.0-0.0","03682295","wem/bandit_party_2","A1ROQLNF06YHZX","either","6","384","","","","","","","1","0","0","0.841847859","","0.6","0.4","0.2","0.8","","","","","0.841847859","0.3367263454","0.413117206","0.05264216412","","","","","","","","","","72","H","0","img/none_selected.jpg","","192","main_expt",""
"","bandit","273","787410","0.0-234.0-0.0","03682295","wem/bandit_party_2","A1ROQLNF06YHZX","either","6","395","","","","","","","0","0","1","","0.865127625","0.6","0.4","0.2","0.8","0.865127625","0.2587514209","0.374663265","0.07418965368","","","","","","","","","","","","","","72","H","0","img/none_selected.jpg","","193","main_expt",""
"","bandit","274","789276","0.0-235.0-0.0","03682295","wem/bandit_party_2","A1ROQLNF06YHZX","either","6","356","","","","","","","0","1","0","","0.8369883383","0.6","0.4","0.2","0.8","0.8369883383","0.2123696513","0.2792309937","0.1148515542","","","","","","","","","","","","","","72","H","0","img/none_selected.jpg","","194","main_expt",""
"","bandit","275","791139","0.0-236.0-0.0","03682295","wem/bandit_party_2","A1ROQLNF06YHZX","either","6","354","","","","","","","1","0","0","0.8226177272","","0.6","0.4","0.2","0.8","","","","","0.8226177272","0.2551117677","0.3090424304","0.1102075851","","","","","","","","","","72","H","0","img/none_selected.jpg","","195","main_expt",""
"","bandit","276","793012","0.0-237.0-0.0","03682295","wem/bandit_party_2","A1ROQLNF06YHZX","either","6","362","","","","","","","1","0","0","0.8759919892","","0.6","0.4","0.2","0.8","","","","","0.8759919892","0.2948177706","0.2254203465","0.09307195637","","","","","","","","","","72","H","0","img/none_selected.jpg","","196","main_expt",""
"","bandit","277","794870","0.0-238.0-0.0","03682295","wem/bandit_party_2","A1ROQLNF06YHZX","either","6","348","","","","","","","0","1","0","","0.9413038234","0.6","0.4","0.2","0.8","0.9413038234","0.2864074111","0.2104085952","0.08341332984","","","","","","","","","","","","","","72","H","0","img/none_selected.jpg","","197","main_expt",""
"","bandit","278","796692","0.0-239.0-0.0","03682295","wem/bandit_party_2","A1ROQLNF06YHZX","either","6","312","","","","","","","1","0","0","0.9384937307","","0.6","0.4","0.2","0.8","","","","","0.9384937307","0.3044962429","0.1686499416","0.06206278739","","","","","","","","","","72","H","0","img/none_selected.jpg","","198","main_expt",""
"","bandit","279","798509","0.0-240.0-0.0","03682295","wem/bandit_party_2","A1ROQLNF06YHZX","either","6","306","","","","","","","0","1","0","","0.927250614","0.6","0.4","0.2","0.8","0.927250614","0.2804127106","0.1696058054","0.1015706687","","","","","","","","","","","","","","72","H","0","img/none_selected.jpg","","199","main_expt",""
"","bandit","280","800292","0.0-241.0-0.0","03682295","wem/bandit_party_2","A1ROQLNF06YHZX","either","6","274","","","","","","","0","0","1","0.8840406778","","0.6","0.4","0.2","0.8","","","","","0.8840406778","0.3151112274","0.1940139532","0.07348353789","","","","","","","","","","72","H","0","img/none_selected.jpg","","200","main_expt",""
"","bandit","281","802068","0.0-242.0-0.0","03682295","wem/bandit_party_2","A1ROQLNF06YHZX","either","6","266","","","","","","","1","0","0","0.8866639954","","0.6","0.4","0.2","0.8","","","","","0.8866639954","0.3124471347","0.2384341862","0.09218994405","","","","","","","","","","72","H","0","img/none_selected.jpg","","201","main_expt",""
"","bandit","282","803876","0.0-243.0-0.0","03682295","wem/bandit_party_2","A1ROQLNF06YHZX","either","6","298","","","","","","","0","0","1","","0.8188103646","0.6","0.4","0.2","0.8","0.8188103646","0.3418115628","0.2069173963","0.1662378481","","","","","","","","","","","","","","72","H","0","img/none_selected.jpg","","202","main_expt",""
"","bandit","283","805710","0.0-244.0-0.0","03682295","wem/bandit_party_2","A1ROQLNF06YHZX","either","6","322","","","","","","","1","0","0","0.8026106274","","0.6","0.4","0.2","0.8","","","","","0.8026106274","0.2676578736","0.2502389624","0.1808123801","","","","","","","","","","72","H","0","img/none_selected.jpg","","203","main_expt",""
"","bandit","284","807549","0.0-245.0-0.0","03682295","wem/bandit_party_2","A1ROQLNF06YHZX","either","6","328","","","","","","","0","1","0","","0.6613987003","0.6","0.4","0.2","0.8","0.6613987003","0.2513587973","0.2226806","0.2011980288","","","","","","","","","","","","","","72","H","0","img/none_selected.jpg","","204","main_expt",""
"","bandit","285","809388","0.0-246.0-0.0","03682295","wem/bandit_party_2","A1ROQLNF06YHZX","either","6","329","","","","","","","0","0","1","0.7402115251","","0.6","0.4","0.2","0.8","","","","","0.7402115251","0.2733703365","0.2327973494","0.1877492959","","","","","","","","","","72","H","0","img/none_selected.jpg","","205","main_expt",""
"","bandit","286","811253","0.0-247.0-0.0","03682295","wem/bandit_party_2","A1ROQLNF06YHZX","either","6","355","","","","","","","1","0","0","0.1891298069","","0.6","0.4","0.2","0.8","","","","","0.6792505986","0.3212331514","0.3134624789","0.1891298069","","","","","","","","","","76","L","3","","","206","main_expt",""
"","bandit","287","813060","0.0-248.0-0.0","03682295","wem/bandit_party_2","A1ROQLNF06YHZX","either","6","297","","","","","","","0","1","0","","0.2092890992","0.6","0.4","0.2","0.8","0.6510378203","0.3381772831","0.3808856429","0.2092890992","","","","","","","","","","","","","","76","L","3","","","207","main_expt",""
"","bandit","288","814908","0.0-249.0-0.0","03682295","wem/bandit_party_2","A1ROQLNF06YHZX","either","6","338","","","","","","","0","0","1","","0.2563161799","0.6","0.4","0.2","0.8","0.5971377862","0.2370260631","0.318509643","0.2563161799","","","","","","","","","","","","","","76","L","3","","","208","main_expt",""
"","bandit","289","816734","0.0-250.0-0.0","03682295","wem/bandit_party_2","A1ROQLNF06YHZX","either","6","316","","","","","","","0","0","1","0.2643940457","","0.6","0.4","0.2","0.8","","","","","0.6040603887","0.2157004535","0.2932847295","0.2643940457","","","","","","","","","","76","L","3","","","209","main_expt",""
"","bandit","290","818605","0.0-251.0-0.0","03682295","wem/bandit_party_2","A1ROQLNF06YHZX","either","6","360","","","","","","","0","0","1","","0.2230023122","0.6","0.4","0.2","0.8","0.7794442159","0.2655169153","0.2230023122","0.2710870001","","","","","","","","","","","","","","75","K","2","","","210","main_expt",""
"","bandit","291","820420","0.0-252.0-0.0","03682295","wem/bandit_party_2","A1ROQLNF06YHZX","either","6","307","","","","","","","0","0","1","","0.1899351836","0.6","0.4","0.2","0.8","0.8397026392","0.2359505063","0.1899351836","0.2056380183","","","","","","","","","","","","","","75","K","2","","","211","main_expt",""
"","bandit","292","822253","0.0-253.0-0.0","03682295","wem/bandit_party_2","A1ROQLNF06YHZX","either","6","323","","","","","","","0","0","1","0.2487045614","","0.6","0.4","0.2","0.8","","","","","0.7883870126","0.2431981852","0.2593929449","0.2487045614","","","","","","","","","","76","L","3","","","212","main_expt",""
"","bandit","293","824028","0.0-254.0-0.0","03682295","wem/bandit_party_2","A1ROQLNF06YHZX","either","6","265","","","","","","","0","0","1","","0.3385658967","0.6","0.4","0.2","0.8","0.7160446845","0.3385658967","0.2304425673","0.3520378668","","","","","","","","","","","","","","74","J","1","","","213","main_expt",""
"","bandit","294","825877","0.0-255.0-0.0","03682295","wem/bandit_party_2","A1ROQLNF06YHZX","either","6","337","","","","","","","1","0","0","0.7501162241","","0.6","0.4","0.2","0.8","","","","","0.7501162241","0.445002088","0.2849244028","0.3455661114","","","","","","","","","","72","H","0","img/none_selected.jpg","","214","main_expt",""
"","bandit","295","827726","0.0-256.0-0.0","03682295","wem/bandit_party_2","A1ROQLNF06YHZX","either","6","339","","","","","","","0","0","1","0.7574589115","","0.6","0.4","0.2","0.8","","","","","0.7574589115","0.4340580748","0.3184819088","0.3290646698","","","","","","","","","","72","H","0","img/none_selected.jpg","","215","main_expt",""
"","bandit","296","829557","0.0-257.0-0.0","03682295","wem/bandit_party_2","A1ROQLNF06YHZX","either","6","320","","","","","","","1","0","0","0.7376674805","","0.6","0.4","0.2","0.8","","","","","0.7376674805","0.3996931216","0.2989728513","0.2737258078","","","","","","","","","","72","H","0","img/none_selected.jpg","","216","main_expt",""
"","bandit","297","831420","0.0-258.0-0.0","03682295","wem/bandit_party_2","A1ROQLNF06YHZX","either","6","353","","","","","","","1","0","0","0.67262171","","0.6","0.4","0.2","0.8","","","","","0.67262171","0.453570069","0.5538830624","0.2401291484","","","","","","","","","","72","H","0","img/none_selected.jpg","","217","main_expt",""
"","bandit","298","833285","0.0-259.0-0.0","03682295","wem/bandit_party_2","A1ROQLNF06YHZX","either","6","355","","","","","","","0","0","1","","0.6309662891","0.6","0.4","0.2","0.8","0.6309662891","0.3566620654","0.5331458927","0.2395298113","","","","","","","","","","","","","","72","H","0","img/none_selected.jpg","","218","main_expt",""
"","bandit","299","835237","0.0-260.0-0.0","03682295","wem/bandit_party_2","A1ROQLNF06YHZX","either","6","440","","","","","","","1","0","0","0.3114207129","","0.6","0.4","0.2","0.8","","","","","0.610488243","0.3114207129","0.409279481","0.2333127667","","","","","","","","","","74","J","1","","","219","main_expt",""
"","bandit","300","837148","0.0-261.0-0.0","03682295","wem/bandit_party_2","A1ROQLNF06YHZX","either","6","402","","","","","","","0","0","1","","0.348491043","0.6","0.4","0.2","0.8","0.6741838821","0.348491043","0.3910907299","0.2097963002","","","","","","","","","","","","","","74","J","1","","","220","main_expt",""
"","bandit","301","838999","0.0-262.0-0.0","03682295","wem/bandit_party_2","A1ROQLNF06YHZX","either","6","340","","","","","","","0","0","1","0.325682353","","0.6","0.4","0.2","0.8","","","","","0.6938787555","0.325682353","0.37386253","0.1761429423","","","","","","","","","","74","J","1","","","221","main_expt",""
"","bandit","302","840821","0.0-263.0-0.0","03682295","wem/bandit_party_2","A1ROQLNF06YHZX","either","6","312","","","","","","","0","1","0","","0.5460784034","0.6","0.4","0.2","0.8","0.622086605","0.3582518194","0.5460784034","0.1770547834","","","","","","","","","","","","","","75","K","2","","","222","main_expt",""
"","bandit","303","842612","0.0-264.0-0.0","03682295","wem/bandit_party_2","A1ROQLNF06YHZX","either","6","280","","","","","","","0","1","0","","0.5484594206","0.6","0.4","0.2","0.8","0.6190419158","0.3596631187","0.5484594206","0.1494166006","","","","","","","","","","","","","","75","K","2","","","223","main_expt",""
"","bandit","304","844477","0.0-265.0-0.0","03682295","wem/bandit_party_2","A1ROQLNF06YHZX","either","6","354","","","","","","","0","0","1","","0.5156266917","0.6","0.4","0.2","0.8","0.6525227655","0.4757784632","0.5156266917","0.1444184755","","","","","","","","","","","","","","75","K","2","","","224","main_expt",""
"","bandit","305","846285","0.0-266.0-0.0","03682295","wem/bandit_party_2","A1ROQLNF06YHZX","either","6","297","","","","","","","0","1","0","","0.5120039273","0.6","0.4","0.2","0.8","0.5739960468","0.5384710229","0.5120039273","0.2381889698","","","","","","","","","","","","","","75","K","2","","","225","main_expt",""
"","bandit","306","848045","0.0-267.0-0.0","03682295","wem/bandit_party_2","A1ROQLNF06YHZX","either","6","251","","","","","","","0","1","0","","0.5568413113","0.6","0.4","0.2","0.8","0.6038380469","0.5308581489","0.5568413113","0.1429230379","","","","","","","","","","","","","","75","K","2","","","226","main_expt",""
"","bandit","307","849894","0.0-268.0-0.0","03682295","wem/bandit_party_2","A1ROQLNF06YHZX","either","6","338","","","","","","","0","0","1","","0.5277183188","0.6","0.4","0.2","0.8","0.5203417309","0.488482713","0.5277183188","0.124100867","","","","","","","","","","","","","","75","K","2","","","227","main_expt",""
"","bandit","308","851701","0.0-269.0-0.0","03682295","wem/bandit_party_2","A1ROQLNF06YHZX","either","6","297","","","","","","","0","1","0","","0.5041270258","0.6","0.4","0.2","0.8","0.4263922038","0.4406219513","0.5041270258","0.1762219884","","","","","","","","","","","","","","75","K","2","","","228","main_expt",""
"","bandit","309","853525","0.0-270.0-0.0","03682295","wem/bandit_party_2","A1ROQLNF06YHZX","either","6","313","","","","","","","0","0","1","","0.4541369304","0.6","0.4","0.2","0.8","0.3475105047","0.4892119921","0.4541369304","0.1910325121","","","","","","","","","","","","","","75","K","2","","","229","main_expt",""
"","bandit","310","855373","0.0-271.0-0.0","03682295","wem/bandit_party_2","A1ROQLNF06YHZX","either","6","338","","","","","","","0","0","1","","0.4504381994","0.6","0.4","0.2","0.8","0.3353007417","0.5129573662","0.4504381994","0.2571549068","","","","","","","","","","","","","","75","K","2","","","230","main_expt",""
"","bandit","311","857332","0.0-272.0-0.0","03682295","wem/bandit_party_2","A1ROQLNF06YHZX","either","6","450","","","","","","","0","0","1","","0.1781345747","0.6","0.4","0.2","0.8","0.2870546929","0.4382888871","0.4698668598","0.1781345747","","","","","","","","","","","","","","76","L","3","","","231","main_expt",""
"","bandit","312","859150","0.0-273.0-0.0","03682295","wem/bandit_party_2","A1ROQLNF06YHZX","either","6","307","","","","","","","0","0","1","0.3092655517","","0.6","0.4","0.2","0.8","","","","","0.3092655517","0.42174841","0.5460008395","0.1748933913","","","","","","","","","","72","H","0","img/none_selected.jpg","","232","main_expt",""
"","bandit","313","860942","0.0-274.0-0.0","03682295","wem/bandit_party_2","A1ROQLNF06YHZX","either","6","282","","","","","","","1","0","0","0.4297142637","","0.6","0.4","0.2","0.8","","","","","0.4231157335","0.4297142637","0.5345299581","0.2196371411","","","","","","","","","","74","J","1","","","233","main_expt",""
"","bandit","314","862845","0.0-275.0-0.0","03682295","wem/bandit_party_2","A1ROQLNF06YHZX","either","6","392","","","","","","","0","1","0","","0.3016140143","0.6","0.4","0.2","0.8","0.5525929145","0.3016140143","0.508060833","0.2052749597","","","","","","","","","","","","","","74","J","1","","","234","main_expt",""
"","bandit","315","864836","0.0-276.0-0.0","03682295","wem/bandit_party_2","A1ROQLNF06YHZX","either","6","481","","","","","","","0","0","1","0.2735586703","","0.6","0.4","0.2","0.8","","","","","0.7239072418","0.2735586703","0.4956589368","0.3158924645","","","","","","","","","","74","J","1","","","235","main_expt",""
"","bandit","316","866686","0.0-277.0-0.0","03682295","wem/bandit_party_2","A1ROQLNF06YHZX","either","6","339","","","","","","","0","0","1","","0.2536827631","0.6","0.4","0.2","0.8","0.8076920848","0.2536827631","0.5514737959","0.3668106878","","","","","","","","","","","","","","74","J","1","","","236","main_expt",""
"","bandit","317","868541","0.0-278.0-0.0","03682295","wem/bandit_party_2","A1ROQLNF06YHZX","either","6","345","","","","","","","0","1","0","","0.5183580196","0.6","0.4","0.2","0.8","0.7703095863","0.2478783488","0.5183580196","0.3866395083","","","","","","","","","","","","","","75","K","2","","","237","main_expt",""
