"consent","trial_type","trial_index","time_elapsed","internal_node_id","subjID","study","MID","cond","drift","rt","responses","button_pressed","key_press","like","value","connected","gems","bombs","no_reward","GemPrChosen","BombPrChosen","GainOverPainPr_0","GainOverPainPr_1","GainOverPainPr_2","GainOverPainPr_3","LosePr_0","LosePr_1","LosePr_2","LosePr_3","WinPr_0","WinPr_1","WinPr_2","WinPr_3","Q0","Q1","Q2","gender","age","ethnicity","label","expt_phase","target","respCharCode","respKey","respChoiceNum","respChoice","practice","trial_counter","trial_label","Q0_index","view_history"
"GDM/GDM_behavioral_consent_30min_online.html","consent","0","9753","0.0-0.0","05614684","wem/bandit_party_2","A3NHJPE6326P9V","either","2","","","","","","","","","","","","","","","","","","","","","","","","","","","","","","","","","","","","","","","","","",""
"","survey-text","1","13181","0.0-1.0","05614684","wem/bandit_party_2","A3NHJPE6326P9V","either","2","2393","{""Q0"":""A3NHJPE6326P9V""}","","","","","","","","","","","","","","","","","","","","","","","","","","","","","","","","","","","","","","","",""
"","button-response","2","16304","0.0-2.0","05614684","wem/bandit_party_2","A3NHJPE6326P9V","either","2","2115","","1","","","","","","","","","","","","","","","","","","","","","","","","","","","","","","","","","","","","","","",""
"","text-replacement","3","31430","0.0-3.0","05614684","wem/bandit_party_2","A3NHJPE6326P9V","either","2","14116","","","32","","","","","","","","","","","","","","","","","","","","","","","","","","","","","","","","","","","","","",""
"","text-replacement","4","39503","0.0-4.0","05614684","wem/bandit_party_2","A3NHJPE6326P9V","either","2","8070","","","32","","","","","","","","","","","","","","","","","","","","","","","","","","","","","","","","","","","","","",""
"","identification","5","45777","0.0-6.0-0.0","05614684","wem/bandit_party_2","A3NHJPE6326P9V","either","2","6232","","","","0","0","0","","","","","","","","","","","","","","","","","","","","","","","","pre","identification_pre","the Republican Party","","","","","","","","",""
"","identification","6","51872","0.0-6.0-1.0","05614684","wem/bandit_party_2","A3NHJPE6326P9V","either","2","5070","","","","6","6","6","","","","","","","","","","","","","","","","","","","","","","","","pre","identification_pre","the Democratic Party","","","","","","","","",""
"","text-replacement","7","85400","0.0-7.0","05614684","wem/bandit_party_2","A3NHJPE6326P9V","either","2","32524","","","32","","","","","","","","","","","","","","","","","","","","","","","","","","","","","","","","","","","","","",""
"","text-replacement","8","88879","0.0-8.0","05614684","wem/bandit_party_2","A3NHJPE6326P9V","either","2","3477","","","32","","","","","","","","","","","","","","","","","","","","","","","","","","","","","","","","","","","","","",""
"","text-replacement","9","104561","0.0-9.0","05614684","wem/bandit_party_2","A3NHJPE6326P9V","either","2","15679","","","32","","","","","","","","","","","","","","","","","","","","","","","","","","","","","","","","","","","","","",""
"","text-replacement","10","109174","0.0-10.0","05614684","wem/bandit_party_2","A3NHJPE6326P9V","either","2","4611","","","32","","","","","","","","","","","","","","","","","","","","","","","","","","","","","","","","","","","","","",""
"","text-replacement","11","112686","0.0-11.0","05614684","wem/bandit_party_2","A3NHJPE6326P9V","either","2","3511","","","32","","","","","","","","","","","","","","","","","","","","","","","","","","","","","","","","","","","","","",""
"","bandit","12","118301","0.0-12.0-0.0","05614684","wem/bandit_party_2","A3NHJPE6326P9V","either","2","4102","","","","","","","0","0","1","0","0","","","","","0","","","","0","","","","","","","","","","","","","74","J","0","img/none_selected_demo.jpg","true","0","","",""
"","bandit","13","120899","0.0-13.0-0.0","05614684","wem/bandit_party_2","A3NHJPE6326P9V","either","2","1085","","","","","","","0","0","1","0","0","","","","","0","","","","0","","","","","","","","","","","","","75","K","0","img/none_selected_demo.jpg","true","0","","",""
"","text-replacement","14","124720","0.0-14.0","05614684","wem/bandit_party_2","A3NHJPE6326P9V","either","2","3818","","","32","","","","","","","","","","","","","","","","","","","","","","","","","","","","","","","","","","","","","",""
"","text-replacement","15","134265","0.0-15.0","05614684","wem/bandit_party_2","A3NHJPE6326P9V","either","2","9541","","","32","","","","","","","","","","","","","","","","","","","","","","","","","","","","","","","","","","","","","",""
"","text-replacement","16","151983","0.0-16.0","05614684","wem/bandit_party_2","A3NHJPE6326P9V","either","2","17716","","","32","","","","","","","","","","","","","","","","","","","","","","","","","","","","","","","","","","","","","",""
"","text-replacement","17","174183","0.0-17.0","05614684","wem/bandit_party_2","A3NHJPE6326P9V","either","2","22198","","","32","","","","","","","","","","","","","","","","","","","","","","","","","","","","","","","","","","","","","",""
"","bandit","18","177982","0.0-18.0-0.0","05614684","wem/bandit_party_2","A3NHJPE6326P9V","either","2","2294","","","","","","","0","1","0","","0.8","0.5","0.5","","","0.8","0.2","","","","","","","","","","","","","","","","74","J","0","img/none_selected_demo.jpg","true","0","80_20_practice","",""
"","bandit","19","182568","0.0-18.0-1.0","05614684","wem/bandit_party_2","A3NHJPE6326P9V","either","2","3075","","","","","","","1","0","0","0.8","","0.5","0.5","","","","","","","0.8","0.2","","","","","","","","","","","","74","J","0","img/none_selected_demo.jpg","true","0","80_20_practice","",""
"","bandit","20","184606","0.0-18.0-2.0","05614684","wem/bandit_party_2","A3NHJPE6326P9V","either","2","532","","","","","","","0","1","0","","0.8","0.5","0.5","","","0.8","0.2","","","","","","","","","","","","","","","","74","J","0","img/none_selected_demo.jpg","true","0","80_20_practice","",""
"","bandit","21","186416","0.0-18.0-3.0","05614684","wem/bandit_party_2","A3NHJPE6326P9V","either","2","303","","","","","","","1","0","0","0.8","","0.5","0.5","","","","","","","0.8","0.2","","","","","","","","","","","","74","J","0","img/none_selected_demo.jpg","true","0","80_20_practice","",""
"","bandit","22","188215","0.0-18.0-4.0","05614684","wem/bandit_party_2","A3NHJPE6326P9V","either","2","293","","","","","","","0","1","0","","0.2","0.5","0.5","","","0.8","0.2","","","","","","","","","","","","","","","","75","K","1","","true","0","80_20_practice","",""
"","bandit","23","189980","0.0-18.0-5.0","05614684","wem/bandit_party_2","A3NHJPE6326P9V","either","2","253","","","","","","","0","1","0","","0.8","0.5","0.5","","","0.8","0.2","","","","","","","","","","","","","","","","74","J","0","img/none_selected_demo.jpg","true","0","80_20_practice","",""
"","bandit","24","195698","0.0-18.0-6.0","05614684","wem/bandit_party_2","A3NHJPE6326P9V","either","2","4207","","","","","","","1","0","0","0.8","","0.5","0.5","","","","","","","0.8","0.2","","","","","","","","","","","","74","J","0","img/none_selected_demo.jpg","true","0","80_20_practice","",""
"","bandit","25","197555","0.0-18.0-7.0","05614684","wem/bandit_party_2","A3NHJPE6326P9V","either","2","344","","","","","","","0","0","1","","0.2","0.5","0.5","","","0.8","0.2","","","","","","","","","","","","","","","","75","K","1","","true","0","80_20_practice","",""
"","bandit","26","199553","0.0-18.0-8.0","05614684","wem/bandit_party_2","A3NHJPE6326P9V","either","2","485","","","","","","","1","0","0","0.8","","0.5","0.5","","","","","","","0.8","0.2","","","","","","","","","","","","74","J","0","img/none_selected_demo.jpg","true","0","80_20_practice","",""
"","bandit","27","201369","0.0-18.0-9.0","05614684","wem/bandit_party_2","A3NHJPE6326P9V","either","2","299","","","","","","","1","0","0","0.2","","0.5","0.5","","","","","","","0.8","0.2","","","","","","","","","","","","75","K","1","","true","0","80_20_practice","",""
"","bandit","28","203199","0.0-18.0-10.0","05614684","wem/bandit_party_2","A3NHJPE6326P9V","either","2","319","","","","","","","0","1","0","","0.2","0.5","0.5","","","0.8","0.2","","","","","","","","","","","","","","","","75","K","1","","true","0","80_20_practice","",""
"","bandit","29","205111","0.0-18.0-11.0","05614684","wem/bandit_party_2","A3NHJPE6326P9V","either","2","405","","","","","","","0","0","1","0.2","","0.5","0.5","","","","","","","0.8","0.2","","","","","","","","","","","","75","K","1","","true","0","80_20_practice","",""
"","bandit","30","207032","0.0-18.0-12.0","05614684","wem/bandit_party_2","A3NHJPE6326P9V","either","2","411","","","","","","","0","0","1","","0.2","0.5","0.5","","","0.8","0.2","","","","","","","","","","","","","","","","75","K","1","","true","0","80_20_practice","",""
"","bandit","31","211561","0.0-18.0-13.0","05614684","wem/bandit_party_2","A3NHJPE6326P9V","either","2","3018","","","","","","","1","0","0","0.8","","0.5","0.5","","","","","","","0.8","0.2","","","","","","","","","","","","74","J","0","img/none_selected_demo.jpg","true","0","80_20_practice","",""
"","bandit","32","217177","0.0-18.0-14.0","05614684","wem/bandit_party_2","A3NHJPE6326P9V","either","2","4104","","","","","","","1","0","0","0.8","","0.5","0.5","","","","","","","0.8","0.2","","","","","","","","","","","","74","J","0","img/none_selected_demo.jpg","true","0","80_20_practice","",""
"","bandit","33","221518","0.0-18.0-15.0","05614684","wem/bandit_party_2","A3NHJPE6326P9V","either","2","2833","","","","","","","1","0","0","0.8","","0.5","0.5","","","","","","","0.8","0.2","","","","","","","","","","","","74","J","0","img/none_selected_demo.jpg","true","0","80_20_practice","",""
"","bandit","34","226343","0.0-18.0-16.0","05614684","wem/bandit_party_2","A3NHJPE6326P9V","either","2","3318","","","","","","","1","0","0","0.8","","0.5","0.5","","","","","","","0.8","0.2","","","","","","","","","","","","74","J","0","img/none_selected_demo.jpg","true","0","80_20_practice","",""
"","bandit","35","228665","0.0-18.0-17.0","05614684","wem/bandit_party_2","A3NHJPE6326P9V","either","2","809","","","","","","","0","1","0","","0.8","0.5","0.5","","","0.8","0.2","","","","","","","","","","","","","","","","74","J","0","img/none_selected_demo.jpg","true","0","80_20_practice","",""
"","bandit","36","231481","0.0-18.0-18.0","05614684","wem/bandit_party_2","A3NHJPE6326P9V","either","2","1305","","","","","","","1","0","0","0.8","","0.5","0.5","","","","","","","0.8","0.2","","","","","","","","","","","","74","J","0","img/none_selected_demo.jpg","true","0","80_20_practice","",""
"","bandit","37","233769","0.0-18.0-19.0","05614684","wem/bandit_party_2","A3NHJPE6326P9V","either","2","779","","","","","","","0","0","1","0.2","","0.5","0.5","","","","","","","0.8","0.2","","","","","","","","","","","","75","K","1","","true","0","80_20_practice","",""
"","text-replacement","38","1157652","0.0-19.0","05614684","wem/bandit_party_2","A3NHJPE6326P9V","either","2","923876","","","32","","","","","","","","","","","","","","","","","","","","","","","","","","","","","","","","","","","","","",""
"","bandit","39","1162715","0.0-20.0-0.0","05614684","wem/bandit_party_2","A3NHJPE6326P9V","either","2","3551","","","","","","","1","0","0","1","0","","","","","0","1","","","1","0","","","","","","","","","","","","74","J","0","img/none_selected_demo.jpg","true","0","","",""
"","text-replacement","40","1166218","0.0-21.0","05614684","wem/bandit_party_2","A3NHJPE6326P9V","either","2","3499","","","32","","","","","","","","","","","","","","","","","","","","","","","","","","","","","","","","","","","","","",""
"","text-replacement","41","1168987","0.0-22.0","05614684","wem/bandit_party_2","A3NHJPE6326P9V","either","2","2767","","","32","","","","","","","","","","","","","","","","","","","","","","","","","","","","","","","","","","","","","",""
"","text-replacement","42","1170740","0.0-23.0","05614684","wem/bandit_party_2","A3NHJPE6326P9V","either","2","1749","","","32","","","","","","","","","","","","","","","","","","","","","","","","","","","","","","","","","","","","","",""
"","text-replacement","43","1171985","0.0-24.0","05614684","wem/bandit_party_2","A3NHJPE6326P9V","either","2","1242","","","32","","","","","","","","","","","","","","","","","","","","","","","","","","","","","","","","","","","","","",""
"","text-replacement","44","1173002","0.0-25.0","05614684","wem/bandit_party_2","A3NHJPE6326P9V","either","2","1015","","","32","","","","","","","","","","","","","","","","","","","","","","","","","","","","","","","","","","","","","",""
"","text-replacement","45","1174019","0.0-26.0","05614684","wem/bandit_party_2","A3NHJPE6326P9V","either","2","1013","","","32","","","","","","","","","","","","","","","","","","","","","","","","","","","","","","","","","","","","","",""
"","text-replacement","46","1175098","0.0-27.0","05614684","wem/bandit_party_2","A3NHJPE6326P9V","either","2","1076","","","32","","","","","","","","","","","","","","","","","","","","","","","","","","","","","","","","","","","","","",""
"","text-replacement","47","1176243","0.0-28.0","05614684","wem/bandit_party_2","A3NHJPE6326P9V","either","2","1140","","","32","","","","","","","","","","","","","","","","","","","","","","","","","","","","","","","","","","","","","",""
"","text-replacement","48","1177322","0.0-29.0","05614684","wem/bandit_party_2","A3NHJPE6326P9V","either","2","1075","","","32","","","","","","","","","","","","","","","","","","","","","","","","","","","","","","","","","","","","","",""
"","text-replacement","49","1178474","0.0-30.0","05614684","wem/bandit_party_2","A3NHJPE6326P9V","either","2","1148","","","32","","","","","","","","","","","","","","","","","","","","","","","","","","","","","","","","","","","","","",""
"","text-replacement","50","1179658","0.0-31.0","05614684","wem/bandit_party_2","A3NHJPE6326P9V","either","2","1181","","","32","","","","","","","","","","","","","","","","","","","","","","","","","","","","","","","","","","","","","",""
"","bandit","51","1187523","0.0-32.0-0.0","05614684","wem/bandit_party_2","A3NHJPE6326P9V","either","2","6354","","","","","","","0","0","1","0.2","","0.5","0.5","0.5","0.5","","","","","0.8","0.2","0.6","0.2","","","","","","","","","","76","L","3","","true","0","full_practice","",""
"","bandit","52","1189829","0.0-32.0-1.0","05614684","wem/bandit_party_2","A3NHJPE6326P9V","either","2","791","","","","","","","1","0","0","0.6","","0.5","0.5","0.5","0.5","","","","","0.8","0.2","0.6","0.2","","","","","","","","","","75","K","2","","true","0","full_practice","",""
"","bandit","53","1191827","0.0-32.0-2.0","05614684","wem/bandit_party_2","A3NHJPE6326P9V","either","2","486","","","","","","","0","0","1","0.2","","0.5","0.5","0.5","0.5","","","","","0.8","0.2","0.6","0.2","","","","","","","","","","74","J","1","","true","0","full_practice","",""
"","bandit","54","1193824","0.0-32.0-3.0","05614684","wem/bandit_party_2","A3NHJPE6326P9V","either","2","487","","","","","","","0","0","1","0.8","","0.5","0.5","0.5","0.5","","","","","0.8","0.2","0.6","0.2","","","","","","","","","","72","H","0","img/none_selected.jpg","true","0","full_practice","",""
"","bandit","55","1195711","0.0-32.0-4.0","05614684","wem/bandit_party_2","A3NHJPE6326P9V","either","2","381","","","","","","","0","1","0","","0.6","0.5","0.5","0.5","0.5","0.8","0.2","0.6","0.2","","","","","","","","","","","","","","75","K","2","","true","0","full_practice","",""
"","bandit","56","1197505","0.0-32.0-5.0","05614684","wem/bandit_party_2","A3NHJPE6326P9V","either","2","287","","","","","","","0","0","1","","0.6","0.5","0.5","0.5","0.5","0.8","0.2","0.6","0.2","","","","","","","","","","","","","","75","K","2","","true","0","full_practice","",""
"","bandit","57","1199443","0.0-32.0-6.0","05614684","wem/bandit_party_2","A3NHJPE6326P9V","either","2","425","","","","","","","0","0","1","","0.2","0.5","0.5","0.5","0.5","0.8","0.2","0.6","0.2","","","","","","","","","","","","","","76","L","3","","true","0","full_practice","",""
"","bandit","58","1201249","0.0-32.0-7.0","05614684","wem/bandit_party_2","A3NHJPE6326P9V","either","2","297","","","","","","","0","0","1","","0.2","0.5","0.5","0.5","0.5","0.8","0.2","0.6","0.2","","","","","","","","","","","","","","74","J","1","","true","0","full_practice","",""
"","bandit","59","1203987","0.0-32.0-8.0","05614684","wem/bandit_party_2","A3NHJPE6326P9V","either","2","1224","","","","","","","0","0","1","0.8","","0.5","0.5","0.5","0.5","","","","","0.8","0.2","0.6","0.2","","","","","","","","","","72","H","0","img/none_selected.jpg","true","0","full_practice","",""
"","bandit","60","1206498","0.0-32.0-9.0","05614684","wem/bandit_party_2","A3NHJPE6326P9V","either","2","997","","","","","","","0","1","0","","0.8","0.5","0.5","0.5","0.5","0.8","0.2","0.6","0.2","","","","","","","","","","","","","","72","H","0","img/none_selected.jpg","true","0","full_practice","",""
"","bandit","61","1208603","0.0-32.0-10.0","05614684","wem/bandit_party_2","A3NHJPE6326P9V","either","2","594","","","","","","","0","1","0","","0.8","0.5","0.5","0.5","0.5","0.8","0.2","0.6","0.2","","","","","","","","","","","","","","72","H","0","img/none_selected.jpg","true","0","full_practice","",""
"","bandit","62","1210425","0.0-32.0-11.0","05614684","wem/bandit_party_2","A3NHJPE6326P9V","either","2","312","","","","","","","0","0","1","0.2","","0.5","0.5","0.5","0.5","","","","","0.8","0.2","0.6","0.2","","","","","","","","","","74","J","1","","true","0","full_practice","",""
"","bandit","63","1212337","0.0-32.0-12.0","05614684","wem/bandit_party_2","A3NHJPE6326P9V","either","2","400","","","","","","","1","0","0","0.6","","0.5","0.5","0.5","0.5","","","","","0.8","0.2","0.6","0.2","","","","","","","","","","75","K","2","","true","0","full_practice","",""
"","bandit","64","1214112","0.0-32.0-13.0","05614684","wem/bandit_party_2","A3NHJPE6326P9V","either","2","265","","","","","","","0","1","0","","0.6","0.5","0.5","0.5","0.5","0.8","0.2","0.6","0.2","","","","","","","","","","","","","","75","K","2","","true","0","full_practice","",""
"","bandit","65","1216107","0.0-32.0-14.0","05614684","wem/bandit_party_2","A3NHJPE6326P9V","either","2","486","","","","","","","1","0","0","0.6","","0.5","0.5","0.5","0.5","","","","","0.8","0.2","0.6","0.2","","","","","","","","","","75","K","2","","true","0","full_practice","",""
"","bandit","66","1217958","0.0-32.0-15.0","05614684","wem/bandit_party_2","A3NHJPE6326P9V","either","2","335","","","","","","","0","0","1","0.2","","0.5","0.5","0.5","0.5","","","","","0.8","0.2","0.6","0.2","","","","","","","","","","74","J","1","","true","0","full_practice","",""
"","bandit","67","1219811","0.0-32.0-16.0","05614684","wem/bandit_party_2","A3NHJPE6326P9V","either","2","340","","","","","","","1","0","0","0.8","","0.5","0.5","0.5","0.5","","","","","0.8","0.2","0.6","0.2","","","","","","","","","","72","H","0","img/none_selected.jpg","true","0","full_practice","",""
"","bandit","68","1221687","0.0-32.0-17.0","05614684","wem/bandit_party_2","A3NHJPE6326P9V","either","2","364","","","","","","","0","0","1","0.6","","0.5","0.5","0.5","0.5","","","","","0.8","0.2","0.6","0.2","","","","","","","","","","75","K","2","","true","0","full_practice","",""
"","bandit","69","1223473","0.0-32.0-18.0","05614684","wem/bandit_party_2","A3NHJPE6326P9V","either","2","279","","","","","","","0","0","1","0.2","","0.5","0.5","0.5","0.5","","","","","0.8","0.2","0.6","0.2","","","","","","","","","","74","J","1","","true","0","full_practice","",""
"","bandit","70","1225754","0.0-32.0-19.0","05614684","wem/bandit_party_2","A3NHJPE6326P9V","either","2","768","","","","","","","0","0","1","0.2","","0.5","0.5","0.5","0.5","","","","","0.8","0.2","0.6","0.2","","","","","","","","","","76","L","3","","true","0","full_practice","",""
"","text","71","1250834","0.0-33.0","05614684","wem/bandit_party_2","A3NHJPE6326P9V","either","2","25059","","","32","","","","","","","","","","","","","","","","","","","","","","","","","","","","","","","","","","","","","",""
"","text-replacement","72","1262507","0.0-34.0","05614684","wem/bandit_party_2","A3NHJPE6326P9V","either","2","10666","","","32","","","","","","","","","","","","","","","","","","","","","","","","","","","","","","","","","","","","","",""
"","text-replacement","73","1265306","0.0-35.0","05614684","wem/bandit_party_2","A3NHJPE6326P9V","either","2","2794","","","32","","","","","","","","","","","","","","","","","","","","","","","","","","","","","","","","","","","","","",""
"","text-replacement","74","1266674","0.0-36.0","05614684","wem/bandit_party_2","A3NHJPE6326P9V","either","2","1362","","","32","","","","","","","","","","","","","","","","","","","","","","","","","","","","","","","","","","","","","",""
"","text-replacement","75","1268210","0.0-37.0","05614684","wem/bandit_party_2","A3NHJPE6326P9V","either","2","1531","","","32","","","","","","","","","","","","","","","","","","","","","","","","","","","","","","","","","","","","","",""
"","text-replacement","76","1269722","0.0-38.0","05614684","wem/bandit_party_2","A3NHJPE6326P9V","either","2","1506","","","32","","","","","","","","","","","","","","","","","","","","","","","","","","","","","","","","","","","","","",""
"","survey-multi-choice-replacement","77","1277091","0.0-39.0-0.0","05614684","wem/bandit_party_2","A3NHJPE6326P9V","either","2","7353","","","","","","","","","","","","","","","","","","","","","","","","Money will be added to the pool for <span style='color:blue;'>DEMOCRATS</span>","","","","","","","attn_check","","","","","","","","","0",""
"","survey-multi-choice-replacement","78","1281578","0.0-40.0-0.0","05614684","wem/bandit_party_2","A3NHJPE6326P9V","either","2","3480","","","","","","","","","","","","","","","","","","","","","","","","Money will be added to the pool for <span style='color:blue;'>DEMOCRATS</span>","","","","","","","attn_check","","","","","","","","","0",""
"","instructions","79","1284313","0.0-40.0-1.0-0.0","05614684","wem/bandit_party_2","A3NHJPE6326P9V","either","2","1728","","","","","","","","","","","","","","","","","","","","","","","","","","","","","","","","","","","","","","","","","[{""page_index"":0,""viewing_time"":1728}]"
"","survey-multi-choice-replacement","80","1296202","0.0-40.1-0.1","05614684","wem/bandit_party_2","A3NHJPE6326P9V","either","2","10876","","","","","","","","","","","","","","","","","","","","","","","","Money will be subtracted from the pool for <span style='color:red;'>REPUBLICANS</span>","","","","","","","attn_check","","","","","","","","","1",""
"","instructions","81","1298540","0.0-40.1-1.1-0.1","05614684","wem/bandit_party_2","A3NHJPE6326P9V","either","2","1333","","","","","","","","","","","","","","","","","","","","","","","","","","","","","","","","","","","","","","","","","[{""page_index"":0,""viewing_time"":1333}]"
"","survey-multi-choice-replacement","82","1305674","0.0-40.2-0.2","05614684","wem/bandit_party_2","A3NHJPE6326P9V","either","2","6123","","","","","","","","","","","","","","","","","","","","","","","","No money will be added to either pool","","","","","","","attn_check","","","","","","","","","3",""
"","instructions","83","1307905","0.0-40.2-1.2-0.2","05614684","wem/bandit_party_2","A3NHJPE6326P9V","either","2","1225","","","","","","","","","","","","","","","","","","","","","","","","","","","","","","","","","","","","","","","","","[{""page_index"":0,""viewing_time"":1225}]"
"","survey-multi-choice-replacement","84","1310954","0.0-40.3-0.3","05614684","wem/bandit_party_2","A3NHJPE6326P9V","either","2","2043","","","","","","","","","","","","","","","","","","","","","","","","Equal amounts of money will be added to the pool for <span style='color:blue;'>DEMOCRATS</span> and subtracted from the pool for <span style='color:red;'>REPUBLICANS</span>","","","","","","","attn_check","","","","","","","","","2",""
"","survey-multi-choice-replacement","85","1317963","0.0-41.0-0.0","05614684","wem/bandit_party_2","A3NHJPE6326P9V","either","2","5976","","","","","","","","","","","","","","","","","","","","","","","","Equal amounts of money will be added to the pool for <span style='color:blue;'>DEMOCRATS</span> and subtracted from the pool for <span style='color:red;'>REPUBLICANS</span>","","","","","","","attn_check","","","","","","","","","2",""
"","instructions","86","1320129","0.0-41.0-1.0-0.0","05614684","wem/bandit_party_2","A3NHJPE6326P9V","either","2","1161","","","","","","","","","","","","","","","","","","","","","","","","","","","","","","","","","","","","","","","","","[{""page_index"":0,""viewing_time"":1161}]"
"","survey-multi-choice-replacement","87","1323954","0.0-41.1-0.1","05614684","wem/bandit_party_2","A3NHJPE6326P9V","either","2","2811","","","","","","","","","","","","","","","","","","","","","","","","Money will be added to the pool for <span style='color:blue;'>DEMOCRATS</span>","","","","","","","attn_check","","","","","","","","","0",""
"","instructions","88","1325841","0.0-41.1-1.1-0.1","05614684","wem/bandit_party_2","A3NHJPE6326P9V","either","2","884","","","","","","","","","","","","","","","","","","","","","","","","","","","","","","","","","","","","","","","","","[{""page_index"":0,""viewing_time"":884}]"
"","survey-multi-choice-replacement","89","1331226","0.0-41.2-0.2","05614684","wem/bandit_party_2","A3NHJPE6326P9V","either","2","4370","","","","","","","","","","","","","","","","","","","","","","","","Money will be subtracted from the pool for <span style='color:red;'>REPUBLICANS</span>","","","","","","","attn_check","","","","","","","","","1",""
"","instructions","90","1333225","0.0-41.2-1.2-0.2","05614684","wem/bandit_party_2","A3NHJPE6326P9V","either","2","995","","","","","","","","","","","","","","","","","","","","","","","","","","","","","","","","","","","","","","","","","[{""page_index"":0,""viewing_time"":994}]"
"","survey-multi-choice-replacement","91","1336841","0.0-41.3-0.3","05614684","wem/bandit_party_2","A3NHJPE6326P9V","either","2","2611","","","","","","","","","","","","","","","","","","","","","","","","No money will be added to either pool","","","","","","","attn_check","","","","","","","","","3",""
"","bandit","92","1342410","0.0-42.0-0.0","05614684","wem/bandit_party_2","A3NHJPE6326P9V","either","2","3050","","","","","","","0","1","0","","0.4841938304","0.6","0.8","0.2","0.4","0.4841938304","0.7092854079","0.9925337928","0.7961415707","","","","","","","","","","","","","","72","H","0","img/none_selected.jpg","","1","main_expt","",""
"","bandit","93","1346771","0.0-43.0-0.0","05614684","wem/bandit_party_2","A3NHJPE6326P9V","either","2","2847","","","","","","","0","1","0","","0.7343230146","0.6","0.8","0.2","0.4","0.5300888233","0.7343230146","0.9909612399","0.7739630809","","","","","","","","","","","","","","74","J","1","","","2","main_expt","",""
"","bandit","94","1348803","0.0-44.0-0.0","05614684","wem/bandit_party_2","A3NHJPE6326P9V","either","2","521","","","","","","","0","1","0","","0.9875934203","0.6","0.8","0.2","0.4","0.4747636274","0.7616266478","0.9875934203","0.807852523","","","","","","","","","","","","","","75","K","2","","","3","main_expt","",""
"","bandit","95","1350623","0.0-45.0-0.0","05614684","wem/bandit_party_2","A3NHJPE6326P9V","either","2","312","","","","","","","0","1","0","","0.7922386472","0.6","0.8","0.2","0.4","0.4841015375","0.7555889459","0.9782241123","0.7922386472","","","","","","","","","","","","","","76","L","3","","","4","main_expt","",""
"","bandit","96","1352479","0.0-46.0-0.0","05614684","wem/bandit_party_2","A3NHJPE6326P9V","either","2","350","","","","","","","0","1","0","","0.9756627961","0.6","0.8","0.2","0.4","0.5545204825","0.733520678","0.9756627961","0.865094385","","","","","","","","","","","","","","75","K","2","","","5","main_expt","",""
"","bandit","97","1354251","0.0-47.0-0.0","05614684","wem/bandit_party_2","A3NHJPE6326P9V","either","2","262","","","","","","","1","0","0","0.6705264102","","0.6","0.8","0.2","0.4","","","","","0.6032406034","0.6705264102","0.967089612","0.800956518","","","","","","","","","","74","J","1","","","6","main_expt","",""
"","bandit","98","1356106","0.0-48.0-0.0","05614684","wem/bandit_party_2","A3NHJPE6326P9V","either","2","342","","","","","","","0","0","1","0.6395389268","","0.6","0.8","0.2","0.4","","","","","0.6629125932","0.6395389268","0.9581374084","0.826484282","","","","","","","","","","74","J","1","","","7","main_expt","",""
"","bandit","99","1357978","0.0-49.0-0.0","05614684","wem/bandit_party_2","A3NHJPE6326P9V","either","2","357","","","","","","","1","0","0","0.6463283336","","0.6","0.8","0.2","0.4","","","","","0.6179372523","0.6463283336","0.9470057872","0.8721258401","","","","","","","","","","74","J","1","","","8","main_expt","",""
"","bandit","100","1359801","0.0-50.0-0.0","05614684","wem/bandit_party_2","A3NHJPE6326P9V","either","2","311","","","","","","","0","0","1","0.5257156782","","0.6","0.8","0.2","0.4","","","","","0.7126464358","0.5257156782","0.9776699295","0.9123847657","","","","","","","","","","74","J","1","","","9","main_expt","",""
"","bandit","101","1361809","0.0-51.0-0.0","05614684","wem/bandit_party_2","A3NHJPE6326P9V","either","2","495","","","","","","","0","0","1","0.4763364632","","0.6","0.8","0.2","0.4","","","","","0.7356985298","0.4763364632","0.9728878591","0.8996742502","","","","","","","","","","74","J","1","","","10","main_expt","",""
"","bandit","102","1363928","0.0-52.0-0.0","05614684","wem/bandit_party_2","A3NHJPE6326P9V","either","2","612","","","","","","","1","0","0","0.4284616273","","0.6","0.8","0.2","0.4","","","","","0.768711937","0.4284616273","0.9593139104","0.9131723876","","","","","","","","","","74","J","1","","","11","main_expt","",""
"","bandit","103","1365995","0.0-53.0-0.0","05614684","wem/bandit_party_2","A3NHJPE6326P9V","either","2","553","","","","","","","0","1","0","","0.3846657661","0.6","0.8","0.2","0.4","0.775032537","0.3846657661","0.9498917819","0.8766857583","","","","","","","","","","","","","","74","J","1","","","12","main_expt","",""
"","bandit","104","1367994","0.0-54.0-0.0","05614684","wem/bandit_party_2","A3NHJPE6326P9V","either","2","485","","","","","","","0","0","1","0.4534267517","","0.6","0.8","0.2","0.4","","","","","0.8005481332","0.4534267517","0.9541602679","0.8395211377","","","","","","","","","","74","J","1","","","13","main_expt","",""
"","bandit","105","1370314","0.0-55.0-0.0","05614684","wem/bandit_party_2","A3NHJPE6326P9V","either","2","804","","","","","","","0","1","0","","0.5781166702","0.6","0.8","0.2","0.4","0.8437703121","0.5781166702","0.9457654821","0.8716273459","","","","","","","","","","","","","","74","J","1","","","14","main_expt","",""
"","bandit","106","1374560","0.0-56.0-0.0","05614684","wem/bandit_party_2","A3NHJPE6326P9V","either","2","2736","","","","","","","1","0","0","0.6683268695","","0.6","0.8","0.2","0.4","","","","","0.7878475566","0.6683268695","0.961431504","0.8884181174","","","","","","","","","","74","J","1","","","15","main_expt","",""
"","bandit","107","1376492","0.0-57.0-0.0","05614684","wem/bandit_party_2","A3NHJPE6326P9V","either","2","422","","","","","","","1","0","0","0.6948649322","","0.6","0.8","0.2","0.4","","","","","0.7873795395","0.6948649322","0.9614480804","0.9144873871","","","","","","","","","","74","J","1","","","16","main_expt","",""
"","bandit","108","1378727","0.0-58.0-0.0","05614684","wem/bandit_party_2","A3NHJPE6326P9V","either","2","724","","","","","","","1","0","0","0.7674725463","","0.6","0.8","0.2","0.4","","","","","0.8084550093","0.7674725463","0.981184269","0.915766025","","","","","","","","","","74","J","1","","","17","main_expt","",""
"","bandit","109","1380784","0.0-59.0-0.0","05614684","wem/bandit_party_2","A3NHJPE6326P9V","either","2","550","","","","","","","1","0","0","0.7706733977","","0.6","0.8","0.2","0.4","","","","","0.8436933745","0.7706733977","0.9861919244","0.9357816117","","","","","","","","","","74","J","1","","","18","main_expt","",""
"","bandit","110","1382673","0.0-60.0-0.0","05614684","wem/bandit_party_2","A3NHJPE6326P9V","either","2","382","","","","","","","1","0","0","0.7396491891","","0.6","0.8","0.2","0.4","","","","","0.8059530903","0.7396491891","0.986789567","0.9482019282","","","","","","","","","","74","J","1","","","19","main_expt","",""
"","bandit","111","1384506","0.0-61.0-0.0","05614684","wem/bandit_party_2","A3NHJPE6326P9V","either","2","324","","","","","","","1","0","0","0.6712916173","","0.6","0.8","0.2","0.4","","","","","0.7839513496","0.6712916173","0.986183881","0.9433726768","","","","","","","","","","74","J","1","","","20","main_expt","",""
"","bandit","112","1386314","0.0-62.0-0.0","05614684","wem/bandit_party_2","A3NHJPE6326P9V","either","2","296","","","","","","","1","0","0","0.6728887443","","0.6","0.8","0.2","0.4","","","","","0.7841815244","0.6728887443","0.9887099493","0.9488284628","","","","","","","","","","74","J","1","","","21","main_expt","",""
"","bandit","113","1388066","0.0-63.0-0.0","05614684","wem/bandit_party_2","A3NHJPE6326P9V","either","2","236","","","","","","","1","0","0","0.7838502077","","0.6","0.8","0.2","0.4","","","","","0.8256278583","0.7838502077","0.992558567","0.9500515088","","","","","","","","","","74","J","1","","","22","main_expt","",""
"","bandit","114","1390346","0.0-64.0-0.0","05614684","wem/bandit_party_2","A3NHJPE6326P9V","either","2","766","","","","","","","0","1","0","","0.8711917965","0.6","0.8","0.2","0.4","0.7043778873","0.8711917965","0.9906074595","0.9645760881","","","","","","","","","","","","","","74","J","1","","","23","main_expt","",""
"","bandit","115","1392100","0.0-65.0-0.0","05614684","wem/bandit_party_2","A3NHJPE6326P9V","either","2","243","","","","","","","0","1","0","","0.861124964","0.6","0.8","0.2","0.4","0.7662705475","0.861124964","0.9828703082","0.946785539","","","","","","","","","","","","","","74","J","1","","","24","main_expt","",""
"","bandit","116","1394003","0.0-66.0-0.0","05614684","wem/bandit_party_2","A3NHJPE6326P9V","either","2","387","","","","","","","0","1","0","","0.984618899","0.6","0.8","0.2","0.4","0.6915147264","0.8551403996","0.984618899","0.9229473608","","","","","","","","","","","","","","75","K","2","","","25","main_expt","",""
"","bandit","117","1395842","0.0-67.0-0.0","05614684","wem/bandit_party_2","A3NHJPE6326P9V","either","2","323","","","","","","","0","0","1","","0.8729820127","0.6","0.8","0.2","0.4","0.6844606422","0.8959771014","0.9780938917","0.8729820127","","","","","","","","","","","","","","76","L","3","","","26","main_expt","",""
"","bandit","118","1398043","0.0-68.0-0.0","05614684","wem/bandit_party_2","A3NHJPE6326P9V","either","2","692","","","","","","","1","0","0","0.7953701942","","0.6","0.8","0.2","0.4","","","","","0.7953701942","0.8786292531","0.9634866904","0.859067388","","","","","","","","","","72","H","0","img/none_selected.jpg","","27","main_expt","",""
"","bandit","119","1399843","0.0-69.0-0.0","05614684","wem/bandit_party_2","A3NHJPE6326P9V","either","2","284","","","","","","","0","0","1","0.622657036","","0.6","0.8","0.2","0.4","","","","","0.622657036","0.8920593834","0.946494378","0.836267867","","","","","","","","","","72","H","0","img/none_selected.jpg","","28","main_expt","",""
"","bandit","120","1401690","0.0-70.0-0.0","05614684","wem/bandit_party_2","A3NHJPE6326P9V","either","2","333","","","","","","","0","0","1","0.8234517222","","0.6","0.8","0.2","0.4","","","","","0.5757463716","0.8234517222","0.9338647731","0.7158546556","","","","","","","","","","74","J","1","","","29","main_expt","",""
"","bandit","121","1403561","0.0-71.0-0.0","05614684","wem/bandit_party_2","A3NHJPE6326P9V","either","2","357","","","","","","","0","1","0","","0.9354801528","0.6","0.8","0.2","0.4","0.6048158844","0.7963444676","0.9354801528","0.7262950886","","","","","","","","","","","","","","75","K","2","","","30","main_expt","",""
"","bandit","122","1405388","0.0-72.0-0.0","05614684","wem/bandit_party_2","A3NHJPE6326P9V","either","2","316","","","","","","","0","1","0","","0.7049485024","0.6","0.8","0.2","0.4","0.4831208743","0.6847131082","0.9323861487","0.7049485024","","","","","","","","","","","","","","76","L","3","","","31","main_expt","",""
"","bandit","123","1407183","0.0-73.0-0.0","05614684","wem/bandit_party_2","A3NHJPE6326P9V","either","2","283","","","","","","","1","0","0","0.9159531952","","0.6","0.8","0.2","0.4","","","","","0.4413454117","0.7745616343","0.9159531952","0.6294605358","","","","","","","","","","75","K","2","","","32","main_expt","",""
"","bandit","124","1409041","0.0-74.0-0.0","05614684","wem/bandit_party_2","A3NHJPE6326P9V","either","2","349","","","","","","","0","1","0","","0.9501333659","0.6","0.8","0.2","0.4","0.589686364","0.8111568365","0.9501333659","0.7097184707","","","","","","","","","","","","","","75","K","2","","","33","main_expt","",""
"","bandit","125","1410896","0.0-75.0-0.0","05614684","wem/bandit_party_2","A3NHJPE6326P9V","either","2","341","","","","","","","0","0","1","0.7291364049","","0.6","0.8","0.2","0.4","","","","","0.5789977489","0.7291364049","0.9485118263","0.6324728327","","","","","","","","","","74","J","1","","","34","main_expt","",""
"","bandit","126","1412729","0.0-76.0-0.0","05614684","wem/bandit_party_2","A3NHJPE6326P9V","either","2","320","","","","","","","0","0","1","0.5605822786","","0.6","0.8","0.2","0.4","","","","","0.5605822786","0.7920219322","0.959491173","0.6809104991","","","","","","","","","","72","H","0","img/none_selected.jpg","","35","main_expt","",""
"","bandit","127","1414473","0.0-77.0-0.0","05614684","wem/bandit_party_2","A3NHJPE6326P9V","either","2","235","","","","","","","1","0","0","0.7889809596","","0.6","0.8","0.2","0.4","","","","","0.3330948712","0.7889809596","0.9523687656","0.5745256001","","","","","","","","","","74","J","1","","","36","main_expt","",""
"","bandit","128","1416473","0.0-78.0-0.0","05614684","wem/bandit_party_2","A3NHJPE6326P9V","either","2","487","","","","","","","1","0","0","0.8060385269","","0.6","0.8","0.2","0.4","","","","","0.2430176499","0.8060385269","0.9504344127","0.6249275122","","","","","","","","","","74","J","1","","","37","main_expt","",""
"","bandit","129","1418310","0.0-79.0-0.0","05614684","wem/bandit_party_2","A3NHJPE6326P9V","either","2","317","","","","","","","0","0","1","","0.7188782676","0.6","0.8","0.2","0.4","0.3106083343","0.7188782676","0.9321408283","0.5582777804","","","","","","","","","","","","","","74","J","1","","","38","main_expt","",""
"","bandit","130","1420134","0.0-80.0-0.0","05614684","wem/bandit_party_2","A3NHJPE6326P9V","either","2","313","","","","","","","0","1","0","","0.9135525369","0.6","0.8","0.2","0.4","0.3239447463","0.7387945131","0.9135525369","0.6619895395","","","","","","","","","","","","","","75","K","2","","","39","main_expt","",""
"","bandit","131","1422074","0.0-81.0-0.0","05614684","wem/bandit_party_2","A3NHJPE6326P9V","either","2","431","","","","","","","1","0","0","0.2946631509","","0.6","0.8","0.2","0.4","","","","","0.2946631509","0.7478035428","0.8840916364","0.6522152691","","","","","","","","","","72","H","0","img/none_selected.jpg","","40","main_expt","",""
"","bandit","132","1423889","0.0-82.0-0.0","05614684","wem/bandit_party_2","A3NHJPE6326P9V","either","2","301","","","","","","","0","0","1","","0.193597671","0.6","0.8","0.2","0.4","0.193597671","0.7802386085","0.8747037504","0.6714070371","","","","","","","","","","","","","","72","H","0","img/none_selected.jpg","","41","main_expt","",""
"","bandit","133","1425839","0.0-83.0-0.0","05614684","wem/bandit_party_2","A3NHJPE6326P9V","either","2","433","","","","","","","0","0","1","","0.1834529884","0.6","0.8","0.2","0.4","0.1834529884","0.7994277013","0.826315498","0.6390104416","","","","","","","","","","","","","","72","H","0","img/none_selected.jpg","","42","main_expt","",""
"","bandit","134","1428113","0.0-84.0-0.0","05614684","wem/bandit_party_2","A3NHJPE6326P9V","either","2","758","","","","","","","0","0","1","","0.1558663495","0.6","0.8","0.2","0.4","0.1558663495","0.8718069658","0.7681371561","0.6318841448","","","","","","","","","","","","","","72","H","0","img/none_selected.jpg","","43","main_expt","",""
"","bandit","135","1430173","0.0-85.0-0.0","05614684","wem/bandit_party_2","A3NHJPE6326P9V","either","2","542","","","","","","","0","0","1","0.1573065196","","0.6","0.8","0.2","0.4","","","","","0.1573065196","0.7725207311","0.7584360225","0.5708139437","","","","","","","","","","72","H","0","img/none_selected.jpg","","44","main_expt","",""
"","bandit","136","1431986","0.0-86.0-0.0","05614684","wem/bandit_party_2","A3NHJPE6326P9V","either","2","297","","","","","","","1","0","0","0.8399140445","","0.6","0.8","0.2","0.4","","","","","0.1743203636","0.8399140445","0.816959585","0.5703812278","","","","","","","","","","74","J","1","","","45","main_expt","",""
"","bandit","137","1434201","0.0-87.0-0.0","05614684","wem/bandit_party_2","A3NHJPE6326P9V","either","2","699","","","","","","","1","0","0","0.7830678696","","0.6","0.8","0.2","0.4","","","","","0.1234040722","0.7830678696","0.7571269921","0.4520700595","","","","","","","","","","74","J","1","","","46","main_expt","",""
"","bandit","138","1436344","0.0-88.0-0.0","05614684","wem/bandit_party_2","A3NHJPE6326P9V","either","2","629","","","","","","","1","0","0","0.8255209912","","0.6","0.8","0.2","0.4","","","","","0.1592846429","0.8255209912","0.7086567283","0.4953600952","","","","","","","","","","74","J","1","","","47","main_expt","",""
"","bandit","139","1438153","0.0-89.0-0.0","05614684","wem/bandit_party_2","A3NHJPE6326P9V","either","2","300","","","","","","","0","1","0","","0.7728754614","0.6","0.8","0.2","0.4","0.1880090658","0.7728754614","0.6428227569","0.4912921637","","","","","","","","","","","","","","74","J","1","","","48","main_expt","",""
"","bandit","140","1440115","0.0-90.0-0.0","05614684","wem/bandit_party_2","A3NHJPE6326P9V","either","2","446","","","","","","","0","0","1","0.3190576765","","0.6","0.8","0.2","0.4","","","","","0.3190576765","0.8607162984","0.7004196772","0.4694413912","","","","","","","","","","72","H","0","img/none_selected.jpg","","49","main_expt","",""
"","bandit","141","1442108","0.0-91.0-0.0","05614684","wem/bandit_party_2","A3NHJPE6326P9V","either","2","479","","","","","","","0","0","1","","0.6418514465","0.6","0.8","0.2","0.4","0.277770718","0.8526113732","0.6418514465","0.5835687148","","","","","","","","","","","","","","75","K","2","","","50","main_expt","",""
"","bandit","142","1443914","0.0-92.0-0.0","05614684","wem/bandit_party_2","A3NHJPE6326P9V","either","2","290","","","","","","","0","0","1","0.581499138","","0.6","0.8","0.2","0.4","","","","","0.3304163056","0.8630835666","0.6322169777","0.581499138","","","","","","","","","","76","L","3","","","51","main_expt","",""
"","bandit","143","1445851","0.0-93.0-0.0","05614684","wem/bandit_party_2","A3NHJPE6326P9V","either","2","419","","","","","","","1","0","0","0.8689990829","","0.6","0.8","0.2","0.4","","","","","0.3074301744","0.8689990829","0.6160259873","0.6521379128","","","","","","","","","","74","J","1","","","52","main_expt","",""
"","bandit","144","1447689","0.0-94.0-0.0","05614684","wem/bandit_party_2","A3NHJPE6326P9V","either","2","323","","","","","","","1","0","0","0.8829627288","","0.6","0.8","0.2","0.4","","","","","0.3292402402","0.8829627288","0.6635838846","0.5743957808","","","","","","","","","","74","J","1","","","53","main_expt","",""
"","bandit","145","1450044","0.0-95.0-0.0","05614684","wem/bandit_party_2","A3NHJPE6326P9V","either","2","836","","","","","","","1","0","0","0.8577096669","","0.6","0.8","0.2","0.4","","","","","0.3701383524","0.8577096669","0.7334380463","0.4765250731","","","","","","","","","","74","J","1","","","54","main_expt","",""
"","bandit","146","1452483","0.0-96.0-0.0","05614684","wem/bandit_party_2","A3NHJPE6326P9V","either","2","924","","","","","","","1","0","0","0.7951355038","","0.6","0.8","0.2","0.4","","","","","0.4023440482","0.7951355038","0.6625049704","0.472038817","","","","","","","","","","74","J","1","","","55","main_expt","",""
"","bandit","147","1454458","0.0-97.0-0.0","05614684","wem/bandit_party_2","A3NHJPE6326P9V","either","2","461","","","","","","","0","0","1","","0.7832403428","0.6","0.8","0.2","0.4","0.3320470731","0.7832403428","0.6244126183","0.6060805283","","","","","","","","","","","","","","74","J","1","","","56","main_expt","",""
"","bandit","148","1456393","0.0-98.0-0.0","05614684","wem/bandit_party_2","A3NHJPE6326P9V","either","2","419","","","","","","","1","0","0","0.3398704556","","0.6","0.8","0.2","0.4","","","","","0.3398704556","0.7165346004","0.693445159","0.5733746242","","","","","","","","","","72","H","0","img/none_selected.jpg","","57","main_expt","",""
"","bandit","149","1458251","0.0-99.0-0.0","05614684","wem/bandit_party_2","A3NHJPE6326P9V","either","2","340","","","","","","","0","0","1","","0.3171476707","0.6","0.8","0.2","0.4","0.3171476707","0.7840704931","0.6603141298","0.5268086549","","","","","","","","","","","","","","72","H","0","img/none_selected.jpg","","58","main_expt","",""
"","bandit","150","1460008","0.0-100.0-0.0","05614684","wem/bandit_party_2","A3NHJPE6326P9V","either","2","239","","","","","","","0","0","1","0.7166558068","","0.6","0.8","0.2","0.4","","","","","0.1868584885","0.7166558068","0.6435133917","0.5298916697","","","","","","","","","","74","J","1","","","59","main_expt","",""
"","bandit","151","1462401","0.0-101.0-0.0","05614684","wem/bandit_party_2","A3NHJPE6326P9V","either","2","885","","","","","","","0","0","1","","0.2163153633","0.6","0.8","0.2","0.4","0.2163153633","0.6505055492","0.6720075741","0.5547432704","","","","","","","","","","","","","","72","H","0","img/none_selected.jpg","","60","main_expt","",""
"","bandit","152","1464525","0.0-102.0-0.0","05614684","wem/bandit_party_2","A3NHJPE6326P9V","either","2","608","","","","","","","1","0","0","0.6465946667","","0.6","0.8","0.2","0.4","","","","","0.2086512551","0.6465946667","0.6703611074","0.5407031957","","","","","","","","","","74","J","1","","","61","main_expt","",""
"","bandit","153","1466762","0.0-103.0-0.0","05614684","wem/bandit_party_2","A3NHJPE6326P9V","either","2","720","","","","","","","1","0","0","0.709990362","","0.6","0.8","0.2","0.4","","","","","0.2250062338","0.709990362","0.64477312","0.6993449034","","","","","","","","","","74","J","1","","","62","main_expt","",""
"","bandit","154","1468695","0.0-104.0-0.0","05614684","wem/bandit_party_2","A3NHJPE6326P9V","either","2","419","","","","","","","1","0","0","0.7542168012","","0.6","0.8","0.2","0.4","","","","","0.2739380208","0.7542168012","0.509049177","0.6342967703","","","","","","","","","","74","J","1","","","63","main_expt","",""
"","bandit","155","1471087","0.0-105.0-0.0","05614684","wem/bandit_party_2","A3NHJPE6326P9V","either","2","882","","","","","","","0","1","0","","0.7660604158","0.6","0.8","0.2","0.4","0.3449536465","0.7660604158","0.5535424332","0.5961490325","","","","","","","","","","","","","","74","J","1","","","64","main_expt","",""
"","bandit","156","1473560","0.0-106.0-0.0","05614684","wem/bandit_party_2","A3NHJPE6326P9V","either","2","957","","","","","","","0","0","1","","0.34640195","0.6","0.8","0.2","0.4","0.34640195","0.7572602099","0.6608621899","0.5771190674","","","","","","","","","","","","","","72","H","0","img/none_selected.jpg","","65","main_expt","",""
"","bandit","157","1476453","0.0-107.0-0.0","05614684","wem/bandit_party_2","A3NHJPE6326P9V","either","2","1373","","","","","","","0","0","1","0.5266288285","","0.6","0.8","0.2","0.4","","","","","0.5266288285","0.686926195","0.6535341977","0.4765921407","","","","","","","","","","72","H","0","img/none_selected.jpg","","66","main_expt","",""
"","bandit","158","1478457","0.0-108.0-0.0","05614684","wem/bandit_party_2","A3NHJPE6326P9V","either","2","489","","","","","","","0","0","1","","0.7334195653","0.6","0.8","0.2","0.4","0.5588671697","0.7334195653","0.6592628399","0.5714361875","","","","","","","","","","","","","","74","J","1","","","67","main_expt","",""
"","bandit","159","1480737","0.0-109.0-0.0","05614684","wem/bandit_party_2","A3NHJPE6326P9V","either","2","763","","","","","","","0","0","1","0.6735013879","","0.6","0.8","0.2","0.4","","","","","0.6097536784","0.6114245881","0.6735013879","0.6231829193","","","","","","","","","","75","K","2","","","68","main_expt","",""
"","bandit","160","1483205","0.0-110.0-0.0","05614684","wem/bandit_party_2","A3NHJPE6326P9V","either","2","950","","","","","","","1","0","0","0.6460921668","","0.6","0.8","0.2","0.4","","","","","0.533457584","0.6460921668","0.7209687993","0.5130256365","","","","","","","","","","74","J","1","","","69","main_expt","",""
"","bandit","161","1485282","0.0-111.0-0.0","05614684","wem/bandit_party_2","A3NHJPE6326P9V","either","2","561","","","","","","","0","1","0","","0.6700702736","0.6","0.8","0.2","0.4","0.4124750721","0.6700702736","0.690528825","0.5167166","","","","","","","","","","","","","","74","J","1","","","70","main_expt","",""
"","bandit","162","1487514","0.0-112.0-0.0","05614684","wem/bandit_party_2","A3NHJPE6326P9V","either","2","716","","","","","","","0","0","1","0.4486526525","","0.6","0.8","0.2","0.4","","","","","0.4486526525","0.6388012411","0.6453310316","0.6448170737","","","","","","","","","","72","H","0","img/none_selected.jpg","","71","main_expt","",""
"","bandit","163","1490376","0.0-113.0-0.0","05614684","wem/bandit_party_2","A3NHJPE6326P9V","either","2","1348","","","","","","","0","1","0","","0.5640434706","0.6","0.8","0.2","0.4","0.4313602212","0.6046900378","0.8140348339","0.5640434706","","","","","","","","","","","","","","76","L","3","","","72","main_expt","",""
"","bandit","164","1492650","0.0-114.0-0.0","05614684","wem/bandit_party_2","A3NHJPE6326P9V","either","2","754","","","","","","","1","0","0","0.6062428704","","0.6","0.8","0.2","0.4","","","","","0.3639072561","0.6062428704","0.820931829","0.6296110197","","","","","","","","","","74","J","1","","","73","main_expt","",""
"","bandit","165","1494634","0.0-115.0-0.0","05614684","wem/bandit_party_2","A3NHJPE6326P9V","either","2","472","","","","","","","1","0","0","0.6237194739","","0.6","0.8","0.2","0.4","","","","","0.2882181569","0.6237194739","0.8096233945","0.6730210969","","","","","","","","","","74","J","1","","","74","main_expt","",""
"","bandit","166","1497801","0.0-116.0-0.0","05614684","wem/bandit_party_2","A3NHJPE6326P9V","either","2","1652","","","","","","","1","0","0","0.5971007372","","0.6","0.8","0.2","0.4","","","","","0.3561187133","0.5971007372","0.7615001707","0.5720403827","","","","","","","","","","74","J","1","","","75","main_expt","",""
"","bandit","167","1500114","0.0-117.0-0.0","05614684","wem/bandit_party_2","A3NHJPE6326P9V","either","2","795","","","","","","","1","0","0","0.5810032438","","0.6","0.8","0.2","0.4","","","","","0.4480894403","0.5810032438","0.8147365981","0.6303512149","","","","","","","","","","74","J","1","","","76","main_expt","",""
"","bandit","168","1502564","0.0-118.0-0.0","05614684","wem/bandit_party_2","A3NHJPE6326P9V","either","2","932","","","","","","","1","0","0","0.5792233978","","0.6","0.8","0.2","0.4","","","","","0.3220850356","0.5792233978","0.8926338818","0.5531797874","","","","","","","","","","74","J","1","","","77","main_expt","",""
"","bandit","169","1505355","0.0-119.0-0.0","05614684","wem/bandit_party_2","A3NHJPE6326P9V","either","2","1273","","","","","","","0","0","1","0.692511921","","0.6","0.8","0.2","0.4","","","","","0.3281133775","0.692511921","0.8669072201","0.5449672882","","","","","","","","","","74","J","1","","","78","main_expt","",""
"","bandit","170","1507770","0.0-120.0-0.0","05614684","wem/bandit_party_2","A3NHJPE6326P9V","either","2","881","","","","","","","0","0","1","0.3814329202","","0.6","0.8","0.2","0.4","","","","","0.3814329202","0.7019625083","0.9114006046","0.4484013318","","","","","","","","","","72","H","0","img/none_selected.jpg","","79","main_expt","",""
"","bandit","171","1510869","0.0-121.0-0.0","05614684","wem/bandit_party_2","A3NHJPE6326P9V","either","2","1588","","","","","","","1","0","0","0.3512572076","","0.6","0.8","0.2","0.4","","","","","0.3512572076","0.6785675641","0.9268398106","0.5041425745","","","","","","","","","","72","H","0","img/none_selected.jpg","","80","main_expt","",""
"","bandit","172","1513943","0.0-122.0-0.0","05614684","wem/bandit_party_2","A3NHJPE6326P9V","either","2","1556","","","","","","","1","0","0","0.3624285329","","0.6","0.8","0.2","0.4","","","","","0.3624285329","0.7101061672","0.9582858862","0.3462078978","","","","","","","","","","72","H","0","img/none_selected.jpg","","81","main_expt","",""
"","bandit","173","1516857","0.0-123.0-0.0","05614684","wem/bandit_party_2","A3NHJPE6326P9V","either","2","1403","","","","","","","0","0","1","","0.3111883408","0.6","0.8","0.2","0.4","0.3111883408","0.7217376576","0.9590071975","0.3226795418","","","","","","","","","","","","","","72","H","0","img/none_selected.jpg","","82","main_expt","",""
"","bandit","174","1519368","0.0-124.0-0.0","05614684","wem/bandit_party_2","A3NHJPE6326P9V","either","2","1002","","","","","","","0","0","1","0.6437777395","","0.6","0.8","0.2","0.4","","","","","0.243162563","0.6437777395","0.9379973093","0.3023868023","","","","","","","","","","74","J","1","","","83","main_expt","",""
"","bandit","175","1524012","0.0-125.0-0.0","05614684","wem/bandit_party_2","A3NHJPE6326P9V","either","2","3132","","","","","","","1","0","0","0.347146949","","0.6","0.8","0.2","0.4","","","","","0.347146949","0.6533183273","0.9411979228","0.4040419094","","","","","","","","","","72","H","0","img/none_selected.jpg","","84","main_expt","",""
"","bandit","176","1527904","0.0-126.0-0.0","05614684","wem/bandit_party_2","A3NHJPE6326P9V","either","2","2376","","","","","","","1","0","0","0.7469548387","","0.6","0.8","0.2","0.4","","","","","0.4416309426","0.7469548387","0.9441700551","0.4716136817","","","","","","","","","","74","J","1","","","85","main_expt","",""
"","bandit","177","1532923","0.0-127.0-0.0","05614684","wem/bandit_party_2","A3NHJPE6326P9V","either","2","3502","","","","","","","0","0","1","","0.4523797492","0.6","0.8","0.2","0.4","0.4523797492","0.7366570046","0.9323605113","0.4455883603","","","","","","","","","","","","","","72","H","0","img/none_selected.jpg","","86","main_expt","",""
"","bandit","178","1541803","0.0-128.0-0.0","05614684","wem/bandit_party_2","A3NHJPE6326P9V","either","2","7362","","","","","","","0","0","1","0.4621103264","","0.6","0.8","0.2","0.4","","","","","0.4621103264","0.7142428019","0.8871332711","0.5952575165","","","","","","","","","","72","H","0","img/none_selected.jpg","","87","main_expt","",""
"","bandit","179","1544961","0.0-129.0-0.0","05614684","wem/bandit_party_2","A3NHJPE6326P9V","either","2","1639","","","","","","","1","0","0","0.3800084876","","0.6","0.8","0.2","0.4","","","","","0.3800084876","0.7057172343","0.8520973281","0.5333825583","","","","","","","","","","72","H","0","img/none_selected.jpg","","88","main_expt","",""
"","bandit","180","1547155","0.0-130.0-0.0","05614684","wem/bandit_party_2","A3NHJPE6326P9V","either","2","676","","","","","","","0","0","1","","0.2354372355","0.6","0.8","0.2","0.4","0.2354372355","0.7289934888","0.7882210871","0.4583166828","","","","","","","","","","","","","","72","H","0","img/none_selected.jpg","","89","main_expt","",""
"","bandit","181","1549348","0.0-131.0-0.0","05614684","wem/bandit_party_2","A3NHJPE6326P9V","either","2","674","","","","","","","1","0","0","0.7475354559","","0.6","0.8","0.2","0.4","","","","","0.2978482647","0.7475354559","0.720110267","0.4782349553","","","","","","","","","","74","J","1","","","90","main_expt","",""
"","bandit","182","1551844","0.0-132.0-0.0","05614684","wem/bandit_party_2","A3NHJPE6326P9V","either","2","985","","","","","","","0","0","1","","0.6316706059","0.6","0.8","0.2","0.4","0.3723871884","0.6316706059","0.7390342074","0.464138054","","","","","","","","","","","","","","74","J","1","","","91","main_expt","",""
"","bandit","183","1554337","0.0-133.0-0.0","05614684","wem/bandit_party_2","A3NHJPE6326P9V","either","2","976","","","","","","","0","1","0","","0.8135224625","0.6","0.8","0.2","0.4","0.5400298203","0.6957908828","0.8135224625","0.5084128334","","","","","","","","","","","","","","75","K","2","","","92","main_expt","",""
"","bandit","184","1557153","0.0-134.0-0.0","05614684","wem/bandit_party_2","A3NHJPE6326P9V","either","2","1297","","","","","","","0","0","1","0.5211356389","","0.6","0.8","0.2","0.4","","","","","0.5134744583","0.6812665662","0.7814404678","0.5211356389","","","","","","","","","","76","L","3","","","93","main_expt","",""
"","bandit","185","1559108","0.0-135.0-0.0","05614684","wem/bandit_party_2","A3NHJPE6326P9V","either","2","443","","","","","","","0","0","1","0.4101580275","","0.6","0.8","0.2","0.4","","","","","0.4101580275","0.6412933588","0.7672416568","0.4554037602","","","","","","","","","","72","H","0","img/none_selected.jpg","","94","main_expt","",""
"","bandit","186","1561026","0.0-136.0-0.0","05614684","wem/bandit_party_2","A3NHJPE6326P9V","either","2","400","","","","","","","1","0","0","0.5696630174","","0.6","0.8","0.2","0.4","","","","","0.2995167601","0.5696630174","0.7573973965","0.4195046205","","","","","","","","","","74","J","1","","","95","main_expt","",""
"","bandit","187","1562977","0.0-137.0-0.0","05614684","wem/bandit_party_2","A3NHJPE6326P9V","either","2","434","","","","","","","1","0","0","0.6076398096","","0.6","0.8","0.2","0.4","","","","","0.2934894425","0.6076398096","0.8177369732","0.3638478563","","","","","","","","","","74","J","1","","","96","main_expt","",""
"","bandit","188","1564934","0.0-138.0-0.0","05614684","wem/bandit_party_2","A3NHJPE6326P9V","either","2","448","","","","","","","1","0","0","0.5551612935","","0.6","0.8","0.2","0.4","","","","","0.2802715202","0.5551612935","0.8124666872","0.2839735208","","","","","","","","","","74","J","1","","","97","main_expt","",""
"","bandit","189","1566812","0.0-139.0-0.0","05614684","wem/bandit_party_2","A3NHJPE6326P9V","either","2","366","","","","","","","1","0","0","0.6354974245","","0.6","0.8","0.2","0.4","","","","","0.2703087955","0.6354974245","0.881496875","0.2109275999","","","","","","","","","","74","J","1","","","98","main_expt","",""
"","bandit","190","1568699","0.0-140.0-0.0","05614684","wem/bandit_party_2","A3NHJPE6326P9V","either","2","370","","","","","","","0","0","1","0.5945745664","","0.6","0.8","0.2","0.4","","","","","0.3027543159","0.5945745664","0.8785981907","0.1531506719","","","","","","","","","","74","J","1","","","99","main_expt","",""
"","bandit","191","1570570","0.0-141.0-0.0","05614684","wem/bandit_party_2","A3NHJPE6326P9V","either","2","352","","","","","","","0","0","1","0.5679097985","","0.6","0.8","0.2","0.4","","","","","0.3645318829","0.5679097985","0.8494581726","0.1262108991","","","","","","","","","","74","J","1","","","100","main_expt","",""
"","bandit","192","1572442","0.0-142.0-0.0","05614684","wem/bandit_party_2","A3NHJPE6326P9V","either","2","352","","","","","","","0","0","1","","0.4315832637","0.6","0.8","0.2","0.4","0.4315832637","0.6430580454","0.7754784616","0.1340220502","","","","","","","","","","","","","","72","H","0","img/none_selected.jpg","","101","main_expt","",""
"","bandit","193","1574474","0.0-143.0-0.0","05614684","wem/bandit_party_2","A3NHJPE6326P9V","either","2","514","","","","","","","0","0","1","","0.7626736499","0.6","0.8","0.2","0.4","0.3608531129","0.6340200926","0.7626736499","0.2167126086","","","","","","","","","","","","","","75","K","2","","","102","main_expt","",""
"","bandit","194","1576161","0.0-144.0-0.0","05614684","wem/bandit_party_2","A3NHJPE6326P9V","either","2","177","","","","","","","0","0","1","0.6377668076","","0.6","0.8","0.2","0.4","","","","","0.3688981903","0.6377668076","0.7329996306","0.2796352144","","","","","","","","","","74","J","1","","","103","main_expt","",""
"","bandit","195","1578353","0.0-145.0-0.0","05614684","wem/bandit_party_2","A3NHJPE6326P9V","either","2","681","","","","","","","0","0","1","","0.3758155051","0.6","0.8","0.2","0.4","0.3758155051","0.6578341575","0.7467689404","0.3556406549","","","","","","","","","","","","","","72","H","0","img/none_selected.jpg","","104","main_expt","",""
"","bandit","196","1580980","0.0-146.0-0.0","05614684","wem/bandit_party_2","A3NHJPE6326P9V","either","2","1106","","","","","","","0","1","0","","0.4508947075","0.6","0.8","0.2","0.4","0.4508947075","0.6727034752","0.737018723","0.3233911601","","","","","","","","","","","","","","72","H","0","img/none_selected.jpg","","105","main_expt","",""
"","bandit","197","1583386","0.0-147.0-0.0","05614684","wem/bandit_party_2","A3NHJPE6326P9V","either","2","882","","","","","","","1","0","0","0.4132181144","","0.6","0.8","0.2","0.4","","","","","0.4132181144","0.6386482702","0.655194185","0.2024631506","","","","","","","","","","72","H","0","img/none_selected.jpg","","106","main_expt","",""
"","bandit","198","1585705","0.0-148.0-0.0","05614684","wem/bandit_party_2","A3NHJPE6326P9V","either","2","801","","","","","","","0","0","1","","0.4393512677","0.6","0.8","0.2","0.4","0.4393512677","0.6788938686","0.7122819559","0.2290393164","","","","","","","","","","","","","","72","H","0","img/none_selected.jpg","","107","main_expt","",""
"","bandit","199","1587656","0.0-149.0-0.0","05614684","wem/bandit_party_2","A3NHJPE6326P9V","either","2","434","","","","","","","1","0","0","0.7076498576","","0.6","0.8","0.2","0.4","","","","","0.4964319729","0.7076498576","0.7326995505","0.2217712157","","","","","","","","","","74","J","1","","","108","main_expt","",""
"","bandit","200","1592248","0.0-150.0-0.0","05614684","wem/bandit_party_2","A3NHJPE6326P9V","either","2","3068","","","","","","","0","1","0","","0.4790921069","0.6","0.8","0.2","0.4","0.4790921069","0.6932550908","0.7165499475","0.1566860935","","","","","","","","","","","","","","72","H","0","img/none_selected.jpg","","109","main_expt","",""
"","bandit","201","1594431","0.0-151.0-0.0","05614684","wem/bandit_party_2","A3NHJPE6326P9V","either","2","665","","","","","","","1","0","0","0.5856434505","","0.6","0.8","0.2","0.4","","","","","0.5856434505","0.7436061547","0.6058017554","0.1083987113","","","","","","","","","","72","H","0","img/none_selected.jpg","","110","main_expt","",""
"","bandit","202","1598358","0.0-152.0-0.0","05614684","wem/bandit_party_2","A3NHJPE6326P9V","either","2","2421","","","","","","","1","0","0","0.6444230696","","0.6","0.8","0.2","0.4","","","","","0.6444230696","0.657194241","0.5476823758","0.217828795","","","","","","","","","","72","H","0","img/none_selected.jpg","","111","main_expt","",""
"","bandit","203","1605463","0.0-153.0-0.0","05614684","wem/bandit_party_2","A3NHJPE6326P9V","either","2","5595","","","","","","","0","1","0","","0.603417252","0.6","0.8","0.2","0.4","0.603417252","0.6317228327","0.5688313193","0.2212119155","","","","","","","","","","","","","","72","H","0","img/none_selected.jpg","","112","main_expt","",""
"","bandit","204","1607794","0.0-154.0-0.0","05614684","wem/bandit_party_2","A3NHJPE6326P9V","either","2","820","","","","","","","0","0","1","","0.420613871","0.6","0.8","0.2","0.4","0.420613871","0.4985892417","0.50852785","0.2374112476","","","","","","","","","","","","","","72","H","0","img/none_selected.jpg","","113","main_expt","",""
"","bandit","205","1612807","0.0-155.0-0.0","05614684","wem/bandit_party_2","A3NHJPE6326P9V","either","2","3497","","","","","","","0","1","0","","0.2851569533","0.6","0.8","0.2","0.4","0.2851569533","0.579071345","0.5711084253","0.2703699348","","","","","","","","","","","","","","72","H","0","img/none_selected.jpg","","114","main_expt","",""
"","bandit","206","1624090","0.0-156.0-0.0","05614684","wem/bandit_party_2","A3NHJPE6326P9V","either","2","9768","","","","","","","1","0","0","0.3166589884","","0.6","0.8","0.2","0.4","","","","","0.3166589884","0.4595939904","0.4177754351","0.1928485376","","","","","","","","","","72","H","0","img/none_selected.jpg","","115","main_expt","",""
"","bandit","207","1633121","0.0-157.0-0.0","05614684","wem/bandit_party_2","A3NHJPE6326P9V","either","2","7514","","","","","","","0","0","1","0.3928451607","","0.6","0.8","0.2","0.4","","","","","0.3928451607","0.3744567546","0.387840809","0.136356343","","","","","","","","","","72","H","0","img/none_selected.jpg","","116","main_expt","",""
"","bandit","208","1635579","0.0-158.0-0.0","05614684","wem/bandit_party_2","A3NHJPE6326P9V","either","2","947","","","","","","","0","0","1","","0.302145019","0.6","0.8","0.2","0.4","0.560845346","0.302145019","0.4456731606","0.2193113504","","","","","","","","","","","","","","74","J","1","","","117","main_expt","",""
"","bandit","209","1638026","0.0-159.0-0.0","05614684","wem/bandit_party_2","A3NHJPE6326P9V","either","2","936","","","","","","","0","0","1","0.5536818424","","0.6","0.8","0.2","0.4","","","","","0.5536818424","0.3522466686","0.3045880574","0.2686792008","","","","","","","","","","72","H","0","img/none_selected.jpg","","118","main_expt","",""
"","bandit","210","1640353","0.0-160.0-0.0","05614684","wem/bandit_party_2","A3NHJPE6326P9V","either","2","809","","","","","","","0","0","1","0.4425542362","","0.6","0.8","0.2","0.4","","","","","0.3617659687","0.4425542362","0.3994134075","0.2668270476","","","","","","","","","","74","J","1","","","119","main_expt","",""
"","bandit","211","1642425","0.0-161.0-0.0","05614684","wem/bandit_party_2","A3NHJPE6326P9V","either","2","563","","","","","","","0","0","1","","0.351449483","0.6","0.8","0.2","0.4","0.3454740543","0.3377532805","0.351449483","0.3723992114","","","","","","","","","","","","","","75","K","2","","","120","main_expt","",""
"","bandit","212","1644530","0.0-162.0-0.0","05614684","wem/bandit_party_2","A3NHJPE6326P9V","either","2","588","","","","","","","0","0","1","","0.4001238515","0.6","0.8","0.2","0.4","0.2798257893","0.2929504356","0.3641911367","0.4001238515","","","","","","","","","","","","","","76","L","3","","","121","main_expt","",""
"","bandit","213","1646334","0.0-163.0-0.0","05614684","wem/bandit_party_2","A3NHJPE6326P9V","either","2","289","","","","","","","0","0","1","0.2504028886","","0.6","0.8","0.2","0.4","","","","","0.2261540995","0.2504028886","0.2673706252","0.4090120715","","","","","","","","","","74","J","1","","","122","main_expt","",""
"","bandit","214","1648288","0.0-164.0-0.0","05614684","wem/bandit_party_2","A3NHJPE6326P9V","either","2","445","","","","","","","0","0","1","","0.2766663047","0.6","0.8","0.2","0.4","0.2766663047","0.2414849785","0.3455372181","0.4746108064","","","","","","","","","","","","","","72","H","0","img/none_selected.jpg","","123","main_expt","",""
"","bandit","215","1650094","0.0-165.0-0.0","05614684","wem/bandit_party_2","A3NHJPE6326P9V","either","2","290","","","","","","","0","0","1","","0.3126864395","0.6","0.8","0.2","0.4","0.3126864395","0.1791255979","0.3524137631","0.453231646","","","","","","","","","","","","","","72","H","0","img/none_selected.jpg","","124","main_expt","",""
"","bandit","216","1652128","0.0-166.0-0.0","05614684","wem/bandit_party_2","A3NHJPE6326P9V","either","2","523","","","","","","","1","0","0","0.2772507379","","0.6","0.8","0.2","0.4","","","","","0.2772507379","0.1952456852","0.3680881866","0.4888945922","","","","","","","","","","72","H","0","img/none_selected.jpg","","125","main_expt","",""
"","bandit","217","1654386","0.0-167.0-0.0","05614684","wem/bandit_party_2","A3NHJPE6326P9V","either","2","738","","","","","","","0","0","1","0.2441417391","","0.6","0.8","0.2","0.4","","","","","0.2441417391","0.2614303707","0.2884444508","0.396932523","","","","","","","","","","72","H","0","img/none_selected.jpg","","126","main_expt","",""
"","bandit","218","1656322","0.0-168.0-0.0","05614684","wem/bandit_party_2","A3NHJPE6326P9V","either","2","416","","","","","","","0","0","1","","0.267511235","0.6","0.8","0.2","0.4","0.2304038214","0.267511235","0.2931854252","0.4026562496","","","","","","","","","","","","","","74","J","1","","","127","main_expt","",""
"","bandit","219","1658280","0.0-169.0-0.0","05614684","wem/bandit_party_2","A3NHJPE6326P9V","either","2","440","","","","","","","0","0","1","","0.3115494401","0.6","0.8","0.2","0.4","0.2463692943","0.2582460394","0.3115494401","0.3072143153","","","","","","","","","","","","","","75","K","2","","","128","main_expt","",""
"","bandit","220","1660203","0.0-170.0-0.0","05614684","wem/bandit_party_2","A3NHJPE6326P9V","either","2","405","","","","","","","0","0","1","0.249100023","","0.6","0.8","0.2","0.4","","","","","0.262841392","0.249100023","0.287093163","0.3024431642","","","","","","","","","","74","J","1","","","129","main_expt","",""
"","bandit","221","1662153","0.0-171.0-0.0","05614684","wem/bandit_party_2","A3NHJPE6326P9V","either","2","432","","","","","","","1","0","0","0.3044503748","","0.6","0.8","0.2","0.4","","","","","0.3044503748","0.2014680341","0.242368994","0.383823705","","","","","","","","","","72","H","0","img/none_selected.jpg","","130","main_expt","",""
"","bandit","222","1664170","0.0-172.0-0.0","05614684","wem/bandit_party_2","A3NHJPE6326P9V","either","2","501","","","","","","","0","0","1","","0.2231782293","0.6","0.8","0.2","0.4","0.2231782293","0.2514612397","0.3141093292","0.5448185218","","","","","","","","","","","","","","72","H","0","img/none_selected.jpg","","131","main_expt","",""
"","bandit","223","1666023","0.0-173.0-0.0","05614684","wem/bandit_party_2","A3NHJPE6326P9V","either","2","336","","","","","","","0","1","0","","0.265126842","0.6","0.8","0.2","0.4","0.265126842","0.1719215191","0.3186943837","0.5741986762","","","","","","","","","","","","","","72","H","0","img/none_selected.jpg","","132","main_expt","",""
"","bandit","224","1668458","0.0-174.0-0.0","05614684","wem/bandit_party_2","A3NHJPE6326P9V","either","2","916","","","","","","","0","0","1","","0.1996467811","0.6","0.8","0.2","0.4","0.1996467811","0.151851594","0.3218599317","0.54298015","","","","","","","","","","","","","","72","H","0","img/none_selected.jpg","","133","main_expt","",""
"","bandit","225","1670899","0.0-175.0-0.0","05614684","wem/bandit_party_2","A3NHJPE6326P9V","either","2","924","","","","","","","0","0","1","","0.1900899503","0.6","0.8","0.2","0.4","0.1900899503","0.1693242304","0.3372263261","0.5504084981","","","","","","","","","","","","","","72","H","0","img/none_selected.jpg","","134","main_expt","",""
"","bandit","226","1673375","0.0-176.0-0.0","05614684","wem/bandit_party_2","A3NHJPE6326P9V","either","2","957","","","","","","","0","0","1","","0.1541174352","0.6","0.8","0.2","0.4","0.172295534","0.1541174352","0.3515125386","0.4874659601","","","","","","","","","","","","","","74","J","1","","","135","main_expt","",""
"","bandit","227","1676439","0.0-177.0-0.0","05614684","wem/bandit_party_2","A3NHJPE6326P9V","either","2","1553","","","","","","","0","0","1","0.1171098277","","0.6","0.8","0.2","0.4","","","","","0.1171098277","0.1374012581","0.2312583875","0.3677382912","","","","","","","","","","72","H","0","img/none_selected.jpg","","136","main_expt","",""
"","bandit","228","1678849","0.0-178.0-0.0","05614684","wem/bandit_party_2","A3NHJPE6326P9V","either","2","895","","","","","","","0","0","1","","0.3496768842","0.6","0.8","0.2","0.4","0.1390909791","0.2889288236","0.3496768842","0.2944012193","","","","","","","","","","","","","","75","K","2","","","137","main_expt","",""
"","bandit","229","1681744","0.0-179.0-0.0","05614684","wem/bandit_party_2","A3NHJPE6326P9V","either","2","1383","","","","","","","0","1","0","","0.2177367931","0.6","0.8","0.2","0.4","0.1209370274","0.2177367931","0.4217982028","0.3020033879","","","","","","","","","","","","","","74","J","1","","","138","main_expt","",""
"","bandit","230","1684592","0.0-180.0-0.0","05614684","wem/bandit_party_2","A3NHJPE6326P9V","either","2","1338","","","","","","","0","1","0","","0.5123523738","0.6","0.8","0.2","0.4","0.1441291996","0.1704259453","0.5123523738","0.2908104057","","","","","","","","","","","","","","75","K","2","","","139","main_expt","",""
"","bandit","231","1687057","0.0-181.0-0.0","05614684","wem/bandit_party_2","A3NHJPE6326P9V","either","2","946","","","","","","","0","0","1","","0.1827322183","0.6","0.8","0.2","0.4","0.1380406349","0.1827322183","0.3892042576","0.2738290205","","","","","","","","","","","","","","74","J","1","","","140","main_expt","",""
"","bandit","232","1690754","0.0-182.0-0.0","05614684","wem/bandit_party_2","A3NHJPE6326P9V","either","2","2176","","","","","","","0","0","1","","0.2030288612","0.6","0.8","0.2","0.4","0.1312769784","0.2030288612","0.4680147771","0.3865798498","","","","","","","","","","","","","","74","J","1","","","141","main_expt","",""
"","bandit","233","1694649","0.0-183.0-0.0","05614684","wem/bandit_party_2","A3NHJPE6326P9V","either","2","2375","","","","","","","0","0","1","0.1760536641","","0.6","0.8","0.2","0.4","","","","","0.1880730553","0.1760536641","0.3970866904","0.3507917403","","","","","","","","","","74","J","1","","","142","main_expt","",""
"","bandit","234","1697406","0.0-184.0-0.0","05614684","wem/bandit_party_2","A3NHJPE6326P9V","either","2","1247","","","","","","","0","0","1","","0.3609481858","0.6","0.8","0.2","0.4","0.1798266991","0.1428921374","0.3609481858","0.2787839286","","","","","","","","","","","","","","75","K","2","","","143","main_expt","",""
"","bandit","235","1700290","0.0-185.0-0.0","05614684","wem/bandit_party_2","A3NHJPE6326P9V","either","2","1372","","","","","","","0","0","1","0.2106619402","","0.6","0.8","0.2","0.4","","","","","0.1881666754","0.1260474704","0.3701270871","0.2106619402","","","","","","","","","","76","L","3","","","144","main_expt","",""
"","bandit","236","1702416","0.0-186.0-0.0","05614684","wem/bandit_party_2","A3NHJPE6326P9V","either","2","608","","","","","","","0","0","1","","0.3110645609","0.6","0.8","0.2","0.4","0.1683386122","0.151337539","0.3110645609","0.3211677341","","","","","","","","","","","","","","75","K","2","","","145","main_expt","",""
"","bandit","237","1705034","0.0-187.0-0.0","05614684","wem/bandit_party_2","A3NHJPE6326P9V","either","2","1108","","","","","","","0","0","1","","0.356964637","0.6","0.8","0.2","0.4","0.2609121533","0.1600114734","0.356964637","0.4417580917","","","","","","","","","","","","","","75","K","2","","","146","main_expt","",""
"","bandit","238","1707542","0.0-188.0-0.0","05614684","wem/bandit_party_2","A3NHJPE6326P9V","either","2","983","","","","","","","0","0","1","0.1262446547","","0.6","0.8","0.2","0.4","","","","","0.280259565","0.1262446547","0.5143633813","0.278611551","","","","","","","","","","74","J","1","","","147","main_expt","",""
"","bandit","239","1710926","0.0-189.0-0.0","05614684","wem/bandit_party_2","A3NHJPE6326P9V","either","2","1875","","","","","","","0","1","0","","0.2972918914","0.6","0.8","0.2","0.4","0.2972918914","0.1030311585","0.5086187798","0.2811332351","","","","","","","","","","","","","","72","H","0","img/none_selected.jpg","","148","main_expt","",""
"","bandit","240","1712881","0.0-190.0-0.0","05614684","wem/bandit_party_2","A3NHJPE6326P9V","either","2","446","","","","","","","0","0","1","0.123834606","","0.6","0.8","0.2","0.4","","","","","0.3284309668","0.123834606","0.4676315778","0.2606345315","","","","","","","","","","74","J","1","","","149","main_expt","",""
"","bandit","241","1714829","0.0-191.0-0.0","05614684","wem/bandit_party_2","A3NHJPE6326P9V","either","2","430","","","","","","","0","1","0","","0.4737351686","0.6","0.8","0.2","0.4","0.3186890608","0.06566206942","0.4737351686","0.260677327","","","","","","","","","","","","","","75","K","2","","","150","main_expt","",""
"","bandit","242","1716730","0.0-192.0-0.0","05614684","wem/bandit_party_2","A3NHJPE6326P9V","either","2","379","","","","","","","0","1","0","","0.2579624968","0.6","0.8","0.2","0.4","0.3331747037","0.06342121736","0.5387476985","0.2579624968","","","","","","","","","","","","","","76","L","3","","","151","main_expt","",""
"","bandit","243","1718555","0.0-193.0-0.0","05614684","wem/bandit_party_2","A3NHJPE6326P9V","either","2","304","","","","","","","0","0","1","","0.5065138565","0.6","0.8","0.2","0.4","0.364096089","0.1162046696","0.5065138565","0.2536911072","","","","","","","","","","","","","","75","K","2","","","152","main_expt","",""
"","bandit","244","1720355","0.0-194.0-0.0","05614684","wem/bandit_party_2","A3NHJPE6326P9V","either","2","278","","","","","","","0","0","1","","0.1388943584","0.6","0.8","0.2","0.4","0.3189440566","0.1388943584","0.5190676077","0.1427943183","","","","","","","","","","","","","","74","J","1","","","153","main_expt","",""
"","bandit","245","1722151","0.0-195.0-0.0","05614684","wem/bandit_party_2","A3NHJPE6326P9V","either","2","278","","","","","","","0","0","1","","0.4944482457","0.6","0.8","0.2","0.4","0.486858514","0.1188489222","0.4944482457","0.08934943386","","","","","","","","","","","","","","75","K","2","","","154","main_expt","",""
"","bandit","246","1724035","0.0-196.0-0.0","05614684","wem/bandit_party_2","A3NHJPE6326P9V","either","2","362","","","","","","","0","0","1","0.1255079792","","0.6","0.8","0.2","0.4","","","","","0.398958755","0.1255079792","0.4987902374","0.1048919666","","","","","","","","","","74","J","1","","","155","main_expt","",""
"","bandit","247","1725968","0.0-197.0-0.0","05614684","wem/bandit_party_2","A3NHJPE6326P9V","either","2","425","","","","","","","1","0","0","0.3508932217","","0.6","0.8","0.2","0.4","","","","","0.3508932217","0.1705129017","0.4151199053","0.1348874752","","","","","","","","","","72","H","0","img/none_selected.jpg","","156","main_expt","",""
"","bandit","248","1727774","0.0-198.0-0.0","05614684","wem/bandit_party_2","A3NHJPE6326P9V","either","2","279","","","","","","","0","0","1","0.3736640956","","0.6","0.8","0.2","0.4","","","","","0.3736640956","0.1892203872","0.4215128153","0.1197456909","","","","","","","","","","72","H","0","img/none_selected.jpg","","157","main_expt","",""
"","bandit","249","1729575","0.0-199.0-0.0","05614684","wem/bandit_party_2","A3NHJPE6326P9V","either","2","280","","","","","","","0","0","1","0.1589595026","","0.6","0.8","0.2","0.4","","","","","0.3215678611","0.1589595026","0.3666899102","0.1343935597","","","","","","","","","","74","J","1","","","158","main_expt","",""
"","bandit","250","1731366","0.0-200.0-0.0","05614684","wem/bandit_party_2","A3NHJPE6326P9V","either","2","277","","","","","","","0","1","0","","0.3906786657","0.6","0.8","0.2","0.4","0.2732838962","0.1426383857","0.3906786657","0.04604274909","","","","","","","","","","","","","","75","K","2","","","159","main_expt","",""
"","bandit","251","1734377","0.0-201.0-0.0","05614684","wem/bandit_party_2","A3NHJPE6326P9V","either","2","1500","","","","","","","1","0","0","0.2323229575","","0.6","0.8","0.2","0.4","","","","","0.2323229575","0.2747613825","0.4769972016","0.08927965808","","","","","","","","","","72","H","0","img/none_selected.jpg","","160","main_expt","",""
"","bandit","252","1741553","0.0-202.0-0.0","05614684","wem/bandit_party_2","A3NHJPE6326P9V","either","2","5650","","","","","","","0","0","1","0.2046882866","","0.6","0.8","0.2","0.4","","","","","0.399022808","0.2046882866","0.4405879513","0.1038156196","","","","","","","","","","74","J","1","","","161","main_expt","",""
"","bandit","253","1743456","0.0-203.0-0.0","05614684","wem/bandit_party_2","A3NHJPE6326P9V","either","2","395","","","","","","","0","0","1","","0.44055992","0.6","0.8","0.2","0.4","0.4967313539","0.1715152701","0.44055992","0.1470739062","","","","","","","","","","","","","","75","K","2","","","162","main_expt","",""
"","bandit","254","1745924","0.0-204.0-0.0","05614684","wem/bandit_party_2","A3NHJPE6326P9V","either","2","948","","","","","","","0","0","1","0.2396687428","","0.6","0.8","0.2","0.4","","","","","0.5245029489","0.2396687428","0.3434222481","0.1214264794","","","","","","","","","","74","J","1","","","163","main_expt","",""
"","bandit","255","1748264","0.0-205.0-0.0","05614684","wem/bandit_party_2","A3NHJPE6326P9V","either","2","821","","","","","","","0","0","1","0.1563758897","","0.6","0.8","0.2","0.4","","","","","0.5808119749","0.3359744524","0.3862652833","0.1563758897","","","","","","","","","","76","L","3","","","164","main_expt","",""
"","bandit","256","1750111","0.0-206.0-0.0","05614684","wem/bandit_party_2","A3NHJPE6326P9V","either","2","326","","","","","","","0","1","0","","0.4270444342","0.6","0.8","0.2","0.4","0.6473032069","0.4940159592","0.4270444342","0.1311500467","","","","","","","","","","","","","","75","K","2","","","165","main_expt","",""
"","bandit","257","1751963","0.0-207.0-0.0","05614684","wem/bandit_party_2","A3NHJPE6326P9V","either","2","333","","","","","","","0","0","1","0.5922229292","","0.6","0.8","0.2","0.4","","","","","0.6790689848","0.5922229292","0.5073102058","0.1419689761","","","","","","","","","","74","J","1","","","166","main_expt","",""
"","bandit","258","1753788","0.0-208.0-0.0","05614684","wem/bandit_party_2","A3NHJPE6326P9V","either","2","301","","","","","","","0","1","0","","0.5562626425","0.6","0.8","0.2","0.4","0.5959653185","0.5562626425","0.5417092253","0.150246256","","","","","","","","","","","","","","74","J","1","","","167","main_expt","",""
"","bandit","259","1755735","0.0-209.0-0.0","05614684","wem/bandit_party_2","A3NHJPE6326P9V","either","2","426","","","","","","","0","0","1","0.2070971521","","0.6","0.8","0.2","0.4","","","","","0.361841396","0.6489587791","0.6505471885","0.2070971521","","","","","","","","","","76","L","3","","","168","main_expt","",""
"","bandit","260","1757721","0.0-210.0-0.0","05614684","wem/bandit_party_2","A3NHJPE6326P9V","either","2","464","","","","","","","0","0","1","","0.6226729341","0.6","0.8","0.2","0.4","0.2594844845","0.5652428614","0.6226729341","0.2564452127","","","","","","","","","","","","","","75","K","2","","","169","main_expt","",""
"","bandit","261","1759633","0.0-211.0-0.0","05614684","wem/bandit_party_2","A3NHJPE6326P9V","either","2","392","","","","","","","1","0","0","0.5344749526","","0.6","0.8","0.2","0.4","","","","","0.1987556041","0.5344749526","0.7574543886","0.2845729388","","","","","","","","","","74","J","1","","","170","main_expt","",""
"","bandit","262","1762439","0.0-212.0-0.0","05614684","wem/bandit_party_2","A3NHJPE6326P9V","either","2","1291","","","","","","","1","0","0","0.6364900983","","0.6","0.8","0.2","0.4","","","","","0.1583585206","0.6364900983","0.774201251","0.2360657399","","","","","","","","","","74","J","1","","","171","main_expt","",""
"","bandit","263","1764265","0.0-213.0-0.0","05614684","wem/bandit_party_2","A3NHJPE6326P9V","either","2","315","","","","","","","0","0","1","","0.5516193693","0.6","0.8","0.2","0.4","0.1494938987","0.5516193693","0.7739789177","0.3453554921","","","","","","","","","","","","","","74","J","1","","","172","main_expt","",""
"","bandit","264","1766630","0.0-214.0-0.0","05614684","wem/bandit_party_2","A3NHJPE6326P9V","either","2","845","","","","","","","1","0","0","0.5081608063","","0.6","0.8","0.2","0.4","","","","","0.1996494969","0.5081608063","0.7146420849","0.2909261263","","","","","","","","","","74","J","1","","","173","main_expt","",""
"","bandit","265","1771425","0.0-215.0-0.0","05614684","wem/bandit_party_2","A3NHJPE6326P9V","either","2","3285","","","","","","","1","0","0","0.5247340446","","0.6","0.8","0.2","0.4","","","","","0.2200767262","0.5247340446","0.683245412","0.3807546558","","","","","","","","","","74","J","1","","","174","main_expt","",""
"","bandit","266","1773932","0.0-216.0-0.0","05614684","wem/bandit_party_2","A3NHJPE6326P9V","either","2","992","","","","","","","1","0","0","0.5823110366","","0.6","0.8","0.2","0.4","","","","","0.1929710708","0.5823110366","0.7163731774","0.3889518003","","","","","","","","","","74","J","1","","","175","main_expt","",""
"","bandit","267","1776617","0.0-217.0-0.0","05614684","wem/bandit_party_2","A3NHJPE6326P9V","either","2","1173","","","","","","","1","0","0","0.7693722391","","0.6","0.8","0.2","0.4","","","","","0.1756556012","0.7693722391","0.6676116703","0.3662842853","","","","","","","","","","74","J","1","","","176","main_expt","",""
"","bandit","268","1779374","0.0-218.0-0.0","05614684","wem/bandit_party_2","A3NHJPE6326P9V","either","2","1238","","","","","","","1","0","0","0.8048595062","","0.6","0.8","0.2","0.4","","","","","0.2404611203","0.8048595062","0.711116056","0.3102656016","","","","","","","","","","74","J","1","","","177","main_expt","",""
"","bandit","269","1781574","0.0-219.0-0.0","05614684","wem/bandit_party_2","A3NHJPE6326P9V","either","2","679","","","","","","","0","1","0","","0.8147320782","0.6","0.8","0.2","0.4","0.1651874793","0.8147320782","0.6541247318","0.3272385177","","","","","","","","","","","","","","74","J","1","","","178","main_expt","",""
"","bandit","270","1784288","0.0-220.0-0.0","05614684","wem/bandit_party_2","A3NHJPE6326P9V","either","2","1191","","","","","","","0","1","0","","0.600925469","0.6","0.8","0.2","0.4","0.1297692321","0.7755432213","0.600925469","0.3185807274","","","","","","","","","","","","","","75","K","2","","","179","main_expt","",""
"","bandit","271","1787705","0.0-221.0-0.0","05614684","wem/bandit_party_2","A3NHJPE6326P9V","either","2","1893","","","","","","","0","0","1","0.7309951384","","0.6","0.8","0.2","0.4","","","","","0.1311169289","0.7309951384","0.6321701674","0.3896265469","","","","","","","","","","74","J","1","","","180","main_expt","",""
"","bandit","272","1790584","0.0-222.0-0.0","05614684","wem/bandit_party_2","A3NHJPE6326P9V","either","2","1368","","","","","","","0","1","0","","0.8068071681","0.6","0.8","0.2","0.4","0.2184653543","0.8068071681","0.7040606398","0.4381139349","","","","","","","","","","","","","","74","J","1","","","181","main_expt","",""
"","bandit","273","1794565","0.0-223.0-0.0","05614684","wem/bandit_party_2","A3NHJPE6326P9V","either","2","2473","","","","","","","0","1","0","","0.8096694819","0.6","0.8","0.2","0.4","0.156745214","0.8096694819","0.6551517927","0.4339703771","","","","","","","","","","","","","","74","J","1","","","182","main_expt","",""
"","bandit","274","1796864","0.0-224.0-0.0","05614684","wem/bandit_party_2","A3NHJPE6326P9V","either","2","787","","","","","","","0","0","1","","0.5270594011","0.6","0.8","0.2","0.4","0.07710569088","0.8522040983","0.7709035389","0.5270594011","","","","","","","","","","","","","","76","L","3","","","183","main_expt","",""
"","bandit","275","1798912","0.0-225.0-0.0","05614684","wem/bandit_party_2","A3NHJPE6326P9V","either","2","537","","","","","","","0","1","0","","0.7869666122","0.6","0.8","0.2","0.4","0.07901501252","0.8636776132","0.7869666122","0.4791569234","","","","","","","","","","","","","","75","K","2","","","184","main_expt","",""
"","bandit","276","1800902","0.0-226.0-0.0","05614684","wem/bandit_party_2","A3NHJPE6326P9V","either","2","464","","","","","","","1","0","0","0.8605951951","","0.6","0.8","0.2","0.4","","","","","0.05695362571","0.8605951951","0.804571828","0.464074867","","","","","","","","","","74","J","1","","","185","main_expt","",""
"","bandit","277","1802911","0.0-227.0-0.0","05614684","wem/bandit_party_2","A3NHJPE6326P9V","either","2","498","","","","","","","1","0","0","0.8578427848","","0.6","0.8","0.2","0.4","","","","","0.03796608352","0.8578427848","0.7866627628","0.4654947356","","","","","","","","","","74","J","1","","","186","main_expt","",""
"","bandit","278","1805082","0.0-228.0-0.0","05614684","wem/bandit_party_2","A3NHJPE6326P9V","either","2","659","","","","","","","1","0","0","0.8253306036","","0.6","0.8","0.2","0.4","","","","","0.05986429342","0.8253306036","0.8006736442","0.4338668179","","","","","","","","","","74","J","1","","","187","main_expt","",""
"","bandit","279","1807146","0.0-229.0-0.0","05614684","wem/bandit_party_2","A3NHJPE6326P9V","either","2","541","","","","","","","1","0","0","0.8118593573","","0.6","0.8","0.2","0.4","","","","","0.05827831728","0.8118593573","0.7687627789","0.4679469354","","","","","","","","","","74","J","1","","","188","main_expt","",""
"","bandit","280","1809187","0.0-230.0-0.0","05614684","wem/bandit_party_2","A3NHJPE6326P9V","either","2","515","","","","","","","1","0","0","0.8319104568","","0.6","0.8","0.2","0.4","","","","","0.06499387038","0.8319104568","0.7009429779","0.4645116859","","","","","","","","","","74","J","1","","","189","main_expt","",""
"","bandit","281","1811342","0.0-231.0-0.0","05614684","wem/bandit_party_2","A3NHJPE6326P9V","either","2","631","","","","","","","1","0","0","0.8949986836","","0.6","0.8","0.2","0.4","","","","","0.0878029059","0.8949986836","0.7531121838","0.4260553166","","","","","","","","","","74","J","1","","","190","main_expt","",""
"","bandit","282","1813403","0.0-232.0-0.0","05614684","wem/bandit_party_2","A3NHJPE6326P9V","either","2","535","","","","","","","1","0","0","0.9258368343","","0.6","0.8","0.2","0.4","","","","","0.1101088583","0.9258368343","0.6174616994","0.5323747461","","","","","","","","","","74","J","1","","","191","main_expt","",""
"","bandit","283","1815481","0.0-233.0-0.0","05614684","wem/bandit_party_2","A3NHJPE6326P9V","either","2","553","","","","","","","0","0","1","0.9221438833","","0.6","0.8","0.2","0.4","","","","","0.1559643099","0.9221438833","0.6331996982","0.6013900654","","","","","","","","","","74","J","1","","","192","main_expt","",""
"","bandit","284","1817655","0.0-234.0-0.0","05614684","wem/bandit_party_2","A3NHJPE6326P9V","either","2","665","","","","","","","1","0","0","0.878376231","","0.6","0.8","0.2","0.4","","","","","0.1348882638","0.878376231","0.5596167322","0.5332063066","","","","","","","","","","74","J","1","","","193","main_expt","",""
"","bandit","285","1819777","0.0-235.0-0.0","05614684","wem/bandit_party_2","A3NHJPE6326P9V","either","2","609","","","","","","","1","0","0","0.7914694382","","0.6","0.8","0.2","0.4","","","","","0.243093686","0.7914694382","0.5887018809","0.5499496643","","","","","","","","","","74","J","1","","","194","main_expt","",""
"","bandit","286","1821809","0.0-236.0-0.0","05614684","wem/bandit_party_2","A3NHJPE6326P9V","either","2","508","","","","","","","1","0","0","0.7843027812","","0.6","0.8","0.2","0.4","","","","","0.2792315856","0.7843027812","0.561552955","0.4170732774","","","","","","","","","","74","J","1","","","195","main_expt","",""
"","bandit","287","1823873","0.0-237.0-0.0","05614684","wem/bandit_party_2","A3NHJPE6326P9V","either","2","530","","","","","","","0","0","1","0.7888241066","","0.6","0.8","0.2","0.4","","","","","0.2075419965","0.7888241066","0.6199522587","0.4050854298","","","","","","","","","","74","J","1","","","196","main_expt","",""
"","bandit","288","1825876","0.0-238.0-0.0","05614684","wem/bandit_party_2","A3NHJPE6326P9V","either","2","477","","","","","","","1","0","0","0.8145025162","","0.6","0.8","0.2","0.4","","","","","0.1899284635","0.8145025162","0.6886125155","0.4522405917","","","","","","","","","","74","J","1","","","197","main_expt","",""
"","bandit","289","1827726","0.0-239.0-0.0","05614684","wem/bandit_party_2","A3NHJPE6326P9V","either","2","325","","","","","","","0","0","1","0.8795467387","","0.6","0.8","0.2","0.4","","","","","0.1632143895","0.8795467387","0.6468609917","0.4547961131","","","","","","","","","","74","J","1","","","198","main_expt","",""
"","bandit","290","1829734","0.0-240.0-0.0","05614684","wem/bandit_party_2","A3NHJPE6326P9V","either","2","485","","","","","","","0","1","0","","0.8716255916","0.6","0.8","0.2","0.4","0.1580048483","0.8716255916","0.7134983028","0.456709553","","","","","","","","","","","","","","74","J","1","","","199","main_expt","",""
"","bandit","291","1832249","0.0-241.0-0.0","05614684","wem/bandit_party_2","A3NHJPE6326P9V","either","2","991","","","","","","","0","0","1","","0.6545285445","0.6","0.8","0.2","0.4","0.1815025648","0.8596876402","0.6545285445","0.4197111003","","","","","","","","","","","","","","75","K","2","","","200","main_expt","",""
"","bandit","292","1834121","0.0-242.0-0.0","05614684","wem/bandit_party_2","A3NHJPE6326P9V","either","2","346","","","","","","","1","0","0","0.8714244785","","0.6","0.8","0.2","0.4","","","","","0.1453003075","0.8714244785","0.6827561938","0.4468864226","","","","","","","","","","74","J","1","","","201","main_expt","",""
"","bandit","293","1835992","0.0-243.0-0.0","05614684","wem/bandit_party_2","A3NHJPE6326P9V","either","2","345","","","","","","","1","0","0","0.8679491409","","0.6","0.8","0.2","0.4","","","","","0.1061510446","0.8679491409","0.6590680519","0.3852152277","","","","","","","","","","74","J","1","","","202","main_expt","",""
"","bandit","294","1838015","0.0-244.0-0.0","05614684","wem/bandit_party_2","A3NHJPE6326P9V","either","2","510","","","","","","","1","0","0","0.8421855008","","0.6","0.8","0.2","0.4","","","","","0.09667757311","0.8421855008","0.67998256","0.3481501846","","","","","","","","","","74","J","1","","","203","main_expt","",""
"","bandit","295","1839879","0.0-245.0-0.0","05614684","wem/bandit_party_2","A3NHJPE6326P9V","either","2","329","","","","","","","1","0","0","0.8741547355","","0.6","0.8","0.2","0.4","","","","","0.109576977","0.8741547355","0.7157802034","0.3688904748","","","","","","","","","","74","J","1","","","204","main_expt","",""
"","bandit","296","1841736","0.0-246.0-0.0","05614684","wem/bandit_party_2","A3NHJPE6326P9V","either","2","333","","","","","","","0","0","1","","0.8589537271","0.6","0.8","0.2","0.4","0.1370524017","0.8589537271","0.6750594522","0.4196025605","","","","","","","","","","","","","","74","J","1","","","205","main_expt","",""
"","bandit","297","1843509","0.0-247.0-0.0","05614684","wem/bandit_party_2","A3NHJPE6326P9V","either","2","252","","","","","","","1","0","0","0.8009191088","","0.6","0.8","0.2","0.4","","","","","0.1005848846","0.8009191088","0.7170784861","0.3558717694","","","","","","","","","","74","J","1","","","206","main_expt","",""
"","bandit","298","1845346","0.0-248.0-0.0","05614684","wem/bandit_party_2","A3NHJPE6326P9V","either","2","317","","","","","","","1","0","0","0.8146279372","","0.6","0.8","0.2","0.4","","","","","0.1100528349","0.8146279372","0.6886550294","0.3978287694","","","","","","","","","","74","J","1","","","207","main_expt","",""
"","bandit","299","1847233","0.0-249.0-0.0","05614684","wem/bandit_party_2","A3NHJPE6326P9V","either","2","364","","","","","","","1","0","0","0.7498886323","","0.6","0.8","0.2","0.4","","","","","0.1165568201","0.7498886323","0.7340041914","0.3647175361","","","","","","","","","","74","J","1","","","208","main_expt","",""
"","bandit","300","1848888","0.0-250.0-0.0","05614684","wem/bandit_party_2","A3NHJPE6326P9V","either","2","131","","","","","","","1","0","0","0.781298432","","0.6","0.8","0.2","0.4","","","","","0.1607141963","0.781298432","0.7108339061","0.2942091963","","","","","","","","","","74","J","1","","","209","main_expt","",""
"","bandit","301","1850895","0.0-251.0-0.0","05614684","wem/bandit_party_2","A3NHJPE6326P9V","either","2","484","","","","","","","1","0","0","0.8374694261","","0.6","0.8","0.2","0.4","","","","","0.2005879304","0.8374694261","0.7322658343","0.3228874634","","","","","","","","","","74","J","1","","","210","main_expt","",""
"","bandit","302","1852791","0.0-252.0-0.0","05614684","wem/bandit_party_2","A3NHJPE6326P9V","either","2","372","","","","","","","0","1","0","","0.7461264045","0.6","0.8","0.2","0.4","0.1999716741","0.7461264045","0.6220956771","0.3300931135","","","","","","","","","","","","","","74","J","1","","","211","main_expt","",""
"","bandit","303","1855371","0.0-253.0-0.0","05614684","wem/bandit_party_2","A3NHJPE6326P9V","either","2","1065","","","","","","","0","0","1","","0.2135957141","0.6","0.8","0.2","0.4","0.2135957141","0.7267359419","0.5400145011","0.4044608811","","","","","","","","","","","","","","72","H","0","img/none_selected.jpg","","212","main_expt","",""
"","bandit","304","1857301","0.0-254.0-0.0","05614684","wem/bandit_party_2","A3NHJPE6326P9V","either","2","421","","","","","","","0","0","1","0.6529835343","","0.6","0.8","0.2","0.4","","","","","0.2041793084","0.6529835343","0.5419994818","0.4916994921","","","","","","","","","","74","J","1","","","213","main_expt","",""
"","bandit","305","1859146","0.0-255.0-0.0","05614684","wem/bandit_party_2","A3NHJPE6326P9V","either","2","332","","","","","","","0","0","1","0.5734554779","","0.6","0.8","0.2","0.4","","","","","0.2563089198","0.5734554779","0.6195319152","0.5387088508","","","","","","","","","","74","J","1","","","214","main_expt","",""
"","bandit","306","1860974","0.0-256.0-0.0","05614684","wem/bandit_party_2","A3NHJPE6326P9V","either","2","318","","","","","","","0","1","0","","0.7056003711","0.6","0.8","0.2","0.4","0.2870699064","0.7056003711","0.7405966814","0.567041903","","","","","","","","","","","","","","74","J","1","","","215","main_expt","",""
"","bandit","307","1862806","0.0-257.0-0.0","05614684","wem/bandit_party_2","A3NHJPE6326P9V","either","2","310","","","","","","","0","0","1","","0.8005734678","0.6","0.8","0.2","0.4","0.2715554895","0.7717913507","0.8005734678","0.539749723","","","","","","","","","","","","","","75","K","2","","","216","main_expt","",""
"","bandit","308","1864679","0.0-258.0-0.0","05614684","wem/bandit_party_2","A3NHJPE6326P9V","either","2","363","","","","","","","0","1","0","","0.8392159132","0.6","0.8","0.2","0.4","0.2027777883","0.834894728","0.8392159132","0.3803352486","","","","","","","","","","","","","","75","K","2","","","217","main_expt","",""
"","bandit","309","1866512","0.0-259.0-0.0","05614684","wem/bandit_party_2","A3NHJPE6326P9V","either","2","320","","","","","","","0","0","1","","0.3236333655","0.6","0.8","0.2","0.4","0.2169787163","0.868580258","0.7445585264","0.3236333655","","","","","","","","","","","","","","76","L","3","","","218","main_expt","",""
"","bandit","310","1868296","0.0-260.0-0.0","05614684","wem/bandit_party_2","A3NHJPE6326P9V","either","2","267","","","","","","","0","0","1","","0.2612589469","0.6","0.8","0.2","0.4","0.2292932202","0.8236231074","0.7174829008","0.2612589469","","","","","","","","","","","","","","76","L","3","","","219","main_expt","",""
"","bandit","311","1870086","0.0-261.0-0.0","05614684","wem/bandit_party_2","A3NHJPE6326P9V","either","2","266","","","","","","","0","0","1","0.2228319794","","0.6","0.8","0.2","0.4","","","","","0.2829053382","0.7719294443","0.6601767392","0.2228319794","","","","","","","","","","76","L","3","","","220","main_expt","",""
"","bandit","312","1871896","0.0-262.0-0.0","05614684","wem/bandit_party_2","A3NHJPE6326P9V","either","2","298","","","","","","","0","0","1","0.2204856404","","0.6","0.8","0.2","0.4","","","","","0.2691731019","0.7609360252","0.703996204","0.2204856404","","","","","","","","","","76","L","3","","","221","main_expt","",""
"","bandit","313","1874150","0.0-263.0-0.0","05614684","wem/bandit_party_2","A3NHJPE6326P9V","either","2","733","","","","","","","1","0","0","0.1974112065","","0.6","0.8","0.2","0.4","","","","","0.1974112065","0.7319851961","0.6188024556","0.2269951902","","","","","","","","","","72","H","0","img/none_selected.jpg","","222","main_expt","",""
