"consent","trial_type","trial_index","time_elapsed","internal_node_id","subjID","study","MID","cond","drift","rt","responses","button_pressed","key_press","like","value","connected","gems","bombs","no_reward","GemPrChosen","BombPrChosen","GainOverPainPr_0","GainOverPainPr_1","GainOverPainPr_2","GainOverPainPr_3","LosePr_0","LosePr_1","LosePr_2","LosePr_3","WinPr_0","WinPr_1","WinPr_2","WinPr_3","Q0","Q1","Q2","gender","age","ethnicity","label","expt_phase","target","respCharCode","respKey","respChoiceNum","respChoice","practice","trial_counter","trial_label","Q0_index"
"GDM/GDM_behavioral_consent_30min_online.html","consent","0","7998","0.0-0.0","06005721","wem/bandit_party_2","A6M6N01KBYGVM","either","7","","","","","","","","","","","","","","","","","","","","","","","","","","","","","","","","","","","","","","","","",""
"","survey-text","1","19463","0.0-1.0","06005721","wem/bandit_party_2","A6M6N01KBYGVM","either","7","10456","{""Q0"":""A6M6N01KBYGVM""}","","","","","","","","","","","","","","","","","","","","","","","","","","","","","","","","","","","","","","",""
"","button-response","2","22948","0.0-2.0","06005721","wem/bandit_party_2","A6M6N01KBYGVM","either","7","2480","","1","","","","","","","","","","","","","","","","","","","","","","","","","","","","","","","","","","","","","",""
"","text-replacement","3","39948","0.0-3.0","06005721","wem/bandit_party_2","A6M6N01KBYGVM","either","7","15994","","","32","","","","","","","","","","","","","","","","","","","","","","","","","","","","","","","","","","","","",""
"","text-replacement","4","48881","0.0-4.0","06005721","wem/bandit_party_2","A6M6N01KBYGVM","either","7","8931","","","32","","","","","","","","","","","","","","","","","","","","","","","","","","","","","","","","","","","","",""
"","identification","5","65244","0.0-6.0-0.0","06005721","wem/bandit_party_2","A6M6N01KBYGVM","either","7","16351","","","","4","6","4","","","","","","","","","","","","","","","","","","","","","","","","pre","identification_pre","the Democratic Party","","","","","","","",""
"","identification","6","70891","0.0-6.0-1.0","06005721","wem/bandit_party_2","A6M6N01KBYGVM","either","7","4634","","","","0","0","0","","","","","","","","","","","","","","","","","","","","","","","","pre","identification_pre","the Republican Party","","","","","","","",""
"","text-replacement","7","83392","0.0-7.0","06005721","wem/bandit_party_2","A6M6N01KBYGVM","either","7","11497","","","32","","","","","","","","","","","","","","","","","","","","","","","","","","","","","","","","","","","","",""
"","text-replacement","8","89744","0.0-8.0","06005721","wem/bandit_party_2","A6M6N01KBYGVM","either","7","6350","","","32","","","","","","","","","","","","","","","","","","","","","","","","","","","","","","","","","","","","",""
"","text-replacement","9","98161","0.0-9.0","06005721","wem/bandit_party_2","A6M6N01KBYGVM","either","7","8415","","","32","","","","","","","","","","","","","","","","","","","","","","","","","","","","","","","","","","","","",""
"","text-replacement","10","101480","0.0-10.0","06005721","wem/bandit_party_2","A6M6N01KBYGVM","either","7","3317","","","32","","","","","","","","","","","","","","","","","","","","","","","","","","","","","","","","","","","","",""
"","text-replacement","11","110065","0.0-11.0","06005721","wem/bandit_party_2","A6M6N01KBYGVM","either","7","8584","","","32","","","","","","","","","","","","","","","","","","","","","","","","","","","","","","","","","","","","",""
"","bandit","12","115265","0.0-12.0-0.0","06005721","wem/bandit_party_2","A6M6N01KBYGVM","either","7","3690","","","","","","","0","0","1","0","0","","","","","0","","","","0","","","","","","","","","","","","","74","J","0","img/none_selected_demo.jpg","true","0","",""
"","bandit","13","117578","0.0-13.0-0.0","06005721","wem/bandit_party_2","A6M6N01KBYGVM","either","7","803","","","","","","","0","0","1","0","0","","","","","0","","","","0","","","","","","","","","","","","","75","K","0","img/none_selected_demo.jpg","true","0","",""
"","text-replacement","14","122720","0.0-14.0","06005721","wem/bandit_party_2","A6M6N01KBYGVM","either","7","5140","","","32","","","","","","","","","","","","","","","","","","","","","","","","","","","","","","","","","","","","",""
"","text-replacement","15","127495","0.0-15.0","06005721","wem/bandit_party_2","A6M6N01KBYGVM","either","7","4773","","","32","","","","","","","","","","","","","","","","","","","","","","","","","","","","","","","","","","","","",""
"","text-replacement","16","135248","0.0-16.0","06005721","wem/bandit_party_2","A6M6N01KBYGVM","either","7","7752","","","32","","","","","","","","","","","","","","","","","","","","","","","","","","","","","","","","","","","","",""
"","text-replacement","17","139798","0.0-17.0","06005721","wem/bandit_party_2","A6M6N01KBYGVM","either","7","4549","","","32","","","","","","","","","","","","","","","","","","","","","","","","","","","","","","","","","","","","",""
"","bandit","18","142920","0.0-18.0-0.0","06005721","wem/bandit_party_2","A6M6N01KBYGVM","either","7","1613","","","","","","","0","0","1","","0.2","0.5","0.5","","","0.8","0.2","","","","","","","","","","","","","","","","75","K","1","","true","0","80_20_practice",""
"","bandit","19","145143","0.0-18.0-1.0","06005721","wem/bandit_party_2","A6M6N01KBYGVM","either","7","715","","","","","","","0","0","1","0.2","","0.5","0.5","","","","","","","0.8","0.2","","","","","","","","","","","","75","K","1","","true","0","80_20_practice",""
"","bandit","20","147313","0.0-18.0-2.0","06005721","wem/bandit_party_2","A6M6N01KBYGVM","either","7","662","","","","","","","0","1","0","","0.2","0.5","0.5","","","0.8","0.2","","","","","","","","","","","","","","","","75","K","1","","true","0","80_20_practice",""
"","bandit","21","149583","0.0-18.0-3.0","06005721","wem/bandit_party_2","A6M6N01KBYGVM","either","7","762","","","","","","","0","1","0","","0.8","0.5","0.5","","","0.8","0.2","","","","","","","","","","","","","","","","74","J","0","img/none_selected_demo.jpg","true","0","80_20_practice",""
"","bandit","22","151515","0.0-18.0-4.0","06005721","wem/bandit_party_2","A6M6N01KBYGVM","either","7","420","","","","","","","1","0","0","0.8","","0.5","0.5","","","","","","","0.8","0.2","","","","","","","","","","","","74","J","0","img/none_selected_demo.jpg","true","0","80_20_practice",""
"","bandit","23","153344","0.0-18.0-5.0","06005721","wem/bandit_party_2","A6M6N01KBYGVM","either","7","319","","","","","","","1","0","0","0.8","","0.5","0.5","","","","","","","0.8","0.2","","","","","","","","","","","","74","J","0","img/none_selected_demo.jpg","true","0","80_20_practice",""
"","bandit","24","156170","0.0-18.0-6.0","06005721","wem/bandit_party_2","A6M6N01KBYGVM","either","7","1316","","","","","","","1","0","0","0.8","","0.5","0.5","","","","","","","0.8","0.2","","","","","","","","","","","","74","J","0","img/none_selected_demo.jpg","true","0","80_20_practice",""
"","bandit","25","157992","0.0-18.0-7.0","06005721","wem/bandit_party_2","A6M6N01KBYGVM","either","7","314","","","","","","","1","0","0","0.8","","0.5","0.5","","","","","","","0.8","0.2","","","","","","","","","","","","74","J","0","img/none_selected_demo.jpg","true","0","80_20_practice",""
"","bandit","26","159786","0.0-18.0-8.0","06005721","wem/bandit_party_2","A6M6N01KBYGVM","either","7","282","","","","","","","0","1","0","","0.8","0.5","0.5","","","0.8","0.2","","","","","","","","","","","","","","","","74","J","0","img/none_selected_demo.jpg","true","0","80_20_practice",""
"","bandit","27","161720","0.0-18.0-9.0","06005721","wem/bandit_party_2","A6M6N01KBYGVM","either","7","425","","","","","","","0","0","1","","0.2","0.5","0.5","","","0.8","0.2","","","","","","","","","","","","","","","","75","K","1","","true","0","80_20_practice",""
"","bandit","28","164693","0.0-18.0-10.0","06005721","wem/bandit_party_2","A6M6N01KBYGVM","either","7","1467","","","","","","","1","0","0","0.8","","0.5","0.5","","","","","","","0.8","0.2","","","","","","","","","","","","74","J","0","img/none_selected_demo.jpg","true","0","80_20_practice",""
"","bandit","29","166579","0.0-18.0-11.0","06005721","wem/bandit_party_2","A6M6N01KBYGVM","either","7","380","","","","","","","1","0","0","0.8","","0.5","0.5","","","","","","","0.8","0.2","","","","","","","","","","","","74","J","0","img/none_selected_demo.jpg","true","0","80_20_practice",""
"","bandit","30","168433","0.0-18.0-12.0","06005721","wem/bandit_party_2","A6M6N01KBYGVM","either","7","345","","","","","","","0","0","1","0.8","","0.5","0.5","","","","","","","0.8","0.2","","","","","","","","","","","","74","J","0","img/none_selected_demo.jpg","true","0","80_20_practice",""
"","bandit","31","170291","0.0-18.0-13.0","06005721","wem/bandit_party_2","A6M6N01KBYGVM","either","7","345","","","","","","","1","0","0","0.8","","0.5","0.5","","","","","","","0.8","0.2","","","","","","","","","","","","74","J","0","img/none_selected_demo.jpg","true","0","80_20_practice",""
"","bandit","32","172073","0.0-18.0-14.0","06005721","wem/bandit_party_2","A6M6N01KBYGVM","either","7","271","","","","","","","0","1","0","","0.8","0.5","0.5","","","0.8","0.2","","","","","","","","","","","","","","","","74","J","0","img/none_selected_demo.jpg","true","0","80_20_practice",""
"","bandit","33","174028","0.0-18.0-15.0","06005721","wem/bandit_party_2","A6M6N01KBYGVM","either","7","448","","","","","","","1","0","0","0.8","","0.5","0.5","","","","","","","0.8","0.2","","","","","","","","","","","","74","J","0","img/none_selected_demo.jpg","true","0","80_20_practice",""
"","bandit","34","175665","0.0-18.0-16.0","06005721","wem/bandit_party_2","A6M6N01KBYGVM","either","7","125","","","","","","","0","1","0","","0.8","0.5","0.5","","","0.8","0.2","","","","","","","","","","","","","","","","74","J","0","img/none_selected_demo.jpg","true","0","80_20_practice",""
"","bandit","35","178769","0.0-18.0-17.0","06005721","wem/bandit_party_2","A6M6N01KBYGVM","either","7","1595","","","","","","","1","0","0","0.8","","0.5","0.5","","","","","","","0.8","0.2","","","","","","","","","","","","74","J","0","img/none_selected_demo.jpg","true","0","80_20_practice",""
"","bandit","36","180535","0.0-18.0-18.0","06005721","wem/bandit_party_2","A6M6N01KBYGVM","either","7","257","","","","","","","0","1","0","","0.8","0.5","0.5","","","0.8","0.2","","","","","","","","","","","","","","","","74","J","0","img/none_selected_demo.jpg","true","0","80_20_practice",""
"","bandit","37","182372","0.0-18.0-19.0","06005721","wem/bandit_party_2","A6M6N01KBYGVM","either","7","331","","","","","","","0","1","0","","0.8","0.5","0.5","","","0.8","0.2","","","","","","","","","","","","","","","","74","J","0","img/none_selected_demo.jpg","true","0","80_20_practice",""
"","text-replacement","38","187252","0.0-19.0","06005721","wem/bandit_party_2","A6M6N01KBYGVM","either","7","4879","","","32","","","","","","","","","","","","","","","","","","","","","","","","","","","","","","","","","","","","",""
"","bandit","39","189467","0.0-20.0-0.0","06005721","wem/bandit_party_2","A6M6N01KBYGVM","either","7","703","","","","","","","1","0","0","1","0","","","","","0","1","","","1","0","","","","","","","","","","","","74","J","0","img/none_selected_demo.jpg","true","0","",""
"","text-replacement","40","194668","0.0-21.0","06005721","wem/bandit_party_2","A6M6N01KBYGVM","either","7","5199","","","32","","","","","","","","","","","","","","","","","","","","","","","","","","","","","","","","","","","","",""
"","text-replacement","41","200157","0.0-22.0","06005721","wem/bandit_party_2","A6M6N01KBYGVM","either","7","5487","","","32","","","","","","","","","","","","","","","","","","","","","","","","","","","","","","","","","","","","",""
"","text-replacement","42","204324","0.0-23.0","06005721","wem/bandit_party_2","A6M6N01KBYGVM","either","7","4165","","","32","","","","","","","","","","","","","","","","","","","","","","","","","","","","","","","","","","","","",""
"","text-replacement","43","207396","0.0-24.0","06005721","wem/bandit_party_2","A6M6N01KBYGVM","either","7","3070","","","32","","","","","","","","","","","","","","","","","","","","","","","","","","","","","","","","","","","","",""
"","text-replacement","44","219781","0.0-25.0","06005721","wem/bandit_party_2","A6M6N01KBYGVM","either","7","12383","","","32","","","","","","","","","","","","","","","","","","","","","","","","","","","","","","","","","","","","",""
"","text-replacement","45","223027","0.0-26.0","06005721","wem/bandit_party_2","A6M6N01KBYGVM","either","7","3245","","","32","","","","","","","","","","","","","","","","","","","","","","","","","","","","","","","","","","","","",""
"","text-replacement","46","229227","0.0-27.0","06005721","wem/bandit_party_2","A6M6N01KBYGVM","either","7","6197","","","32","","","","","","","","","","","","","","","","","","","","","","","","","","","","","","","","","","","","",""
"","text-replacement","47","233868","0.0-28.0","06005721","wem/bandit_party_2","A6M6N01KBYGVM","either","7","4640","","","32","","","","","","","","","","","","","","","","","","","","","","","","","","","","","","","","","","","","",""
"","text-replacement","48","238067","0.0-29.0","06005721","wem/bandit_party_2","A6M6N01KBYGVM","either","7","4196","","","32","","","","","","","","","","","","","","","","","","","","","","","","","","","","","","","","","","","","",""
"","text-replacement","49","240171","0.0-30.0","06005721","wem/bandit_party_2","A6M6N01KBYGVM","either","7","2102","","","32","","","","","","","","","","","","","","","","","","","","","","","","","","","","","","","","","","","","",""
"","text-replacement","50","241851","0.0-31.0","06005721","wem/bandit_party_2","A6M6N01KBYGVM","either","7","1678","","","32","","","","","","","","","","","","","","","","","","","","","","","","","","","","","","","","","","","","",""
"","bandit","51","245027","0.0-32.0-0.0","06005721","wem/bandit_party_2","A6M6N01KBYGVM","either","7","1668","","","","","","","0","1","0","","0.8","0.5","0.5","0.5","0.5","0.8","0.2","0.6","0.2","","","","","","","","","","","","","","72","H","0","img/none_selected.jpg","true","0","full_practice",""
"","bandit","52","246938","0.0-32.0-1.0","06005721","wem/bandit_party_2","A6M6N01KBYGVM","either","7","405","","","","","","","0","1","0","","0.8","0.5","0.5","0.5","0.5","0.8","0.2","0.6","0.2","","","","","","","","","","","","","","72","H","0","img/none_selected.jpg","true","0","full_practice",""
"","bandit","53","248735","0.0-32.0-2.0","06005721","wem/bandit_party_2","A6M6N01KBYGVM","either","7","285","","","","","","","1","0","0","0.8","","0.5","0.5","0.5","0.5","","","","","0.8","0.2","0.6","0.2","","","","","","","","","","72","H","0","img/none_selected.jpg","true","0","full_practice",""
"","bandit","54","250540","0.0-32.0-3.0","06005721","wem/bandit_party_2","A6M6N01KBYGVM","either","7","296","","","","","","","0","0","1","0.8","","0.5","0.5","0.5","0.5","","","","","0.8","0.2","0.6","0.2","","","","","","","","","","72","H","0","img/none_selected.jpg","true","0","full_practice",""
"","bandit","55","253434","0.0-32.0-4.0","06005721","wem/bandit_party_2","A6M6N01KBYGVM","either","7","1387","","","","","","","0","0","1","0.2","","0.5","0.5","0.5","0.5","","","","","0.8","0.2","0.6","0.2","","","","","","","","","","74","J","1","","true","0","full_practice",""
"","bandit","56","255247","0.0-32.0-5.0","06005721","wem/bandit_party_2","A6M6N01KBYGVM","either","7","301","","","","","","","0","0","1","","0.2","0.5","0.5","0.5","0.5","0.8","0.2","0.6","0.2","","","","","","","","","","","","","","74","J","1","","true","0","full_practice",""
"","bandit","57","257040","0.0-32.0-6.0","06005721","wem/bandit_party_2","A6M6N01KBYGVM","either","7","281","","","","","","","0","0","1","0.2","","0.5","0.5","0.5","0.5","","","","","0.8","0.2","0.6","0.2","","","","","","","","","","74","J","1","","true","0","full_practice",""
"","bandit","58","258933","0.0-32.0-7.0","06005721","wem/bandit_party_2","A6M6N01KBYGVM","either","7","383","","","","","","","0","0","1","","0.6","0.5","0.5","0.5","0.5","0.8","0.2","0.6","0.2","","","","","","","","","","","","","","75","K","2","","true","0","full_practice",""
"","bandit","59","260656","0.0-32.0-8.0","06005721","wem/bandit_party_2","A6M6N01KBYGVM","either","7","211","","","","","","","1","0","0","0.6","","0.5","0.5","0.5","0.5","","","","","0.8","0.2","0.6","0.2","","","","","","","","","","75","K","2","","true","0","full_practice",""
"","bandit","60","262192","0.0-32.0-9.0","06005721","wem/bandit_party_2","A6M6N01KBYGVM","either","7","24","","","","","","","0","1","0","","0.6","0.5","0.5","0.5","0.5","0.8","0.2","0.6","0.2","","","","","","","","","","","","","","75","K","2","","true","0","full_practice",""
"","bandit","61","264026","0.0-32.0-10.0","06005721","wem/bandit_party_2","A6M6N01KBYGVM","either","7","327","","","","","","","0","0","1","0.2","","0.5","0.5","0.5","0.5","","","","","0.8","0.2","0.6","0.2","","","","","","","","","","76","L","3","","true","0","full_practice",""
"","bandit","62","265925","0.0-32.0-11.0","06005721","wem/bandit_party_2","A6M6N01KBYGVM","either","7","390","","","","","","","0","0","1","","0.2","0.5","0.5","0.5","0.5","0.8","0.2","0.6","0.2","","","","","","","","","","","","","","76","L","3","","true","0","full_practice",""
"","bandit","63","267789","0.0-32.0-12.0","06005721","wem/bandit_party_2","A6M6N01KBYGVM","either","7","353","","","","","","","0","0","1","0.2","","0.5","0.5","0.5","0.5","","","","","0.8","0.2","0.6","0.2","","","","","","","","","","76","L","3","","true","0","full_practice",""
"","bandit","64","269313","0.0-32.0-13.0","06005721","wem/bandit_party_2","A6M6N01KBYGVM","either","7","16","","","","","","","0","0","1","0.2","","0.5","0.5","0.5","0.5","","","","","0.8","0.2","0.6","0.2","","","","","","","","","","76","L","3","","true","0","full_practice",""
"","bandit","65","271231","0.0-32.0-14.0","06005721","wem/bandit_party_2","A6M6N01KBYGVM","either","7","406","","","","","","","0","0","1","0.2","","0.5","0.5","0.5","0.5","","","","","0.8","0.2","0.6","0.2","","","","","","","","","","76","L","3","","true","0","full_practice",""
"","bandit","66","273315","0.0-32.0-15.0","06005721","wem/bandit_party_2","A6M6N01KBYGVM","either","7","575","","","","","","","1","0","0","0.6","","0.5","0.5","0.5","0.5","","","","","0.8","0.2","0.6","0.2","","","","","","","","","","75","K","2","","true","0","full_practice",""
"","bandit","67","275757","0.0-32.0-16.0","06005721","wem/bandit_party_2","A6M6N01KBYGVM","either","7","932","","","","","","","1","0","0","0.2","","0.5","0.5","0.5","0.5","","","","","0.8","0.2","0.6","0.2","","","","","","","","","","74","J","1","","true","0","full_practice",""
"","bandit","68","279745","0.0-32.0-17.0","06005721","wem/bandit_party_2","A6M6N01KBYGVM","either","7","2474","","","","","","","0","1","0","","0.8","0.5","0.5","0.5","0.5","0.8","0.2","0.6","0.2","","","","","","","","","","","","","","72","H","0","img/none_selected.jpg","true","0","full_practice",""
"","bandit","69","283519","0.0-32.0-18.0","06005721","wem/bandit_party_2","A6M6N01KBYGVM","either","7","2262","","","","","","","0","0","1","0.8","","0.5","0.5","0.5","0.5","","","","","0.8","0.2","0.6","0.2","","","","","","","","","","72","H","0","img/none_selected.jpg","true","0","full_practice",""
"","bandit","70","286035","0.0-32.0-19.0","06005721","wem/bandit_party_2","A6M6N01KBYGVM","either","7","1009","","","","","","","1","0","0","0.8","","0.5","0.5","0.5","0.5","","","","","0.8","0.2","0.6","0.2","","","","","","","","","","72","H","0","img/none_selected.jpg","true","0","full_practice",""
"","text","71","294131","0.0-33.0","06005721","wem/bandit_party_2","A6M6N01KBYGVM","either","7","8087","","","32","","","","","","","","","","","","","","","","","","","","","","","","","","","","","","","","","","","","",""
"","text-replacement","72","322889","0.0-34.0","06005721","wem/bandit_party_2","A6M6N01KBYGVM","either","7","27751","","","32","","","","","","","","","","","","","","","","","","","","","","","","","","","","","","","","","","","","",""
"","text-replacement","73","328624","0.0-35.0","06005721","wem/bandit_party_2","A6M6N01KBYGVM","either","7","5732","","","32","","","","","","","","","","","","","","","","","","","","","","","","","","","","","","","","","","","","",""
"","text-replacement","74","331608","0.0-36.0","06005721","wem/bandit_party_2","A6M6N01KBYGVM","either","7","2982","","","32","","","","","","","","","","","","","","","","","","","","","","","","","","","","","","","","","","","","",""
"","text-replacement","75","335745","0.0-37.0","06005721","wem/bandit_party_2","A6M6N01KBYGVM","either","7","4135","","","32","","","","","","","","","","","","","","","","","","","","","","","","","","","","","","","","","","","","",""
"","text-replacement","76","343471","0.0-38.0","06005721","wem/bandit_party_2","A6M6N01KBYGVM","either","7","7723","","","32","","","","","","","","","","","","","","","","","","","","","","","","","","","","","","","","","","","","",""
"","survey-multi-choice-replacement","77","348674","0.0-39.0-0.0","06005721","wem/bandit_party_2","A6M6N01KBYGVM","either","7","5195","","","","","","","","","","","","","","","","","","","","","","","","Money will be added to the pool for <span style='color:blue;'>DEMOCRATS</span>","","","","","","","attn_check","","","","","","","","","0"
"","survey-multi-choice-replacement","78","354080","0.0-40.0-0.0","06005721","wem/bandit_party_2","A6M6N01KBYGVM","either","7","4396","","","","","","","","","","","","","","","","","","","","","","","","Equal amounts of money will be added to the pool for <span style='color:blue;'>DEMOCRATS</span> and subtracted from the pool for <span style='color:red;'>REPUBLICANS</span>","","","","","","","attn_check","","","","","","","","","2"
"","survey-multi-choice-replacement","79","358096","0.0-41.0-0.0","06005721","wem/bandit_party_2","A6M6N01KBYGVM","either","7","3004","","","","","","","","","","","","","","","","","","","","","","","","No money will be added to either pool","","","","","","","attn_check","","","","","","","","","3"
"","bandit","80","362553","0.0-42.0-0.0","06005721","wem/bandit_party_2","A6M6N01KBYGVM","either","7","1942","","","","","","","0","1","0","","0.7088318221","0.6","0.2","0.4","0.8","0.7088318221","0.1731741302","0.2888626749","0.5514722813","","","","","","","","","","","","","","72","H","0","img/none_selected.jpg","","1","main_expt",""
"","bandit","81","364584","0.0-43.0-0.0","06005721","wem/bandit_party_2","A6M6N01KBYGVM","either","7","522","","","","","","","1","0","0","0.6292935488","","0.6","0.2","0.4","0.8","","","","","0.6292935488","0.2874485847","0.3999538902","0.5039303977","","","","","","","","","","72","H","0","img/none_selected.jpg","","2","main_expt",""
"","bandit","82","366607","0.0-44.0-0.0","06005721","wem/bandit_party_2","A6M6N01KBYGVM","either","7","514","","","","","","","0","1","0","","0.5285482983","0.6","0.2","0.4","0.8","0.5285482983","0.2683250969","0.4126831114","0.5527877924","","","","","","","","","","","","","","72","H","0","img/none_selected.jpg","","3","main_expt",""
"","bandit","83","368624","0.0-45.0-0.0","06005721","wem/bandit_party_2","A6M6N01KBYGVM","either","7","507","","","","","","","0","0","1","0.6744491701","","0.6","0.2","0.4","0.8","","","","","0.6744491701","0.3988631097","0.3923803367","0.6336700584","","","","","","","","","","72","H","0","img/none_selected.jpg","","4","main_expt",""
"","bandit","84","370536","0.0-46.0-0.0","06005721","wem/bandit_party_2","A6M6N01KBYGVM","either","7","404","","","","","","","1","0","0","0.7922285807","","0.6","0.2","0.4","0.8","","","","","0.7922285807","0.3568799457","0.3803283439","0.6340088104","","","","","","","","","","72","H","0","img/none_selected.jpg","","5","main_expt",""
"","bandit","85","372651","0.0-47.0-0.0","06005721","wem/bandit_party_2","A6M6N01KBYGVM","either","7","601","","","","","","","0","1","0","","0.7459441126","0.6","0.2","0.4","0.8","0.7459441126","0.3188731731","0.4214296899","0.5784181907","","","","","","","","","","","","","","72","H","0","img/none_selected.jpg","","6","main_expt",""
"","bandit","86","374695","0.0-48.0-0.0","06005721","wem/bandit_party_2","A6M6N01KBYGVM","either","7","535","","","","","","","0","0","1","0.7681481668","","0.6","0.2","0.4","0.8","","","","","0.7681481668","0.4574196012","0.4755968838","0.6727083857","","","","","","","","","","72","H","0","img/none_selected.jpg","","7","main_expt",""
"","bandit","87","376624","0.0-49.0-0.0","06005721","wem/bandit_party_2","A6M6N01KBYGVM","either","7","419","","","","","","","0","1","0","","0.7251609313","0.6","0.2","0.4","0.8","0.7251609313","0.5037884951","0.5353568537","0.7574508858","","","","","","","","","","","","","","72","H","0","img/none_selected.jpg","","8","main_expt",""
"","bandit","88","378653","0.0-50.0-0.0","06005721","wem/bandit_party_2","A6M6N01KBYGVM","either","7","522","","","","","","","1","0","0","0.7403055102","","0.6","0.2","0.4","0.8","","","","","0.7403055102","0.5750013994","0.6246831942","0.8280759311","","","","","","","","","","72","H","0","img/none_selected.jpg","","9","main_expt",""
"","bandit","89","380765","0.0-51.0-0.0","06005721","wem/bandit_party_2","A6M6N01KBYGVM","either","7","597","","","","","","","1","0","0","0.722944265","","0.6","0.2","0.4","0.8","","","","","0.722944265","0.5399040382","0.4475954046","0.859726102","","","","","","","","","","72","H","0","img/none_selected.jpg","","10","main_expt",""
"","bandit","90","382726","0.0-52.0-0.0","06005721","wem/bandit_party_2","A6M6N01KBYGVM","either","7","453","","","","","","","0","0","1","0.6833847698","","0.6","0.2","0.4","0.8","","","","","0.6833847698","0.5181098662","0.4514702697","0.877956501","","","","","","","","","","72","H","0","img/none_selected.jpg","","11","main_expt",""
"","bandit","91","384869","0.0-53.0-0.0","06005721","wem/bandit_party_2","A6M6N01KBYGVM","either","7","635","","","","","","","0","1","0","","0.5489165229","0.6","0.2","0.4","0.8","0.689227163","0.5489165229","0.4873058782","0.8883669707","","","","","","","","","","","","","","74","J","1","","","12","main_expt",""
"","bandit","92","386993","0.0-54.0-0.0","06005721","wem/bandit_party_2","A6M6N01KBYGVM","either","7","613","","","","","","","0","1","0","","0.6186986429","0.6","0.2","0.4","0.8","0.5178623456","0.6186986429","0.4862469224","0.817149195","","","","","","","","","","","","","","74","J","1","","","13","main_expt",""
"","bandit","93","389129","0.0-55.0-0.0","06005721","wem/bandit_party_2","A6M6N01KBYGVM","either","7","625","","","","","","","0","1","0","","0.4944095791","0.6","0.2","0.4","0.8","0.4768489018","0.4944095791","0.360908092","0.8589139609","","","","","","","","","","","","","","74","J","1","","","14","main_expt",""
"","bandit","94","391282","0.0-56.0-0.0","06005721","wem/bandit_party_2","A6M6N01KBYGVM","either","7","641","","","","","","","0","0","1","","0.4820951366","0.6","0.2","0.4","0.8","0.5201849276","0.4820951366","0.4126647893","0.7955781648","","","","","","","","","","","","","","74","J","1","","","15","main_expt",""
"","bandit","95","395136","0.0-57.0-0.0","06005721","wem/bandit_party_2","A6M6N01KBYGVM","either","7","2343","","","","","","","0","0","1","","0.4888848296","0.6","0.2","0.4","0.8","0.6862231469","0.4888848296","0.4930686601","0.8864445785","","","","","","","","","","","","","","74","J","1","","","16","main_expt",""
"","bandit","96","397550","0.0-58.0-0.0","06005721","wem/bandit_party_2","A6M6N01KBYGVM","either","7","905","","","","","","","0","1","0","","0.5162343008","0.6","0.2","0.4","0.8","0.7297328357","0.381306026","0.5162343008","0.8746062981","","","","","","","","","","","","","","75","K","2","","","17","main_expt",""
"","bandit","97","399610","0.0-59.0-0.0","06005721","wem/bandit_party_2","A6M6N01KBYGVM","either","7","546","","","","","","","0","1","0","","0.5627456494","0.6","0.2","0.4","0.8","0.6686287009","0.3537135189","0.5627456494","0.8910236512","","","","","","","","","","","","","","75","K","2","","","18","main_expt",""
"","bandit","98","403331","0.0-60.0-0.0","06005721","wem/bandit_party_2","A6M6N01KBYGVM","either","7","2207","","","","","","","0","0","1","0.4478227807","","0.6","0.2","0.4","0.8","","","","","0.7885428456","0.4891458502","0.4478227807","0.8932054573","","","","","","","","","","75","K","2","","","19","main_expt",""
"","bandit","99","405484","0.0-61.0-0.0","06005721","wem/bandit_party_2","A6M6N01KBYGVM","either","7","646","","","","","","","1","0","0","0.8900063933","","0.6","0.2","0.4","0.8","","","","","0.7442236049","0.5440957398","0.5306796692","0.8900063933","","","","","","","","","","76","L","3","","","20","main_expt",""
"","bandit","100","407515","0.0-62.0-0.0","06005721","wem/bandit_party_2","A6M6N01KBYGVM","either","7","517","","","","","","","1","0","0","0.8748704397","","0.6","0.2","0.4","0.8","","","","","0.7908218503","0.5621313733","0.5423611418","0.8748704397","","","","","","","","","","76","L","3","","","21","main_expt",""
"","bandit","101","409422","0.0-63.0-0.0","06005721","wem/bandit_party_2","A6M6N01KBYGVM","either","7","398","","","","","","","1","0","0","0.8498769136","","0.6","0.2","0.4","0.8","","","","","0.7163236006","0.5296345876","0.4190568807","0.8498769136","","","","","","","","","","76","L","3","","","22","main_expt",""
"","bandit","102","411282","0.0-64.0-0.0","06005721","wem/bandit_party_2","A6M6N01KBYGVM","either","7","346","","","","","","","1","0","0","0.8357449374","","0.6","0.2","0.4","0.8","","","","","0.7061190667","0.5187107172","0.4329937009","0.8357449374","","","","","","","","","","76","L","3","","","23","main_expt",""
"","bandit","103","413145","0.0-65.0-0.0","06005721","wem/bandit_party_2","A6M6N01KBYGVM","either","7","351","","","","","","","1","0","0","0.8431908073","","0.6","0.2","0.4","0.8","","","","","0.7470556917","0.6000521927","0.4298879426","0.8431908073","","","","","","","","","","76","L","3","","","24","main_expt",""
"","bandit","104","415002","0.0-66.0-0.0","06005721","wem/bandit_party_2","A6M6N01KBYGVM","either","7","344","","","","","","","1","0","0","0.8741885854","","0.6","0.2","0.4","0.8","","","","","0.8154180688","0.5443047256","0.2992323157","0.8741885854","","","","","","","","","","76","L","3","","","25","main_expt",""
"","bandit","105","416894","0.0-67.0-0.0","06005721","wem/bandit_party_2","A6M6N01KBYGVM","either","7","382","","","","","","","0","1","0","","0.8940719671","0.6","0.2","0.4","0.8","0.8395379789","0.592493964","0.3857263224","0.8940719671","","","","","","","","","","","","","","76","L","3","","","26","main_expt",""
"","bandit","106","418763","0.0-68.0-0.0","06005721","wem/bandit_party_2","A6M6N01KBYGVM","either","7","363","","","","","","","1","0","0","0.8733378856","","0.6","0.2","0.4","0.8","","","","","0.8023078409","0.5779569403","0.3715251318","0.8733378856","","","","","","","","","","76","L","3","","","27","main_expt",""
"","bandit","107","420608","0.0-69.0-0.0","06005721","wem/bandit_party_2","A6M6N01KBYGVM","either","7","333","","","","","","","1","0","0","0.8695586723","","0.6","0.2","0.4","0.8","","","","","0.8248968235","0.7077223562","0.3387808014","0.8695586723","","","","","","","","","","76","L","3","","","28","main_expt",""
"","bandit","108","422573","0.0-70.0-0.0","06005721","wem/bandit_party_2","A6M6N01KBYGVM","either","7","455","","","","","","","0","0","1","0.7908290088","","0.6","0.2","0.4","0.8","","","","","0.8621011303","0.7070353494","0.3737397218","0.7908290088","","","","","","","","","","76","L","3","","","29","main_expt",""
"","bandit","109","424407","0.0-71.0-0.0","06005721","wem/bandit_party_2","A6M6N01KBYGVM","either","7","322","","","","","","","1","0","0","0.8518997755","","0.6","0.2","0.4","0.8","","","","","0.8873668535","0.6585428656","0.3232047389","0.8518997755","","","","","","","","","","76","L","3","","","30","main_expt",""
"","bandit","110","426418","0.0-72.0-0.0","06005721","wem/bandit_party_2","A6M6N01KBYGVM","either","7","498","","","","","","","1","0","0","0.8509842625","","0.6","0.2","0.4","0.8","","","","","0.9318975106","0.6724088618","0.4130267239","0.8509842625","","","","","","","","","","76","L","3","","","31","main_expt",""
"","bandit","111","428200","0.0-73.0-0.0","06005721","wem/bandit_party_2","A6M6N01KBYGVM","either","7","271","","","","","","","1","0","0","0.872996121","","0.6","0.2","0.4","0.8","","","","","0.9013609786","0.6416581209","0.4167758813","0.872996121","","","","","","","","","","76","L","3","","","32","main_expt",""
"","bandit","112","430310","0.0-74.0-0.0","06005721","wem/bandit_party_2","A6M6N01KBYGVM","either","7","599","","","","","","","1","0","0","0.8571046391","","0.6","0.2","0.4","0.8","","","","","0.9041531295","0.7055802426","0.4546052232","0.8571046391","","","","","","","","","","76","L","3","","","33","main_expt",""
"","bandit","113","432251","0.0-75.0-0.0","06005721","wem/bandit_party_2","A6M6N01KBYGVM","either","7","434","","","","","","","1","0","0","0.9175819521","","0.6","0.2","0.4","0.8","","","","","0.9386104272","0.7554114371","0.5231803088","0.9175819521","","","","","","","","","","76","L","3","","","34","main_expt",""
"","bandit","114","434282","0.0-76.0-0.0","06005721","wem/bandit_party_2","A6M6N01KBYGVM","either","7","514","","","","","","","1","0","0","0.9503165686","","0.6","0.2","0.4","0.8","","","","","0.9180645683","0.8008095759","0.4661188593","0.9503165686","","","","","","","","","","76","L","3","","","35","main_expt",""
"","bandit","115","436209","0.0-77.0-0.0","06005721","wem/bandit_party_2","A6M6N01KBYGVM","either","7","414","","","","","","","0","0","1","0.9327615424","","0.6","0.2","0.4","0.8","","","","","0.9095107155","0.6925109639","0.4106027186","0.9327615424","","","","","","","","","","76","L","3","","","36","main_expt",""
"","bandit","116","438200","0.0-78.0-0.0","06005721","wem/bandit_party_2","A6M6N01KBYGVM","either","7","479","","","","","","","1","0","0","0.9196494001","","0.6","0.2","0.4","0.8","","","","","0.9405648028","0.7764255689","0.5021263718","0.9196494001","","","","","","","","","","76","L","3","","","37","main_expt",""
"","bandit","117","440233","0.0-79.0-0.0","06005721","wem/bandit_party_2","A6M6N01KBYGVM","either","7","520","","","","","","","1","0","0","0.928530414","","0.6","0.2","0.4","0.8","","","","","0.9058459248","0.8392953971","0.5065313343","0.928530414","","","","","","","","","","76","L","3","","","38","main_expt",""
"","bandit","118","442065","0.0-80.0-0.0","06005721","wem/bandit_party_2","A6M6N01KBYGVM","either","7","324","","","","","","","1","0","0","0.9001545702","","0.6","0.2","0.4","0.8","","","","","0.8784462517","0.7614495855","0.6098243774","0.9001545702","","","","","","","","","","76","L","3","","","39","main_expt",""
"","bandit","119","444096","0.0-81.0-0.0","06005721","wem/bandit_party_2","A6M6N01KBYGVM","either","7","518","","","","","","","1","0","0","0.8432481254","","0.6","0.2","0.4","0.8","","","","","0.8408568766","0.8060705796","0.679699592","0.8432481254","","","","","","","","","","76","L","3","","","40","main_expt",""
"","bandit","120","446046","0.0-82.0-0.0","06005721","wem/bandit_party_2","A6M6N01KBYGVM","either","7","438","","","","","","","1","0","0","0.8326479564","","0.6","0.2","0.4","0.8","","","","","0.811342849","0.7539991053","0.616488607","0.8326479564","","","","","","","","","","76","L","3","","","41","main_expt",""
"","bandit","121","448789","0.0-83.0-0.0","06005721","wem/bandit_party_2","A6M6N01KBYGVM","either","7","1234","","","","","","","0","1","0","","0.8602810298","0.6","0.2","0.4","0.8","0.8058808774","0.7717369324","0.6307104111","0.8602810298","","","","","","","","","","","","","","76","L","3","","","42","main_expt",""
"","bandit","122","450959","0.0-84.0-0.0","06005721","wem/bandit_party_2","A6M6N01KBYGVM","either","7","657","","","","","","","1","0","0","0.894365654","","0.6","0.2","0.4","0.8","","","","","0.7899844578","0.7625968551","0.554567591","0.894365654","","","","","","","","","","76","L","3","","","43","main_expt",""
"","bandit","123","455428","0.0-85.0-0.0","06005721","wem/bandit_party_2","A6M6N01KBYGVM","either","7","2959","","","","","","","1","0","0","0.9033664713","","0.6","0.2","0.4","0.8","","","","","0.7654486741","0.8488621298","0.5281861223","0.9033664713","","","","","","","","","","76","L","3","","","44","main_expt",""
"","bandit","124","458182","0.0-86.0-0.0","06005721","wem/bandit_party_2","A6M6N01KBYGVM","either","7","1242","","","","","","","1","0","0","0.8829964613","","0.6","0.2","0.4","0.8","","","","","0.7674111825","0.8522077325","0.5043334007","0.8829964613","","","","","","","","","","76","L","3","","","45","main_expt",""
"","bandit","125","461960","0.0-87.0-0.0","06005721","wem/bandit_party_2","A6M6N01KBYGVM","either","7","2266","","","","","","","1","0","0","0.8674694879","","0.6","0.2","0.4","0.8","","","","","0.6301273516","0.8618589195","0.5426256613","0.8674694879","","","","","","","","","","76","L","3","","","46","main_expt",""
"","bandit","126","465268","0.0-88.0-0.0","06005721","wem/bandit_party_2","A6M6N01KBYGVM","either","7","1796","","","","","","","1","0","0","0.8886720039","","0.6","0.2","0.4","0.8","","","","","0.7885969413","0.905897833","0.5024796093","0.8886720039","","","","","","","","","","76","L","3","","","47","main_expt",""
"","bandit","127","467419","0.0-89.0-0.0","06005721","wem/bandit_party_2","A6M6N01KBYGVM","either","7","641","","","","","","","0","1","0","","0.9229902905","0.6","0.2","0.4","0.8","0.7983786211","0.8929468812","0.4689138593","0.9229902905","","","","","","","","","","","","","","76","L","3","","","48","main_expt",""
"","bandit","128","469499","0.0-90.0-0.0","06005721","wem/bandit_party_2","A6M6N01KBYGVM","either","7","571","","","","","","","1","0","0","0.9141434128","","0.6","0.2","0.4","0.8","","","","","0.8249867574","0.854905512","0.4439560463","0.9141434128","","","","","","","","","","76","L","3","","","49","main_expt",""
"","bandit","129","471508","0.0-91.0-0.0","06005721","wem/bandit_party_2","A6M6N01KBYGVM","either","7","499","","","","","","","0","1","0","","0.9181160336","0.6","0.2","0.4","0.8","0.7532301684","0.8363103738","0.4079842927","0.9181160336","","","","","","","","","","","","","","76","L","3","","","50","main_expt",""
"","bandit","130","473549","0.0-92.0-0.0","06005721","wem/bandit_party_2","A6M6N01KBYGVM","either","7","531","","","","","","","1","0","0","0.9266489825","","0.6","0.2","0.4","0.8","","","","","0.6750909554","0.7168506975","0.4675199832","0.9266489825","","","","","","","","","","76","L","3","","","51","main_expt",""
"","bandit","131","475430","0.0-93.0-0.0","06005721","wem/bandit_party_2","A6M6N01KBYGVM","either","7","368","","","","","","","0","1","0","","0.9285581488","0.6","0.2","0.4","0.8","0.6762079337","0.6507986152","0.4368052975","0.9285581488","","","","","","","","","","","","","","76","L","3","","","52","main_expt",""
"","bandit","132","477955","0.0-94.0-0.0","06005721","wem/bandit_party_2","A6M6N01KBYGVM","either","7","1015","","","","","","","1","0","0","0.9171724481","","0.6","0.2","0.4","0.8","","","","","0.7882030045","0.6531867096","0.4967902672","0.9171724481","","","","","","","","","","76","L","3","","","53","main_expt",""
"","bandit","133","479556","0.0-95.0-0.0","06005721","wem/bandit_party_2","A6M6N01KBYGVM","either","7","90","","","","","","","1","0","0","0.8709862684","","0.6","0.2","0.4","0.8","","","","","0.8759533557","0.6178049746","0.5321533453","0.8709862684","","","","","","","","","","76","L","3","","","54","main_expt",""
"","bandit","134","481559","0.0-96.0-0.0","06005721","wem/bandit_party_2","A6M6N01KBYGVM","either","7","488","","","","","","","1","0","0","0.9016108676","","0.6","0.2","0.4","0.8","","","","","0.9307112091","0.5501477499","0.593251847","0.9016108676","","","","","","","","","","76","L","3","","","55","main_expt",""
"","bandit","135","483578","0.0-97.0-0.0","06005721","wem/bandit_party_2","A6M6N01KBYGVM","either","7","513","","","","","","","1","0","0","0.9123335035","","0.6","0.2","0.4","0.8","","","","","0.9486344027","0.5181914202","0.602347159","0.9123335035","","","","","","","","","","76","L","3","","","56","main_expt",""
"","bandit","136","485570","0.0-98.0-0.0","06005721","wem/bandit_party_2","A6M6N01KBYGVM","either","7","483","","","","","","","0","1","0","","0.9338523698","0.6","0.2","0.4","0.8","0.9450559811","0.5052283364","0.736851976","0.9338523698","","","","","","","","","","","","","","76","L","3","","","57","main_expt",""
"","bandit","137","487526","0.0-99.0-0.0","06005721","wem/bandit_party_2","A6M6N01KBYGVM","either","7","444","","","","","","","1","0","0","0.9023069914","","0.6","0.2","0.4","0.8","","","","","0.960587128","0.4494585665","0.7112026436","0.9023069914","","","","","","","","","","76","L","3","","","58","main_expt",""
"","bandit","138","489385","0.0-100.0-0.0","06005721","wem/bandit_party_2","A6M6N01KBYGVM","either","7","351","","","","","","","1","0","0","0.903153386","","0.6","0.2","0.4","0.8","","","","","0.9272570312","0.4431029696","0.7605469626","0.903153386","","","","","","","","","","76","L","3","","","59","main_expt",""
"","bandit","139","491554","0.0-101.0-0.0","06005721","wem/bandit_party_2","A6M6N01KBYGVM","either","7","659","","","","","","","1","0","0","0.8975643475","","0.6","0.2","0.4","0.8","","","","","0.9075075979","0.4213069188","0.6504737249","0.8975643475","","","","","","","","","","76","L","3","","","60","main_expt",""
"","bandit","140","493567","0.0-102.0-0.0","06005721","wem/bandit_party_2","A6M6N01KBYGVM","either","7","500","","","","","","","1","0","0","0.8455107238","","0.6","0.2","0.4","0.8","","","","","0.9011961695","0.4735464544","0.7417300409","0.8455107238","","","","","","","","","","76","L","3","","","61","main_expt",""
"","bandit","141","495471","0.0-103.0-0.0","06005721","wem/bandit_party_2","A6M6N01KBYGVM","either","7","390","","","","","","","1","0","0","0.8423106617","","0.6","0.2","0.4","0.8","","","","","0.9025442902","0.4260239588","0.6889655243","0.8423106617","","","","","","","","","","76","L","3","","","62","main_expt",""
"","bandit","142","497595","0.0-104.0-0.0","06005721","wem/bandit_party_2","A6M6N01KBYGVM","either","7","613","","","","","","","0","1","0","","0.6997676278","0.6","0.2","0.4","0.8","0.900711875","0.4048641732","0.7532165261","0.6997676278","","","","","","","","","","","","","","76","L","3","","","63","main_expt",""
"","bandit","143","500294","0.0-105.0-0.0","06005721","wem/bandit_party_2","A6M6N01KBYGVM","either","7","1184","","","","","","","1","0","0","0.8033841581","","0.6","0.2","0.4","0.8","","","","","0.8445511995","0.261135461","0.7614619666","0.8033841581","","","","","","","","","","76","L","3","","","64","main_expt",""
"","bandit","144","502454","0.0-106.0-0.0","06005721","wem/bandit_party_2","A6M6N01KBYGVM","either","7","645","","","","","","","1","0","0","0.8458775523","","0.6","0.2","0.4","0.8","","","","","0.7838665633","0.4398785507","0.7474824059","0.8458775523","","","","","","","","","","76","L","3","","","65","main_expt",""
"","bandit","145","504523","0.0-107.0-0.0","06005721","wem/bandit_party_2","A6M6N01KBYGVM","either","7","559","","","","","","","1","0","0","0.8612648572","","0.6","0.2","0.4","0.8","","","","","0.8399866527","0.4549930047","0.7083026918","0.8612648572","","","","","","","","","","76","L","3","","","66","main_expt",""
"","bandit","146","506532","0.0-108.0-0.0","06005721","wem/bandit_party_2","A6M6N01KBYGVM","either","7","501","","","","","","","1","0","0","0.8686018104","","0.6","0.2","0.4","0.8","","","","","0.9109535201","0.5565794079","0.6535093674","0.8686018104","","","","","","","","","","76","L","3","","","67","main_expt",""
"","bandit","147","508522","0.0-109.0-0.0","06005721","wem/bandit_party_2","A6M6N01KBYGVM","either","7","480","","","","","","","1","0","0","0.8693437115","","0.6","0.2","0.4","0.8","","","","","0.9064065477","0.4211802827","0.4923739087","0.8693437115","","","","","","","","","","76","L","3","","","68","main_expt",""
"","bandit","148","511107","0.0-110.0-0.0","06005721","wem/bandit_party_2","A6M6N01KBYGVM","either","7","1074","","","","","","","1","0","0","0.9168970181","","0.6","0.2","0.4","0.8","","","","","0.9315833469","0.3687693293","0.4898097669","0.9168970181","","","","","","","","","","76","L","3","","","69","main_expt",""
"","bandit","149","513742","0.0-111.0-0.0","06005721","wem/bandit_party_2","A6M6N01KBYGVM","either","7","1121","","","","","","","1","0","0","0.9293527272","","0.6","0.2","0.4","0.8","","","","","0.9393923483","0.3460903474","0.4369614599","0.9293527272","","","","","","","","","","76","L","3","","","70","main_expt",""
"","bandit","150","515817","0.0-112.0-0.0","06005721","wem/bandit_party_2","A6M6N01KBYGVM","either","7","565","","","","","","","1","0","0","0.949087413","","0.6","0.2","0.4","0.8","","","","","0.9568343035","0.3278112836","0.5031037484","0.949087413","","","","","","","","","","76","L","3","","","71","main_expt",""
"","bandit","151","517636","0.0-113.0-0.0","06005721","wem/bandit_party_2","A6M6N01KBYGVM","either","7","308","","","","","","","1","0","0","0.906373323","","0.6","0.2","0.4","0.8","","","","","0.947758434","0.2720469766","0.5397903688","0.906373323","","","","","","","","","","76","L","3","","","72","main_expt",""
"","bandit","152","519557","0.0-114.0-0.0","06005721","wem/bandit_party_2","A6M6N01KBYGVM","either","7","407","","","","","","","1","0","0","0.93965919","","0.6","0.2","0.4","0.8","","","","","0.9052010222","0.2451019773","0.5540652028","0.93965919","","","","","","","","","","76","L","3","","","73","main_expt",""
"","bandit","153","521472","0.0-115.0-0.0","06005721","wem/bandit_party_2","A6M6N01KBYGVM","either","7","406","","","","","","","1","0","0","0.9416319858","","0.6","0.2","0.4","0.8","","","","","0.927704936","0.2645862521","0.61733434","0.9416319858","","","","","","","","","","76","L","3","","","74","main_expt",""
"","bandit","154","523324","0.0-116.0-0.0","06005721","wem/bandit_party_2","A6M6N01KBYGVM","either","7","338","","","","","","","1","0","0","0.9535384208","","0.6","0.2","0.4","0.8","","","","","0.8769567517","0.2298582","0.6341908543","0.9535384208","","","","","","","","","","76","L","3","","","75","main_expt",""
"","bandit","155","525105","0.0-117.0-0.0","06005721","wem/bandit_party_2","A6M6N01KBYGVM","either","7","271","","","","","","","0","1","0","","0.9585479729","0.6","0.2","0.4","0.8","0.8456064169","0.3460043445","0.6355577018","0.9585479729","","","","","","","","","","","","","","76","L","3","","","76","main_expt",""
"","bandit","156","527781","0.0-118.0-0.0","06005721","wem/bandit_party_2","A6M6N01KBYGVM","either","7","1163","","","","","","","1","0","0","0.9610253773","","0.6","0.2","0.4","0.8","","","","","0.8325595713","0.2526488818","0.7055426269","0.9610253773","","","","","","","","","","76","L","3","","","77","main_expt",""
"","bandit","157","531124","0.0-119.0-0.0","06005721","wem/bandit_party_2","A6M6N01KBYGVM","either","7","1830","","","","","","","0","0","1","","0.9580320452","0.6","0.2","0.4","0.8","0.9128982172","0.2625396382","0.6137882531","0.9580320452","","","","","","","","","","","","","","76","L","3","","","78","main_expt",""
"","bandit","158","533022","0.0-120.0-0.0","06005721","wem/bandit_party_2","A6M6N01KBYGVM","either","7","382","","","","","","","0","0","1","0.9403834825","","0.6","0.2","0.4","0.8","","","","","0.9213349282","0.2957535945","0.668392527","0.9403834825","","","","","","","","","","76","L","3","","","79","main_expt",""
"","bandit","159","535854","0.0-121.0-0.0","06005721","wem/bandit_party_2","A6M6N01KBYGVM","either","7","1317","","","","","","","1","0","0","0.8935563746","","0.6","0.2","0.4","0.8","","","","","0.8935563746","0.1831261498","0.7457361895","0.946171157","","","","","","","","","","72","H","0","img/none_selected.jpg","","80","main_expt",""
"","bandit","160","537904","0.0-122.0-0.0","06005721","wem/bandit_party_2","A6M6N01KBYGVM","either","7","534","","","","","","","0","1","0","","0.932831263","0.6","0.2","0.4","0.8","0.932831263","0.1450659425","0.8028050151","0.9800092583","","","","","","","","","","","","","","72","H","0","img/none_selected.jpg","","81","main_expt",""
"","bandit","161","539830","0.0-123.0-0.0","06005721","wem/bandit_party_2","A6M6N01KBYGVM","either","7","410","","","","","","","1","0","0","0.9403650082","","0.6","0.2","0.4","0.8","","","","","0.9403650082","0.1486641529","0.8727424511","0.9666397243","","","","","","","","","","72","H","0","img/none_selected.jpg","","82","main_expt",""
"","bandit","162","541657","0.0-124.0-0.0","06005721","wem/bandit_party_2","A6M6N01KBYGVM","either","7","317","","","","","","","1","0","0","0.9066396881","","0.6","0.2","0.4","0.8","","","","","0.9066396881","0.1567811066","0.8283068274","0.9637330664","","","","","","","","","","72","H","0","img/none_selected.jpg","","83","main_expt",""
"","bandit","163","543491","0.0-125.0-0.0","06005721","wem/bandit_party_2","A6M6N01KBYGVM","either","7","322","","","","","","","1","0","0","0.8962006295","","0.6","0.2","0.4","0.8","","","","","0.8962006295","0.196091916","0.8030064341","0.9617949183","","","","","","","","","","72","H","0","img/none_selected.jpg","","84","main_expt",""
"","bandit","164","545320","0.0-126.0-0.0","06005721","wem/bandit_party_2","A6M6N01KBYGVM","either","7","320","","","","","","","1","0","0","0.9093999993","","0.6","0.2","0.4","0.8","","","","","0.9093999993","0.1512390112","0.8622567251","0.9561985801","","","","","","","","","","72","H","0","img/none_selected.jpg","","85","main_expt",""
"","bandit","165","547135","0.0-127.0-0.0","06005721","wem/bandit_party_2","A6M6N01KBYGVM","either","7","306","","","","","","","1","0","0","0.9326862648","","0.6","0.2","0.4","0.8","","","","","0.9326862648","0.1486491559","0.896584634","0.9422505668","","","","","","","","","","72","H","0","img/none_selected.jpg","","86","main_expt",""
"","bandit","166","548993","0.0-128.0-0.0","06005721","wem/bandit_party_2","A6M6N01KBYGVM","either","7","348","","","","","","","1","0","0","0.9039434857","","0.6","0.2","0.4","0.8","","","","","0.9039434857","0.1047878604","0.9208758521","0.926711091","","","","","","","","","","72","H","0","img/none_selected.jpg","","87","main_expt",""
"","bandit","167","550938","0.0-129.0-0.0","06005721","wem/bandit_party_2","A6M6N01KBYGVM","either","7","432","","","","","","","1","0","0","0.9195127861","","0.6","0.2","0.4","0.8","","","","","0.9195127861","0.07038149384","0.9266301883","0.9092576496","","","","","","","","","","72","H","0","img/none_selected.jpg","","88","main_expt",""
"","bandit","168","552673","0.0-130.0-0.0","06005721","wem/bandit_party_2","A6M6N01KBYGVM","either","7","223","","","","","","","0","1","0","","0.9225053559","0.6","0.2","0.4","0.8","0.9225053559","0.1311535074","0.9259215542","0.8948591238","","","","","","","","","","","","","","72","H","0","img/none_selected.jpg","","89","main_expt",""
"","bandit","169","554523","0.0-131.0-0.0","06005721","wem/bandit_party_2","A6M6N01KBYGVM","either","7","336","","","","","","","1","0","0","0.9014563988","","0.6","0.2","0.4","0.8","","","","","0.9014563988","0.1241310956","0.9400480964","0.8716727139","","","","","","","","","","72","H","0","img/none_selected.jpg","","90","main_expt",""
"","bandit","170","556718","0.0-132.0-0.0","06005721","wem/bandit_party_2","A6M6N01KBYGVM","either","7","686","","","","","","","0","1","0","","0.9162570652","0.6","0.2","0.4","0.8","0.9162570652","0.09664170694","0.8961855863","0.8969144331","","","","","","","","","","","","","","72","H","0","img/none_selected.jpg","","91","main_expt",""
"","bandit","171","558843","0.0-133.0-0.0","06005721","wem/bandit_party_2","A6M6N01KBYGVM","either","7","612","","","","","","","1","0","0","0.9171553871","","0.6","0.2","0.4","0.8","","","","","0.9171553871","0.09586364307","0.9211437923","0.9171199264","","","","","","","","","","72","H","0","img/none_selected.jpg","","92","main_expt",""
"","bandit","172","560833","0.0-134.0-0.0","06005721","wem/bandit_party_2","A6M6N01KBYGVM","either","7","478","","","","","","","0","1","0","","0.9463284029","0.6","0.2","0.4","0.8","0.9463284029","0.08304118766","0.8947860396","0.9593171332","","","","","","","","","","","","","","72","H","0","img/none_selected.jpg","","93","main_expt",""
"","bandit","173","562499","0.0-135.0-0.0","06005721","wem/bandit_party_2","A6M6N01KBYGVM","either","7","150","","","","","","","1","0","0","0.9477079066","","0.6","0.2","0.4","0.8","","","","","0.9477079066","0.1222865453","0.822540961","0.959226596","","","","","","","","","","72","H","0","img/none_selected.jpg","","94","main_expt",""
"","bandit","174","564755","0.0-136.0-0.0","06005721","wem/bandit_party_2","A6M6N01KBYGVM","either","7","742","","","","","","","1","0","0","0.9474919074","","0.6","0.2","0.4","0.8","","","","","0.9474919074","0.211460517","0.8288041746","0.947105423","","","","","","","","","","72","H","0","img/none_selected.jpg","","95","main_expt",""
"","bandit","175","566562","0.0-137.0-0.0","06005721","wem/bandit_party_2","A6M6N01KBYGVM","either","7","295","","","","","","","0","1","0","","0.9722490369","0.6","0.2","0.4","0.8","0.9722490369","0.2757920232","0.8217366877","0.937205139","","","","","","","","","","","","","","72","H","0","img/none_selected.jpg","","96","main_expt",""
"","bandit","176","568436","0.0-138.0-0.0","06005721","wem/bandit_party_2","A6M6N01KBYGVM","either","7","359","","","","","","","0","1","0","","0.980822097","0.6","0.2","0.4","0.8","0.980822097","0.2646876298","0.725285089","0.9472767204","","","","","","","","","","","","","","72","H","0","img/none_selected.jpg","","97","main_expt",""
"","bandit","177","570241","0.0-139.0-0.0","06005721","wem/bandit_party_2","A6M6N01KBYGVM","either","7","294","","","","","","","1","0","0","0.9761591307","","0.6","0.2","0.4","0.8","","","","","0.9761591307","0.3278454636","0.7958966199","0.962959595","","","","","","","","","","72","H","0","img/none_selected.jpg","","98","main_expt",""
"","bandit","178","572011","0.0-140.0-0.0","06005721","wem/bandit_party_2","A6M6N01KBYGVM","either","7","256","","","","","","","1","0","0","0.9597391097","","0.6","0.2","0.4","0.8","","","","","0.9597391097","0.4641870332","0.7741840332","0.9720903607","","","","","","","","","","72","H","0","img/none_selected.jpg","","99","main_expt",""
"","bandit","179","573750","0.0-141.0-0.0","06005721","wem/bandit_party_2","A6M6N01KBYGVM","either","7","229","","","","","","","1","0","0","0.9557148533","","0.6","0.2","0.4","0.8","","","","","0.9557148533","0.3972344865","0.7934767162","0.9737169538","","","","","","","","","","72","H","0","img/none_selected.jpg","","100","main_expt",""
"","bandit","180","575370","0.0-142.0-0.0","06005721","wem/bandit_party_2","A6M6N01KBYGVM","either","7","107","","","","","","","1","0","0","0.9687934467","","0.6","0.2","0.4","0.8","","","","","0.9687934467","0.4395304924","0.8307638242","0.986468331","","","","","","","","","","72","H","0","img/none_selected.jpg","","101","main_expt",""
"","bandit","181","577235","0.0-143.0-0.0","06005721","wem/bandit_party_2","A6M6N01KBYGVM","either","7","349","","","","","","","1","0","0","0.9713318577","","0.6","0.2","0.4","0.8","","","","","0.9713318577","0.5248298482","0.7737236933","0.9859557102","","","","","","","","","","72","H","0","img/none_selected.jpg","","102","main_expt",""
"","bandit","182","579037","0.0-144.0-0.0","06005721","wem/bandit_party_2","A6M6N01KBYGVM","either","7","294","","","","","","","1","0","0","0.9768128314","","0.6","0.2","0.4","0.8","","","","","0.9768128314","0.6218364577","0.8168427084","0.9828698412","","","","","","","","","","72","H","0","img/none_selected.jpg","","103","main_expt",""
"","bandit","183","580856","0.0-145.0-0.0","06005721","wem/bandit_party_2","A6M6N01KBYGVM","either","7","308","","","","","","","0","1","0","","0.9566706727","0.6","0.2","0.4","0.8","0.9566706727","0.5528563194","0.7020104164","0.9655029871","","","","","","","","","","","","","","72","H","0","img/none_selected.jpg","","104","main_expt",""
"","bandit","184","582737","0.0-146.0-0.0","06005721","wem/bandit_party_2","A6M6N01KBYGVM","either","7","370","","","","","","","0","1","0","","0.9352711559","0.6","0.2","0.4","0.8","0.9352711559","0.515821512","0.6750414237","0.9587067199","","","","","","","","","","","","","","72","H","0","img/none_selected.jpg","","105","main_expt",""
"","bandit","185","584571","0.0-147.0-0.0","06005721","wem/bandit_party_2","A6M6N01KBYGVM","either","7","320","","","","","","","0","1","0","","0.8980036198","0.6","0.2","0.4","0.8","0.8980036198","0.5380341879","0.5886413089","0.9358961366","","","","","","","","","","","","","","72","H","0","img/none_selected.jpg","","106","main_expt",""
"","bandit","186","586393","0.0-148.0-0.0","06005721","wem/bandit_party_2","A6M6N01KBYGVM","either","7","310","","","","","","","1","0","0","0.9175797088","","0.6","0.2","0.4","0.8","","","","","0.9175797088","0.3291998873","0.5507707533","0.8829949032","","","","","","","","","","72","H","0","img/none_selected.jpg","","107","main_expt",""
"","bandit","187","588567","0.0-149.0-0.0","06005721","wem/bandit_party_2","A6M6N01KBYGVM","either","7","663","","","","","","","0","0","1","","0.8966825343","0.6","0.2","0.4","0.8","0.8966825343","0.3608627265","0.4325904974","0.7668100276","","","","","","","","","","","","","","72","H","0","img/none_selected.jpg","","108","main_expt",""
"","bandit","188","590665","0.0-150.0-0.0","06005721","wem/bandit_party_2","A6M6N01KBYGVM","either","7","584","","","","","","","0","1","0","","0.8883819791","0.6","0.2","0.4","0.8","0.8883819791","0.3837942066","0.3735159861","0.7652463225","","","","","","","","","","","","","","72","H","0","img/none_selected.jpg","","109","main_expt",""
"","bandit","189","592516","0.0-151.0-0.0","06005721","wem/bandit_party_2","A6M6N01KBYGVM","either","7","336","","","","","","","0","1","0","","0.9087011364","0.6","0.2","0.4","0.8","0.9087011364","0.3019365294","0.3704440872","0.7974745759","","","","","","","","","","","","","","72","H","0","img/none_selected.jpg","","110","main_expt",""
"","bandit","190","594536","0.0-152.0-0.0","06005721","wem/bandit_party_2","A6M6N01KBYGVM","either","7","509","","","","","","","0","1","0","","0.9337026812","0.6","0.2","0.4","0.8","0.9337026812","0.3483008865","0.2749067499","0.812352323","","","","","","","","","","","","","","72","H","0","img/none_selected.jpg","","111","main_expt",""
"","bandit","191","596586","0.0-153.0-0.0","06005721","wem/bandit_party_2","A6M6N01KBYGVM","either","7","535","","","","","","","1","0","0","0.9113388615","","0.6","0.2","0.4","0.8","","","","","0.9113388615","0.4342302697","0.2734667401","0.7428975936","","","","","","","","","","72","H","0","img/none_selected.jpg","","112","main_expt",""
"","bandit","192","598622","0.0-154.0-0.0","06005721","wem/bandit_party_2","A6M6N01KBYGVM","either","7","525","","","","","","","0","1","0","","0.8980528729","0.6","0.2","0.4","0.8","0.8980528729","0.5187246657","0.2291946885","0.7139653514","","","","","","","","","","","","","","72","H","0","img/none_selected.jpg","","113","main_expt",""
"","bandit","193","600467","0.0-155.0-0.0","06005721","wem/bandit_party_2","A6M6N01KBYGVM","either","7","330","","","","","","","0","0","1","","0.8036326458","0.6","0.2","0.4","0.8","0.8036326458","0.5381742134","0.2413339081","0.7945657698","","","","","","","","","","","","","","72","H","0","img/none_selected.jpg","","114","main_expt",""
"","bandit","194","602342","0.0-156.0-0.0","06005721","wem/bandit_party_2","A6M6N01KBYGVM","either","7","364","","","","","","","0","1","0","","0.8700945717","0.6","0.2","0.4","0.8","0.8700945717","0.4785029821","0.3092826039","0.8405588069","","","","","","","","","","","","","","72","H","0","img/none_selected.jpg","","115","main_expt",""
"","bandit","195","604251","0.0-157.0-0.0","06005721","wem/bandit_party_2","A6M6N01KBYGVM","either","7","393","","","","","","","0","0","1","","0.8895114993","0.6","0.2","0.4","0.8","0.8895114993","0.4654757386","0.2361366225","0.8641798474","","","","","","","","","","","","","","72","H","0","img/none_selected.jpg","","116","main_expt",""
"","bandit","196","606056","0.0-158.0-0.0","06005721","wem/bandit_party_2","A6M6N01KBYGVM","either","7","293","","","","","","","0","1","0","","0.8936856952","0.6","0.2","0.4","0.8","0.8936856952","0.4578633225","0.218402711","0.8756768431","","","","","","","","","","","","","","72","H","0","img/none_selected.jpg","","117","main_expt",""
"","bandit","197","608340","0.0-159.0-0.0","06005721","wem/bandit_party_2","A6M6N01KBYGVM","either","7","776","","","","","","","0","0","1","0.8077127093","","0.6","0.2","0.4","0.8","","","","","0.8077127093","0.4773941538","0.2003641109","0.9015269718","","","","","","","","","","72","H","0","img/none_selected.jpg","","118","main_expt",""
"","bandit","198","610792","0.0-160.0-0.0","06005721","wem/bandit_party_2","A6M6N01KBYGVM","either","7","939","","","","","","","1","0","0","0.8709738884","","0.6","0.2","0.4","0.8","","","","","0.8901108642","0.508374463","0.1375137305","0.8709738884","","","","","","","","","","76","L","3","","","119","main_expt",""
"","bandit","199","612667","0.0-161.0-0.0","06005721","wem/bandit_party_2","A6M6N01KBYGVM","either","7","358","","","","","","","0","0","1","0.8268338002","","0.6","0.2","0.4","0.8","","","","","0.8731124259","0.4294310012","0.08656631556","0.8268338002","","","","","","","","","","76","L","3","","","120","main_expt",""
"","bandit","200","614582","0.0-162.0-0.0","06005721","wem/bandit_party_2","A6M6N01KBYGVM","either","7","405","","","","","","","0","0","1","0.07812634859","","0.6","0.2","0.4","0.8","","","","","0.8509174952","0.3933985885","0.07812634859","0.8432616236","","","","","","","","","","75","K","2","","","121","main_expt",""
"","bandit","201","616258","0.0-163.0-0.0","06005721","wem/bandit_party_2","A6M6N01KBYGVM","either","7","162","","","","","","","0","0","1","0.2641409089","","0.6","0.2","0.4","0.8","","","","","0.8707856005","0.2641409089","0.09046411854","0.8128728295","","","","","","","","","","74","J","1","","","122","main_expt",""
"","bandit","202","618365","0.0-164.0-0.0","06005721","wem/bandit_party_2","A6M6N01KBYGVM","either","7","597","","","","","","","1","0","0","0.7592524618","","0.6","0.2","0.4","0.8","","","","","0.7592524618","0.2491349268","0.1132512529","0.752198112","","","","","","","","","","72","H","0","img/none_selected.jpg","","123","main_expt",""
"","bandit","203","620264","0.0-165.0-0.0","06005721","wem/bandit_party_2","A6M6N01KBYGVM","either","7","385","","","","","","","0","1","0","","0.7330206325","0.6","0.2","0.4","0.8","0.7330206325","0.2587226179","0.09419269712","0.7117781612","","","","","","","","","","","","","","72","H","0","img/none_selected.jpg","","124","main_expt",""
"","bandit","204","622840","0.0-166.0-0.0","06005721","wem/bandit_party_2","A6M6N01KBYGVM","either","7","1062","","","","","","","0","1","0","","0.6903693331","0.6","0.2","0.4","0.8","0.6903693331","0.2925679814","0.110513045","0.7177409252","","","","","","","","","","","","","","72","H","0","img/none_selected.jpg","","125","main_expt",""
"","bandit","205","624639","0.0-167.0-0.0","06005721","wem/bandit_party_2","A6M6N01KBYGVM","either","7","287","","","","","","","1","0","0","0.6370641568","","0.6","0.2","0.4","0.8","","","","","0.6370641568","0.3997536411","0.07088043536","0.7240917845","","","","","","","","","","72","H","0","img/none_selected.jpg","","126","main_expt",""
"","bandit","206","626673","0.0-168.0-0.0","06005721","wem/bandit_party_2","A6M6N01KBYGVM","either","7","520","","","","","","","0","0","1","","0.6192694325","0.6","0.2","0.4","0.8","0.6192694325","0.4120812041","0.1041728595","0.6788578752","","","","","","","","","","","","","","72","H","0","img/none_selected.jpg","","127","main_expt",""
"","bandit","207","628517","0.0-169.0-0.0","06005721","wem/bandit_party_2","A6M6N01KBYGVM","either","7","333","","","","","","","1","0","0","0.559348281","","0.6","0.2","0.4","0.8","","","","","0.559348281","0.3731276689","0.1006708935","0.6257789885","","","","","","","","","","72","H","0","img/none_selected.jpg","","128","main_expt",""
"","bandit","208","631581","0.0-170.0-0.0","06005721","wem/bandit_party_2","A6M6N01KBYGVM","either","7","1555","","","","","","","0","0","1","0.610360397","","0.6","0.2","0.4","0.8","","","","","0.610360397","0.3263017501","0.1336488566","0.4761868647","","","","","","","","","","72","H","0","img/none_selected.jpg","","129","main_expt",""
"","bandit","209","633525","0.0-171.0-0.0","06005721","wem/bandit_party_2","A6M6N01KBYGVM","either","7","433","","","","","","","1","0","0","0.5737783772","","0.6","0.2","0.4","0.8","","","","","0.5737783772","0.3226142564","0.1271550391","0.4745188583","","","","","","","","","","72","H","0","img/none_selected.jpg","","130","main_expt",""
"","bandit","210","635574","0.0-172.0-0.0","06005721","wem/bandit_party_2","A6M6N01KBYGVM","either","7","538","","","","","","","1","0","0","0.6252154127","","0.6","0.2","0.4","0.8","","","","","0.6252154127","0.3907136596","0.1594360192","0.4674409752","","","","","","","","","","72","H","0","img/none_selected.jpg","","131","main_expt",""
"","bandit","211","637559","0.0-173.0-0.0","06005721","wem/bandit_party_2","A6M6N01KBYGVM","either","7","472","","","","","","","0","1","0","","0.6473056352","0.6","0.2","0.4","0.8","0.6473056352","0.4983036492","0.1027658661","0.368649462","","","","","","","","","","","","","","72","H","0","img/none_selected.jpg","","132","main_expt",""
"","bandit","212","639352","0.0-174.0-0.0","06005721","wem/bandit_party_2","A6M6N01KBYGVM","either","7","279","","","","","","","1","0","0","0.4595123468","","0.6","0.2","0.4","0.8","","","","","0.4595123468","0.6347393695","0.1223548883","0.4313577514","","","","","","","","","","72","H","0","img/none_selected.jpg","","133","main_expt",""
"","bandit","213","641175","0.0-175.0-0.0","06005721","wem/bandit_party_2","A6M6N01KBYGVM","either","7","309","","","","","","","0","1","0","","0.3043385566","0.6","0.2","0.4","0.8","0.3043385566","0.6037412299","0.1063029331","0.3692150919","","","","","","","","","","","","","","72","H","0","img/none_selected.jpg","","134","main_expt",""
"","bandit","214","642968","0.0-176.0-0.0","06005721","wem/bandit_party_2","A6M6N01KBYGVM","either","7","278","","","","","","","0","1","0","","0.340857567","0.6","0.2","0.4","0.8","0.340857567","0.5511090861","0.080644856","0.3077662431","","","","","","","","","","","","","","72","H","0","img/none_selected.jpg","","135","main_expt",""
"","bandit","215","644884","0.0-177.0-0.0","06005721","wem/bandit_party_2","A6M6N01KBYGVM","either","7","405","","","","","","","1","0","0","0.2655810755","","0.6","0.2","0.4","0.8","","","","","0.2655810755","0.585911414","0.1359867045","0.314969588","","","","","","","","","","72","H","0","img/none_selected.jpg","","136","main_expt",""
"","bandit","216","647748","0.0-178.0-0.0","06005721","wem/bandit_party_2","A6M6N01KBYGVM","either","7","1355","","","","","","","1","0","0","0.3025530854","","0.6","0.2","0.4","0.8","","","","","0.3025530854","0.5805905743","0.168344283","0.3590847215","","","","","","","","","","72","H","0","img/none_selected.jpg","","137","main_expt",""
"","bandit","217","649759","0.0-179.0-0.0","06005721","wem/bandit_party_2","A6M6N01KBYGVM","either","7","496","","","","","","","0","1","0","","0.2888348812","0.6","0.2","0.4","0.8","0.2888348812","0.6357737786","0.1867455324","0.3588584756","","","","","","","","","","","","","","72","H","0","img/none_selected.jpg","","138","main_expt",""
"","bandit","218","651436","0.0-180.0-0.0","06005721","wem/bandit_party_2","A6M6N01KBYGVM","either","7","166","","","","","","","0","1","0","","0.2463208975","0.6","0.2","0.4","0.8","0.2463208975","0.66639317","0.2277874407","0.4289761638","","","","","","","","","","","","","","72","H","0","img/none_selected.jpg","","139","main_expt",""
"","bandit","219","653203","0.0-181.0-0.0","06005721","wem/bandit_party_2","A6M6N01KBYGVM","either","7","256","","","","","","","0","0","1","","0.273109751","0.6","0.2","0.4","0.8","0.273109751","0.6365789307","0.2577820179","0.3801639999","","","","","","","","","","","","","","72","H","0","img/none_selected.jpg","","140","main_expt",""
"","bandit","220","655005","0.0-182.0-0.0","06005721","wem/bandit_party_2","A6M6N01KBYGVM","either","7","290","","","","","","","1","0","0","0.3355442787","","0.6","0.2","0.4","0.8","","","","","0.3355442787","0.6045632144","0.3674069736","0.2445936549","","","","","","","","","","72","H","0","img/none_selected.jpg","","141","main_expt",""
"","bandit","221","657206","0.0-183.0-0.0","06005721","wem/bandit_party_2","A6M6N01KBYGVM","either","7","687","","","","","","","0","0","1","0.2781999234","","0.6","0.2","0.4","0.8","","","","","0.2781999234","0.5148607161","0.4345417514","0.3394066497","","","","","","","","","","72","H","0","img/none_selected.jpg","","142","main_expt",""
"","bandit","222","659811","0.0-184.0-0.0","06005721","wem/bandit_party_2","A6M6N01KBYGVM","either","7","1096","","","","","","","1","0","0","0.2899754881","","0.6","0.2","0.4","0.8","","","","","0.2599467226","0.4754154836","0.3811672827","0.2899754881","","","","","","","","","","76","L","3","","","143","main_expt",""
"","bandit","223","661604","0.0-185.0-0.0","06005721","wem/bandit_party_2","A6M6N01KBYGVM","either","7","281","","","","","","","0","0","1","","0.3701332444","0.6","0.2","0.4","0.8","0.2353144144","0.516029258","0.2754059391","0.3701332444","","","","","","","","","","","","","","76","L","3","","","144","main_expt",""
"","bandit","224","663455","0.0-186.0-0.0","06005721","wem/bandit_party_2","A6M6N01KBYGVM","either","7","337","","","","","","","0","0","1","0.3322753171","","0.6","0.2","0.4","0.8","","","","","0.2120114759","0.6646605279","0.2773400324","0.3322753171","","","","","","","","","","76","L","3","","","145","main_expt",""
"","bandit","225","665353","0.0-187.0-0.0","06005721","wem/bandit_party_2","A6M6N01KBYGVM","either","7","391","","","","","","","1","0","0","0.3203507811","","0.6","0.2","0.4","0.8","","","","","0.176067728","0.6331546467","0.2780426824","0.3203507811","","","","","","","","","","76","L","3","","","146","main_expt",""
"","bandit","226","667565","0.0-188.0-0.0","06005721","wem/bandit_party_2","A6M6N01KBYGVM","either","7","699","","","","","","","0","0","1","0.304761248","","0.6","0.2","0.4","0.8","","","","","0.1329453439","0.6356747602","0.3373608721","0.304761248","","","","","","","","","","76","L","3","","","147","main_expt",""
"","bandit","227","669464","0.0-189.0-0.0","06005721","wem/bandit_party_2","A6M6N01KBYGVM","either","7","384","","","","","","","0","0","1","0.3529594122","","0.6","0.2","0.4","0.8","","","","","0.1465103875","0.6301772709","0.3529594122","0.3809280674","","","","","","","","","","75","K","2","","","148","main_expt",""
"","bandit","228","671268","0.0-190.0-0.0","06005721","wem/bandit_party_2","A6M6N01KBYGVM","either","7","294","","","","","","","0","0","1","0.6640591829","","0.6","0.2","0.4","0.8","","","","","0.1190451538","0.6640591829","0.3878328211","0.3997986218","","","","","","","","","","74","J","1","","","149","main_expt",""
"","bandit","229","673309","0.0-191.0-0.0","06005721","wem/bandit_party_2","A6M6N01KBYGVM","either","7","528","","","","","","","0","0","1","0.1195570164","","0.6","0.2","0.4","0.8","","","","","0.1195570164","0.6592717552","0.42943501","0.3159341416","","","","","","","","","","72","H","0","img/none_selected.jpg","","150","main_expt",""
"","bandit","230","675115","0.0-192.0-0.0","06005721","wem/bandit_party_2","A6M6N01KBYGVM","either","7","295","","","","","","","0","0","1","","0.100492686","0.6","0.2","0.4","0.8","0.100492686","0.5928743102","0.5142681232","0.3052853957","","","","","","","","","","","","","","72","H","0","img/none_selected.jpg","","151","main_expt",""
"","bandit","231","676865","0.0-193.0-0.0","06005721","wem/bandit_party_2","A6M6N01KBYGVM","either","7","240","","","","","","","0","1","0","","0.6822187145","0.6","0.2","0.4","0.8","0.1030367897","0.6822187145","0.6321073962","0.1896018403","","","","","","","","","","","","","","74","J","1","","","152","main_expt",""
"","bandit","232","678574","0.0-194.0-0.0","06005721","wem/bandit_party_2","A6M6N01KBYGVM","either","7","194","","","","","","","0","1","0","","0.6832005509","0.6","0.2","0.4","0.8","0.2059045691","0.6832005509","0.6965670792","0.2439656658","","","","","","","","","","","","","","74","J","1","","","153","main_expt",""
"","bandit","233","680370","0.0-195.0-0.0","06005721","wem/bandit_party_2","A6M6N01KBYGVM","either","7","287","","","","","","","0","1","0","","0.7109729062","0.6","0.2","0.4","0.8","0.2921647579","0.7109729062","0.6516005735","0.3068434149","","","","","","","","","","","","","","74","J","1","","","154","main_expt",""
"","bandit","234","682132","0.0-196.0-0.0","06005721","wem/bandit_party_2","A6M6N01KBYGVM","either","7","251","","","","","","","0","1","0","","0.6975465092","0.6","0.2","0.4","0.8","0.1789694193","0.6975465092","0.7291318088","0.2314644909","","","","","","","","","","","","","","74","J","1","","","155","main_expt",""
"","bandit","235","683917","0.0-197.0-0.0","06005721","wem/bandit_party_2","A6M6N01KBYGVM","either","7","271","","","","","","","0","0","1","0.6580608271","","0.6","0.2","0.4","0.8","","","","","0.2187195075","0.6580608271","0.6273572288","0.2154001061","","","","","","","","","","74","J","1","","","156","main_expt",""
"","bandit","236","685671","0.0-198.0-0.0","06005721","wem/bandit_party_2","A6M6N01KBYGVM","either","7","239","","","","","","","1","0","0","0.5695802138","","0.6","0.2","0.4","0.8","","","","","0.2669834713","0.5695802138","0.566197257","0.1648135251","","","","","","","","","","74","J","1","","","157","main_expt",""
"","bandit","237","688331","0.0-199.0-0.0","06005721","wem/bandit_party_2","A6M6N01KBYGVM","either","7","1149","","","","","","","0","1","0","","0.4733954301","0.6","0.2","0.4","0.8","0.4240307821","0.4733954301","0.4523642269","0.2215973425","","","","","","","","","","","","","","74","J","1","","","158","main_expt",""
"","bandit","238","690185","0.0-200.0-0.0","06005721","wem/bandit_party_2","A6M6N01KBYGVM","either","7","344","","","","","","","1","0","0","0.5619817243","","0.6","0.2","0.4","0.8","","","","","0.3840951437","0.5619817243","0.3991212054","0.2243274726","","","","","","","","","","74","J","1","","","159","main_expt",""
"","bandit","239","691968","0.0-201.0-0.0","06005721","wem/bandit_party_2","A6M6N01KBYGVM","either","7","273","","","","","","","0","0","1","0.4701658979","","0.6","0.2","0.4","0.8","","","","","0.4098147986","0.4701658979","0.3566558104","0.2061161075","","","","","","","","","","74","J","1","","","160","main_expt",""
"","bandit","240","694004","0.0-202.0-0.0","06005721","wem/bandit_party_2","A6M6N01KBYGVM","either","7","525","","","","","","","0","1","0","","0.5673671472","0.6","0.2","0.4","0.8","0.4027252302","0.5673671472","0.4430908041","0.209200141","","","","","","","","","","","","","","74","J","1","","","161","main_expt",""
"","bandit","241","695890","0.0-203.0-0.0","06005721","wem/bandit_party_2","A6M6N01KBYGVM","either","7","374","","","","","","","0","0","1","","0.4921809208","0.6","0.2","0.4","0.8","0.3824170733","0.4921809208","0.3966098285","0.1477343718","","","","","","","","","","","","","","74","J","1","","","162","main_expt",""
"","bandit","242","697796","0.0-204.0-0.0","06005721","wem/bandit_party_2","A6M6N01KBYGVM","either","7","392","","","","","","","0","1","0","","0.4204505308","0.6","0.2","0.4","0.8","0.3352280924","0.4204505308","0.3455868331","0.1525050104","","","","","","","","","","","","","","74","J","1","","","163","main_expt",""
"","bandit","243","699683","0.0-205.0-0.0","06005721","wem/bandit_party_2","A6M6N01KBYGVM","either","7","374","","","","","","","0","1","0","","0.534748173","0.6","0.2","0.4","0.8","0.3379187571","0.534748173","0.3368969945","0.08831047354","","","","","","","","","","","","","","74","J","1","","","164","main_expt",""
"","bandit","244","701267","0.0-206.0-0.0","06005721","wem/bandit_party_2","A6M6N01KBYGVM","either","7","72","","","","","","","0","1","0","","0.4724966102","0.6","0.2","0.4","0.8","0.3160546663","0.4724966102","0.3767562303","0.1035482763","","","","","","","","","","","","","","74","J","1","","","165","main_expt",""
"","bandit","245","703055","0.0-207.0-0.0","06005721","wem/bandit_party_2","A6M6N01KBYGVM","either","7","279","","","","","","","0","1","0","","0.5280505203","0.6","0.2","0.4","0.8","0.3058359067","0.5280505203","0.4727650462","0.06888190676","","","","","","","","","","","","","","74","J","1","","","166","main_expt",""
"","bandit","246","704915","0.0-208.0-0.0","06005721","wem/bandit_party_2","A6M6N01KBYGVM","either","7","349","","","","","","","0","0","1","","0.589670135","0.6","0.2","0.4","0.8","0.2561334246","0.589670135","0.6140635231","0.06051452263","","","","","","","","","","","","","","74","J","1","","","167","main_expt",""
"","bandit","247","706693","0.0-209.0-0.0","06005721","wem/bandit_party_2","A6M6N01KBYGVM","either","7","263","","","","","","","0","1","0","","0.5058201204","0.6","0.2","0.4","0.8","0.2459084815","0.5058201204","0.5629225295","0.07905307949","","","","","","","","","","","","","","74","J","1","","","168","main_expt",""
"","bandit","248","708515","0.0-210.0-0.0","06005721","wem/bandit_party_2","A6M6N01KBYGVM","either","7","309","","","","","","","1","0","0","0.4102709571","","0.6","0.2","0.4","0.8","","","","","0.2138460752","0.4102709571","0.6456076899","0.07051596905","","","","","","","","","","74","J","1","","","169","main_expt",""
"","bandit","249","710391","0.0-211.0-0.0","06005721","wem/bandit_party_2","A6M6N01KBYGVM","either","7","362","","","","","","","0","0","1","","0.5061826445","0.6","0.2","0.4","0.8","0.1642406351","0.5061826445","0.719827795","0.1056762318","","","","","","","","","","","","","","74","J","1","","","170","main_expt",""
"","bandit","250","712396","0.0-212.0-0.0","06005721","wem/bandit_party_2","A6M6N01KBYGVM","either","7","491","","","","","","","1","0","0","0.6092158501","","0.6","0.2","0.4","0.8","","","","","0.2337150112","0.6092158501","0.6716280274","0.1513980822","","","","","","","","","","74","J","1","","","171","main_expt",""
"","bandit","251","714601","0.0-213.0-0.0","06005721","wem/bandit_party_2","A6M6N01KBYGVM","either","7","694","","","","","","","0","1","0","","0.691496366","0.6","0.2","0.4","0.8","0.3128682212","0.691496366","0.5683226388","0.1552293495","","","","","","","","","","","","","","74","J","1","","","172","main_expt",""
"","bandit","252","716542","0.0-214.0-0.0","06005721","wem/bandit_party_2","A6M6N01KBYGVM","either","7","426","","","","","","","0","1","0","","0.7402253768","0.6","0.2","0.4","0.8","0.2775517843","0.7402253768","0.4581357746","0.1325975083","","","","","","","","","","","","","","74","J","1","","","173","main_expt",""
"","bandit","253","718452","0.0-215.0-0.0","06005721","wem/bandit_party_2","A6M6N01KBYGVM","either","7","396","","","","","","","0","0","1","","0.6601004511","0.6","0.2","0.4","0.8","0.4159305855","0.6601004511","0.5903479164","0.09024892351","","","","","","","","","","","","","","74","J","1","","","174","main_expt",""
"","bandit","254","720307","0.0-216.0-0.0","06005721","wem/bandit_party_2","A6M6N01KBYGVM","either","7","341","","","","","","","0","0","1","0.6781732273","","0.6","0.2","0.4","0.8","","","","","0.4471770837","0.6781732273","0.5658285383","0.06963745108","","","","","","","","","","74","J","1","","","175","main_expt",""
"","bandit","255","722114","0.0-217.0-0.0","06005721","wem/bandit_party_2","A6M6N01KBYGVM","either","7","294","","","","","","","0","1","0","","0.6932650799","0.6","0.2","0.4","0.8","0.5162211083","0.6932650799","0.5313506173","0.07897043431","","","","","","","","","","","","","","74","J","1","","","176","main_expt",""
"","bandit","256","723972","0.0-218.0-0.0","06005721","wem/bandit_party_2","A6M6N01KBYGVM","either","7","343","","","","","","","0","1","0","","0.6803850572","0.6","0.2","0.4","0.8","0.6372676231","0.6803850572","0.4231289234","0.09469685393","","","","","","","","","","","","","","74","J","1","","","177","main_expt",""
"","bandit","257","725794","0.0-219.0-0.0","06005721","wem/bandit_party_2","A6M6N01KBYGVM","either","7","309","","","","","","","0","1","0","","0.5407017663","0.6","0.2","0.4","0.8","0.6295749113","0.5407017663","0.580807006","0.1486386852","","","","","","","","","","","","","","74","J","1","","","178","main_expt",""
"","bandit","258","727598","0.0-220.0-0.0","06005721","wem/bandit_party_2","A6M6N01KBYGVM","either","7","288","","","","","","","0","1","0","","0.5931576708","0.6","0.2","0.4","0.8","0.4126066341","0.5931576708","0.5499948007","0.1965095934","","","","","","","","","","","","","","74","J","1","","","179","main_expt",""
"","bandit","259","729503","0.0-221.0-0.0","06005721","wem/bandit_party_2","A6M6N01KBYGVM","either","7","387","","","","","","","0","0","1","","0.5390819372","0.6","0.2","0.4","0.8","0.516991344","0.5390819372","0.4918200669","0.1749048096","","","","","","","","","","","","","","74","J","1","","","180","main_expt",""
"","bandit","260","731558","0.0-222.0-0.0","06005721","wem/bandit_party_2","A6M6N01KBYGVM","either","7","538","","","","","","","0","0","1","","0.4929910299","0.6","0.2","0.4","0.8","0.4239603033","0.4929910299","0.5428702931","0.232896561","","","","","","","","","","","","","","74","J","1","","","181","main_expt",""
"","bandit","261","733577","0.0-223.0-0.0","06005721","wem/bandit_party_2","A6M6N01KBYGVM","either","7","506","","","","","","","0","0","1","0.2561822725","","0.6","0.2","0.4","0.8","","","","","0.3961891141","0.458433212","0.5870547156","0.2561822725","","","","","","","","","","76","L","3","","","182","main_expt",""
"","bandit","262","735109","0.0-224.0-0.0","06005721","wem/bandit_party_2","A6M6N01KBYGVM","either","7","16","","","","","","","0","0","1","0.2713883962","","0.6","0.2","0.4","0.8","","","","","0.4364601233","0.5725449786","0.5031908535","0.2713883962","","","","","","","","","","76","L","3","","","183","main_expt",""
"","bandit","263","737054","0.0-225.0-0.0","06005721","wem/bandit_party_2","A6M6N01KBYGVM","either","7","428","","","","","","","0","0","1","0.3543557679","","0.6","0.2","0.4","0.8","","","","","0.4826964198","0.4878383732","0.4239978994","0.3543557679","","","","","","","","","","76","L","3","","","184","main_expt",""
"","bandit","264","738783","0.0-226.0-0.0","06005721","wem/bandit_party_2","A6M6N01KBYGVM","either","7","212","","","","","","","0","1","0","","0.3425545299","0.6","0.2","0.4","0.8","0.4448789548","0.5189350158","0.3425545299","0.2974533566","","","","","","","","","","","","","","75","K","2","","","185","main_expt",""
"","bandit","265","740550","0.0-227.0-0.0","06005721","wem/bandit_party_2","A6M6N01KBYGVM","either","7","258","","","","","","","0","0","1","0.2594221554","","0.6","0.2","0.4","0.8","","","","","0.4585835861","0.4310300585","0.2594221554","0.3295130888","","","","","","","","","","75","K","2","","","186","main_expt",""
"","bandit","266","742341","0.0-228.0-0.0","06005721","wem/bandit_party_2","A6M6N01KBYGVM","either","7","275","","","","","","","0","1","0","","0.350747246","0.6","0.2","0.4","0.8","0.5470412386","0.4005994516","0.350747246","0.3440574025","","","","","","","","","","","","","","75","K","2","","","187","main_expt",""
"","bandit","267","744186","0.0-229.0-0.0","06005721","wem/bandit_party_2","A6M6N01KBYGVM","either","7","330","","","","","","","0","0","1","0.3667816541","","0.6","0.2","0.4","0.8","","","","","0.5485419855","0.5684333967","0.3667816541","0.3176863717","","","","","","","","","","75","K","2","","","188","main_expt",""
"","bandit","268","746177","0.0-230.0-0.0","06005721","wem/bandit_party_2","A6M6N01KBYGVM","either","7","477","","","","","","","0","0","1","","0.3129240978","0.6","0.2","0.4","0.8","0.6161015427","0.5768443477","0.3129240978","0.3194332301","","","","","","","","","","","","","","75","K","2","","","189","main_expt",""
"","bandit","269","748226","0.0-231.0-0.0","06005721","wem/bandit_party_2","A6M6N01KBYGVM","either","7","534","","","","","","","0","0","1","","0.5145576236","0.6","0.2","0.4","0.8","0.5145576236","0.6091254975","0.3681084497","0.3585260795","","","","","","","","","","","","","","72","H","0","img/none_selected.jpg","","190","main_expt",""
"","bandit","270","750080","0.0-232.0-0.0","06005721","wem/bandit_party_2","A6M6N01KBYGVM","either","7","343","","","","","","","1","0","0","0.4447609651","","0.6","0.2","0.4","0.8","","","","","0.4447609651","0.6355225437","0.3284994938","0.4438822556","","","","","","","","","","72","H","0","img/none_selected.jpg","","191","main_expt",""
"","bandit","271","752097","0.0-233.0-0.0","06005721","wem/bandit_party_2","A6M6N01KBYGVM","either","7","503","","","","","","","1","0","0","0.4273979598","","0.6","0.2","0.4","0.8","","","","","0.4273979598","0.7449996868","0.2913335268","0.6336907385","","","","","","","","","","72","H","0","img/none_selected.jpg","","192","main_expt",""
"","bandit","272","753913","0.0-234.0-0.0","06005721","wem/bandit_party_2","A6M6N01KBYGVM","either","7","303","","","","","","","1","0","0","0.4382354048","","0.6","0.2","0.4","0.8","","","","","0.4382354048","0.7645281636","0.3614904019","0.5871300795","","","","","","","","","","72","H","0","img/none_selected.jpg","","193","main_expt",""
"","bandit","273","755706","0.0-235.0-0.0","06005721","wem/bandit_party_2","A6M6N01KBYGVM","either","7","278","","","","","","","0","0","1","","0.4367950698","0.6","0.2","0.4","0.8","0.4367950698","0.7417458559","0.4180963095","0.5919999684","","","","","","","","","","","","","","72","H","0","img/none_selected.jpg","","194","main_expt",""
"","bandit","274","757540","0.0-236.0-0.0","06005721","wem/bandit_party_2","A6M6N01KBYGVM","either","7","317","","","","","","","0","1","0","","0.4306922929","0.6","0.2","0.4","0.8","0.4306922929","0.7102393491","0.4129416526","0.5599221581","","","","","","","","","","","","","","72","H","0","img/none_selected.jpg","","195","main_expt",""
"","bandit","275","759689","0.0-237.0-0.0","06005721","wem/bandit_party_2","A6M6N01KBYGVM","either","7","637","","","","","","","0","1","0","","0.4436260943","0.6","0.2","0.4","0.8","0.4436260943","0.6846894693","0.6027995291","0.4552797342","","","","","","","","","","","","","","72","H","0","img/none_selected.jpg","","196","main_expt",""
"","bandit","276","761666","0.0-238.0-0.0","06005721","wem/bandit_party_2","A6M6N01KBYGVM","either","7","463","","","","","","","0","1","0","","0.4547077395","0.6","0.2","0.4","0.8","0.4547077395","0.6573901597","0.6174547511","0.3045440077","","","","","","","","","","","","","","72","H","0","img/none_selected.jpg","","197","main_expt",""
"","bandit","277","763512","0.0-239.0-0.0","06005721","wem/bandit_party_2","A6M6N01KBYGVM","either","7","334","","","","","","","0","1","0","","0.545148617","0.6","0.2","0.4","0.8","0.545148617","0.7020762336","0.5727893511","0.4061180554","","","","","","","","","","","","","","72","H","0","img/none_selected.jpg","","198","main_expt",""
"","bandit","278","765415","0.0-240.0-0.0","06005721","wem/bandit_party_2","A6M6N01KBYGVM","either","7","393","","","","","","","1","0","0","0.5838562778","","0.6","0.2","0.4","0.8","","","","","0.5838562778","0.7749867965","0.5803616598","0.3406873398","","","","","","","","","","72","H","0","img/none_selected.jpg","","199","main_expt",""
"","bandit","279","766989","0.0-241.0-0.0","06005721","wem/bandit_party_2","A6M6N01KBYGVM","either","7","63","","","","","","","0","1","0","","0.6569131065","0.6","0.2","0.4","0.8","0.6569131065","0.7971262248","0.5109940584","0.2810551981","","","","","","","","","","","","","","72","H","0","img/none_selected.jpg","","200","main_expt",""
"","bandit","280","768852","0.0-242.0-0.0","06005721","wem/bandit_party_2","A6M6N01KBYGVM","either","7","346","","","","","","","1","0","0","0.6559739125","","0.6","0.2","0.4","0.8","","","","","0.6559739125","0.6431063495","0.444158281","0.2295892347","","","","","","","","","","72","H","0","img/none_selected.jpg","","201","main_expt",""
"","bandit","281","770680","0.0-243.0-0.0","06005721","wem/bandit_party_2","A6M6N01KBYGVM","either","7","315","","","","","","","0","1","0","","0.5940698896","0.6","0.2","0.4","0.8","0.5940698896","0.6153479028","0.3774362348","0.2134833186","","","","","","","","","","","","","","72","H","0","img/none_selected.jpg","","202","main_expt",""
"","bandit","282","772828","0.0-244.0-0.0","06005721","wem/bandit_party_2","A6M6N01KBYGVM","either","7","630","","","","","","","1","0","0","0.6288005559","","0.6","0.2","0.4","0.8","","","","","0.6288005559","0.6107921693","0.2852638898","0.1538434825","","","","","","","","","","72","H","0","img/none_selected.jpg","","203","main_expt",""
"","bandit","283","774884","0.0-245.0-0.0","06005721","wem/bandit_party_2","A6M6N01KBYGVM","either","7","538","","","","","","","0","0","1","0.7483345684","","0.6","0.2","0.4","0.8","","","","","0.7483345684","0.6364312764","0.3900316507","0.08629221539","","","","","","","","","","72","H","0","img/none_selected.jpg","","204","main_expt",""
"","bandit","284","776826","0.0-246.0-0.0","06005721","wem/bandit_party_2","A6M6N01KBYGVM","either","7","426","","","","","","","1","0","0","0.7823609999","","0.6","0.2","0.4","0.8","","","","","0.7823609999","0.7098325313","0.3334674042","0.1303029892","","","","","","","","","","72","H","0","img/none_selected.jpg","","205","main_expt",""
"","bandit","285","780169","0.0-247.0-0.0","06005721","wem/bandit_party_2","A6M6N01KBYGVM","either","7","1828","","","","","","","0","0","1","","0.7053347691","0.6","0.2","0.4","0.8","0.7053347691","0.6423198407","0.3997779834","0.1290793888","","","","","","","","","","","","","","72","H","0","img/none_selected.jpg","","206","main_expt",""
"","bandit","286","782418","0.0-248.0-0.0","06005721","wem/bandit_party_2","A6M6N01KBYGVM","either","7","735","","","","","","","1","0","0","0.692958529","","0.6","0.2","0.4","0.8","","","","","0.692958529","0.7196337679","0.2791746034","0.1471003053","","","","","","","","","","72","H","0","img/none_selected.jpg","","207","main_expt",""
"","bandit","287","784525","0.0-249.0-0.0","06005721","wem/bandit_party_2","A6M6N01KBYGVM","either","7","596","","","","","","","1","0","0","0.5726600787","","0.6","0.2","0.4","0.8","","","","","0.5726600787","0.7273253538","0.3447420344","0.1204476287","","","","","","","","","","72","H","0","img/none_selected.jpg","","208","main_expt",""
"","bandit","288","786555","0.0-250.0-0.0","06005721","wem/bandit_party_2","A6M6N01KBYGVM","either","7","513","","","","","","","1","0","0","0.7193759884","","0.6","0.2","0.4","0.8","","","","","0.7193759884","0.7701678217","0.2106944101","0.1752658923","","","","","","","","","","72","H","0","img/none_selected.jpg","","209","main_expt",""
"","bandit","289","788669","0.0-251.0-0.0","06005721","wem/bandit_party_2","A6M6N01KBYGVM","either","7","603","","","","","","","1","0","0","0.5469619257","","0.6","0.2","0.4","0.8","","","","","0.5469619257","0.7673062315","0.2609791638","0.2071456167","","","","","","","","","","72","H","0","img/none_selected.jpg","","210","main_expt",""
"","bandit","290","790593","0.0-252.0-0.0","06005721","wem/bandit_party_2","A6M6N01KBYGVM","either","7","408","","","","","","","1","0","0","0.5432746348","","0.6","0.2","0.4","0.8","","","","","0.5432746348","0.7733207599","0.3702243554","0.1982577311","","","","","","","","","","72","H","0","img/none_selected.jpg","","211","main_expt",""
"","bandit","291","792558","0.0-253.0-0.0","06005721","wem/bandit_party_2","A6M6N01KBYGVM","either","7","454","","","","","","","0","1","0","","0.4857525371","0.6","0.2","0.4","0.8","0.4857525371","0.7176010575","0.4070014152","0.2837026457","","","","","","","","","","","","","","72","H","0","img/none_selected.jpg","","212","main_expt",""
"","bandit","292","794487","0.0-254.0-0.0","06005721","wem/bandit_party_2","A6M6N01KBYGVM","either","7","415","","","","","","","0","1","0","","0.4416723402","0.6","0.2","0.4","0.8","0.4416723402","0.7241732444","0.5001351259","0.2192955177","","","","","","","","","","","","","","72","H","0","img/none_selected.jpg","","213","main_expt",""
"","bandit","293","796761","0.0-255.0-0.0","06005721","wem/bandit_party_2","A6M6N01KBYGVM","either","7","759","","","","","","","0","0","1","0.4231083207","","0.6","0.2","0.4","0.8","","","","","0.4231083207","0.6696022014","0.5667049056","0.2885853396","","","","","","","","","","72","H","0","img/none_selected.jpg","","214","main_expt",""
"","bandit","294","798608","0.0-256.0-0.0","06005721","wem/bandit_party_2","A6M6N01KBYGVM","either","7","331","","","","","","","0","0","1","0.329019478","","0.6","0.2","0.4","0.8","","","","","0.329019478","0.6255990046","0.5259574602","0.2451296471","","","","","","","","","","72","H","0","img/none_selected.jpg","","215","main_expt",""
"","bandit","295","800458","0.0-257.0-0.0","06005721","wem/bandit_party_2","A6M6N01KBYGVM","either","7","333","","","","","","","0","0","1","","0.3469743373","0.6","0.2","0.4","0.8","0.3469743373","0.6771362935","0.5468860011","0.1946790852","","","","","","","","","","","","","","72","H","0","img/none_selected.jpg","","216","main_expt",""
"","bandit","296","802433","0.0-258.0-0.0","06005721","wem/bandit_party_2","A6M6N01KBYGVM","either","7","459","","","","","","","0","0","1","0.3618740044","","0.6","0.2","0.4","0.8","","","","","0.3618740044","0.6918953154","0.6182745027","0.2497229096","","","","","","","","","","72","H","0","img/none_selected.jpg","","217","main_expt",""
"","bandit","297","804247","0.0-259.0-0.0","06005721","wem/bandit_party_2","A6M6N01KBYGVM","either","7","302","","","","","","","0","0","1","","0.5726390237","0.6","0.2","0.4","0.8","0.3574217595","0.5726390237","0.5979125128","0.3076421025","","","","","","","","","","","","","","74","J","1","","","218","main_expt",""
"","bandit","298","805774","0.0-260.0-0.0","06005721","wem/bandit_party_2","A6M6N01KBYGVM","either","7","16","","","","","","","0","0","1","","0.5179196303","0.6","0.2","0.4","0.8","0.3862686792","0.5179196303","0.5321687475","0.3488941347","","","","","","","","","","","","","","74","J","1","","","219","main_expt",""
"","bandit","299","807862","0.0-261.0-0.0","06005721","wem/bandit_party_2","A6M6N01KBYGVM","either","7","575","","","","","","","0","1","0","","0.6053830099","0.6","0.2","0.4","0.8","0.4432846828","0.5578222379","0.6053830099","0.306784001","","","","","","","","","","","","","","75","K","2","","","220","main_expt",""
"","bandit","300","809664","0.0-262.0-0.0","06005721","wem/bandit_party_2","A6M6N01KBYGVM","either","7","286","","","","","","","0","1","0","","0.69383498","0.6","0.2","0.4","0.8","0.432499938","0.6640911266","0.69383498","0.3786925452","","","","","","","","","","","","","","75","K","2","","","221","main_expt",""
"","bandit","301","811568","0.0-263.0-0.0","06005721","wem/bandit_party_2","A6M6N01KBYGVM","either","7","389","","","","","","","0","1","0","","0.783375317","0.6","0.2","0.4","0.8","0.4050903391","0.7340686256","0.783375317","0.5014801557","","","","","","","","","","","","","","75","K","2","","","222","main_expt",""
"","bandit","302","813535","0.0-264.0-0.0","06005721","wem/bandit_party_2","A6M6N01KBYGVM","either","7","453","","","","","","","1","0","0","0.8374489269","","0.6","0.2","0.4","0.8","","","","","0.3282593462","0.852862777","0.8374489269","0.4081704387","","","","","","","","","","75","K","2","","","223","main_expt",""
"","bandit","303","815401","0.0-265.0-0.0","06005721","wem/bandit_party_2","A6M6N01KBYGVM","either","7","350","","","","","","","0","1","0","","0.7801262993","0.6","0.2","0.4","0.8","0.2465370002","0.7830506485","0.7801262993","0.422296693","","","","","","","","","","","","","","75","K","2","","","224","main_expt",""
"","bandit","304","817232","0.0-266.0-0.0","06005721","wem/bandit_party_2","A6M6N01KBYGVM","either","7","315","","","","","","","0","1","0","","0.7438235551","0.6","0.2","0.4","0.8","0.2260872052","0.7447555501","0.7438235551","0.3998144739","","","","","","","","","","","","","","75","K","2","","","225","main_expt",""
"","bandit","305","819051","0.0-267.0-0.0","06005721","wem/bandit_party_2","A6M6N01KBYGVM","either","7","308","","","","","","","0","0","1","","0.7561714458","0.6","0.2","0.4","0.8","0.2573895518","0.7331719472","0.7561714458","0.2692780115","","","","","","","","","","","","","","75","K","2","","","226","main_expt",""
"","bandit","306","820726","0.0-268.0-0.0","06005721","wem/bandit_party_2","A6M6N01KBYGVM","either","7","162","","","","","","","0","0","1","","0.7527106072","0.6","0.2","0.4","0.8","0.2134597582","0.6417259928","0.7527106072","0.268728261","","","","","","","","","","","","","","75","K","2","","","227","main_expt",""
"","bandit","307","822496","0.0-269.0-0.0","06005721","wem/bandit_party_2","A6M6N01KBYGVM","either","7","254","","","","","","","1","0","0","0.6315627418","","0.6","0.2","0.4","0.8","","","","","0.348479141","0.6050549784","0.6315627418","0.2211951924","","","","","","","","","","75","K","2","","","228","main_expt",""
"","bandit","308","824458","0.0-270.0-0.0","06005721","wem/bandit_party_2","A6M6N01KBYGVM","either","7","443","","","","","","","0","0","1","","0.5564086662","0.6","0.2","0.4","0.8","0.3250735223","0.5962230341","0.5564086662","0.219241791","","","","","","","","","","","","","","75","K","2","","","229","main_expt",""
"","bandit","309","826391","0.0-271.0-0.0","06005721","wem/bandit_party_2","A6M6N01KBYGVM","either","7","420","","","","","","","0","0","1","","0.5895813861","0.6","0.2","0.4","0.8","0.3395219718","0.5594933722","0.5895813861","0.291585141","","","","","","","","","","","","","","75","K","2","","","230","main_expt",""
"","bandit","310","828225","0.0-272.0-0.0","06005721","wem/bandit_party_2","A6M6N01KBYGVM","either","7","317","","","","","","","0","0","1","0.6148213975","","0.6","0.2","0.4","0.8","","","","","0.3315483329","0.6411036761","0.6148213975","0.2754541949","","","","","","","","","","75","K","2","","","231","main_expt",""
"","bandit","311","830233","0.0-273.0-0.0","06005721","wem/bandit_party_2","A6M6N01KBYGVM","either","7","491","","","","","","","0","1","0","","0.5176988489","0.6","0.2","0.4","0.8","0.3876030756","0.6653930637","0.5176988489","0.3055336503","","","","","","","","","","","","","","75","K","2","","","232","main_expt",""
"","bandit","312","832102","0.0-274.0-0.0","06005721","wem/bandit_party_2","A6M6N01KBYGVM","either","7","355","","","","","","","0","1","0","","0.4505666118","0.6","0.2","0.4","0.8","0.3696248546","0.5426719569","0.4505666118","0.3390100853","","","","","","","","","","","","","","75","K","2","","","233","main_expt",""
"","bandit","313","834382","0.0-275.0-0.0","06005721","wem/bandit_party_2","A6M6N01KBYGVM","either","7","766","","","","","","","1","0","0","0.4393496879","","0.6","0.2","0.4","0.8","","","","","0.3927474605","0.5581360181","0.4393496879","0.3165323161","","","","","","","","","","75","K","2","","","234","main_expt",""
"","bandit","314","836257","0.0-276.0-0.0","06005721","wem/bandit_party_2","A6M6N01KBYGVM","either","7","357","","","","","","","0","0","1","","0.3542725407","0.6","0.2","0.4","0.8","0.4734072524","0.5299247183","0.3542725407","0.2944333127","","","","","","","","","","","","","","75","K","2","","","235","main_expt",""
