"consent","trial_type","trial_index","time_elapsed","internal_node_id","subjID","study","MID","cond","drift","rt","responses","button_pressed","key_press","like","value","connected","gems","bombs","no_reward","GemPrChosen","BombPrChosen","GainOverPainPr_0","GainOverPainPr_1","GainOverPainPr_2","GainOverPainPr_3","LosePr_0","LosePr_1","LosePr_2","LosePr_3","WinPr_0","WinPr_1","WinPr_2","WinPr_3","Q0","Q1","Q2","gender","age","ethnicity","label","expt_phase","target","respCharCode","respKey","respChoiceNum","respChoice","practice","trial_counter","trial_label","Q0_index"
"GDM/GDM_behavioral_consent_30min_online.html","consent","0","24829","0.0-0.0","08807484","wem/bandit_party_2","A2KJ4QM0K59HLL","either","5","","","","","","","","","","","","","","","","","","","","","","","","","","","","","","","","","","","","","","","","",""
"","survey-text","1","31714","0.0-1.0","08807484","wem/bandit_party_2","A2KJ4QM0K59HLL","either","5","5875","{""Q0"":""A2KJ4QM0K59HLL""}","","","","","","","","","","","","","","","","","","","","","","","","","","","","","","","","","","","","","","",""
"","button-response","2","34176","0.0-2.0","08807484","wem/bandit_party_2","A2KJ4QM0K59HLL","either","5","1455","","0","","","","","","","","","","","","","","","","","","","","","","","","","","","","","","","","","","","","","",""
"","text-replacement","3","52904","0.0-3.0","08807484","wem/bandit_party_2","A2KJ4QM0K59HLL","either","5","17721","","","32","","","","","","","","","","","","","","","","","","","","","","","","","","","","","","","","","","","","",""
"","text-replacement","4","64476","0.0-4.0","08807484","wem/bandit_party_2","A2KJ4QM0K59HLL","either","5","11571","","","32","","","","","","","","","","","","","","","","","","","","","","","","","","","","","","","","","","","","",""
"","identification","5","78448","0.0-6.0-0.0","08807484","wem/bandit_party_2","A2KJ4QM0K59HLL","either","5","13957","","","","3","3","2","","","","","","","","","","","","","","","","","","","","","","","","pre","identification_pre","the Republican Party","","","","","","","",""
"","identification","6","84265","0.0-6.0-1.0","08807484","wem/bandit_party_2","A2KJ4QM0K59HLL","either","5","4799","","","","3","3","2","","","","","","","","","","","","","","","","","","","","","","","","pre","identification_pre","the Democratic Party","","","","","","","",""
"","text-replacement","7","96804","0.0-7.0","08807484","wem/bandit_party_2","A2KJ4QM0K59HLL","either","5","11534","","","32","","","","","","","","","","","","","","","","","","","","","","","","","","","","","","","","","","","","",""
"","text-replacement","8","103298","0.0-8.0","08807484","wem/bandit_party_2","A2KJ4QM0K59HLL","either","5","6493","","","32","","","","","","","","","","","","","","","","","","","","","","","","","","","","","","","","","","","","",""
"","text-replacement","9","111190","0.0-9.0","08807484","wem/bandit_party_2","A2KJ4QM0K59HLL","either","5","7890","","","32","","","","","","","","","","","","","","","","","","","","","","","","","","","","","","","","","","","","",""
"","text-replacement","10","115775","0.0-10.0","08807484","wem/bandit_party_2","A2KJ4QM0K59HLL","either","5","4583","","","32","","","","","","","","","","","","","","","","","","","","","","","","","","","","","","","","","","","","",""
"","text-replacement","11","119599","0.0-11.0","08807484","wem/bandit_party_2","A2KJ4QM0K59HLL","either","5","3823","","","32","","","","","","","","","","","","","","","","","","","","","","","","","","","","","","","","","","","","",""
"","bandit","12","122437","0.0-12.0-0.0","08807484","wem/bandit_party_2","A2KJ4QM0K59HLL","either","5","1324","","","","","","","0","0","1","0","0","","","","","0","","","","0","","","","","","","","","","","","","74","J","0","img/none_selected_demo.jpg","true","0","",""
"","bandit","13","124573","0.0-13.0-0.0","08807484","wem/bandit_party_2","A2KJ4QM0K59HLL","either","5","623","","","","","","","0","0","1","0","0","","","","","0","","","","0","","","","","","","","","","","","","75","K","0","img/none_selected_demo.jpg","true","0","",""
"","text-replacement","14","166662","0.0-14.0","08807484","wem/bandit_party_2","A2KJ4QM0K59HLL","either","5","42088","","","32","","","","","","","","","","","","","","","","","","","","","","","","","","","","","","","","","","","","",""
"","text-replacement","15","169309","0.0-15.0","08807484","wem/bandit_party_2","A2KJ4QM0K59HLL","either","5","2645","","","32","","","","","","","","","","","","","","","","","","","","","","","","","","","","","","","","","","","","",""
"","text-replacement","16","175922","0.0-16.0","08807484","wem/bandit_party_2","A2KJ4QM0K59HLL","either","5","6611","","","32","","","","","","","","","","","","","","","","","","","","","","","","","","","","","","","","","","","","",""
"","text-replacement","17","179320","0.0-17.0","08807484","wem/bandit_party_2","A2KJ4QM0K59HLL","either","5","3396","","","32","","","","","","","","","","","","","","","","","","","","","","","","","","","","","","","","","","","","",""
"","bandit","18","182634","0.0-18.0-0.0","08807484","wem/bandit_party_2","A2KJ4QM0K59HLL","either","5","1804","","","","","","","1","0","0","0.8","","0.5","0.5","","","","","","","0.8","0.2","","","","","","","","","","","","74","J","0","img/none_selected_demo.jpg","true","0","80_20_practice",""
"","bandit","19","185072","0.0-18.0-1.0","08807484","wem/bandit_party_2","A2KJ4QM0K59HLL","either","5","929","","","","","","","0","0","1","","0.2","0.5","0.5","","","0.8","0.2","","","","","","","","","","","","","","","","75","K","1","","true","0","80_20_practice",""
"","bandit","20","186795","0.0-18.0-2.0","08807484","wem/bandit_party_2","A2KJ4QM0K59HLL","either","5","212","","","","","","","1","0","0","0.8","","0.5","0.5","","","","","","","0.8","0.2","","","","","","","","","","","","74","J","0","img/none_selected_demo.jpg","true","0","80_20_practice",""
"","bandit","21","189576","0.0-18.0-3.0","08807484","wem/bandit_party_2","A2KJ4QM0K59HLL","either","5","1272","","","","","","","1","0","0","0.8","","0.5","0.5","","","","","","","0.8","0.2","","","","","","","","","","","","74","J","0","img/none_selected_demo.jpg","true","0","80_20_practice",""
"","bandit","22","191282","0.0-18.0-4.0","08807484","wem/bandit_party_2","A2KJ4QM0K59HLL","either","5","197","","","","","","","0","1","0","","0.8","0.5","0.5","","","0.8","0.2","","","","","","","","","","","","","","","","74","J","0","img/none_selected_demo.jpg","true","0","80_20_practice",""
"","bandit","23","192965","0.0-18.0-5.0","08807484","wem/bandit_party_2","A2KJ4QM0K59HLL","either","5","170","","","","","","","0","1","0","","0.8","0.5","0.5","","","0.8","0.2","","","","","","","","","","","","","","","","74","J","0","img/none_selected_demo.jpg","true","0","80_20_practice",""
"","bandit","24","194741","0.0-18.0-6.0","08807484","wem/bandit_party_2","A2KJ4QM0K59HLL","either","5","263","","","","","","","1","0","0","0.8","","0.5","0.5","","","","","","","0.8","0.2","","","","","","","","","","","","74","J","0","img/none_selected_demo.jpg","true","0","80_20_practice",""
"","bandit","25","196383","0.0-18.0-7.0","08807484","wem/bandit_party_2","A2KJ4QM0K59HLL","either","5","135","","","","","","","0","1","0","","0.8","0.5","0.5","","","0.8","0.2","","","","","","","","","","","","","","","","74","J","0","img/none_selected_demo.jpg","true","0","80_20_practice",""
"","bandit","26","198083","0.0-18.0-8.0","08807484","wem/bandit_party_2","A2KJ4QM0K59HLL","either","5","189","","","","","","","0","0","1","0.8","","0.5","0.5","","","","","","","0.8","0.2","","","","","","","","","","","","74","J","0","img/none_selected_demo.jpg","true","0","80_20_practice",""
"","bandit","27","199755","0.0-18.0-9.0","08807484","wem/bandit_party_2","A2KJ4QM0K59HLL","either","5","160","","","","","","","1","0","0","0.8","","0.5","0.5","","","","","","","0.8","0.2","","","","","","","","","","","","74","J","0","img/none_selected_demo.jpg","true","0","80_20_practice",""
"","bandit","28","201305","0.0-18.0-10.0","08807484","wem/bandit_party_2","A2KJ4QM0K59HLL","either","5","42","","","","","","","0","1","0","","0.8","0.5","0.5","","","0.8","0.2","","","","","","","","","","","","","","","","74","J","0","img/none_selected_demo.jpg","true","0","80_20_practice",""
"","bandit","29","202872","0.0-18.0-11.0","08807484","wem/bandit_party_2","A2KJ4QM0K59HLL","either","5","58","","","","","","","0","0","1","0.8","","0.5","0.5","","","","","","","0.8","0.2","","","","","","","","","","","","74","J","0","img/none_selected_demo.jpg","true","0","80_20_practice",""
"","bandit","30","204384","0.0-18.0-12.0","08807484","wem/bandit_party_2","A2KJ4QM0K59HLL","either","5","2","","","","","","","1","0","0","0.8","","0.5","0.5","","","","","","","0.8","0.2","","","","","","","","","","","","74","J","0","img/none_selected_demo.jpg","true","0","80_20_practice",""
"","bandit","31","207051","0.0-18.0-13.0","08807484","wem/bandit_party_2","A2KJ4QM0K59HLL","either","5","1156","","","","","","","0","1","0","","0.8","0.5","0.5","","","0.8","0.2","","","","","","","","","","","","","","","","74","J","0","img/none_selected_demo.jpg","true","0","80_20_practice",""
"","bandit","32","208571","0.0-18.0-14.0","08807484","wem/bandit_party_2","A2KJ4QM0K59HLL","either","5","8","","","","","","","0","0","1","","0.2","0.5","0.5","","","0.8","0.2","","","","","","","","","","","","","","","","75","K","1","","true","0","80_20_practice",""
"","bandit","33","210205","0.0-18.0-15.0","08807484","wem/bandit_party_2","A2KJ4QM0K59HLL","either","5","127","","","","","","","0","0","1","0.2","","0.5","0.5","","","","","","","0.8","0.2","","","","","","","","","","","","75","K","1","","true","0","80_20_practice",""
"","bandit","34","211850","0.0-18.0-16.0","08807484","wem/bandit_party_2","A2KJ4QM0K59HLL","either","5","133","","","","","","","0","1","0","","0.2","0.5","0.5","","","0.8","0.2","","","","","","","","","","","","","","","","75","K","1","","true","0","80_20_practice",""
"","bandit","35","213458","0.0-18.0-17.0","08807484","wem/bandit_party_2","A2KJ4QM0K59HLL","either","5","96","","","","","","","1","0","0","0.8","","0.5","0.5","","","","","","","0.8","0.2","","","","","","","","","","","","74","J","0","img/none_selected_demo.jpg","true","0","80_20_practice",""
"","bandit","36","219891","0.0-18.0-18.0","08807484","wem/bandit_party_2","A2KJ4QM0K59HLL","either","5","4921","","","","","","","0","1","0","","0.8","0.5","0.5","","","0.8","0.2","","","","","","","","","","","","","","","","74","J","0","img/none_selected_demo.jpg","true","0","80_20_practice",""
"","bandit","37","221833","0.0-18.0-19.0","08807484","wem/bandit_party_2","A2KJ4QM0K59HLL","either","5","433","","","","","","","1","0","0","0.8","","0.5","0.5","","","","","","","0.8","0.2","","","","","","","","","","","","74","J","0","img/none_selected_demo.jpg","true","0","80_20_practice",""
"","text-replacement","38","226352","0.0-19.0","08807484","wem/bandit_party_2","A2KJ4QM0K59HLL","either","5","4517","","","32","","","","","","","","","","","","","","","","","","","","","","","","","","","","","","","","","","","","",""
"","bandit","39","229802","0.0-20.0-0.0","08807484","wem/bandit_party_2","A2KJ4QM0K59HLL","either","5","1941","","","","","","","1","0","0","1","0","","","","","0","1","","","1","0","","","","","","","","","","","","74","J","0","img/none_selected_demo.jpg","true","0","",""
"","text-replacement","40","262271","0.0-21.0","08807484","wem/bandit_party_2","A2KJ4QM0K59HLL","either","5","32468","","","32","","","","","","","","","","","","","","","","","","","","","","","","","","","","","","","","","","","","",""
"","text-replacement","41","265046","0.0-22.0","08807484","wem/bandit_party_2","A2KJ4QM0K59HLL","either","5","2773","","","32","","","","","","","","","","","","","","","","","","","","","","","","","","","","","","","","","","","","",""
"","text-replacement","42","267366","0.0-23.0","08807484","wem/bandit_party_2","A2KJ4QM0K59HLL","either","5","2318","","","32","","","","","","","","","","","","","","","","","","","","","","","","","","","","","","","","","","","","",""
"","text-replacement","43","271971","0.0-24.0","08807484","wem/bandit_party_2","A2KJ4QM0K59HLL","either","5","4604","","","32","","","","","","","","","","","","","","","","","","","","","","","","","","","","","","","","","","","","",""
"","text-replacement","44","279136","0.0-25.0","08807484","wem/bandit_party_2","A2KJ4QM0K59HLL","either","5","7162","","","32","","","","","","","","","","","","","","","","","","","","","","","","","","","","","","","","","","","","",""
"","text-replacement","45","282673","0.0-26.0","08807484","wem/bandit_party_2","A2KJ4QM0K59HLL","either","5","3536","","","32","","","","","","","","","","","","","","","","","","","","","","","","","","","","","","","","","","","","",""
"","text-replacement","46","286794","0.0-27.0","08807484","wem/bandit_party_2","A2KJ4QM0K59HLL","either","5","4118","","","32","","","","","","","","","","","","","","","","","","","","","","","","","","","","","","","","","","","","",""
"","text-replacement","47","290773","0.0-28.0","08807484","wem/bandit_party_2","A2KJ4QM0K59HLL","either","5","3977","","","32","","","","","","","","","","","","","","","","","","","","","","","","","","","","","","","","","","","","",""
"","text-replacement","48","294923","0.0-29.0","08807484","wem/bandit_party_2","A2KJ4QM0K59HLL","either","5","4148","","","32","","","","","","","","","","","","","","","","","","","","","","","","","","","","","","","","","","","","",""
"","text-replacement","49","296107","0.0-30.0","08807484","wem/bandit_party_2","A2KJ4QM0K59HLL","either","5","1182","","","32","","","","","","","","","","","","","","","","","","","","","","","","","","","","","","","","","","","","",""
"","text-replacement","50","300219","0.0-31.0","08807484","wem/bandit_party_2","A2KJ4QM0K59HLL","either","5","4110","","","32","","","","","","","","","","","","","","","","","","","","","","","","","","","","","","","","","","","","",""
"","bandit","51","301857","0.0-32.0-0.0","08807484","wem/bandit_party_2","A2KJ4QM0K59HLL","either","5","125","","","","","","","0","0","1","","0.2","0.5","0.5","0.5","0.5","0.8","0.2","0.6","0.2","","","","","","","","","","","","","","74","J","1","","true","0","full_practice",""
"","bandit","52","304067","0.0-32.0-1.0","08807484","wem/bandit_party_2","A2KJ4QM0K59HLL","either","5","702","","","","","","","1","0","0","0.8","","0.5","0.5","0.5","0.5","","","","","0.8","0.2","0.6","0.2","","","","","","","","","","72","H","0","img/none_selected.jpg","true","0","full_practice",""
"","bandit","53","306703","0.0-32.0-2.0","08807484","wem/bandit_party_2","A2KJ4QM0K59HLL","either","5","1125","","","","","","","1","0","0","0.6","","0.5","0.5","0.5","0.5","","","","","0.8","0.2","0.6","0.2","","","","","","","","","","75","K","2","","true","0","full_practice",""
"","bandit","54","308781","0.0-32.0-3.0","08807484","wem/bandit_party_2","A2KJ4QM0K59HLL","either","5","568","","","","","","","0","1","0","","0.6","0.5","0.5","0.5","0.5","0.8","0.2","0.6","0.2","","","","","","","","","","","","","","75","K","2","","true","0","full_practice",""
"","bandit","55","310487","0.0-32.0-4.0","08807484","wem/bandit_party_2","A2KJ4QM0K59HLL","either","5","195","","","","","","","0","0","1","0.6","","0.5","0.5","0.5","0.5","","","","","0.8","0.2","0.6","0.2","","","","","","","","","","75","K","2","","true","0","full_practice",""
"","bandit","56","312669","0.0-32.0-5.0","08807484","wem/bandit_party_2","A2KJ4QM0K59HLL","either","5","672","","","","","","","0","1","0","","0.2","0.5","0.5","0.5","0.5","0.8","0.2","0.6","0.2","","","","","","","","","","","","","","76","L","3","","true","0","full_practice",""
"","bandit","57","314252","0.0-32.0-6.0","08807484","wem/bandit_party_2","A2KJ4QM0K59HLL","either","5","75","","","","","","","0","0","1","0.2","","0.5","0.5","0.5","0.5","","","","","0.8","0.2","0.6","0.2","","","","","","","","","","76","L","3","","true","0","full_practice",""
"","bandit","58","316809","0.0-32.0-7.0","08807484","wem/bandit_party_2","A2KJ4QM0K59HLL","either","5","1044","","","","","","","1","0","0","0.2","","0.5","0.5","0.5","0.5","","","","","0.8","0.2","0.6","0.2","","","","","","","","","","76","L","3","","true","0","full_practice",""
"","bandit","59","318526","0.0-32.0-8.0","08807484","wem/bandit_party_2","A2KJ4QM0K59HLL","either","5","205","","","","","","","0","0","1","","0.2","0.5","0.5","0.5","0.5","0.8","0.2","0.6","0.2","","","","","","","","","","","","","","76","L","3","","true","0","full_practice",""
"","bandit","60","320069","0.0-32.0-9.0","08807484","wem/bandit_party_2","A2KJ4QM0K59HLL","either","5","31","","","","","","","1","0","0","0.8","","0.5","0.5","0.5","0.5","","","","","0.8","0.2","0.6","0.2","","","","","","","","","","72","H","0","img/none_selected.jpg","true","0","full_practice",""
"","bandit","61","321630","0.0-32.0-10.0","08807484","wem/bandit_party_2","A2KJ4QM0K59HLL","either","5","50","","","","","","","0","1","0","","0.8","0.5","0.5","0.5","0.5","0.8","0.2","0.6","0.2","","","","","","","","","","","","","","72","H","0","img/none_selected.jpg","true","0","full_practice",""
"","bandit","62","323209","0.0-32.0-11.0","08807484","wem/bandit_party_2","A2KJ4QM0K59HLL","either","5","64","","","","","","","0","0","1","0.8","","0.5","0.5","0.5","0.5","","","","","0.8","0.2","0.6","0.2","","","","","","","","","","72","H","0","img/none_selected.jpg","true","0","full_practice",""
"","bandit","63","324741","0.0-32.0-12.0","08807484","wem/bandit_party_2","A2KJ4QM0K59HLL","either","5","21","","","","","","","1","0","0","0.8","","0.5","0.5","0.5","0.5","","","","","0.8","0.2","0.6","0.2","","","","","","","","","","72","H","0","img/none_selected.jpg","true","0","full_practice",""
"","bandit","64","326366","0.0-32.0-13.0","08807484","wem/bandit_party_2","A2KJ4QM0K59HLL","either","5","112","","","","","","","0","1","0","","0.8","0.5","0.5","0.5","0.5","0.8","0.2","0.6","0.2","","","","","","","","","","","","","","72","H","0","img/none_selected.jpg","true","0","full_practice",""
"","bandit","65","328100","0.0-32.0-14.0","08807484","wem/bandit_party_2","A2KJ4QM0K59HLL","either","5","224","","","","","","","0","1","0","","0.8","0.5","0.5","0.5","0.5","0.8","0.2","0.6","0.2","","","","","","","","","","","","","","72","H","0","img/none_selected.jpg","true","0","full_practice",""
"","bandit","66","329895","0.0-32.0-15.0","08807484","wem/bandit_party_2","A2KJ4QM0K59HLL","either","5","282","","","","","","","0","0","1","0.8","","0.5","0.5","0.5","0.5","","","","","0.8","0.2","0.6","0.2","","","","","","","","","","72","H","0","img/none_selected.jpg","true","0","full_practice",""
"","bandit","67","331422","0.0-32.0-16.0","08807484","wem/bandit_party_2","A2KJ4QM0K59HLL","either","5","15","","","","","","","0","0","1","0.2","","0.5","0.5","0.5","0.5","","","","","0.8","0.2","0.6","0.2","","","","","","","","","","74","J","1","","true","0","full_practice",""
"","bandit","68","333001","0.0-32.0-17.0","08807484","wem/bandit_party_2","A2KJ4QM0K59HLL","either","5","64","","","","","","","0","0","1","","0.2","0.5","0.5","0.5","0.5","0.8","0.2","0.6","0.2","","","","","","","","","","","","","","74","J","1","","true","0","full_practice",""
"","bandit","69","334515","0.0-32.0-18.0","08807484","wem/bandit_party_2","A2KJ4QM0K59HLL","either","5","1","","","","","","","1","0","0","0.2","","0.5","0.5","0.5","0.5","","","","","0.8","0.2","0.6","0.2","","","","","","","","","","74","J","1","","true","0","full_practice",""
"","bandit","70","336227","0.0-32.0-19.0","08807484","wem/bandit_party_2","A2KJ4QM0K59HLL","either","5","203","","","","","","","0","0","1","","0.2","0.5","0.5","0.5","0.5","0.8","0.2","0.6","0.2","","","","","","","","","","","","","","74","J","1","","true","0","full_practice",""
"","text","71","605832","0.0-33.0","08807484","wem/bandit_party_2","A2KJ4QM0K59HLL","either","5","269596","","","32","","","","","","","","","","","","","","","","","","","","","","","","","","","","","","","","","","","","",""
"","text-replacement","72","614750","0.0-34.0","08807484","wem/bandit_party_2","A2KJ4QM0K59HLL","either","5","7911","","","32","","","","","","","","","","","","","","","","","","","","","","","","","","","","","","","","","","","","",""
"","text-replacement","73","619801","0.0-35.0","08807484","wem/bandit_party_2","A2KJ4QM0K59HLL","either","5","5048","","","32","","","","","","","","","","","","","","","","","","","","","","","","","","","","","","","","","","","","",""
"","text-replacement","74","623779","0.0-36.0","08807484","wem/bandit_party_2","A2KJ4QM0K59HLL","either","5","3975","","","32","","","","","","","","","","","","","","","","","","","","","","","","","","","","","","","","","","","","",""
"","text-replacement","75","628429","0.0-37.0","08807484","wem/bandit_party_2","A2KJ4QM0K59HLL","either","5","4648","","","32","","","","","","","","","","","","","","","","","","","","","","","","","","","","","","","","","","","","",""
"","text-replacement","76","631239","0.0-38.0","08807484","wem/bandit_party_2","A2KJ4QM0K59HLL","either","5","2806","","","32","","","","","","","","","","","","","","","","","","","","","","","","","","","","","","","","","","","","",""
"","survey-multi-choice-replacement","77","634858","0.0-39.0-0.0","08807484","wem/bandit_party_2","A2KJ4QM0K59HLL","either","5","3610","","","","","","","","","","","","","","","","","","","","","","","","Money will be added to the pool for <span style='color:red;'>REPUBLICANS</span>","","","","","","","attn_check","","","","","","","","","0"
"","survey-multi-choice-replacement","78","640144","0.0-40.0-0.0","08807484","wem/bandit_party_2","A2KJ4QM0K59HLL","either","5","4273","","","","","","","","","","","","","","","","","","","","","","","","Equal amounts of money will be added to the pool for <span style='color:red;'>REPUBLICANS</span> and subtracted from the pool for <span style='color:blue;'>DEMOCRATS</span>","","","","","","","attn_check","","","","","","","","","2"
"","survey-multi-choice-replacement","79","644067","0.0-41.0-0.0","08807484","wem/bandit_party_2","A2KJ4QM0K59HLL","either","5","2911","","","","","","","","","","","","","","","","","","","","","","","","No money will be added to either pool","","","","","","","attn_check","","","","","","","","","3"
"","bandit","80","758759","0.0-42.0-0.0","08807484","wem/bandit_party_2","A2KJ4QM0K59HLL","either","5","112172","","","","","","","1","0","0","0.4909711759","","0.8","0.2","0.6","0.4","","","","","0.4909711759","0.32692793","0.6131215568","0.4253928501","","","","","","","","","","72","H","0","img/none_selected.jpg","","1","main_expt",""
"","bandit","81","760912","0.0-43.0-0.0","08807484","wem/bandit_party_2","A2KJ4QM0K59HLL","either","5","637","","","","","","","0","0","1","0.5514346198","","0.8","0.2","0.6","0.4","","","","","0.5514346198","0.3068321923","0.6783759564","0.5447097682","","","","","","","","","","72","H","0","img/none_selected.jpg","","2","main_expt",""
"","bandit","82","763420","0.0-44.0-0.0","08807484","wem/bandit_party_2","A2KJ4QM0K59HLL","either","5","996","","","","","","","0","0","1","","0.2871808385","0.8","0.2","0.6","0.4","0.5966913043","0.2871808385","0.6535049038","0.5631376832","","","","","","","","","","","","","","74","J","1","","","3","main_expt",""
"","bandit","83","766571","0.0-45.0-0.0","08807484","wem/bandit_party_2","A2KJ4QM0K59HLL","either","5","1640","","","","","","","0","0","1","0.3062311279","","0.8","0.2","0.6","0.4","","","","","0.6236804691","0.3062311279","0.5433476707","0.5889355808","","","","","","","","","","74","J","1","","","4","main_expt",""
"","bandit","84","769189","0.0-46.0-0.0","08807484","wem/bandit_party_2","A2KJ4QM0K59HLL","either","5","1107","","","","","","","0","0","1","","0.4256320799","0.8","0.2","0.6","0.4","0.5844938386","0.2453374439","0.4256320799","0.6125363118","","","","","","","","","","","","","","75","K","2","","","5","main_expt",""
"","bandit","85","771748","0.0-47.0-0.0","08807484","wem/bandit_party_2","A2KJ4QM0K59HLL","either","5","1048","","","","","","","0","0","1","","0.5204159956","0.8","0.2","0.6","0.4","0.4929788692","0.2258644136","0.4097031487","0.5204159956","","","","","","","","","","","","","","76","L","3","","","6","main_expt",""
"","bandit","86","773337","0.0-48.0-0.0","08807484","wem/bandit_party_2","A2KJ4QM0K59HLL","either","5","81","","","","","","","0","1","0","","0.5949894572","0.8","0.2","0.6","0.4","0.3978044106","0.2251512132","0.4614862243","0.5949894572","","","","","","","","","","","","","","76","L","3","","","7","main_expt",""
"","bandit","87","777035","0.0-49.0-0.0","08807484","wem/bandit_party_2","A2KJ4QM0K59HLL","either","5","2187","","","","","","","0","1","0","","0.7043393759","0.8","0.2","0.6","0.4","0.5080346622","0.1597376121","0.4305419438","0.7043393759","","","","","","","","","","","","","","76","L","3","","","8","main_expt",""
"","bandit","88","778892","0.0-50.0-0.0","08807484","wem/bandit_party_2","A2KJ4QM0K59HLL","either","5","346","","","","","","","0","0","1","","0.6866437556","0.8","0.2","0.6","0.4","0.440708512","0.1395884133","0.6000641755","0.6866437556","","","","","","","","","","","","","","76","L","3","","","9","main_expt",""
"","bandit","89","781284","0.0-51.0-0.0","08807484","wem/bandit_party_2","A2KJ4QM0K59HLL","either","5","880","","","","","","","1","0","0","0.6743415364","","0.8","0.2","0.6","0.4","","","","","0.4862198985","0.1529628815","0.66675231","0.6743415364","","","","","","","","","","76","L","3","","","10","main_expt",""
"","bandit","90","783083","0.0-52.0-0.0","08807484","wem/bandit_party_2","A2KJ4QM0K59HLL","either","5","287","","","","","","","0","1","0","","0.538431352","0.8","0.2","0.6","0.4","0.4942886423","0.1918890603","0.538431352","0.6907290289","","","","","","","","","","","","","","75","K","2","","","11","main_expt",""
"","bandit","91","784861","0.0-53.0-0.0","08807484","wem/bandit_party_2","A2KJ4QM0K59HLL","either","5","264","","","","","","","0","0","1","0.5683478731","","0.8","0.2","0.6","0.4","","","","","0.4999864232","0.1412308375","0.5683478731","0.7254617755","","","","","","","","","","75","K","2","","","12","main_expt",""
"","bandit","92","786763","0.0-54.0-0.0","08807484","wem/bandit_party_2","A2KJ4QM0K59HLL","either","5","391","","","","","","","0","1","0","","0.1854965676","0.8","0.2","0.6","0.4","0.3945724157","0.1854965676","0.5870071372","0.7533793381","","","","","","","","","","","","","","74","J","1","","","13","main_expt",""
"","bandit","93","788423","0.0-55.0-0.0","08807484","wem/bandit_party_2","A2KJ4QM0K59HLL","either","5","144","","","","","","","0","1","0","","0.2200151947","0.8","0.2","0.6","0.4","0.458684297","0.2200151947","0.3389967741","0.6909187676","","","","","","","","","","","","","","74","J","1","","","14","main_expt",""
"","bandit","94","790065","0.0-56.0-0.0","08807484","wem/bandit_party_2","A2KJ4QM0K59HLL","either","5","133","","","","","","","0","0","1","","0.1497743902","0.8","0.2","0.6","0.4","0.5338449271","0.1497743902","0.2927381815","0.7916820586","","","","","","","","","","","","","","74","J","1","","","15","main_expt",""
"","bandit","95","791835","0.0-57.0-0.0","08807484","wem/bandit_party_2","A2KJ4QM0K59HLL","either","5","261","","","","","","","0","0","1","0.1767244745","","0.8","0.2","0.6","0.4","","","","","0.6821016448","0.1767244745","0.2268478953","0.7991661796","","","","","","","","","","74","J","1","","","16","main_expt",""
"","bandit","96","794291","0.0-58.0-0.0","08807484","wem/bandit_party_2","A2KJ4QM0K59HLL","either","5","943","","","","","","","0","0","1","","0.6963612506","0.8","0.2","0.6","0.4","0.6963612506","0.1953364786","0.2364877179","0.7352739439","","","","","","","","","","","","","","72","H","0","img/none_selected.jpg","","17","main_expt",""
"","bandit","97","797122","0.0-59.0-0.0","08807484","wem/bandit_party_2","A2KJ4QM0K59HLL","either","5","1321","","","","","","","0","1","0","","0.280777314","0.8","0.2","0.6","0.4","0.7035779666","0.139355503","0.280777314","0.6911569498","","","","","","","","","","","","","","75","K","2","","","18","main_expt",""
"","bandit","98","799101","0.0-60.0-0.0","08807484","wem/bandit_party_2","A2KJ4QM0K59HLL","either","5","465","","","","","","","1","0","0","0.3280428268","","0.8","0.2","0.6","0.4","","","","","0.677086514","0.129677489","0.3280428268","0.6372159304","","","","","","","","","","75","K","2","","","19","main_expt",""
"","bandit","99","800920","0.0-61.0-0.0","08807484","wem/bandit_party_2","A2KJ4QM0K59HLL","either","5","302","","","","","","","0","0","1","","0.213865824","0.8","0.2","0.6","0.4","0.5211019236","0.1584506979","0.213865824","0.5917564331","","","","","","","","","","","","","","75","K","2","","","20","main_expt",""
"","bandit","100","803182","0.0-62.0-0.0","08807484","wem/bandit_party_2","A2KJ4QM0K59HLL","either","5","748","","","","","","","0","1","0","","0.6351733259","0.8","0.2","0.6","0.4","0.6040081297","0.1934985877","0.2755747612","0.6351733259","","","","","","","","","","","","","","76","L","3","","","21","main_expt",""
"","bandit","101","804795","0.0-63.0-0.0","08807484","wem/bandit_party_2","A2KJ4QM0K59HLL","either","5","101","","","","","","","0","0","1","0.57448168","","0.8","0.2","0.6","0.4","","","","","0.5276460007","0.1184813826","0.3096891892","0.57448168","","","","","","","","","","76","L","3","","","22","main_expt",""
"","bandit","102","806525","0.0-64.0-0.0","08807484","wem/bandit_party_2","A2KJ4QM0K59HLL","either","5","217","","","","","","","0","0","1","0.1387482349","","0.8","0.2","0.6","0.4","","","","","0.4373756081","0.1387482349","0.1855444332","0.532235281","","","","","","","","","","74","J","1","","","23","main_expt",""
"","bandit","103","808997","0.0-65.0-0.0","08807484","wem/bandit_party_2","A2KJ4QM0K59HLL","either","5","959","","","","","","","1","0","0","0.4051577966","","0.8","0.2","0.6","0.4","","","","","0.4051577966","0.1275075135","0.2026045625","0.4695599312","","","","","","","","","","72","H","0","img/none_selected.jpg","","24","main_expt",""
"","bandit","104","810568","0.0-66.0-0.0","08807484","wem/bandit_party_2","A2KJ4QM0K59HLL","either","5","62","","","","","","","1","0","0","0.3583026632","","0.8","0.2","0.6","0.4","","","","","0.3583026632","0.1324238285","0.2610081957","0.3710761786","","","","","","","","","","72","H","0","img/none_selected.jpg","","25","main_expt",""
"","bandit","105","812079","0.0-67.0-0.0","08807484","wem/bandit_party_2","A2KJ4QM0K59HLL","either","5","0","","","","","","","1","0","0","0.4070676783","","0.8","0.2","0.6","0.4","","","","","0.4070676783","0.2222282692","0.2068764453","0.3104834237","","","","","","","","","","72","H","0","img/none_selected.jpg","","26","main_expt",""
"","bandit","106","813925","0.0-68.0-0.0","08807484","wem/bandit_party_2","A2KJ4QM0K59HLL","either","5","332","","","","","","","1","0","0","0.3962805628","","0.8","0.2","0.6","0.4","","","","","0.3962805628","0.2367528544","0.1387354037","0.4250638914","","","","","","","","","","72","H","0","img/none_selected.jpg","","27","main_expt",""
"","bandit","107","815715","0.0-69.0-0.0","08807484","wem/bandit_party_2","A2KJ4QM0K59HLL","either","5","278","","","","","","","1","0","0","0.3381264529","","0.8","0.2","0.6","0.4","","","","","0.3381264529","0.1581712713","0.2065421522","0.3738912408","","","","","","","","","","72","H","0","img/none_selected.jpg","","28","main_expt",""
"","bandit","108","817372","0.0-70.0-0.0","08807484","wem/bandit_party_2","A2KJ4QM0K59HLL","either","5","144","","","","","","","0","0","1","0.3405446746","","0.8","0.2","0.6","0.4","","","","","0.3405446746","0.2361440946","0.2452437498","0.411092256","","","","","","","","","","72","H","0","img/none_selected.jpg","","29","main_expt",""
"","bandit","109","818997","0.0-71.0-0.0","08807484","wem/bandit_party_2","A2KJ4QM0K59HLL","either","5","110","","","","","","","0","0","1","","0.3051502752","0.8","0.2","0.6","0.4","0.3536414415","0.3051502752","0.3076129501","0.306262239","","","","","","","","","","","","","","74","J","1","","","30","main_expt",""
"","bandit","110","821481","0.0-72.0-0.0","08807484","wem/bandit_party_2","A2KJ4QM0K59HLL","either","5","973","","","","","","","0","0","1","0.275744379","","0.8","0.2","0.6","0.4","","","","","0.3201297868","0.3588845582","0.275744379","0.2846857217","","","","","","","","","","75","K","2","","","31","main_expt",""
"","bandit","111","823449","0.0-73.0-0.0","08807484","wem/bandit_party_2","A2KJ4QM0K59HLL","either","5","456","","","","","","","0","1","0","","0.260797537","0.8","0.2","0.6","0.4","0.414050106","0.3351264969","0.1582224348","0.260797537","","","","","","","","","","","","","","76","L","3","","","32","main_expt",""
"","bandit","112","825204","0.0-74.0-0.0","08807484","wem/bandit_party_2","A2KJ4QM0K59HLL","either","5","241","","","","","","","0","0","1","","0.3108282978","0.8","0.2","0.6","0.4","0.4846208784","0.3369799553","0.07234251762","0.3108282978","","","","","","","","","","","","","","76","L","3","","","33","main_expt",""
"","bandit","113","827750","0.0-75.0-0.0","08807484","wem/bandit_party_2","A2KJ4QM0K59HLL","either","5","1039","","","","","","","0","0","1","","0.07244310326","0.8","0.2","0.6","0.4","0.4250330595","0.3040676539","0.07244310326","0.3996464291","","","","","","","","","","","","","","75","K","2","","","34","main_expt",""
"","bandit","114","830321","0.0-76.0-0.0","08807484","wem/bandit_party_2","A2KJ4QM0K59HLL","either","5","1057","","","","","","","0","0","1","","0.2974236485","0.8","0.2","0.6","0.4","0.499329675","0.2974236485","0.07140094546","0.4368131495","","","","","","","","","","","","","","74","J","1","","","35","main_expt",""
"","bandit","115","832550","0.0-77.0-0.0","08807484","wem/bandit_party_2","A2KJ4QM0K59HLL","either","5","714","","","","","","","0","0","1","0.3892953339","","0.8","0.2","0.6","0.4","","","","","0.3892953339","0.310238309","0.08624361683","0.3396719642","","","","","","","","","","72","H","0","img/none_selected.jpg","","36","main_expt",""
"","bandit","116","834117","0.0-78.0-0.0","08807484","wem/bandit_party_2","A2KJ4QM0K59HLL","either","5","52","","","","","","","0","0","1","","0.2818719109","0.8","0.2","0.6","0.4","0.3680424748","0.2818719109","0.07543251018","0.4409026667","","","","","","","","","","","","","","74","J","1","","","37","main_expt",""
"","bandit","117","836833","0.0-79.0-0.0","08807484","wem/bandit_party_2","A2KJ4QM0K59HLL","either","5","1205","","","","","","","0","0","1","0.1324785543","","0.8","0.2","0.6","0.4","","","","","0.4909804269","0.2925765749","0.1324785543","0.489392614","","","","","","","","","","75","K","2","","","38","main_expt",""
"","bandit","118","838527","0.0-80.0-0.0","08807484","wem/bandit_party_2","A2KJ4QM0K59HLL","either","5","185","","","","","","","1","0","0","0.4403114744","","0.8","0.2","0.6","0.4","","","","","0.5165168671","0.3033582507","0.1824024676","0.4403114744","","","","","","","","","","76","L","3","","","39","main_expt",""
"","bandit","119","840240","0.0-81.0-0.0","08807484","wem/bandit_party_2","A2KJ4QM0K59HLL","either","5","203","","","","","","","0","1","0","","0.343221944","0.8","0.2","0.6","0.4","0.6036007873","0.2371445562","0.09861269436","0.343221944","","","","","","","","","","","","","","76","L","3","","","40","main_expt",""
"","bandit","120","842120","0.0-82.0-0.0","08807484","wem/bandit_party_2","A2KJ4QM0K59HLL","either","5","369","","","","","","","0","0","1","","0.450343793","0.8","0.2","0.6","0.4","0.6078828369","0.2072661203","0.1028082326","0.450343793","","","","","","","","","","","","","","76","L","3","","","41","main_expt",""
"","bandit","121","843640","0.0-83.0-0.0","08807484","wem/bandit_party_2","A2KJ4QM0K59HLL","either","5","10","","","","","","","0","0","1","0.1326350751","","0.8","0.2","0.6","0.4","","","","","0.5757077757","0.1850700716","0.1326350751","0.4422822993","","","","","","","","","","75","K","2","","","42","main_expt",""
"","bandit","122","845173","0.0-84.0-0.0","08807484","wem/bandit_party_2","A2KJ4QM0K59HLL","either","5","18","","","","","","","0","0","1","","0.1700345657","0.8","0.2","0.6","0.4","0.504524575","0.1700345657","0.1591685393","0.4755437476","","","","","","","","","","","","","","74","J","1","","","43","main_expt",""
"","bandit","123","847610","0.0-85.0-0.0","08807484","wem/bandit_party_2","A2KJ4QM0K59HLL","either","5","926","","","","","","","0","0","1","0.3354744533","","0.8","0.2","0.6","0.4","","","","","0.3354744533","0.150922449","0.1558361793","0.6211160782","","","","","","","","","","72","H","0","img/none_selected.jpg","","44","main_expt",""
"","bandit","124","850042","0.0-86.0-0.0","08807484","wem/bandit_party_2","A2KJ4QM0K59HLL","either","5","918","","","","","","","0","0","1","0.08792573626","","0.8","0.2","0.6","0.4","","","","","0.2259933845","0.08792573626","0.08224127908","0.5950963145","","","","","","","","","","74","J","1","","","45","main_expt",""
"","bandit","125","851824","0.0-87.0-0.0","08807484","wem/bandit_party_2","A2KJ4QM0K59HLL","either","5","272","","","","","","","0","0","1","0.05210962111","","0.8","0.2","0.6","0.4","","","","","0.1991815266","0.05210962111","0.05681632526","0.600883672","","","","","","","","","","74","J","1","","","46","main_expt",""
"","bandit","126","853573","0.0-88.0-0.0","08807484","wem/bandit_party_2","A2KJ4QM0K59HLL","either","5","232","","","","","","","0","0","1","","0.02046531905","0.8","0.2","0.6","0.4","0.1821259253","0.1658512007","0.02046531905","0.6018426621","","","","","","","","","","","","","","75","K","2","","","47","main_expt",""
"","bandit","127","855161","0.0-89.0-0.0","08807484","wem/bandit_party_2","A2KJ4QM0K59HLL","either","5","77","","","","","","","0","0","1","","0.6719149388","0.8","0.2","0.6","0.4","0.1850219792","0.2171730843","0.02793369594","0.6719149388","","","","","","","","","","","","","","76","L","3","","","48","main_expt",""
"","bandit","128","857721","0.0-90.0-0.0","08807484","wem/bandit_party_2","A2KJ4QM0K59HLL","either","5","1048","","","","","","","1","0","0","0.5824093935","","0.8","0.2","0.6","0.4","","","","","0.2843491098","0.2545874694","0.01520235592","0.5824093935","","","","","","","","","","76","L","3","","","49","main_expt",""
"","bandit","129","860083","0.0-91.0-0.0","08807484","wem/bandit_party_2","A2KJ4QM0K59HLL","either","5","850","","","","","","","0","1","0","","0.5697547833","0.8","0.2","0.6","0.4","0.2385085868","0.1971443839","0.008868670712","0.5697547833","","","","","","","","","","","","","","76","L","3","","","50","main_expt",""
"","bandit","130","861847","0.0-92.0-0.0","08807484","wem/bandit_party_2","A2KJ4QM0K59HLL","either","5","253","","","","","","","0","0","1","","0.5875551098","0.8","0.2","0.6","0.4","0.2762119933","0.1743954459","0.004668439046","0.5875551098","","","","","","","","","","","","","","76","L","3","","","51","main_expt",""
"","bandit","131","863745","0.0-93.0-0.0","08807484","wem/bandit_party_2","A2KJ4QM0K59HLL","either","5","386","","","","","","","0","0","1","0.003090075005","","0.8","0.2","0.6","0.4","","","","","0.2350807626","0.1007451992","0.003090075005","0.691822337","","","","","","","","","","75","K","2","","","52","main_expt",""
"","bandit","132","865335","0.0-94.0-0.0","08807484","wem/bandit_party_2","A2KJ4QM0K59HLL","either","5","79","","","","","","","0","0","1","0.003474758773","","0.8","0.2","0.6","0.4","","","","","0.2301492847","0.1648918076","0.003474758773","0.7363191169","","","","","","","","","","75","K","2","","","53","main_expt",""
"","bandit","133","867361","0.0-95.0-0.0","08807484","wem/bandit_party_2","A2KJ4QM0K59HLL","either","5","514","","","","","","","0","0","1","","0.1761014763","0.8","0.2","0.6","0.4","0.2779325162","0.1761014763","0.003279238457","0.7639548597","","","","","","","","","","","","","","74","J","1","","","54","main_expt",""
"","bandit","134","868986","0.0-96.0-0.0","08807484","wem/bandit_party_2","A2KJ4QM0K59HLL","either","5","111","","","","","","","0","0","1","0.1460392243","","0.8","0.2","0.6","0.4","","","","","0.2882189161","0.1460392243","0.001847339967","0.7264154962","","","","","","","","","","74","J","1","","","55","main_expt",""
"","bandit","135","870525","0.0-97.0-0.0","08807484","wem/bandit_party_2","A2KJ4QM0K59HLL","either","5","23","","","","","","","0","0","1","0.2646822794","","0.8","0.2","0.6","0.4","","","","","0.2646822794","0.1882527018","0.001186331615","0.7511403137","","","","","","","","","","72","H","0","img/none_selected.jpg","","56","main_expt",""
"","bandit","136","872155","0.0-98.0-0.0","08807484","wem/bandit_party_2","A2KJ4QM0K59HLL","either","5","115","","","","","","","1","0","0","0.3080117871","","0.8","0.2","0.6","0.4","","","","","0.3080117871","0.1836596221","0.001917609755","0.6292194553","","","","","","","","","","72","H","0","img/none_selected.jpg","","57","main_expt",""
"","bandit","137","873809","0.0-99.0-0.0","08807484","wem/bandit_party_2","A2KJ4QM0K59HLL","either","5","142","","","","","","","0","0","1","0.2609020091","","0.8","0.2","0.6","0.4","","","","","0.2609020091","0.2259562874","0.004115025419","0.5622591622","","","","","","","","","","72","H","0","img/none_selected.jpg","","58","main_expt",""
"","bandit","138","875475","0.0-100.0-0.0","08807484","wem/bandit_party_2","A2KJ4QM0K59HLL","either","5","151","","","","","","","1","0","0","0.3014652953","","0.8","0.2","0.6","0.4","","","","","0.3014652953","0.1673227733","0.007083433589","0.6394190939","","","","","","","","","","72","H","0","img/none_selected.jpg","","59","main_expt",""
"","bandit","139","877338","0.0-101.0-0.0","08807484","wem/bandit_party_2","A2KJ4QM0K59HLL","either","5","352","","","","","","","0","0","1","","0.2872544729","0.8","0.2","0.6","0.4","0.2872544729","0.1404143731","0.0100473459","0.502148976","","","","","","","","","","","","","","72","H","0","img/none_selected.jpg","","60","main_expt",""
"","bandit","140","879630","0.0-102.0-0.0","08807484","wem/bandit_party_2","A2KJ4QM0K59HLL","either","5","783","","","","","","","0","0","1","","0.1087230511","0.8","0.2","0.6","0.4","0.2347068593","0.1087230511","0.02288810402","0.5541662771","","","","","","","","","","","","","","74","J","1","","","61","main_expt",""
"","bandit","141","882016","0.0-103.0-0.0","08807484","wem/bandit_party_2","A2KJ4QM0K59HLL","either","5","873","","","","","","","0","0","1","","0.1173770395","0.8","0.2","0.6","0.4","0.1786743828","0.1173770395","0.04890713094","0.6016144889","","","","","","","","","","","","","","74","J","1","","","62","main_expt",""
"","bandit","142","883873","0.0-104.0-0.0","08807484","wem/bandit_party_2","A2KJ4QM0K59HLL","either","5","345","","","","","","","0","0","1","0.06015841579","","0.8","0.2","0.6","0.4","","","","","0.1627017484","0.1173961002","0.06015841579","0.6306423252","","","","","","","","","","75","K","2","","","63","main_expt",""
"","bandit","143","885579","0.0-105.0-0.0","08807484","wem/bandit_party_2","A2KJ4QM0K59HLL","either","5","190","","","","","","","0","0","1","0.0697324588","","0.8","0.2","0.6","0.4","","","","","0.2220220934","0.1093057248","0.0697324588","0.5963496952","","","","","","","","","","75","K","2","","","64","main_expt",""
"","bandit","144","887169","0.0-106.0-0.0","08807484","wem/bandit_party_2","A2KJ4QM0K59HLL","either","5","76","","","","","","","0","1","0","","0.5835424673","0.8","0.2","0.6","0.4","0.1387290973","0.1437581537","0.03955641554","0.5835424673","","","","","","","","","","","","","","76","L","3","","","65","main_expt",""
"","bandit","145","888696","0.0-107.0-0.0","08807484","wem/bandit_party_2","A2KJ4QM0K59HLL","either","5","14","","","","","","","1","0","0","0.5789137396","","0.8","0.2","0.6","0.4","","","","","0.1481952943","0.1321246006","0.04104317144","0.5789137396","","","","","","","","","","76","L","3","","","66","main_expt",""
"","bandit","146","890315","0.0-108.0-0.0","08807484","wem/bandit_party_2","A2KJ4QM0K59HLL","either","5","104","","","","","","","1","0","0","0.6503196648","","0.8","0.2","0.6","0.4","","","","","0.1354395346","0.1441415222","0.07749417123","0.6503196648","","","","","","","","","","76","L","3","","","67","main_expt",""
"","bandit","147","891899","0.0-109.0-0.0","08807484","wem/bandit_party_2","A2KJ4QM0K59HLL","either","5","70","","","","","","","0","1","0","","0.7295955131","0.8","0.2","0.6","0.4","0.09431815687","0.1794787892","0.1606162296","0.7295955131","","","","","","","","","","","","","","76","L","3","","","68","main_expt",""
"","bandit","148","893588","0.0-110.0-0.0","08807484","wem/bandit_party_2","A2KJ4QM0K59HLL","either","5","173","","","","","","","0","1","0","","0.7924649224","0.8","0.2","0.6","0.4","0.09491494314","0.2467892919","0.1458723802","0.7924649224","","","","","","","","","","","","","","76","L","3","","","69","main_expt",""
"","bandit","149","895196","0.0-111.0-0.0","08807484","wem/bandit_party_2","A2KJ4QM0K59HLL","either","5","92","","","","","","","0","1","0","","0.7104550926","0.8","0.2","0.6","0.4","0.144379617","0.2683381141","0.09936082334","0.7104550926","","","","","","","","","","","","","","76","L","3","","","70","main_expt",""
"","bandit","150","896722","0.0-112.0-0.0","08807484","wem/bandit_party_2","A2KJ4QM0K59HLL","either","5","12","","","","","","","1","0","0","0.6350436987","","0.8","0.2","0.6","0.4","","","","","0.1522740794","0.3513633517","0.08487306657","0.6350436987","","","","","","","","","","76","L","3","","","71","main_expt",""
"","bandit","151","899079","0.0-113.0-0.0","08807484","wem/bandit_party_2","A2KJ4QM0K59HLL","either","5","845","","","","","","","0","1","0","","0.5987872161","0.8","0.2","0.6","0.4","0.1668466162","0.2914052368","0.08819471669","0.5987872161","","","","","","","","","","","","","","76","L","3","","","72","main_expt",""
"","bandit","152","900617","0.0-114.0-0.0","08807484","wem/bandit_party_2","A2KJ4QM0K59HLL","either","5","25","","","","","","","0","1","0","","0.5985066563","0.8","0.2","0.6","0.4","0.1896474075","0.2877488323","0.1283432424","0.5985066563","","","","","","","","","","","","","","76","L","3","","","73","main_expt",""
"","bandit","153","902474","0.0-115.0-0.0","08807484","wem/bandit_party_2","A2KJ4QM0K59HLL","either","5","342","","","","","","","1","0","0","0.6384302553","","0.8","0.2","0.6","0.4","","","","","0.2374421278","0.2562899571","0.09379917772","0.6384302553","","","","","","","","","","76","L","3","","","74","main_expt",""
"","bandit","154","904529","0.0-116.0-0.0","08807484","wem/bandit_party_2","A2KJ4QM0K59HLL","either","5","541","","","","","","","0","1","0","","0.5658832615","0.8","0.2","0.6","0.4","0.2083661751","0.2733605005","0.09049970266","0.5658832615","","","","","","","","","","","","","","76","L","3","","","75","main_expt",""
"","bandit","155","906276","0.0-117.0-0.0","08807484","wem/bandit_party_2","A2KJ4QM0K59HLL","either","5","231","","","","","","","0","0","1","0.6242699585","","0.8","0.2","0.6","0.4","","","","","0.2438220339","0.3937912108","0.08721668036","0.6242699585","","","","","","","","","","76","L","3","","","76","main_expt",""
"","bandit","156","907862","0.0-118.0-0.0","08807484","wem/bandit_party_2","A2KJ4QM0K59HLL","either","5","68","","","","","","","0","1","0","","0.5744400186","0.8","0.2","0.6","0.4","0.2688374605","0.2317864895","0.06435523183","0.5744400186","","","","","","","","","","","","","","76","L","3","","","77","main_expt",""
"","bandit","157","909793","0.0-119.0-0.0","08807484","wem/bandit_party_2","A2KJ4QM0K59HLL","either","5","416","","","","","","","0","1","0","","0.5888420407","0.8","0.2","0.6","0.4","0.354885782","0.1809738678","0.0482567949","0.5888420407","","","","","","","","","","","","","","76","L","3","","","78","main_expt",""
"","bandit","158","911731","0.0-120.0-0.0","08807484","wem/bandit_party_2","A2KJ4QM0K59HLL","either","5","423","","","","","","","0","1","0","","0.6367332082","0.8","0.2","0.6","0.4","0.3618930149","0.1139783564","0.0437210955","0.6367332082","","","","","","","","","","","","","","76","L","3","","","79","main_expt",""
"","bandit","159","913536","0.0-121.0-0.0","08807484","wem/bandit_party_2","A2KJ4QM0K59HLL","either","5","292","","","","","","","1","0","0","0.6870764151","","0.8","0.2","0.6","0.4","","","","","0.2656346555","0.08785846653","0.02877808334","0.6870764151","","","","","","","","","","76","L","3","","","80","main_expt",""
"","bandit","160","915208","0.0-122.0-0.0","08807484","wem/bandit_party_2","A2KJ4QM0K59HLL","either","5","160","","","","","","","0","1","0","","0.594282643","0.8","0.2","0.6","0.4","0.4245431589","0.09113866108","0.01921293631","0.594282643","","","","","","","","","","","","","","76","L","3","","","81","main_expt",""
"","bandit","161","916758","0.0-123.0-0.0","08807484","wem/bandit_party_2","A2KJ4QM0K59HLL","either","5","39","","","","","","","1","0","0","0.6134463007","","0.8","0.2","0.6","0.4","","","","","0.4469352605","0.1055231707","0.04933803159","0.6134463007","","","","","","","","","","76","L","3","","","82","main_expt",""
"","bandit","162","918986","0.0-124.0-0.0","08807484","wem/bandit_party_2","A2KJ4QM0K59HLL","either","5","714","","","","","","","0","0","1","","0.573719985","0.8","0.2","0.6","0.4","0.4492602846","0.09865920741","0.03134335394","0.573719985","","","","","","","","","","","","","","76","L","3","","","83","main_expt",""
"","bandit","163","920594","0.0-125.0-0.0","08807484","wem/bandit_party_2","A2KJ4QM0K59HLL","either","5","95","","","","","","","0","1","0","","0.5666188995","0.8","0.2","0.6","0.4","0.4800113203","0.06745845416","0.08181594064","0.5666188995","","","","","","","","","","","","","","76","L","3","","","84","main_expt",""
"","bandit","164","922190","0.0-126.0-0.0","08807484","wem/bandit_party_2","A2KJ4QM0K59HLL","either","5","85","","","","","","","0","0","1","","0.5161506384","0.8","0.2","0.6","0.4","0.53417275","0.05723787215","0.09326949564","0.5161506384","","","","","","","","","","","","","","76","L","3","","","85","main_expt",""
"","bandit","165","924070","0.0-127.0-0.0","08807484","wem/bandit_party_2","A2KJ4QM0K59HLL","either","5","368","","","","","","","0","0","1","0.4408304524","","0.8","0.2","0.6","0.4","","","","","0.4431594274","0.04283717318","0.1365856799","0.4408304524","","","","","","","","","","76","L","3","","","86","main_expt",""
"","bandit","166","926554","0.0-128.0-0.0","08807484","wem/bandit_party_2","A2KJ4QM0K59HLL","either","5","969","","","","","","","0","0","1","","0.1845868617","0.8","0.2","0.6","0.4","0.4135642243","0.04801612347","0.1845868617","0.4926691315","","","","","","","","","","","","","","75","K","2","","","87","main_expt",""
"","bandit","167","928447","0.0-129.0-0.0","08807484","wem/bandit_party_2","A2KJ4QM0K59HLL","either","5","381","","","","","","","1","0","0","0.2304222619","","0.8","0.2","0.6","0.4","","","","","0.4785462387","0.1154775412","0.2304222619","0.6047228172","","","","","","","","","","75","K","2","","","88","main_expt",""
"","bandit","168","930106","0.0-130.0-0.0","08807484","wem/bandit_party_2","A2KJ4QM0K59HLL","either","5","145","","","","","","","0","0","1","","0.1408060154","0.8","0.2","0.6","0.4","0.6395163219","0.1308375778","0.1408060154","0.5311406509","","","","","","","","","","","","","","75","K","2","","","89","main_expt",""
"","bandit","169","931660","0.0-131.0-0.0","08807484","wem/bandit_party_2","A2KJ4QM0K59HLL","either","5","45","","","","","","","0","0","1","0.07282967421","","0.8","0.2","0.6","0.4","","","","","0.6143207643","0.07282967421","0.1870966622","0.6262376813","","","","","","","","","","74","J","1","","","90","main_expt",""
"","bandit","170","933298","0.0-132.0-0.0","08807484","wem/bandit_party_2","A2KJ4QM0K59HLL","either","5","123","","","","","","","0","0","1","","0.07599207753","0.8","0.2","0.6","0.4","0.446485487","0.07599207753","0.192698437","0.690423555","","","","","","","","","","","","","","74","J","1","","","91","main_expt",""
"","bandit","171","934947","0.0-133.0-0.0","08807484","wem/bandit_party_2","A2KJ4QM0K59HLL","either","5","132","","","","","","","0","0","1","0.5169677416","","0.8","0.2","0.6","0.4","","","","","0.5169677416","0.04323911508","0.1683480261","0.6517149298","","","","","","","","","","72","H","0","img/none_selected.jpg","","92","main_expt",""
"","bandit","172","936566","0.0-134.0-0.0","08807484","wem/bandit_party_2","A2KJ4QM0K59HLL","either","5","109","","","","","","","1","0","0","0.4242737166","","0.8","0.2","0.6","0.4","","","","","0.4242737166","0.04253576945","0.1330499919","0.5656193004","","","","","","","","","","72","H","0","img/none_selected.jpg","","93","main_expt",""
"","bandit","173","938232","0.0-135.0-0.0","08807484","wem/bandit_party_2","A2KJ4QM0K59HLL","either","5","151","","","","","","","1","0","0","0.3479993201","","0.8","0.2","0.6","0.4","","","","","0.3479993201","0.04534385772","0.1880917327","0.4344563295","","","","","","","","","","72","H","0","img/none_selected.jpg","","94","main_expt",""
"","bandit","174","939770","0.0-136.0-0.0","08807484","wem/bandit_party_2","A2KJ4QM0K59HLL","either","5","21","","","","","","","1","0","0","0.3701135783","","0.8","0.2","0.6","0.4","","","","","0.3701135783","0.03318992591","0.1867575465","0.5651083109","","","","","","","","","","72","H","0","img/none_selected.jpg","","95","main_expt",""
"","bandit","175","942230","0.0-137.0-0.0","08807484","wem/bandit_party_2","A2KJ4QM0K59HLL","either","5","948","","","","","","","1","0","0","0.3430407586","","0.8","0.2","0.6","0.4","","","","","0.3430407586","0.03408771876","0.2231999883","0.5348041914","","","","","","","","","","72","H","0","img/none_selected.jpg","","96","main_expt",""
"","bandit","176","943856","0.0-138.0-0.0","08807484","wem/bandit_party_2","A2KJ4QM0K59HLL","either","5","112","","","","","","","0","1","0","","0.2876443713","0.8","0.2","0.6","0.4","0.2876443713","0.05013144164","0.2149045243","0.5627844697","","","","","","","","","","","","","","72","H","0","img/none_selected.jpg","","97","main_expt",""
"","bandit","177","945463","0.0-139.0-0.0","08807484","wem/bandit_party_2","A2KJ4QM0K59HLL","either","5","94","","","","","","","0","0","1","","0.3310412313","0.8","0.2","0.6","0.4","0.3310412313","0.03739082544","0.1963416079","0.6177525637","","","","","","","","","","","","","","72","H","0","img/none_selected.jpg","","98","main_expt",""
"","bandit","178","947321","0.0-140.0-0.0","08807484","wem/bandit_party_2","A2KJ4QM0K59HLL","either","5","342","","","","","","","0","0","1","","0.3893078888","0.8","0.2","0.6","0.4","0.3893078888","0.1018336486","0.1659387142","0.7429557604","","","","","","","","","","","","","","72","H","0","img/none_selected.jpg","","99","main_expt",""
"","bandit","179","948882","0.0-141.0-0.0","08807484","wem/bandit_party_2","A2KJ4QM0K59HLL","either","5","45","","","","","","","0","0","1","","0.1398961818","0.8","0.2","0.6","0.4","0.4049224607","0.1398961818","0.145948344","0.6717563967","","","","","","","","","","","","","","74","J","1","","","100","main_expt",""
"","bandit","180","950553","0.0-142.0-0.0","08807484","wem/bandit_party_2","A2KJ4QM0K59HLL","either","5","157","","","","","","","0","0","1","0.1830356504","","0.8","0.2","0.6","0.4","","","","","0.3259939159","0.1830356504","0.1366695263","0.6929666651","","","","","","","","","","74","J","1","","","101","main_expt",""
"","bandit","181","952495","0.0-143.0-0.0","08807484","wem/bandit_party_2","A2KJ4QM0K59HLL","either","5","429","","","","","","","0","0","1","0.1543059156","","0.8","0.2","0.6","0.4","","","","","0.3598161211","0.1396005595","0.1543059156","0.6827494989","","","","","","","","","","75","K","2","","","102","main_expt",""
"","bandit","182","954192","0.0-144.0-0.0","08807484","wem/bandit_party_2","A2KJ4QM0K59HLL","either","5","182","","","","","","","0","0","1","0.1484193465","","0.8","0.2","0.6","0.4","","","","","0.3385951472","0.0853830874","0.1484193465","0.7315485361","","","","","","","","","","75","K","2","","","103","main_expt",""
"","bandit","183","955765","0.0-145.0-0.0","08807484","wem/bandit_party_2","A2KJ4QM0K59HLL","either","5","62","","","","","","","0","0","1","0.6852971926","","0.8","0.2","0.6","0.4","","","","","0.4881545817","0.09317924201","0.1516288854","0.6852971926","","","","","","","","","","76","L","3","","","104","main_expt",""
"","bandit","184","957414","0.0-146.0-0.0","08807484","wem/bandit_party_2","A2KJ4QM0K59HLL","either","5","136","","","","","","","0","1","0","","0.693594393","0.8","0.2","0.6","0.4","0.4790883063","0.08203708102","0.1283123627","0.693594393","","","","","","","","","","","","","","76","L","3","","","105","main_expt",""
"","bandit","185","959166","0.0-147.0-0.0","08807484","wem/bandit_party_2","A2KJ4QM0K59HLL","either","5","239","","","","","","","1","0","0","0.6101065231","","0.8","0.2","0.6","0.4","","","","","0.4354998123","0.07160056992","0.2016068708","0.6101065231","","","","","","","","","","76","L","3","","","106","main_expt",""
"","bandit","186","960830","0.0-148.0-0.0","08807484","wem/bandit_party_2","A2KJ4QM0K59HLL","either","5","152","","","","","","","0","0","1","","0.5549317608","0.8","0.2","0.6","0.4","0.4789065637","0.09799112372","0.2344181992","0.5549317608","","","","","","","","","","","","","","76","L","3","","","107","main_expt",""
"","bandit","187","963304","0.0-149.0-0.0","08807484","wem/bandit_party_2","A2KJ4QM0K59HLL","either","5","961","","","","","","","0","0","1","","0.5753690117","0.8","0.2","0.6","0.4","0.2921896665","0.1101799882","0.2234564856","0.5753690117","","","","","","","","","","","","","","76","L","3","","","108","main_expt",""
"","bandit","188","965399","0.0-150.0-0.0","08807484","wem/bandit_party_2","A2KJ4QM0K59HLL","either","5","581","","","","","","","1","0","0","0.3545905428","","0.8","0.2","0.6","0.4","","","","","0.3545905428","0.07189968831","0.2494485671","0.5748544728","","","","","","","","","","72","H","0","img/none_selected.jpg","","109","main_expt",""
"","bandit","189","967107","0.0-151.0-0.0","08807484","wem/bandit_party_2","A2KJ4QM0K59HLL","either","5","191","","","","","","","0","0","1","0.3110769573","","0.8","0.2","0.6","0.4","","","","","0.3110769573","0.06101418375","0.2804015825","0.6473038793","","","","","","","","","","72","H","0","img/none_selected.jpg","","110","main_expt",""
"","bandit","190","969080","0.0-152.0-0.0","08807484","wem/bandit_party_2","A2KJ4QM0K59HLL","either","5","459","","","","","","","0","1","0","","0.3673577619","0.8","0.2","0.6","0.4","0.3673577619","0.1032726654","0.254644275","0.6296147118","","","","","","","","","","","","","","72","H","0","img/none_selected.jpg","","111","main_expt",""
"","bandit","191","970873","0.0-153.0-0.0","08807484","wem/bandit_party_2","A2KJ4QM0K59HLL","either","5","277","","","","","","","0","0","1","0.3439961468","","0.8","0.2","0.6","0.4","","","","","0.3439961468","0.1061240248","0.2686709136","0.6174722021","","","","","","","","","","72","H","0","img/none_selected.jpg","","112","main_expt",""
"","bandit","192","972567","0.0-154.0-0.0","08807484","wem/bandit_party_2","A2KJ4QM0K59HLL","either","5","182","","","","","","","0","0","1","0.1150632514","","0.8","0.2","0.6","0.4","","","","","0.3389202036","0.1150632514","0.3211503982","0.7467975424","","","","","","","","","","74","J","1","","","113","main_expt",""
"","bandit","193","974134","0.0-155.0-0.0","08807484","wem/bandit_party_2","A2KJ4QM0K59HLL","either","5","54","","","","","","","0","0","1","","0.1491479201","0.8","0.2","0.6","0.4","0.3122185675","0.1491479201","0.3067152309","0.7797220863","","","","","","","","","","","","","","74","J","1","","","114","main_expt",""
"","bandit","194","975767","0.0-156.0-0.0","08807484","wem/bandit_party_2","A2KJ4QM0K59HLL","either","5","119","","","","","","","0","0","1","","0.08304421353","0.8","0.2","0.6","0.4","0.2431064996","0.08304421353","0.3274584286","0.8152411921","","","","","","","","","","","","","","74","J","1","","","115","main_expt",""
"","bandit","195","977565","0.0-157.0-0.0","08807484","wem/bandit_party_2","A2KJ4QM0K59HLL","either","5","287","","","","","","","0","0","1","","0.1391191417","0.8","0.2","0.6","0.4","0.2225404561","0.1391191417","0.2491959293","0.7362727539","","","","","","","","","","","","","","74","J","1","","","116","main_expt",""
"","bandit","196","986305","0.0-158.0-0.0","08807484","wem/bandit_party_2","A2KJ4QM0K59HLL","either","5","7228","","","","","","","0","0","1","","0.1425156065","0.8","0.2","0.6","0.4","0.2891792411","0.1689833708","0.1425156065","0.7051771602","","","","","","","","","","","","","","75","K","2","","","117","main_expt",""
"","bandit","197","987948","0.0-159.0-0.0","08807484","wem/bandit_party_2","A2KJ4QM0K59HLL","either","5","128","","","","","","","1","0","0","0.7099604309","","0.8","0.2","0.6","0.4","","","","","0.3147139712","0.1341186766","0.1550025764","0.7099604309","","","","","","","","","","76","L","3","","","118","main_expt",""
"","bandit","198","989462","0.0-160.0-0.0","08807484","wem/bandit_party_2","A2KJ4QM0K59HLL","either","5","1","","","","","","","0","1","0","","0.6633752461","0.8","0.2","0.6","0.4","0.4890071061","0.1211065448","0.1733664784","0.6633752461","","","","","","","","","","","","","","76","L","3","","","119","main_expt",""
"","bandit","199","991076","0.0-161.0-0.0","08807484","wem/bandit_party_2","A2KJ4QM0K59HLL","either","5","99","","","","","","","0","0","1","0.6748815414","","0.8","0.2","0.6","0.4","","","","","0.5238994176","0.1317257861","0.2091577514","0.6748815414","","","","","","","","","","76","L","3","","","120","main_expt",""
"","bandit","200","992701","0.0-162.0-0.0","08807484","wem/bandit_party_2","A2KJ4QM0K59HLL","either","5","108","","","","","","","0","0","1","","0.2038206067","0.8","0.2","0.6","0.4","0.4821854017","0.08851148741","0.2038206067","0.694041989","","","","","","","","","","","","","","75","K","2","","","121","main_expt",""
"","bandit","201","995248","0.0-163.0-0.0","08807484","wem/bandit_party_2","A2KJ4QM0K59HLL","either","5","1036","","","","","","","0","0","1","","0.1646827865","0.8","0.2","0.6","0.4","0.5695824443","0.1313095228","0.1646827865","0.7808088803","","","","","","","","","","","","","","75","K","2","","","122","main_expt",""
"","bandit","202","997739","0.0-164.0-0.0","08807484","wem/bandit_party_2","A2KJ4QM0K59HLL","either","5","977","","","","","","","0","0","1","","0.1990721176","0.8","0.2","0.6","0.4","0.5884468641","0.1990721176","0.08951947698","0.7513243775","","","","","","","","","","","","","","74","J","1","","","123","main_expt",""
"","bandit","203","1000136","0.0-165.0-0.0","08807484","wem/bandit_party_2","A2KJ4QM0K59HLL","either","5","886","","","","","","","0","0","1","0.6578864121","","0.8","0.2","0.6","0.4","","","","","0.6578864121","0.3510587203","0.09676311751","0.7095593687","","","","","","","","","","72","H","0","img/none_selected.jpg","","124","main_expt",""
"","bandit","204","1001758","0.0-166.0-0.0","08807484","wem/bandit_party_2","A2KJ4QM0K59HLL","either","5","105","","","","","","","0","0","1","0.6610648035","","0.8","0.2","0.6","0.4","","","","","0.6610648035","0.2829787335","0.08914634913","0.6464373278","","","","","","","","","","72","H","0","img/none_selected.jpg","","125","main_expt",""
"","bandit","205","1003578","0.0-167.0-0.0","08807484","wem/bandit_party_2","A2KJ4QM0K59HLL","either","5","307","","","","","","","0","0","1","","0.6745370829","0.8","0.2","0.6","0.4","0.6745370829","0.3253732313","0.1104844084","0.69855693","","","","","","","","","","","","","","72","H","0","img/none_selected.jpg","","126","main_expt",""
"","bandit","206","1005133","0.0-168.0-0.0","08807484","wem/bandit_party_2","A2KJ4QM0K59HLL","either","5","38","","","","","","","1","0","0","0.2969307539","","0.8","0.2","0.6","0.4","","","","","0.6357656308","0.2969307539","0.1302598269","0.6394960802","","","","","","","","","","74","J","1","","","127","main_expt",""
"","bandit","207","1007129","0.0-169.0-0.0","08807484","wem/bandit_party_2","A2KJ4QM0K59HLL","either","5","485","","","","","","","0","1","0","","0.3862322559","0.8","0.2","0.6","0.4","0.6746479632","0.3862322559","0.1739983423","0.5912569563","","","","","","","","","","","","","","74","J","1","","","128","main_expt",""
"","bandit","208","1008766","0.0-170.0-0.0","08807484","wem/bandit_party_2","A2KJ4QM0K59HLL","either","5","117","","","","","","","0","1","0","","0.3399993615","0.8","0.2","0.6","0.4","0.609360971","0.3399993615","0.2144078185","0.6408154383","","","","","","","","","","","","","","74","J","1","","","129","main_expt",""
"","bandit","209","1010641","0.0-171.0-0.0","08807484","wem/bandit_party_2","A2KJ4QM0K59HLL","either","5","362","","","","","","","0","1","0","","0.4343217783","0.8","0.2","0.6","0.4","0.5791775941","0.4343217783","0.2133227205","0.6160079471","","","","","","","","","","","","","","74","J","1","","","130","main_expt",""
"","bandit","210","1012240","0.0-172.0-0.0","08807484","wem/bandit_party_2","A2KJ4QM0K59HLL","either","5","86","","","","","","","0","1","0","","0.4116870082","0.8","0.2","0.6","0.4","0.6039133906","0.4116870082","0.3009586135","0.6639311205","","","","","","","","","","","","","","74","J","1","","","131","main_expt",""
"","bandit","211","1013862","0.0-173.0-0.0","08807484","wem/bandit_party_2","A2KJ4QM0K59HLL","either","5","104","","","","","","","0","0","1","","0.3235444519","0.8","0.2","0.6","0.4","0.5564977279","0.3235444519","0.3257006372","0.7314418876","","","","","","","","","","","","","","74","J","1","","","132","main_expt",""
"","bandit","212","1015916","0.0-174.0-0.0","08807484","wem/bandit_party_2","A2KJ4QM0K59HLL","either","5","537","","","","","","","0","0","1","","0.3286432436","0.8","0.2","0.6","0.4","0.5453182718","0.4204005917","0.3286432436","0.7343064015","","","","","","","","","","","","","","75","K","2","","","133","main_expt",""
"","bandit","213","1017617","0.0-175.0-0.0","08807484","wem/bandit_party_2","A2KJ4QM0K59HLL","either","5","187","","","","","","","0","0","1","0.6345074403","","0.8","0.2","0.6","0.4","","","","","0.5557967555","0.5326734174","0.3343575241","0.6345074403","","","","","","","","","","76","L","3","","","134","main_expt",""
"","bandit","214","1019435","0.0-176.0-0.0","08807484","wem/bandit_party_2","A2KJ4QM0K59HLL","either","5","302","","","","","","","0","0","1","","0.752921597","0.8","0.2","0.6","0.4","0.5719827955","0.6096825818","0.2917270645","0.752921597","","","","","","","","","","","","","","76","L","3","","","135","main_expt",""
"","bandit","215","1021273","0.0-177.0-0.0","08807484","wem/bandit_party_2","A2KJ4QM0K59HLL","either","5","325","","","","","","","0","0","1","0.3972485531","","0.8","0.2","0.6","0.4","","","","","0.4756276611","0.6827328332","0.3972485531","0.7642539739","","","","","","","","","","75","K","2","","","136","main_expt",""
"","bandit","216","1022875","0.0-178.0-0.0","08807484","wem/bandit_party_2","A2KJ4QM0K59HLL","either","5","86","","","","","","","0","0","1","","0.6604068036","0.8","0.2","0.6","0.4","0.5078949877","0.6604068036","0.4294090248","0.7166238274","","","","","","","","","","","","","","74","J","1","","","137","main_expt",""
"","bandit","217","1024419","0.0-179.0-0.0","08807484","wem/bandit_party_2","A2KJ4QM0K59HLL","either","5","29","","","","","","","1","0","0","0.5009988565","","0.8","0.2","0.6","0.4","","","","","0.4938131475","0.653661868","0.5009988565","0.713549589","","","","","","","","","","75","K","2","","","138","main_expt",""
"","bandit","218","1026816","0.0-180.0-0.0","08807484","wem/bandit_party_2","A2KJ4QM0K59HLL","either","5","884","","","","","","","0","0","1","0.4993746949","","0.8","0.2","0.6","0.4","","","","","0.654612375","0.6169918179","0.4993746949","0.6905374229","","","","","","","","","","75","K","2","","","139","main_expt",""
"","bandit","219","1028807","0.0-181.0-0.0","08807484","wem/bandit_party_2","A2KJ4QM0K59HLL","either","5","479","","","","","","","1","0","0","0.6657435074","","0.8","0.2","0.6","0.4","","","","","0.52663091","0.6657435074","0.5448973659","0.6614813372","","","","","","","","","","74","J","1","","","140","main_expt",""
"","bandit","220","1030324","0.0-182.0-0.0","08807484","wem/bandit_party_2","A2KJ4QM0K59HLL","either","5","1","","","","","","","0","0","1","0.6349341703","","0.8","0.2","0.6","0.4","","","","","0.5976356642","0.6349341703","0.4829720837","0.7024355817","","","","","","","","","","74","J","1","","","141","main_expt",""
"","bandit","221","1031935","0.0-183.0-0.0","08807484","wem/bandit_party_2","A2KJ4QM0K59HLL","either","5","99","","","","","","","0","0","1","","0.6379356982","0.8","0.2","0.6","0.4","0.5956183516","0.6379356982","0.5402580016","0.7185929435","","","","","","","","","","","","","","74","J","1","","","142","main_expt",""
"","bandit","222","1033624","0.0-184.0-0.0","08807484","wem/bandit_party_2","A2KJ4QM0K59HLL","either","5","176","","","","","","","1","0","0","0.6432894639","","0.8","0.2","0.6","0.4","","","","","0.6432894639","0.6022688156","0.5478015274","0.6240660549","","","","","","","","","","72","H","0","img/none_selected.jpg","","143","main_expt",""
"","bandit","223","1035435","0.0-185.0-0.0","08807484","wem/bandit_party_2","A2KJ4QM0K59HLL","either","5","296","","","","","","","0","0","1","0.6691106198","","0.8","0.2","0.6","0.4","","","","","0.6691106198","0.5806731621","0.5189832842","0.5797935966","","","","","","","","","","72","H","0","img/none_selected.jpg","","144","main_expt",""
"","bandit","224","1037274","0.0-186.0-0.0","08807484","wem/bandit_party_2","A2KJ4QM0K59HLL","either","5","324","","","","","","","0","0","1","","0.677031803","0.8","0.2","0.6","0.4","0.677031803","0.5512406412","0.4556604905","0.520403766","","","","","","","","","","","","","","72","H","0","img/none_selected.jpg","","145","main_expt",""
"","bandit","225","1038859","0.0-187.0-0.0","08807484","wem/bandit_party_2","A2KJ4QM0K59HLL","either","5","69","","","","","","","0","1","0","","0.6055708535","0.8","0.2","0.6","0.4","0.6697886415","0.6055708535","0.48011385","0.5330345992","","","","","","","","","","","","","","74","J","1","","","146","main_expt",""
"","bandit","226","1040623","0.0-188.0-0.0","08807484","wem/bandit_party_2","A2KJ4QM0K59HLL","either","5","252","","","","","","","0","0","1","","0.5711328773","0.8","0.2","0.6","0.4","0.7101623398","0.5711328773","0.5363471167","0.5692896821","","","","","","","","","","","","","","74","J","1","","","147","main_expt",""
"","bandit","227","1042498","0.0-189.0-0.0","08807484","wem/bandit_party_2","A2KJ4QM0K59HLL","either","5","360","","","","","","","0","0","1","0.4929714004","","0.8","0.2","0.6","0.4","","","","","0.733230793","0.4258462921","0.4929714004","0.4877368026","","","","","","","","","","75","K","2","","","148","main_expt",""
"","bandit","228","1044146","0.0-190.0-0.0","08807484","wem/bandit_party_2","A2KJ4QM0K59HLL","either","5","133","","","","","","","0","1","0","","0.5936336812","0.8","0.2","0.6","0.4","0.7010449773","0.327967402","0.4356177925","0.5936336812","","","","","","","","","","","","","","76","L","3","","","149","main_expt",""
"","bandit","229","1045661","0.0-191.0-0.0","08807484","wem/bandit_party_2","A2KJ4QM0K59HLL","either","5","1","","","","","","","0","1","0","","0.7027445866","0.8","0.2","0.6","0.4","0.6668672445","0.4343474627","0.4054894896","0.7027445866","","","","","","","","","","","","","","76","L","3","","","150","main_expt",""
"","bandit","230","1047304","0.0-192.0-0.0","08807484","wem/bandit_party_2","A2KJ4QM0K59HLL","either","5","128","","","","","","","0","0","1","0.7690633033","","0.8","0.2","0.6","0.4","","","","","0.5612636021","0.5382828223","0.5283130311","0.7690633033","","","","","","","","","","76","L","3","","","151","main_expt",""
"","bandit","231","1049643","0.0-193.0-0.0","08807484","wem/bandit_party_2","A2KJ4QM0K59HLL","either","5","825","","","","","","","1","0","0","0.6323123958","","0.8","0.2","0.6","0.4","","","","","0.7032448324","0.6572277468","0.6323123958","0.5989969619","","","","","","","","","","75","K","2","","","152","main_expt",""
"","bandit","232","1051302","0.0-194.0-0.0","08807484","wem/bandit_party_2","A2KJ4QM0K59HLL","either","5","146","","","","","","","1","0","0","0.5847243132","","0.8","0.2","0.6","0.4","","","","","0.6918543646","0.668560183","0.5847243132","0.6126787421","","","","","","","","","","75","K","2","","","153","main_expt",""
"","bandit","233","1052913","0.0-195.0-0.0","08807484","wem/bandit_party_2","A2KJ4QM0K59HLL","either","5","96","","","","","","","0","0","1","","0.4285456013","0.8","0.2","0.6","0.4","0.647195156","0.6954524596","0.4285456013","0.5461115941","","","","","","","","","","","","","","75","K","2","","","154","main_expt",""
"","bandit","234","1055702","0.0-196.0-0.0","08807484","wem/bandit_party_2","A2KJ4QM0K59HLL","either","5","1276","","","","","","","1","0","0","0.4772645207","","0.8","0.2","0.6","0.4","","","","","0.6135998722","0.5684527538","0.4772645207","0.5456348337","","","","","","","","","","75","K","2","","","155","main_expt",""
"","bandit","235","1058209","0.0-197.0-0.0","08807484","wem/bandit_party_2","A2KJ4QM0K59HLL","either","5","991","","","","","","","0","0","1","0.4982711843","","0.8","0.2","0.6","0.4","","","","","0.5591033916","0.6034375159","0.4982711843","0.4782917504","","","","","","","","","","75","K","2","","","156","main_expt",""
"","bandit","236","1064669","0.0-198.0-0.0","08807484","wem/bandit_party_2","A2KJ4QM0K59HLL","either","5","4946","","","","","","","1","0","0","0.4868537485","","0.8","0.2","0.6","0.4","","","","","0.5090787948","0.5835723018","0.5275183668","0.4868537485","","","","","","","","","","76","L","3","","","157","main_expt",""
"","bandit","237","1066400","0.0-199.0-0.0","08807484","wem/bandit_party_2","A2KJ4QM0K59HLL","either","5","214","","","","","","","0","0","1","0.5361642224","","0.8","0.2","0.6","0.4","","","","","0.6087372924","0.5234712835","0.4489423754","0.5361642224","","","","","","","","","","76","L","3","","","158","main_expt",""
"","bandit","238","1068354","0.0-200.0-0.0","08807484","wem/bandit_party_2","A2KJ4QM0K59HLL","either","5","441","","","","","","","0","1","0","","0.4947944436","0.8","0.2","0.6","0.4","0.6064578463","0.5636881177","0.4933275403","0.4947944436","","","","","","","","","","","","","","76","L","3","","","159","main_expt",""
"","bandit","239","1069956","0.0-201.0-0.0","08807484","wem/bandit_party_2","A2KJ4QM0K59HLL","either","5","87","","","","","","","0","1","0","","0.5106889885","0.8","0.2","0.6","0.4","0.6951258233","0.4785340868","0.4521998099","0.5106889885","","","","","","","","","","","","","","76","L","3","","","160","main_expt",""
"","bandit","240","1071635","0.0-202.0-0.0","08807484","wem/bandit_party_2","A2KJ4QM0K59HLL","either","5","164","","","","","","","0","0","1","","0.4566704777","0.8","0.2","0.6","0.4","0.7129510734","0.5038962889","0.5114636712","0.4566704777","","","","","","","","","","","","","","76","L","3","","","161","main_expt",""
"","bandit","241","1073723","0.0-203.0-0.0","08807484","wem/bandit_party_2","A2KJ4QM0K59HLL","either","5","573","","","","","","","0","0","1","","0.5242674757","0.8","0.2","0.6","0.4","0.7028034005","0.4448395692","0.5242674757","0.3259271754","","","","","","","","","","","","","","75","K","2","","","162","main_expt",""
"","bandit","242","1075348","0.0-204.0-0.0","08807484","wem/bandit_party_2","A2KJ4QM0K59HLL","either","5","111","","","","","","","0","1","0","","0.471982621","0.8","0.2","0.6","0.4","0.6293758899","0.471982621","0.5687322637","0.2806734392","","","","","","","","","","","","","","74","J","1","","","163","main_expt",""
"","bandit","243","1077043","0.0-205.0-0.0","08807484","wem/bandit_party_2","A2KJ4QM0K59HLL","either","5","181","","","","","","","0","1","0","","0.6517066897","0.8","0.2","0.6","0.4","0.6813427096","0.6517066897","0.5635146256","0.2973163189","","","","","","","","","","","","","","74","J","1","","","164","main_expt",""
"","bandit","244","1078575","0.0-206.0-0.0","08807484","wem/bandit_party_2","A2KJ4QM0K59HLL","either","5","16","","","","","","","0","1","0","","0.6339143586","0.8","0.2","0.6","0.4","0.7231406025","0.6339143586","0.6588968294","0.2872552927","","","","","","","","","","","","","","74","J","1","","","165","main_expt",""
"","bandit","245","1080966","0.0-207.0-0.0","08807484","wem/bandit_party_2","A2KJ4QM0K59HLL","either","5","872","","","","","","","0","0","1","","0.6507743373","0.8","0.2","0.6","0.4","0.6274448994","0.6507743373","0.74872254","0.325395791","","","","","","","","","","","","","","74","J","1","","","166","main_expt",""
"","bandit","246","1082511","0.0-208.0-0.0","08807484","wem/bandit_party_2","A2KJ4QM0K59HLL","either","5","26","","","","","","","1","0","0","0.6778384319","","0.8","0.2","0.6","0.4","","","","","0.6778384319","0.6753437353","0.7741304825","0.3307719744","","","","","","","","","","72","H","0","img/none_selected.jpg","","167","main_expt",""
"","bandit","247","1084483","0.0-209.0-0.0","08807484","wem/bandit_party_2","A2KJ4QM0K59HLL","either","5","458","","","","","","","0","1","0","","0.6928942004","0.8","0.2","0.6","0.4","0.6928942004","0.6308788189","0.8873722237","0.4033689778","","","","","","","","","","","","","","72","H","0","img/none_selected.jpg","","168","main_expt",""
"","bandit","248","1086259","0.0-210.0-0.0","08807484","wem/bandit_party_2","A2KJ4QM0K59HLL","either","5","262","","","","","","","1","0","0","0.6181376835","","0.8","0.2","0.6","0.4","","","","","0.6181376835","0.6289357746","0.8649989169","0.4089274666","","","","","","","","","","72","H","0","img/none_selected.jpg","","169","main_expt",""
"","bandit","249","1088014","0.0-211.0-0.0","08807484","wem/bandit_party_2","A2KJ4QM0K59HLL","either","5","237","","","","","","","1","0","0","0.6539136718","","0.8","0.2","0.6","0.4","","","","","0.6539136718","0.6308829817","0.8634323334","0.4033631647","","","","","","","","","","72","H","0","img/none_selected.jpg","","170","main_expt",""
"","bandit","250","1089532","0.0-212.0-0.0","08807484","wem/bandit_party_2","A2KJ4QM0K59HLL","either","5","3","","","","","","","1","0","0","0.7935188527","","0.8","0.2","0.6","0.4","","","","","0.7935188527","0.6008061885","0.8050812792","0.3743415885","","","","","","","","","","72","H","0","img/none_selected.jpg","","171","main_expt",""
"","bandit","251","1091429","0.0-213.0-0.0","08807484","wem/bandit_party_2","A2KJ4QM0K59HLL","either","5","380","","","","","","","0","0","1","","0.7959482017","0.8","0.2","0.6","0.4","0.7959482017","0.6498855282","0.7635000848","0.4145867416","","","","","","","","","","","","","","72","H","0","img/none_selected.jpg","","172","main_expt",""
"","bandit","252","1093276","0.0-214.0-0.0","08807484","wem/bandit_party_2","A2KJ4QM0K59HLL","either","5","332","","","","","","","0","1","0","","0.6361658802","0.8","0.2","0.6","0.4","0.7720377381","0.6361658802","0.7793560846","0.4421490518","","","","","","","","","","","","","","74","J","1","","","173","main_expt",""
"","bandit","253","1095094","0.0-215.0-0.0","08807484","wem/bandit_party_2","A2KJ4QM0K59HLL","either","5","301","","","","","","","1","0","0","0.5494915933","","0.8","0.2","0.6","0.4","","","","","0.7751150559","0.5494915933","0.7290013271","0.373112653","","","","","","","","","","74","J","1","","","174","main_expt",""
"","bandit","254","1096973","0.0-216.0-0.0","08807484","wem/bandit_party_2","A2KJ4QM0K59HLL","either","5","362","","","","","","","0","0","1","","0.6292002022","0.8","0.2","0.6","0.4","0.7699246652","0.6292002022","0.8353873757","0.372221374","","","","","","","","","","","","","","74","J","1","","","175","main_expt",""
"","bandit","255","1098900","0.0-217.0-0.0","08807484","wem/bandit_party_2","A2KJ4QM0K59HLL","either","5","411","","","","","","","0","0","1","","0.8589437223","0.8","0.2","0.6","0.4","0.8092821718","0.4999600136","0.8589437223","0.3594456443","","","","","","","","","","","","","","75","K","2","","","176","main_expt",""
"","bandit","256","1100636","0.0-218.0-0.0","08807484","wem/bandit_party_2","A2KJ4QM0K59HLL","either","5","220","","","","","","","0","0","1","","0.3705823864","0.8","0.2","0.6","0.4","0.7728258073","0.4500304274","0.8824379228","0.3705823864","","","","","","","","","","","","","","76","L","3","","","177","main_expt",""
"","bandit","257","1102469","0.0-219.0-0.0","08807484","wem/bandit_party_2","A2KJ4QM0K59HLL","either","5","317","","","","","","","1","0","0","0.3042584581","","0.8","0.2","0.6","0.4","","","","","0.8128952128","0.4626099748","0.8862787626","0.3042584581","","","","","","","","","","76","L","3","","","178","main_expt",""
"","bandit","258","1104205","0.0-220.0-0.0","08807484","wem/bandit_party_2","A2KJ4QM0K59HLL","either","5","219","","","","","","","0","0","1","","0.3056645996","0.8","0.2","0.6","0.4","0.7878088044","0.3074659707","0.8851661012","0.3056645996","","","","","","","","","","","","","","76","L","3","","","179","main_expt",""
"","bandit","259","1105777","0.0-221.0-0.0","08807484","wem/bandit_party_2","A2KJ4QM0K59HLL","either","5","59","","","","","","","1","0","0","0.8623840347","","0.8","0.2","0.6","0.4","","","","","0.7626215198","0.2445312817","0.8623840347","0.3124458775","","","","","","","","","","75","K","2","","","180","main_expt",""
"","bandit","260","1107437","0.0-222.0-0.0","08807484","wem/bandit_party_2","A2KJ4QM0K59HLL","either","5","144","","","","","","","0","1","0","","0.8815853427","0.8","0.2","0.6","0.4","0.7059637017","0.2284870313","0.8815853427","0.2597333415","","","","","","","","","","","","","","75","K","2","","","181","main_expt",""
"","bandit","261","1109051","0.0-223.0-0.0","08807484","wem/bandit_party_2","A2KJ4QM0K59HLL","either","5","98","","","","","","","0","1","0","","0.8955826305","0.8","0.2","0.6","0.4","0.6691747745","0.2195648065","0.8955826305","0.2117009826","","","","","","","","","","","","","","75","K","2","","","182","main_expt",""
"","bandit","262","1110592","0.0-224.0-0.0","08807484","wem/bandit_party_2","A2KJ4QM0K59HLL","either","5","28","","","","","","","1","0","0","0.9362873759","","0.8","0.2","0.6","0.4","","","","","0.5523838876","0.2327716204","0.9362873759","0.2327762041","","","","","","","","","","75","K","2","","","183","main_expt",""
"","bandit","263","1112945","0.0-225.0-0.0","08807484","wem/bandit_party_2","A2KJ4QM0K59HLL","either","5","839","","","","","","","1","0","0","0.9484326647","","0.8","0.2","0.6","0.4","","","","","0.5451875246","0.3207903029","0.9484326647","0.2750618684","","","","","","","","","","75","K","2","","","184","main_expt",""
"","bandit","264","1114756","0.0-226.0-0.0","08807484","wem/bandit_party_2","A2KJ4QM0K59HLL","either","5","294","","","","","","","0","1","0","","0.9660783121","0.8","0.2","0.6","0.4","0.6090771744","0.3609723674","0.9660783121","0.2305846964","","","","","","","","","","","","","","75","K","2","","","185","main_expt",""
"","bandit","265","1116369","0.0-227.0-0.0","08807484","wem/bandit_party_2","A2KJ4QM0K59HLL","either","5","99","","","","","","","1","0","0","0.9665376101","","0.8","0.2","0.6","0.4","","","","","0.5810996076","0.4442397518","0.9665376101","0.2597669424","","","","","","","","","","75","K","2","","","186","main_expt",""
"","bandit","266","1117983","0.0-228.0-0.0","08807484","wem/bandit_party_2","A2KJ4QM0K59HLL","either","5","96","","","","","","","0","1","0","","0.9644184371","0.8","0.2","0.6","0.4","0.4445572548","0.4478442549","0.9644184371","0.2143742246","","","","","","","","","","","","","","75","K","2","","","187","main_expt",""
"","bandit","267","1119956","0.0-229.0-0.0","08807484","wem/bandit_party_2","A2KJ4QM0K59HLL","either","5","456","","","","","","","1","0","0","0.9731237162","","0.8","0.2","0.6","0.4","","","","","0.4113554433","0.4026396634","0.9731237162","0.2294707647","","","","","","","","","","75","K","2","","","188","main_expt",""
"","bandit","268","1121582","0.0-230.0-0.0","08807484","wem/bandit_party_2","A2KJ4QM0K59HLL","either","5","107","","","","","","","0","1","0","","0.9787475226","0.8","0.2","0.6","0.4","0.4053553249","0.5072589837","0.9787475226","0.2469430613","","","","","","","","","","","","","","75","K","2","","","189","main_expt",""
"","bandit","269","1123113","0.0-231.0-0.0","08807484","wem/bandit_party_2","A2KJ4QM0K59HLL","either","5","17","","","","","","","0","1","0","","0.9847816181","0.8","0.2","0.6","0.4","0.4927633492","0.5234843415","0.9847816181","0.2437728268","","","","","","","","","","","","","","75","K","2","","","190","main_expt",""
"","bandit","270","1125017","0.0-232.0-0.0","08807484","wem/bandit_party_2","A2KJ4QM0K59HLL","either","5","389","","","","","","","1","0","0","0.9713064587","","0.8","0.2","0.6","0.4","","","","","0.428678546","0.5054414672","0.9713064587","0.1655579887","","","","","","","","","","75","K","2","","","191","main_expt",""
"","bandit","271","1127426","0.0-233.0-0.0","08807484","wem/bandit_party_2","A2KJ4QM0K59HLL","either","5","894","","","","","","","0","1","0","","0.9558555722","0.8","0.2","0.6","0.4","0.3358015867","0.7037613703","0.9558555722","0.1501427492","","","","","","","","","","","","","","75","K","2","","","192","main_expt",""
"","bandit","272","1129724","0.0-234.0-0.0","08807484","wem/bandit_party_2","A2KJ4QM0K59HLL","either","5","781","","","","","","","1","0","0","0.9443800135","","0.8","0.2","0.6","0.4","","","","","0.2816430679","0.5980286963","0.9443800135","0.2062706367","","","","","","","","","","75","K","2","","","193","main_expt",""
"","bandit","273","1131378","0.0-235.0-0.0","08807484","wem/bandit_party_2","A2KJ4QM0K59HLL","either","5","138","","","","","","","0","1","0","","0.947825408","0.8","0.2","0.6","0.4","0.2951519504","0.5607231578","0.947825408","0.2782937815","","","","","","","","","","","","","","75","K","2","","","194","main_expt",""
"","bandit","274","1133636","0.0-236.0-0.0","08807484","wem/bandit_party_2","A2KJ4QM0K59HLL","either","5","740","","","","","","","0","1","0","","0.9531013361","0.8","0.2","0.6","0.4","0.2482291913","0.6222063369","0.9531013361","0.2393938873","","","","","","","","","","","","","","75","K","2","","","195","main_expt",""
"","bandit","275","1135427","0.0-237.0-0.0","08807484","wem/bandit_party_2","A2KJ4QM0K59HLL","either","5","275","","","","","","","1","0","0","0.9653581558","","0.8","0.2","0.6","0.4","","","","","0.2548661126","0.7092042058","0.9653581558","0.3385483064","","","","","","","","","","75","K","2","","","196","main_expt",""
"","bandit","276","1137236","0.0-238.0-0.0","08807484","wem/bandit_party_2","A2KJ4QM0K59HLL","either","5","292","","","","","","","1","0","0","0.9774234012","","0.8","0.2","0.6","0.4","","","","","0.2789697966","0.7397780251","0.9774234012","0.3474357388","","","","","","","","","","75","K","2","","","197","main_expt",""
"","bandit","277","1138900","0.0-239.0-0.0","08807484","wem/bandit_party_2","A2KJ4QM0K59HLL","either","5","147","","","","","","","1","0","0","0.9866112083","","0.8","0.2","0.6","0.4","","","","","0.2893473624","0.6977166648","0.9866112083","0.4511600961","","","","","","","","","","75","K","2","","","198","main_expt",""
"","bandit","278","1140699","0.0-240.0-0.0","08807484","wem/bandit_party_2","A2KJ4QM0K59HLL","either","5","283","","","","","","","0","1","0","","0.9889390623","0.8","0.2","0.6","0.4","0.2499124536","0.591703898","0.9889390623","0.4387406867","","","","","","","","","","","","","","75","K","2","","","199","main_expt",""
"","bandit","279","1142475","0.0-241.0-0.0","08807484","wem/bandit_party_2","A2KJ4QM0K59HLL","either","5","259","","","","","","","1","0","0","0.9894921125","","0.8","0.2","0.6","0.4","","","","","0.2643429758","0.5107967375","0.9894921125","0.4368135332","","","","","","","","","","75","K","2","","","200","main_expt",""
"","bandit","280","1144820","0.0-242.0-0.0","08807484","wem/bandit_party_2","A2KJ4QM0K59HLL","either","5","828","","","","","","","1","0","0","0.989248002","","0.8","0.2","0.6","0.4","","","","","0.2382870841","0.6528148869","0.989248002","0.3070084091","","","","","","","","","","75","K","2","","","201","main_expt",""
"","bandit","281","1146771","0.0-243.0-0.0","08807484","wem/bandit_party_2","A2KJ4QM0K59HLL","either","5","434","","","","","","","1","0","0","0.9957983392","","0.8","0.2","0.6","0.4","","","","","0.1604624283","0.6892998309","0.9957983392","0.3603585946","","","","","","","","","","75","K","2","","","202","main_expt",""
"","bandit","282","1148360","0.0-244.0-0.0","08807484","wem/bandit_party_2","A2KJ4QM0K59HLL","either","5","75","","","","","","","0","1","0","","0.9958893","0.8","0.2","0.6","0.4","0.1407610566","0.6989476798","0.9958893","0.260320329","","","","","","","","","","","","","","75","K","2","","","203","main_expt",""
"","bandit","283","1151129","0.0-245.0-0.0","08807484","wem/bandit_party_2","A2KJ4QM0K59HLL","either","5","1253","","","","","","","1","0","0","0.9955962674","","0.8","0.2","0.6","0.4","","","","","0.1343245238","0.772264117","0.9955962674","0.2003029851","","","","","","","","","","75","K","2","","","204","main_expt",""
"","bandit","284","1152736","0.0-246.0-0.0","08807484","wem/bandit_party_2","A2KJ4QM0K59HLL","either","5","93","","","","","","","1","0","0","0.9943432705","","0.8","0.2","0.6","0.4","","","","","0.1715400642","0.7366863645","0.9943432705","0.1922312923","","","","","","","","","","75","K","2","","","205","main_expt",""
"","bandit","285","1154715","0.0-247.0-0.0","08807484","wem/bandit_party_2","A2KJ4QM0K59HLL","either","5","461","","","","","","","0","1","0","","0.9982320458","0.8","0.2","0.6","0.4","0.117617648","0.7477287432","0.9982320458","0.1936085521","","","","","","","","","","","","","","75","K","2","","","206","main_expt",""
"","bandit","286","1156457","0.0-248.0-0.0","08807484","wem/bandit_party_2","A2KJ4QM0K59HLL","either","5","226","","","","","","","0","1","0","","0.9976530308","0.8","0.2","0.6","0.4","0.1182717864","0.8185776196","0.9976530308","0.1821705986","","","","","","","","","","","","","","75","K","2","","","207","main_expt",""
"","bandit","287","1158946","0.0-249.0-0.0","08807484","wem/bandit_party_2","A2KJ4QM0K59HLL","either","5","973","","","","","","","0","1","0","","0.9961811318","0.8","0.2","0.6","0.4","0.1445047472","0.8161769506","0.9961811318","0.1145050302","","","","","","","","","","","","","","75","K","2","","","208","main_expt",""
"","bandit","288","1160757","0.0-250.0-0.0","08807484","wem/bandit_party_2","A2KJ4QM0K59HLL","either","5","293","","","","","","","1","0","0","0.9977639941","","0.8","0.2","0.6","0.4","","","","","0.1264159314","0.8224464957","0.9977639941","0.1206637037","","","","","","","","","","75","K","2","","","209","main_expt",""
"","bandit","289","1162568","0.0-251.0-0.0","08807484","wem/bandit_party_2","A2KJ4QM0K59HLL","either","5","296","","","","","","","1","0","0","0.9953783407","","0.8","0.2","0.6","0.4","","","","","0.1208777168","0.7392866018","0.9953783407","0.1422927172","","","","","","","","","","75","K","2","","","210","main_expt",""
"","bandit","290","1164355","0.0-252.0-0.0","08807484","wem/bandit_party_2","A2KJ4QM0K59HLL","either","5","269","","","","","","","1","0","0","0.9976351195","","0.8","0.2","0.6","0.4","","","","","0.1733448518","0.7125411919","0.9976351195","0.1811219169","","","","","","","","","","75","K","2","","","211","main_expt",""
"","bandit","291","1166120","0.0-253.0-0.0","08807484","wem/bandit_party_2","A2KJ4QM0K59HLL","either","5","250","","","","","","","0","1","0","","0.9983589292","0.8","0.2","0.6","0.4","0.1085262221","0.7191881067","0.9983589292","0.1982527665","","","","","","","","","","","","","","75","K","2","","","212","main_expt",""
"","bandit","292","1168320","0.0-254.0-0.0","08807484","wem/bandit_party_2","A2KJ4QM0K59HLL","either","5","685","","","","","","","1","0","0","0.9960427138","","0.8","0.2","0.6","0.4","","","","","0.08145678985","0.7523845147","0.9960427138","0.124448309","","","","","","","","","","75","K","2","","","213","main_expt",""
"","bandit","293","1170641","0.0-255.0-0.0","08807484","wem/bandit_party_2","A2KJ4QM0K59HLL","either","5","805","","","","","","","1","0","0","0.9924650588","","0.8","0.2","0.6","0.4","","","","","0.05725631888","0.7193420906","0.9924650588","0.1036015692","","","","","","","","","","75","K","2","","","214","main_expt",""
"","bandit","294","1172574","0.0-256.0-0.0","08807484","wem/bandit_party_2","A2KJ4QM0K59HLL","either","5","413","","","","","","","1","0","0","0.9858211903","","0.8","0.2","0.6","0.4","","","","","0.04356988172","0.6784461291","0.9858211903","0.14458031","","","","","","","","","","75","K","2","","","215","main_expt",""
"","bandit","295","1174448","0.0-257.0-0.0","08807484","wem/bandit_party_2","A2KJ4QM0K59HLL","either","5","359","","","","","","","0","1","0","","0.9915289077","0.8","0.2","0.6","0.4","0.04316154837","0.5658185063","0.9915289077","0.2094876981","","","","","","","","","","","","","","75","K","2","","","216","main_expt",""
"","bandit","296","1176375","0.0-258.0-0.0","08807484","wem/bandit_party_2","A2KJ4QM0K59HLL","either","5","413","","","","","","","1","0","0","0.9929544916","","0.8","0.2","0.6","0.4","","","","","0.03453558383","0.4886301847","0.9929544916","0.24936904","","","","","","","","","","75","K","2","","","217","main_expt",""
"","bandit","297","1178316","0.0-259.0-0.0","08807484","wem/bandit_party_2","A2KJ4QM0K59HLL","either","5","422","","","","","","","1","0","0","0.9741721496","","0.8","0.2","0.6","0.4","","","","","0.03800932399","0.5674985979","0.9741721496","0.2006789107","","","","","","","","","","75","K","2","","","218","main_expt",""
"","bandit","298","1180339","0.0-260.0-0.0","08807484","wem/bandit_party_2","A2KJ4QM0K59HLL","either","5","505","","","","","","","1","0","0","0.9413517393","","0.8","0.2","0.6","0.4","","","","","0.07914639327","0.6088772151","0.9413517393","0.2118480588","","","","","","","","","","75","K","2","","","219","main_expt",""
"","bandit","299","1182382","0.0-261.0-0.0","08807484","wem/bandit_party_2","A2KJ4QM0K59HLL","either","5","530","","","","","","","1","0","0","0.9230346446","","0.8","0.2","0.6","0.4","","","","","0.07044987786","0.5856238885","0.9230346446","0.2159213458","","","","","","","","","","75","K","2","","","220","main_expt",""
"","bandit","300","1187832","0.0-262.0-0.0","08807484","wem/bandit_party_2","A2KJ4QM0K59HLL","either","5","3931","","","","","","","1","0","0","0.9216350241","","0.8","0.2","0.6","0.4","","","","","0.1351506501","0.6601978635","0.9216350241","0.2097338805","","","","","","","","","","75","K","2","","","221","main_expt",""
"","bandit","301","1189464","0.0-263.0-0.0","08807484","wem/bandit_party_2","A2KJ4QM0K59HLL","either","5","113","","","","","","","0","1","0","","0.9093406134","0.8","0.2","0.6","0.4","0.2099108548","0.6540659739","0.9093406134","0.1468233299","","","","","","","","","","","","","","75","K","2","","","222","main_expt",""
"","bandit","302","1191222","0.0-264.0-0.0","08807484","wem/bandit_party_2","A2KJ4QM0K59HLL","either","5","241","","","","","","","1","0","0","0.8361447498","","0.8","0.2","0.6","0.4","","","","","0.2971693323","0.7010542315","0.8361447498","0.1379540926","","","","","","","","","","75","K","2","","","223","main_expt",""
"","bandit","303","1192771","0.0-265.0-0.0","08807484","wem/bandit_party_2","A2KJ4QM0K59HLL","either","5","35","","","","","","","1","0","0","0.8626161161","","0.8","0.2","0.6","0.4","","","","","0.2754671199","0.7972730751","0.8626161161","0.1943723139","","","","","","","","","","75","K","2","","","224","main_expt",""
"","bandit","304","1194727","0.0-266.0-0.0","08807484","wem/bandit_party_2","A2KJ4QM0K59HLL","either","5","438","","","","","","","0","1","0","","0.9176165053","0.8","0.2","0.6","0.4","0.2483133052","0.8726314772","0.9176165053","0.2949344278","","","","","","","","","","","","","","75","K","2","","","225","main_expt",""
"","bandit","305","1196277","0.0-267.0-0.0","08807484","wem/bandit_party_2","A2KJ4QM0K59HLL","either","5","34","","","","","","","0","1","0","","0.9516545376","0.8","0.2","0.6","0.4","0.2945032007","0.8569150835","0.9516545376","0.4040967375","","","","","","","","","","","","","","75","K","2","","","226","main_expt",""
"","bandit","306","1198093","0.0-268.0-0.0","08807484","wem/bandit_party_2","A2KJ4QM0K59HLL","either","5","300","","","","","","","1","0","0","0.9448551655","","0.8","0.2","0.6","0.4","","","","","0.2544933329","0.8773762417","0.9448551655","0.4369809926","","","","","","","","","","75","K","2","","","227","main_expt",""
"","bandit","307","1199990","0.0-269.0-0.0","08807484","wem/bandit_party_2","A2KJ4QM0K59HLL","either","5","380","","","","","","","0","1","0","","0.9298030406","0.8","0.2","0.6","0.4","0.22227057","0.8514828757","0.9298030406","0.4228749262","","","","","","","","","","","","","","75","K","2","","","228","main_expt",""
"","bandit","308","1201999","0.0-270.0-0.0","08807484","wem/bandit_party_2","A2KJ4QM0K59HLL","either","5","491","","","","","","","1","0","0","0.9022116856","","0.8","0.2","0.6","0.4","","","","","0.2319557967","0.893786405","0.9022116856","0.4953143479","","","","","","","","","","75","K","2","","","229","main_expt",""
"","bandit","309","1203862","0.0-271.0-0.0","08807484","wem/bandit_party_2","A2KJ4QM0K59HLL","either","5","345","","","","","","","1","0","0","0.8934587516","","0.8","0.2","0.6","0.4","","","","","0.3107577299","0.9350514117","0.8934587516","0.4752889979","","","","","","","","","","75","K","2","","","230","main_expt",""
"","bandit","310","1205940","0.0-272.0-0.0","08807484","wem/bandit_party_2","A2KJ4QM0K59HLL","either","5","563","","","","","","","1","0","0","0.8403693225","","0.8","0.2","0.6","0.4","","","","","0.3046703461","0.9139197991","0.8403693225","0.4887049862","","","","","","","","","","75","K","2","","","231","main_expt",""
"","bandit","311","1207798","0.0-273.0-0.0","08807484","wem/bandit_party_2","A2KJ4QM0K59HLL","either","5","341","","","","","","","0","0","1","","0.7373772703","0.8","0.2","0.6","0.4","0.4259459217","0.8753904063","0.7373772703","0.6065944358","","","","","","","","","","","","","","75","K","2","","","232","main_expt",""
"","bandit","312","1209782","0.0-274.0-0.0","08807484","wem/bandit_party_2","A2KJ4QM0K59HLL","either","5","467","","","","","","","0","1","0","","0.807664976","0.8","0.2","0.6","0.4","0.3391655585","0.807664976","0.7275490615","0.5320380184","","","","","","","","","","","","","","74","J","1","","","233","main_expt",""
"","bandit","313","1211593","0.0-275.0-0.0","08807484","wem/bandit_party_2","A2KJ4QM0K59HLL","either","5","291","","","","","","","0","0","1","","0.817303243","0.8","0.2","0.6","0.4","0.3380141995","0.817303243","0.6910989812","0.5845689413","","","","","","","","","","","","","","74","J","1","","","234","main_expt",""
"","bandit","314","1213433","0.0-276.0-0.0","08807484","wem/bandit_party_2","A2KJ4QM0K59HLL","either","5","328","","","","","","","0","0","1","","0.2949514339","0.8","0.2","0.6","0.4","0.2949514339","0.8320050337","0.6506848601","0.4424117598","","","","","","","","","","","","","","72","H","0","img/none_selected.jpg","","235","main_expt",""
"","bandit","315","1215267","0.0-277.0-0.0","08807484","wem/bandit_party_2","A2KJ4QM0K59HLL","either","5","319","","","","","","","0","0","1","0.2575094814","","0.8","0.2","0.6","0.4","","","","","0.2575094814","0.8539654836","0.589166471","0.4411324282","","","","","","","","","","72","H","0","img/none_selected.jpg","","236","main_expt",""
"","bandit","316","1217033","0.0-278.0-0.0","08807484","wem/bandit_party_2","A2KJ4QM0K59HLL","either","5","245","","","","","","","0","0","1","","0.8151920012","0.8","0.2","0.6","0.4","0.3298960346","0.8151920012","0.5475273787","0.5792865955","","","","","","","","","","","","","","74","J","1","","","237","main_expt",""
