"consent","trial_type","trial_index","time_elapsed","internal_node_id","subjID","study","MID","cond","drift","rt","responses","button_pressed","key_press","like","value","connected","gems","bombs","no_reward","GemPrChosen","BombPrChosen","GainOverPainPr_0","GainOverPainPr_1","GainOverPainPr_2","GainOverPainPr_3","LosePr_0","LosePr_1","LosePr_2","LosePr_3","WinPr_0","WinPr_1","WinPr_2","WinPr_3","Q0","Q1","Q2","gender","age","ethnicity","label","expt_phase","target","respCharCode","respKey","respChoiceNum","respChoice","practice","trial_counter","trial_label","Q0_index","view_history"
"GDM/GDM_behavioral_consent_30min_online.html","consent","0","135363","0.0-0.0","09442422","wem/bandit_party_2","A22HX7JGLXHJQG","either","1","","","","","","","","","","","","","","","","","","","","","","","","","","","","","","","","","","","","","","","","","",""
"","survey-text","1","143832","0.0-1.0","09442422","wem/bandit_party_2","A22HX7JGLXHJQG","either","1","7413","{""Q0"":""A22HX7JGLXHJQG""}","","","","","","","","","","","","","","","","","","","","","","","","","","","","","","","","","","","","","","","",""
"","button-response","2","148010","0.0-2.0","09442422","wem/bandit_party_2","A22HX7JGLXHJQG","either","1","3125","","2","","","","","","","","","","","","","","","","","","","","","","","","","","","","","","","","","","","","","","",""
"","text-replacement","3","166625","0.0-3.0","09442422","wem/bandit_party_2","A22HX7JGLXHJQG","either","1","17586","","","32","","","","","","","","","","","","","","","","","","","","","","","","","","","","","","","","","","","","","",""
"","text-replacement","4","176409","0.0-4.0","09442422","wem/bandit_party_2","A22HX7JGLXHJQG","either","1","9767","","","32","","","","","","","","","","","","","","","","","","","","","","","","","","","","","","","","","","","","","",""
"","text-replacement","5","187924","0.0-5.0-0.0","09442422","wem/bandit_party_2","A22HX7JGLXHJQG","either","1","11499","","","32","","","","","","","","","","","","","","","","","","","","","","","","","","","","","","","","","","","","","",""
"","identification","6","199542","0.0-6.0-0.0","09442422","wem/bandit_party_2","A22HX7JGLXHJQG","either","1","11515","","","","5","5","5","","","","","","","","","","","","","","","","","","","","","","","","pre","identification_pre","the Democratic Party","","","","","","","","",""
"","identification","7","205130","0.0-6.0-1.0","09442422","wem/bandit_party_2","A22HX7JGLXHJQG","either","1","4366","","","","0","0","0","","","","","","","","","","","","","","","","","","","","","","","","pre","identification_pre","the Republican Party","","","","","","","","",""
"","text-replacement","8","221931","0.0-7.0","09442422","wem/bandit_party_2","A22HX7JGLXHJQG","either","1","15767","","","32","","","","","","","","","","","","","","","","","","","","","","","","","","","","","","","","","","","","","",""
"","text-replacement","9","228158","0.0-8.0","09442422","wem/bandit_party_2","A22HX7JGLXHJQG","either","1","6178","","","32","","","","","","","","","","","","","","","","","","","","","","","","","","","","","","","","","","","","","",""
"","text-replacement","10","237358","0.0-9.0","09442422","wem/bandit_party_2","A22HX7JGLXHJQG","either","1","9162","","","32","","","","","","","","","","","","","","","","","","","","","","","","","","","","","","","","","","","","","",""
"","text-replacement","11","242590","0.0-10.0","09442422","wem/bandit_party_2","A22HX7JGLXHJQG","either","1","5200","","","32","","","","","","","","","","","","","","","","","","","","","","","","","","","","","","","","","","","","","",""
"","text-replacement","12","250470","0.0-11.0","09442422","wem/bandit_party_2","A22HX7JGLXHJQG","either","1","7852","","","32","","","","","","","","","","","","","","","","","","","","","","","","","","","","","","","","","","","","","",""
"","bandit","13","254572","0.0-12.0-0.0","09442422","wem/bandit_party_2","A22HX7JGLXHJQG","either","1","2517","","","","","","","0","0","1","0","0","","","","","0","","","","0","","","","","","","","","","","","","74","J","0","img/none_selected_demo.jpg","true","0","","",""
"","bandit","14","257609","0.0-13.0-0.0","09442422","wem/bandit_party_2","A22HX7JGLXHJQG","either","1","1468","","","","","","","0","0","1","0","0","","","","","0","","","","0","","","","","","","","","","","","","75","K","0","img/none_selected_demo.jpg","true","0","","",""
"","text-replacement","15","267302","0.0-14.0","09442422","wem/bandit_party_2","A22HX7JGLXHJQG","either","1","9681","","","32","","","","","","","","","","","","","","","","","","","","","","","","","","","","","","","","","","","","","",""
"","text-replacement","16","274302","0.0-15.0","09442422","wem/bandit_party_2","A22HX7JGLXHJQG","either","1","6987","","","32","","","","","","","","","","","","","","","","","","","","","","","","","","","","","","","","","","","","","",""
"","text-replacement","17","285106","0.0-16.0","09442422","wem/bandit_party_2","A22HX7JGLXHJQG","either","1","10788","","","32","","","","","","","","","","","","","","","","","","","","","","","","","","","","","","","","","","","","","",""
"","text-replacement","18","290188","0.0-17.0","09442422","wem/bandit_party_2","A22HX7JGLXHJQG","either","1","5040","","","32","","","","","","","","","","","","","","","","","","","","","","","","","","","","","","","","","","","","","",""
"","bandit","19","292846","0.0-18.0-0.0","09442422","wem/bandit_party_2","A22HX7JGLXHJQG","either","1","1066","","","","","","","0","1","0","","0.8","0.5","0.5","","","0.8","0.2","","","","","","","","","","","","","","","","74","J","0","img/none_selected_demo.jpg","true","0","80_20_practice","",""
"","bandit","20","295482","0.0-18.0-1.0","09442422","wem/bandit_party_2","A22HX7JGLXHJQG","either","1","1047","","","","","","","0","0","1","0.2","","0.5","0.5","","","","","","","0.8","0.2","","","","","","","","","","","","75","K","1","","true","0","80_20_practice","",""
"","bandit","21","297694","0.0-18.0-2.0","09442422","wem/bandit_party_2","A22HX7JGLXHJQG","either","1","631","","","","","","","1","0","0","0.8","","0.5","0.5","","","","","","","0.8","0.2","","","","","","","","","","","","74","J","0","img/none_selected_demo.jpg","true","0","80_20_practice","",""
"","bandit","22","299452","0.0-18.0-3.0","09442422","wem/bandit_party_2","A22HX7JGLXHJQG","either","1","207","","","","","","","0","0","1","0.8","","0.5","0.5","","","","","","","0.8","0.2","","","","","","","","","","","","74","J","0","img/none_selected_demo.jpg","true","0","80_20_practice","",""
"","bandit","23","301786","0.0-18.0-4.0","09442422","wem/bandit_party_2","A22HX7JGLXHJQG","either","1","746","","","","","","","1","0","0","0.8","","0.5","0.5","","","","","","","0.8","0.2","","","","","","","","","","","","74","J","0","img/none_selected_demo.jpg","true","0","80_20_practice","",""
"","bandit","24","303832","0.0-18.0-5.0","09442422","wem/bandit_party_2","A22HX7JGLXHJQG","either","1","439","","","","","","","0","1","0","","0.8","0.5","0.5","","","0.8","0.2","","","","","","","","","","","","","","","","74","J","0","img/none_selected_demo.jpg","true","0","80_20_practice","",""
"","bandit","25","305520","0.0-18.0-6.0","09442422","wem/bandit_party_2","A22HX7JGLXHJQG","either","1","109","","","","","","","0","0","1","","0.8","0.5","0.5","","","0.8","0.2","","","","","","","","","","","","","","","","74","J","0","img/none_selected_demo.jpg","true","0","80_20_practice","",""
"","bandit","26","307349","0.0-18.0-7.0","09442422","wem/bandit_party_2","A22HX7JGLXHJQG","either","1","262","","","","","","","0","0","1","0.8","","0.5","0.5","","","","","","","0.8","0.2","","","","","","","","","","","","74","J","0","img/none_selected_demo.jpg","true","0","80_20_practice","",""
"","bandit","27","309248","0.0-18.0-8.0","09442422","wem/bandit_party_2","A22HX7JGLXHJQG","either","1","320","","","","","","","0","1","0","","0.2","0.5","0.5","","","0.8","0.2","","","","","","","","","","","","","","","","75","K","1","","true","0","80_20_practice","",""
"","bandit","28","311218","0.0-18.0-9.0","09442422","wem/bandit_party_2","A22HX7JGLXHJQG","either","1","363","","","","","","","0","0","1","","0.2","0.5","0.5","","","0.8","0.2","","","","","","","","","","","","","","","","75","K","1","","true","0","80_20_practice","",""
"","bandit","29","313370","0.0-18.0-10.0","09442422","wem/bandit_party_2","A22HX7JGLXHJQG","either","1","556","","","","","","","0","1","0","","0.8","0.5","0.5","","","0.8","0.2","","","","","","","","","","","","","","","","74","J","0","img/none_selected_demo.jpg","true","0","80_20_practice","",""
"","bandit","30","315383","0.0-18.0-11.0","09442422","wem/bandit_party_2","A22HX7JGLXHJQG","either","1","445","","","","","","","0","1","0","","0.8","0.5","0.5","","","0.8","0.2","","","","","","","","","","","","","","","","74","J","0","img/none_selected_demo.jpg","true","0","80_20_practice","",""
"","bandit","31","317475","0.0-18.0-12.0","09442422","wem/bandit_party_2","A22HX7JGLXHJQG","either","1","476","","","","","","","1","0","0","0.8","","0.5","0.5","","","","","","","0.8","0.2","","","","","","","","","","","","74","J","0","img/none_selected_demo.jpg","true","0","80_20_practice","",""
"","bandit","32","319690","0.0-18.0-13.0","09442422","wem/bandit_party_2","A22HX7JGLXHJQG","either","1","601","","","","","","","0","0","1","0.8","","0.5","0.5","","","","","","","0.8","0.2","","","","","","","","","","","","74","J","0","img/none_selected_demo.jpg","true","0","80_20_practice","",""
"","bandit","33","321810","0.0-18.0-14.0","09442422","wem/bandit_party_2","A22HX7JGLXHJQG","either","1","531","","","","","","","0","0","1","0.2","","0.5","0.5","","","","","","","0.8","0.2","","","","","","","","","","","","75","K","1","","true","0","80_20_practice","",""
"","bandit","34","323642","0.0-18.0-15.0","09442422","wem/bandit_party_2","A22HX7JGLXHJQG","either","1","156","","","","","","","1","0","0","0.8","","0.5","0.5","","","","","","","0.8","0.2","","","","","","","","","","","","74","J","0","img/none_selected_demo.jpg","true","0","80_20_practice","",""
"","bandit","35","325676","0.0-18.0-16.0","09442422","wem/bandit_party_2","A22HX7JGLXHJQG","either","1","412","","","","","","","1","0","0","0.8","","0.5","0.5","","","","","","","0.8","0.2","","","","","","","","","","","","74","J","0","img/none_selected_demo.jpg","true","0","80_20_practice","",""
"","bandit","36","327889","0.0-18.0-17.0","09442422","wem/bandit_party_2","A22HX7JGLXHJQG","either","1","619","","","","","","","1","0","0","0.8","","0.5","0.5","","","","","","","0.8","0.2","","","","","","","","","","","","74","J","0","img/none_selected_demo.jpg","true","0","80_20_practice","",""
"","bandit","37","329890","0.0-18.0-18.0","09442422","wem/bandit_party_2","A22HX7JGLXHJQG","either","1","428","","","","","","","0","1","0","","0.8","0.5","0.5","","","0.8","0.2","","","","","","","","","","","","","","","","74","J","0","img/none_selected_demo.jpg","true","0","80_20_practice","",""
"","bandit","38","332088","0.0-18.0-19.0","09442422","wem/bandit_party_2","A22HX7JGLXHJQG","either","1","616","","","","","","","0","1","0","","0.8","0.5","0.5","","","0.8","0.2","","","","","","","","","","","","","","","","74","J","0","img/none_selected_demo.jpg","true","0","80_20_practice","",""
"","text-replacement","39","338309","0.0-19.0","09442422","wem/bandit_party_2","A22HX7JGLXHJQG","either","1","6194","","","32","","","","","","","","","","","","","","","","","","","","","","","","","","","","","","","","","","","","","",""
"","bandit","40","341996","0.0-20.0-0.0","09442422","wem/bandit_party_2","A22HX7JGLXHJQG","either","1","2066","","","","","","","1","0","0","1","0","","","","","0","1","","","1","0","","","","","","","","","","","","74","J","0","img/none_selected_demo.jpg","true","0","","",""
"","text-replacement","41","348710","0.0-21.0","09442422","wem/bandit_party_2","A22HX7JGLXHJQG","either","1","6687","","","32","","","","","","","","","","","","","","","","","","","","","","","","","","","","","","","","","","","","","",""
"","text-replacement","42","357122","0.0-22.0","09442422","wem/bandit_party_2","A22HX7JGLXHJQG","either","1","8369","","","32","","","","","","","","","","","","","","","","","","","","","","","","","","","","","","","","","","","","","",""
"","text-replacement","43","360469","0.0-23.0","09442422","wem/bandit_party_2","A22HX7JGLXHJQG","either","1","3306","","","32","","","","","","","","","","","","","","","","","","","","","","","","","","","","","","","","","","","","","",""
"","text-replacement","44","366294","0.0-24.0","09442422","wem/bandit_party_2","A22HX7JGLXHJQG","either","1","5781","","","32","","","","","","","","","","","","","","","","","","","","","","","","","","","","","","","","","","","","","",""
"","text-replacement","45","375757","0.0-25.0","09442422","wem/bandit_party_2","A22HX7JGLXHJQG","either","1","9422","","","32","","","","","","","","","","","","","","","","","","","","","","","","","","","","","","","","","","","","","",""
"","text-replacement","46","380199","0.0-26.0","09442422","wem/bandit_party_2","A22HX7JGLXHJQG","either","1","4398","","","32","","","","","","","","","","","","","","","","","","","","","","","","","","","","","","","","","","","","","",""
"","text-replacement","47","386013","0.0-27.0","09442422","wem/bandit_party_2","A22HX7JGLXHJQG","either","1","5775","","","32","","","","","","","","","","","","","","","","","","","","","","","","","","","","","","","","","","","","","",""
"","text-replacement","48","390506","0.0-28.0","09442422","wem/bandit_party_2","A22HX7JGLXHJQG","either","1","4462","","","32","","","","","","","","","","","","","","","","","","","","","","","","","","","","","","","","","","","","","",""
"","text-replacement","49","398384","0.0-29.0","09442422","wem/bandit_party_2","A22HX7JGLXHJQG","either","1","7839","","","32","","","","","","","","","","","","","","","","","","","","","","","","","","","","","","","","","","","","","",""
"","text-replacement","50","401177","0.0-30.0","09442422","wem/bandit_party_2","A22HX7JGLXHJQG","either","1","2734","","","32","","","","","","","","","","","","","","","","","","","","","","","","","","","","","","","","","","","","","",""
"","text-replacement","51","406286","0.0-31.0","09442422","wem/bandit_party_2","A22HX7JGLXHJQG","either","1","5070","","","32","","","","","","","","","","","","","","","","","","","","","","","","","","","","","","","","","","","","","",""
"","bandit","52","408831","0.0-32.0-0.0","09442422","wem/bandit_party_2","A22HX7JGLXHJQG","either","1","937","","","","","","","1","0","0","0.8","","0.5","0.5","0.5","0.5","","","","","0.8","0.2","0.6","0.2","","","","","","","","","","72","H","0","img/none_selected.jpg","true","0","full_practice","",""
"","bandit","53","410822","0.0-32.0-1.0","09442422","wem/bandit_party_2","A22HX7JGLXHJQG","either","1","386","","","","","","","0","0","1","0.2","","0.5","0.5","0.5","0.5","","","","","0.8","0.2","0.6","0.2","","","","","","","","","","74","J","1","","true","0","full_practice","",""
"","bandit","54","412494","0.0-32.0-2.0","09442422","wem/bandit_party_2","A22HX7JGLXHJQG","either","1","92","","","","","","","0","0","1","","0.6","0.5","0.5","0.5","0.5","0.8","0.2","0.6","0.2","","","","","","","","","","","","","","75","K","2","","true","0","full_practice","",""
"","bandit","55","415174","0.0-32.0-3.0","09442422","wem/bandit_party_2","A22HX7JGLXHJQG","either","1","1094","","","","","","","0","0","1","0.2","","0.5","0.5","0.5","0.5","","","","","0.8","0.2","0.6","0.2","","","","","","","","","","76","L","3","","true","0","full_practice","",""
"","bandit","56","417318","0.0-32.0-4.0","09442422","wem/bandit_party_2","A22HX7JGLXHJQG","either","1","537","","","","","","","0","1","0","","0.8","0.5","0.5","0.5","0.5","0.8","0.2","0.6","0.2","","","","","","","","","","","","","","72","H","0","img/none_selected.jpg","true","0","full_practice","",""
"","bandit","57","419345","0.0-32.0-5.0","09442422","wem/bandit_party_2","A22HX7JGLXHJQG","either","1","406","","","","","","","1","0","0","0.8","","0.5","0.5","0.5","0.5","","","","","0.8","0.2","0.6","0.2","","","","","","","","","","72","H","0","img/none_selected.jpg","true","0","full_practice","",""
"","bandit","58","421523","0.0-32.0-6.0","09442422","wem/bandit_party_2","A22HX7JGLXHJQG","either","1","597","","","","","","","0","0","1","","0.8","0.5","0.5","0.5","0.5","0.8","0.2","0.6","0.2","","","","","","","","","","","","","","72","H","0","img/none_selected.jpg","true","0","full_practice","",""
"","bandit","59","423678","0.0-32.0-7.0","09442422","wem/bandit_party_2","A22HX7JGLXHJQG","either","1","508","","","","","","","0","1","0","","0.8","0.5","0.5","0.5","0.5","0.8","0.2","0.6","0.2","","","","","","","","","","","","","","72","H","0","img/none_selected.jpg","true","0","full_practice","",""
"","bandit","60","425678","0.0-32.0-8.0","09442422","wem/bandit_party_2","A22HX7JGLXHJQG","either","1","428","","","","","","","0","1","0","","0.8","0.5","0.5","0.5","0.5","0.8","0.2","0.6","0.2","","","","","","","","","","","","","","72","H","0","img/none_selected.jpg","true","0","full_practice","",""
"","bandit","61","427498","0.0-32.0-9.0","09442422","wem/bandit_party_2","A22HX7JGLXHJQG","either","1","260","","","","","","","0","0","1","","0.8","0.5","0.5","0.5","0.5","0.8","0.2","0.6","0.2","","","","","","","","","","","","","","72","H","0","img/none_selected.jpg","true","0","full_practice","",""
"","bandit","62","429643","0.0-32.0-10.0","09442422","wem/bandit_party_2","A22HX7JGLXHJQG","either","1","566","","","","","","","0","1","0","","0.8","0.5","0.5","0.5","0.5","0.8","0.2","0.6","0.2","","","","","","","","","","","","","","72","H","0","img/none_selected.jpg","true","0","full_practice","",""
"","bandit","63","431548","0.0-32.0-11.0","09442422","wem/bandit_party_2","A22HX7JGLXHJQG","either","1","276","","","","","","","0","1","0","","0.8","0.5","0.5","0.5","0.5","0.8","0.2","0.6","0.2","","","","","","","","","","","","","","72","H","0","img/none_selected.jpg","true","0","full_practice","",""
"","bandit","64","433635","0.0-32.0-12.0","09442422","wem/bandit_party_2","A22HX7JGLXHJQG","either","1","353","","","","","","","0","1","0","","0.8","0.5","0.5","0.5","0.5","0.8","0.2","0.6","0.2","","","","","","","","","","","","","","72","H","0","img/none_selected.jpg","true","0","full_practice","",""
"","bandit","65","435260","0.0-32.0-13.0","09442422","wem/bandit_party_2","A22HX7JGLXHJQG","either","1","2","","","","","","","1","0","0","0.8","","0.5","0.5","0.5","0.5","","","","","0.8","0.2","0.6","0.2","","","","","","","","","","72","H","0","img/none_selected.jpg","true","0","full_practice","",""
"","bandit","66","437278","0.0-32.0-14.0","09442422","wem/bandit_party_2","A22HX7JGLXHJQG","either","1","435","","","","","","","1","0","0","0.8","","0.5","0.5","0.5","0.5","","","","","0.8","0.2","0.6","0.2","","","","","","","","","","72","H","0","img/none_selected.jpg","true","0","full_practice","",""
"","bandit","67","439775","0.0-32.0-15.0","09442422","wem/bandit_party_2","A22HX7JGLXHJQG","either","1","916","","","","","","","0","0","1","","0.8","0.5","0.5","0.5","0.5","0.8","0.2","0.6","0.2","","","","","","","","","","","","","","72","H","0","img/none_selected.jpg","true","0","full_practice","",""
"","bandit","68","441967","0.0-32.0-16.0","09442422","wem/bandit_party_2","A22HX7JGLXHJQG","either","1","567","","","","","","","0","0","1","0.2","","0.5","0.5","0.5","0.5","","","","","0.8","0.2","0.6","0.2","","","","","","","","","","74","J","1","","true","0","full_practice","",""
"","bandit","69","444020","0.0-32.0-17.0","09442422","wem/bandit_party_2","A22HX7JGLXHJQG","either","1","473","","","","","","","0","0","1","","0.2","0.5","0.5","0.5","0.5","0.8","0.2","0.6","0.2","","","","","","","","","","","","","","74","J","1","","true","0","full_practice","",""
"","bandit","70","446231","0.0-32.0-18.0","09442422","wem/bandit_party_2","A22HX7JGLXHJQG","either","1","617","","","","","","","1","0","0","0.6","","0.5","0.5","0.5","0.5","","","","","0.8","0.2","0.6","0.2","","","","","","","","","","75","K","2","","true","0","full_practice","",""
"","bandit","71","448217","0.0-32.0-19.0","09442422","wem/bandit_party_2","A22HX7JGLXHJQG","either","1","364","","","","","","","0","1","0","","0.6","0.5","0.5","0.5","0.5","0.8","0.2","0.6","0.2","","","","","","","","","","","","","","75","K","2","","true","0","full_practice","",""
"","text","72","452500","0.0-33.0","09442422","wem/bandit_party_2","A22HX7JGLXHJQG","either","1","4249","","","32","","","","","","","","","","","","","","","","","","","","","","","","","","","","","","","","","","","","","",""
"","text-replacement","73","477258","0.0-34.0","09442422","wem/bandit_party_2","A22HX7JGLXHJQG","either","1","23681","","","32","","","","","","","","","","","","","","","","","","","","","","","","","","","","","","","","","","","","","",""
"","text-replacement","74","493249","0.0-35.0","09442422","wem/bandit_party_2","A22HX7JGLXHJQG","either","1","15942","","","32","","","","","","","","","","","","","","","","","","","","","","","","","","","","","","","","","","","","","",""
"","text-replacement","75","500456","0.0-36.0","09442422","wem/bandit_party_2","A22HX7JGLXHJQG","either","1","7173","","","32","","","","","","","","","","","","","","","","","","","","","","","","","","","","","","","","","","","","","",""
"","text-replacement","76","510475","0.0-37.0","09442422","wem/bandit_party_2","A22HX7JGLXHJQG","either","1","9984","","","32","","","","","","","","","","","","","","","","","","","","","","","","","","","","","","","","","","","","","",""
"","text-replacement","77","519499","0.0-38.0","09442422","wem/bandit_party_2","A22HX7JGLXHJQG","either","1","8986","","","32","","","","","","","","","","","","","","","","","","","","","","","","","","","","","","","","","","","","","",""
"","survey-multi-choice-replacement","78","533786","0.0-39.0-0.0","09442422","wem/bandit_party_2","A22HX7JGLXHJQG","either","1","14174","","","","","","","","","","","","","","","","","","","","","","","","Money will be added to the pool for <span style='color:red;'>REPUBLICANS</span>","","","","","","","attn_check","","","","","","","","","0",""
"","survey-multi-choice-replacement","79","541823","0.0-40.0-0.0","09442422","wem/bandit_party_2","A22HX7JGLXHJQG","either","1","6927","","","","","","","","","","","","","","","","","","","","","","","","Money will be subtracted from the pool for <span style='color:blue;'>DEMOCRATS</span>","","","","","","","attn_check","","","","","","","","","1",""
"","instructions","80","545098","0.0-40.0-1.0-0.0","09442422","wem/bandit_party_2","A22HX7JGLXHJQG","either","1","2216","","","","","","","","","","","","","","","","","","","","","","","","","","","","","","","","","","","","","","","","","[{""page_index"":0,""viewing_time"":2215}]"
"","survey-multi-choice-replacement","81","552872","0.0-40.1-0.1","09442422","wem/bandit_party_2","A22HX7JGLXHJQG","either","1","6707","","","","","","","","","","","","","","","","","","","","","","","","Equal amounts of money will be added to the pool for <span style='color:red;'>REPUBLICANS</span> and subtracted from the pool for <span style='color:blue;'>DEMOCRATS</span>","","","","","","","attn_check","","","","","","","","","2",""
"","survey-multi-choice-replacement","82","559522","0.0-41.0-0.0","09442422","wem/bandit_party_2","A22HX7JGLXHJQG","either","1","5578","","","","","","","","","","","","","","","","","","","","","","","","No money will be added to either pool","","","","","","","attn_check","","","","","","","","","3",""
"","bandit","83","564629","0.0-42.0-0.0","09442422","wem/bandit_party_2","A22HX7JGLXHJQG","either","1","2456","","","","","","","1","0","0","0.5202783506","","0.8","0.4","0.6","0.2","","","","","0.5202783506","0.7674833066","0.4995060561","0.8101107889","","","","","","","","","","72","H","0","img/none_selected.jpg","","1","main_expt","",""
"","bandit","84","566612","0.0-43.0-0.0","09442422","wem/bandit_party_2","A22HX7JGLXHJQG","either","1","406","","","","","","","0","0","1","","0.4559554218","0.8","0.4","0.6","0.2","0.4559554218","0.7786696111","0.4452888422","0.8827976921","","","","","","","","","","","","","","72","H","0","img/none_selected.jpg","","2","main_expt","",""
"","bandit","85","568634","0.0-44.0-0.0","09442422","wem/bandit_party_2","A22HX7JGLXHJQG","either","1","440","","","","","","","0","1","0","","0.3791335739","0.8","0.4","0.6","0.2","0.3791335739","0.7883912796","0.4956599627","0.918633781","","","","","","","","","","","","","","72","H","0","img/none_selected.jpg","","3","main_expt","",""
"","bandit","86","570641","0.0-45.0-0.0","09442422","wem/bandit_party_2","A22HX7JGLXHJQG","either","1","371","","","","","","","0","0","1","0.362446662","","0.8","0.4","0.6","0.2","","","","","0.362446662","0.8311681014","0.3939226057","0.8961075186","","","","","","","","","","72","H","0","img/none_selected.jpg","","4","main_expt","",""
"","bandit","87","573065","0.0-46.0-0.0","09442422","wem/bandit_party_2","A22HX7JGLXHJQG","either","1","806","","","","","","","0","0","1","","0.4337427147","0.8","0.4","0.6","0.2","0.4337427147","0.706748425","0.4737796053","0.9065038385","","","","","","","","","","","","","","72","H","0","img/none_selected.jpg","","5","main_expt","",""
"","bandit","88","574790","0.0-47.0-0.0","09442422","wem/bandit_party_2","A22HX7JGLXHJQG","either","1","113","","","","","","","0","0","1","0.7246132019","","0.8","0.4","0.6","0.2","","","","","0.4260566605","0.7246132019","0.5798080576","0.9628954729","","","","","","","","","","74","J","1","","","6","main_expt","",""
"","bandit","89","576682","0.0-48.0-0.0","09442422","wem/bandit_party_2","A22HX7JGLXHJQG","either","1","314","","","","","","","1","0","0","0.822103072","","0.8","0.4","0.6","0.2","","","","","0.5595739282","0.822103072","0.6184433593","0.9244273404","","","","","","","","","","74","J","1","","","7","main_expt","",""
"","bandit","90","578524","0.0-49.0-0.0","09442422","wem/bandit_party_2","A22HX7JGLXHJQG","either","1","274","","","","","","","1","0","0","0.8176183596","","0.8","0.4","0.6","0.2","","","","","0.5757792393","0.8176183596","0.5380809204","0.9214665689","","","","","","","","","","74","J","1","","","8","main_expt","",""
"","bandit","91","580500","0.0-50.0-0.0","09442422","wem/bandit_party_2","A22HX7JGLXHJQG","either","1","415","","","","","","","0","1","0","","0.7421782695","0.8","0.4","0.6","0.2","0.5508288143","0.7421782695","0.4884558296","0.9604963414","","","","","","","","","","","","","","74","J","1","","","9","main_expt","",""
"","bandit","92","582398","0.0-51.0-0.0","09442422","wem/bandit_party_2","A22HX7JGLXHJQG","either","1","330","","","","","","","0","0","1","","0.7112185725","0.8","0.4","0.6","0.2","0.4615344473","0.7112185725","0.6062827564","0.973544224","","","","","","","","","","","","","","74","J","1","","","10","main_expt","",""
"","bandit","93","584354","0.0-52.0-0.0","09442422","wem/bandit_party_2","A22HX7JGLXHJQG","either","1","330","","","","","","","0","1","0","","0.6656122322","0.8","0.4","0.6","0.2","0.4731032433","0.6656122322","0.6618996933","0.9756729976","","","","","","","","","","","","","","74","J","1","","","11","main_expt","",""
"","bandit","94","586117","0.0-53.0-0.0","09442422","wem/bandit_party_2","A22HX7JGLXHJQG","either","1","198","","","","","","","0","0","1","","0.632951522","0.8","0.4","0.6","0.2","0.5028989732","0.632951522","0.6589688621","0.9824084628","","","","","","","","","","","","","","74","J","1","","","12","main_expt","",""
"","bandit","95","588141","0.0-54.0-0.0","09442422","wem/bandit_party_2","A22HX7JGLXHJQG","either","1","450","","","","","","","0","0","1","","0.6428643634","0.8","0.4","0.6","0.2","0.5252386458","0.6428643634","0.7483501345","0.9852841122","","","","","","","","","","","","","","74","J","1","","","13","main_expt","",""
"","bandit","96","591126","0.0-55.0-0.0","09442422","wem/bandit_party_2","A22HX7JGLXHJQG","either","1","1416","","","","","","","1","0","0","0.7642220585","","0.8","0.4","0.6","0.2","","","","","0.4883642101","0.5693663763","0.7642220585","0.9844185579","","","","","","","","","","75","K","2","","","14","main_expt","",""
"","bandit","97","593093","0.0-56.0-0.0","09442422","wem/bandit_party_2","A22HX7JGLXHJQG","either","1","388","","","","","","","1","0","0","0.8255663415","","0.8","0.4","0.6","0.2","","","","","0.5125695872","0.6354763258","0.8255663415","0.9716790186","","","","","","","","","","75","K","2","","","15","main_expt","",""
"","bandit","98","595061","0.0-57.0-0.0","09442422","wem/bandit_party_2","A22HX7JGLXHJQG","either","1","396","","","","","","","1","0","0","0.8262734196","","0.8","0.4","0.6","0.2","","","","","0.483313844","0.6074668868","0.8262734196","0.9724226268","","","","","","","","","","75","K","2","","","16","main_expt","",""
"","bandit","99","597185","0.0-58.0-0.0","09442422","wem/bandit_party_2","A22HX7JGLXHJQG","either","1","564","","","","","","","0","0","1","0.8957105494","","0.8","0.4","0.6","0.2","","","","","0.4764119597","0.634379517","0.8957105494","0.969397438","","","","","","","","","","75","K","2","","","17","main_expt","",""
"","bandit","100","599447","0.0-59.0-0.0","09442422","wem/bandit_party_2","A22HX7JGLXHJQG","either","1","693","","","","","","","0","0","1","0.8243017832","","0.8","0.4","0.6","0.2","","","","","0.4742144938","0.7399013172","0.8243017832","0.9487821198","","","","","","","","","","75","K","2","","","18","main_expt","",""
"","bandit","101","601680","0.0-60.0-0.0","09442422","wem/bandit_party_2","A22HX7JGLXHJQG","either","1","666","","","","","","","0","1","0","","0.8822386923","0.8","0.4","0.6","0.2","0.5445729057","0.6892422428","0.8174393347","0.8822386923","","","","","","","","","","","","","","76","L","3","","","19","main_expt","",""
"","bandit","102","603415","0.0-61.0-0.0","09442422","wem/bandit_party_2","A22HX7JGLXHJQG","either","1","170","","","","","","","0","1","0","","0.8658452863","0.8","0.4","0.6","0.2","0.5114357523","0.5544472153","0.8457625901","0.8658452863","","","","","","","","","","","","","","76","L","3","","","20","main_expt","",""
"","bandit","103","605330","0.0-62.0-0.0","09442422","wem/bandit_party_2","A22HX7JGLXHJQG","either","1","362","","","","","","","0","1","0","","0.8597265301","0.8","0.4","0.6","0.2","0.4948626968","0.4705077418","0.8565453533","0.8597265301","","","","","","","","","","","","","","76","L","3","","","21","main_expt","",""
"","bandit","104","607346","0.0-63.0-0.0","09442422","wem/bandit_party_2","A22HX7JGLXHJQG","either","1","452","","","","","","","0","1","0","","0.929530396","0.8","0.4","0.6","0.2","0.3750889156","0.5364913494","0.8821281293","0.929530396","","","","","","","","","","","","","","76","L","3","","","22","main_expt","",""
"","bandit","105","609329","0.0-64.0-0.0","09442422","wem/bandit_party_2","A22HX7JGLXHJQG","either","1","422","","","","","","","0","1","0","","0.9149061772","0.8","0.4","0.6","0.2","0.3874093852","0.5450887529","0.8253896901","0.9149061772","","","","","","","","","","","","","","76","L","3","","","23","main_expt","",""
"","bandit","106","611179","0.0-65.0-0.0","09442422","wem/bandit_party_2","A22HX7JGLXHJQG","either","1","275","","","","","","","0","1","0","","0.9389899916","0.8","0.4","0.6","0.2","0.4126546177","0.6013055931","0.8682133559","0.9389899916","","","","","","","","","","","","","","76","L","3","","","24","main_expt","",""
"","bandit","107","613157","0.0-66.0-0.0","09442422","wem/bandit_party_2","A22HX7JGLXHJQG","either","1","390","","","","","","","0","1","0","","0.9583062328","0.8","0.4","0.6","0.2","0.3871809826","0.7116226269","0.8186134727","0.9583062328","","","","","","","","","","","","","","76","L","3","","","25","main_expt","",""
"","bandit","108","614971","0.0-67.0-0.0","09442422","wem/bandit_party_2","A22HX7JGLXHJQG","either","1","243","","","","","","","1","0","0","0.9349434311","","0.8","0.4","0.6","0.2","","","","","0.4162773602","0.7284905038","0.841170918","0.9349434311","","","","","","","","","","76","L","3","","","26","main_expt","",""
"","bandit","109","616844","0.0-68.0-0.0","09442422","wem/bandit_party_2","A22HX7JGLXHJQG","either","1","298","","","","","","","1","0","0","0.9147743466","","0.8","0.4","0.6","0.2","","","","","0.4153433109","0.7007901837","0.8332298301","0.9147743466","","","","","","","","","","76","L","3","","","27","main_expt","",""
"","bandit","110","618673","0.0-69.0-0.0","09442422","wem/bandit_party_2","A22HX7JGLXHJQG","either","1","254","","","","","","","0","1","0","","0.8913744663","0.8","0.4","0.6","0.2","0.3083156359","0.7197690037","0.8340804883","0.8913744663","","","","","","","","","","","","","","76","L","3","","","28","main_expt","",""
"","bandit","111","620563","0.0-70.0-0.0","09442422","wem/bandit_party_2","A22HX7JGLXHJQG","either","1","303","","","","","","","1","0","0","0.9004815278","","0.8","0.4","0.6","0.2","","","","","0.4048150761","0.7569205749","0.8800986549","0.9004815278","","","","","","","","","","76","L","3","","","29","main_expt","",""
"","bandit","112","622510","0.0-71.0-0.0","09442422","wem/bandit_party_2","A22HX7JGLXHJQG","either","1","320","","","","","","","0","1","0","","0.8335499875","0.8","0.4","0.6","0.2","0.5604470694","0.7007062976","0.800988266","0.8335499875","","","","","","","","","","","","","","76","L","3","","","30","main_expt","",""
"","bandit","113","624556","0.0-72.0-0.0","09442422","wem/bandit_party_2","A22HX7JGLXHJQG","either","1","300","","","","","","","0","1","0","","0.7904098286","0.8","0.4","0.6","0.2","0.5114456598","0.6218809145","0.8092707987","0.7904098286","","","","","","","","","","","","","","76","L","3","","","31","main_expt","",""
"","bandit","114","626589","0.0-73.0-0.0","09442422","wem/bandit_party_2","A22HX7JGLXHJQG","either","1","436","","","","","","","0","0","1","","0.8156470634","0.8","0.4","0.6","0.2","0.5195843055","0.5448888872","0.7600689364","0.8156470634","","","","","","","","","","","","","","76","L","3","","","32","main_expt","",""
"","bandit","115","628523","0.0-74.0-0.0","09442422","wem/bandit_party_2","A22HX7JGLXHJQG","either","1","341","","","","","","","0","1","0","","0.7458483223","0.8","0.4","0.6","0.2","0.4278216128","0.4396040002","0.7268405739","0.7458483223","","","","","","","","","","","","","","76","L","3","","","33","main_expt","",""
"","bandit","116","630456","0.0-75.0-0.0","09442422","wem/bandit_party_2","A22HX7JGLXHJQG","either","1","300","","","","","","","0","1","0","","0.8745519215","0.8","0.4","0.6","0.2","0.4581725564","0.3418027302","0.7867385379","0.8745519215","","","","","","","","","","","","","","76","L","3","","","34","main_expt","",""
"","bandit","117","632524","0.0-76.0-0.0","09442422","wem/bandit_party_2","A22HX7JGLXHJQG","either","1","443","","","","","","","0","1","0","","0.8761773117","0.8","0.4","0.6","0.2","0.5170179058","0.3770378826","0.7776722478","0.8761773117","","","","","","","","","","","","","","76","L","3","","","35","main_expt","",""
"","bandit","118","636006","0.0-77.0-0.0","09442422","wem/bandit_party_2","A22HX7JGLXHJQG","either","1","1892","","","","","","","0","1","0","","0.8898579413","0.8","0.4","0.6","0.2","0.5761285305","0.3264650107","0.8110731924","0.8898579413","","","","","","","","","","","","","","76","L","3","","","36","main_expt","",""
"","bandit","119","638135","0.0-78.0-0.0","09442422","wem/bandit_party_2","A22HX7JGLXHJQG","either","1","511","","","","","","","1","0","0","0.9189960073","","0.8","0.4","0.6","0.2","","","","","0.5824592389","0.1696248696","0.8371501114","0.9189960073","","","","","","","","","","76","L","3","","","37","main_expt","",""
"","bandit","120","640096","0.0-79.0-0.0","09442422","wem/bandit_party_2","A22HX7JGLXHJQG","either","1","360","","","","","","","0","1","0","","0.9429067042","0.8","0.4","0.6","0.2","0.5039158184","0.3008725236","0.801984358","0.9429067042","","","","","","","","","","","","","","76","L","3","","","38","main_expt","",""
"","bandit","121","642177","0.0-80.0-0.0","09442422","wem/bandit_party_2","A22HX7JGLXHJQG","either","1","494","","","","","","","0","0","1","","0.8860185862","0.8","0.4","0.6","0.2","0.4906961915","0.3612597963","0.836760671","0.8860185862","","","","","","","","","","","","","","76","L","3","","","39","main_expt","",""
"","bandit","122","644347","0.0-81.0-0.0","09442422","wem/bandit_party_2","A22HX7JGLXHJQG","either","1","592","","","","","","","1","0","0","0.8958725565","","0.8","0.4","0.6","0.2","","","","","0.5118773476","0.3316001813","0.7930168878","0.8958725565","","","","","","","","","","76","L","3","","","40","main_expt","",""
"","bandit","123","646630","0.0-82.0-0.0","09442422","wem/bandit_party_2","A22HX7JGLXHJQG","either","1","647","","","","","","","1","0","0","0.8369757826","","0.8","0.4","0.6","0.2","","","","","0.5207000815","0.251761063","0.6758505439","0.8369757826","","","","","","","","","","76","L","3","","","41","main_expt","",""
"","bandit","124","648695","0.0-83.0-0.0","09442422","wem/bandit_party_2","A22HX7JGLXHJQG","either","1","465","","","","","","","0","1","0","","0.8724413244","0.8","0.4","0.6","0.2","0.6208632684","0.3764367217","0.669091732","0.8724413244","","","","","","","","","","","","","","76","L","3","","","42","main_expt","",""
"","bandit","125","650864","0.0-84.0-0.0","09442422","wem/bandit_party_2","A22HX7JGLXHJQG","either","1","596","","","","","","","0","1","0","","0.8721156492","0.8","0.4","0.6","0.2","0.6736877605","0.4280411123","0.5774386383","0.8721156492","","","","","","","","","","","","","","76","L","3","","","43","main_expt","",""
"","bandit","126","653093","0.0-85.0-0.0","09442422","wem/bandit_party_2","A22HX7JGLXHJQG","either","1","640","","","","","","","0","1","0","","0.874486911","0.8","0.4","0.6","0.2","0.6770598463","0.4250007774","0.5402750746","0.874486911","","","","","","","","","","","","","","76","L","3","","","44","main_expt","",""
"","bandit","127","655006","0.0-86.0-0.0","09442422","wem/bandit_party_2","A22HX7JGLXHJQG","either","1","276","","","","","","","0","1","0","","0.7653026016","0.8","0.4","0.6","0.2","0.6811336834","0.3964774122","0.4769525635","0.7653026016","","","","","","","","","","","","","","76","L","3","","","45","main_expt","",""
"","bandit","128","656939","0.0-87.0-0.0","09442422","wem/bandit_party_2","A22HX7JGLXHJQG","either","1","339","","","","","","","0","1","0","","0.6884850605","0.8","0.4","0.6","0.2","0.7409040253","0.3755541509","0.460739512","0.6884850605","","","","","","","","","","","","","","76","L","3","","","46","main_expt","",""
"","bandit","129","658867","0.0-88.0-0.0","09442422","wem/bandit_party_2","A22HX7JGLXHJQG","either","1","348","","","","","","","0","1","0","","0.6869729855","0.8","0.4","0.6","0.2","0.8602274841","0.3698766084","0.3953603582","0.6869729855","","","","","","","","","","","","","","76","L","3","","","47","main_expt","",""
"","bandit","130","660761","0.0-89.0-0.0","09442422","wem/bandit_party_2","A22HX7JGLXHJQG","either","1","261","","","","","","","0","0","1","0.624749708","","0.8","0.4","0.6","0.2","","","","","0.8947369126","0.2924141828","0.5194217752","0.624749708","","","","","","","","","","76","L","3","","","48","main_expt","",""
"","bandit","131","662740","0.0-90.0-0.0","09442422","wem/bandit_party_2","A22HX7JGLXHJQG","either","1","353","","","","","","","0","1","0","","0.6269608649","0.8","0.4","0.6","0.2","0.9071052574","0.2506794134","0.5015721984","0.6269608649","","","","","","","","","","","","","","76","L","3","","","49","main_expt","",""
"","bandit","132","664790","0.0-91.0-0.0","09442422","wem/bandit_party_2","A22HX7JGLXHJQG","either","1","473","","","","","","","0","0","1","","0.5394470416","0.8","0.4","0.6","0.2","0.8569531155","0.2200095001","0.4427204185","0.5394470416","","","","","","","","","","","","","","76","L","3","","","50","main_expt","",""
"","bandit","133","667448","0.0-92.0-0.0","09442422","wem/bandit_party_2","A22HX7JGLXHJQG","either","1","1070","","","","","","","1","0","0","0.8728609703","","0.8","0.4","0.6","0.2","","","","","0.8728609703","0.2703780474","0.5194544998","0.4991806479","","","","","","","","","","72","H","0","img/none_selected.jpg","","51","main_expt","",""
"","bandit","134","669367","0.0-93.0-0.0","09442422","wem/bandit_party_2","A22HX7JGLXHJQG","either","1","284","","","","","","","1","0","0","0.902184381","","0.8","0.4","0.6","0.2","","","","","0.902184381","0.3215640211","0.4420680866","0.5431464126","","","","","","","","","","72","H","0","img/none_selected.jpg","","52","main_expt","",""
"","bandit","135","671349","0.0-94.0-0.0","09442422","wem/bandit_party_2","A22HX7JGLXHJQG","either","1","376","","","","","","","1","0","0","0.8975054296","","0.8","0.4","0.6","0.2","","","","","0.8975054296","0.2918797996","0.5541791803","0.4799783957","","","","","","","","","","72","H","0","img/none_selected.jpg","","53","main_expt","",""
"","bandit","136","673259","0.0-95.0-0.0","09442422","wem/bandit_party_2","A22HX7JGLXHJQG","either","1","322","","","","","","","1","0","0","0.9436546011","","0.8","0.4","0.6","0.2","","","","","0.9436546011","0.2432815539","0.6187664305","0.3946877269","","","","","","","","","","72","H","0","img/none_selected.jpg","","54","main_expt","",""
"","bandit","137","675357","0.0-96.0-0.0","09442422","wem/bandit_party_2","A22HX7JGLXHJQG","either","1","473","","","","","","","1","0","0","0.9411334538","","0.8","0.4","0.6","0.2","","","","","0.9411334538","0.1993500609","0.538030076","0.3892466866","","","","","","","","","","72","H","0","img/none_selected.jpg","","55","main_expt","",""
"","bandit","138","677260","0.0-97.0-0.0","09442422","wem/bandit_party_2","A22HX7JGLXHJQG","either","1","290","","","","","","","1","0","0","0.862285227","","0.8","0.4","0.6","0.2","","","","","0.862285227","0.1832364248","0.5137881872","0.347268188","","","","","","","","","","72","H","0","img/none_selected.jpg","","56","main_expt","",""
"","bandit","139","679469","0.0-98.0-0.0","09442422","wem/bandit_party_2","A22HX7JGLXHJQG","either","1","625","","","","","","","0","1","0","","0.9034803314","0.8","0.4","0.6","0.2","0.9034803314","0.1703919496","0.6274604021","0.3462231845","","","","","","","","","","","","","","72","H","0","img/none_selected.jpg","","57","main_expt","",""
"","bandit","140","681633","0.0-99.0-0.0","09442422","wem/bandit_party_2","A22HX7JGLXHJQG","either","1","574","","","","","","","1","0","0","0.9062052911","","0.8","0.4","0.6","0.2","","","","","0.9062052911","0.2146973212","0.5636132077","0.3707442777","","","","","","","","","","72","H","0","img/none_selected.jpg","","58","main_expt","",""
"","bandit","141","683731","0.0-100.0-0.0","09442422","wem/bandit_party_2","A22HX7JGLXHJQG","either","1","384","","","","","","","0","0","1","0.9169546289","","0.8","0.4","0.6","0.2","","","","","0.9169546289","0.2118107272","0.6555757088","0.4530366532","","","","","","","","","","72","H","0","img/none_selected.jpg","","59","main_expt","",""
"","bandit","142","685720","0.0-101.0-0.0","09442422","wem/bandit_party_2","A22HX7JGLXHJQG","either","1","361","","","","","","","0","0","1","","0.9048679239","0.8","0.4","0.6","0.2","0.9048679239","0.2096036334","0.6555481193","0.4335409142","","","","","","","","","","","","","","72","H","0","img/none_selected.jpg","","60","main_expt","",""
"","bandit","143","687670","0.0-102.0-0.0","09442422","wem/bandit_party_2","A22HX7JGLXHJQG","either","1","332","","","","","","","0","1","0","","0.1985607356","0.8","0.4","0.6","0.2","0.9346572725","0.1985607356","0.6988977931","0.3601573371","","","","","","","","","","","","","","74","J","1","","","61","main_expt","",""
"","bandit","144","689809","0.0-103.0-0.0","09442422","wem/bandit_party_2","A22HX7JGLXHJQG","either","1","565","","","","","","","0","0","1","","0.2352246004","0.8","0.4","0.6","0.2","0.9332729597","0.2352246004","0.6124712875","0.3187004912","","","","","","","","","","","","","","74","J","1","","","62","main_expt","",""
"","bandit","145","691972","0.0-104.0-0.0","09442422","wem/bandit_party_2","A22HX7JGLXHJQG","either","1","596","","","","","","","0","1","0","","0.1989126294","0.8","0.4","0.6","0.2","0.9300142507","0.1989126294","0.4881994696","0.331276396","","","","","","","","","","","","","","74","J","1","","","63","main_expt","",""
"","bandit","146","694174","0.0-105.0-0.0","09442422","wem/bandit_party_2","A22HX7JGLXHJQG","either","1","623","","","","","","","1","0","0","0.2231035509","","0.8","0.4","0.6","0.2","","","","","0.8992917639","0.2231035509","0.5007509184","0.3984677","","","","","","","","","","74","J","1","","","64","main_expt","",""
"","bandit","147","696327","0.0-106.0-0.0","09442422","wem/bandit_party_2","A22HX7JGLXHJQG","either","1","579","","","","","","","0","0","1","","0.174077904","0.8","0.4","0.6","0.2","0.7939475476","0.174077904","0.6077525222","0.3012021372","","","","","","","","","","","","","","74","J","1","","","65","main_expt","",""
"","bandit","148","698436","0.0-107.0-0.0","09442422","wem/bandit_party_2","A22HX7JGLXHJQG","either","1","537","","","","","","","0","1","0","","0.1505104035","0.8","0.4","0.6","0.2","0.7848839068","0.1505104035","0.4876759876","0.2848395029","","","","","","","","","","","","","","74","J","1","","","66","main_expt","",""
"","bandit","149","700748","0.0-108.0-0.0","09442422","wem/bandit_party_2","A22HX7JGLXHJQG","either","1","636","","","","","","","0","0","1","","0.1706094741","0.8","0.4","0.6","0.2","0.7712869283","0.1706094741","0.4705728971","0.2908363747","","","","","","","","","","","","","","74","J","1","","","67","main_expt","",""
"","bandit","150","702967","0.0-109.0-0.0","09442422","wem/bandit_party_2","A22HX7JGLXHJQG","either","1","648","","","","","","","0","0","1","0.5822594153","","0.8","0.4","0.6","0.2","","","","","0.7426915226","0.193375558","0.5822594153","0.3226378352","","","","","","","","","","75","K","2","","","68","main_expt","",""
"","bandit","151","705080","0.0-110.0-0.0","09442422","wem/bandit_party_2","A22HX7JGLXHJQG","either","1","437","","","","","","","0","0","1","0.6189715015","","0.8","0.4","0.6","0.2","","","","","0.592712881","0.226811003","0.6189715015","0.4490581071","","","","","","","","","","75","K","2","","","69","main_expt","",""
"","bandit","152","707355","0.0-111.0-0.0","09442422","wem/bandit_party_2","A22HX7JGLXHJQG","either","1","698","","","","","","","0","0","1","0.42365523","","0.8","0.4","0.6","0.2","","","","","0.6587085967","0.191142909","0.5307799745","0.42365523","","","","","","","","","","76","L","3","","","70","main_expt","",""
"","bandit","153","709259","0.0-112.0-0.0","09442422","wem/bandit_party_2","A22HX7JGLXHJQG","either","1","338","","","","","","","0","1","0","","0.427101634","0.8","0.4","0.6","0.2","0.7562029562","0.2371486809","0.5205551237","0.427101634","","","","","","","","","","","","","","76","L","3","","","71","main_expt","",""
"","bandit","154","711230","0.0-113.0-0.0","09442422","wem/bandit_party_2","A22HX7JGLXHJQG","either","1","398","","","","","","","0","1","0","","0.5387899421","0.8","0.4","0.6","0.2","0.670676276","0.2602117984","0.5913901284","0.5387899421","","","","","","","","","","","","","","76","L","3","","","72","main_expt","",""
"","bandit","155","713635","0.0-114.0-0.0","09442422","wem/bandit_party_2","A22HX7JGLXHJQG","either","1","831","","","","","","","0","0","1","","0.4931252492","0.8","0.4","0.6","0.2","0.6870219419","0.1837165363","0.7127465592","0.4931252492","","","","","","","","","","","","","","76","L","3","","","73","main_expt","",""
"","bandit","156","715664","0.0-115.0-0.0","09442422","wem/bandit_party_2","A22HX7JGLXHJQG","either","1","454","","","","","","","0","0","1","","0.3888626504","0.8","0.4","0.6","0.2","0.582898469","0.2032334464","0.7804212289","0.3888626504","","","","","","","","","","","","","","76","L","3","","","74","main_expt","",""
"","bandit","157","718141","0.0-116.0-0.0","09442422","wem/bandit_party_2","A22HX7JGLXHJQG","either","1","886","","","","","","","1","0","0","0.6452442043","","0.8","0.4","0.6","0.2","","","","","0.6452442043","0.2782751631","0.7966502287","0.3866429177","","","","","","","","","","72","H","0","img/none_selected.jpg","","75","main_expt","",""
"","bandit","158","720133","0.0-117.0-0.0","09442422","wem/bandit_party_2","A22HX7JGLXHJQG","either","1","268","","","","","","","1","0","0","0.7031137023","","0.8","0.4","0.6","0.2","","","","","0.7031137023","0.3318782676","0.7775959854","0.3948468247","","","","","","","","","","72","H","0","img/none_selected.jpg","","76","main_expt","",""
"","bandit","159","722191","0.0-118.0-0.0","09442422","wem/bandit_party_2","A22HX7JGLXHJQG","either","1","461","","","","","","","1","0","0","0.6096498107","","0.8","0.4","0.6","0.2","","","","","0.6096498107","0.312607664","0.8523583745","0.4853082722","","","","","","","","","","72","H","0","img/none_selected.jpg","","77","main_expt","",""
"","bandit","160","724762","0.0-119.0-0.0","09442422","wem/bandit_party_2","A22HX7JGLXHJQG","either","1","995","","","","","","","1","0","0","0.532302087","","0.8","0.4","0.6","0.2","","","","","0.532302087","0.3250695504","0.7707034136","0.4971609959","","","","","","","","","","72","H","0","img/none_selected.jpg","","78","main_expt","",""
"","bandit","161","726970","0.0-120.0-0.0","09442422","wem/bandit_party_2","A22HX7JGLXHJQG","either","1","583","","","","","","","0","1","0","","0.4448734945","0.8","0.4","0.6","0.2","0.4448734945","0.277144637","0.7919080975","0.5349041547","","","","","","","","","","","","","","72","H","0","img/none_selected.jpg","","79","main_expt","",""
"","bandit","162","729236","0.0-121.0-0.0","09442422","wem/bandit_party_2","A22HX7JGLXHJQG","either","1","645","","","","","","","0","0","1","0.34513516","","0.8","0.4","0.6","0.2","","","","","0.34513516","0.293018971","0.8107458935","0.4713204996","","","","","","","","","","72","H","0","img/none_selected.jpg","","80","main_expt","",""
"","bandit","163","731173","0.0-122.0-0.0","09442422","wem/bandit_party_2","A22HX7JGLXHJQG","either","1","353","","","","","","","1","0","0","0.406584365","","0.8","0.4","0.6","0.2","","","","","0.406584365","0.2730851157","0.7851591746","0.4132476049","","","","","","","","","","72","H","0","img/none_selected.jpg","","81","main_expt","",""
"","bandit","164","733425","0.0-123.0-0.0","09442422","wem/bandit_party_2","A22HX7JGLXHJQG","either","1","664","","","","","","","1","0","0","0.5068312928","","0.8","0.4","0.6","0.2","","","","","0.5068312928","0.2436011542","0.8067558171","0.4640808921","","","","","","","","","","72","H","0","img/none_selected.jpg","","82","main_expt","",""
"","bandit","165","735597","0.0-124.0-0.0","09442422","wem/bandit_party_2","A22HX7JGLXHJQG","either","1","542","","","","","","","0","0","1","","0.5209063211","0.8","0.4","0.6","0.2","0.5209063211","0.2009218657","0.7777816444","0.442115463","","","","","","","","","","","","","","72","H","0","img/none_selected.jpg","","83","main_expt","",""
"","bandit","166","737583","0.0-125.0-0.0","09442422","wem/bandit_party_2","A22HX7JGLXHJQG","either","1","365","","","","","","","1","0","0","0.6221591745","","0.8","0.4","0.6","0.2","","","","","0.6221591745","0.1550904625","0.7801041195","0.5117806844","","","","","","","","","","72","H","0","img/none_selected.jpg","","84","main_expt","",""
"","bandit","167","739640","0.0-126.0-0.0","09442422","wem/bandit_party_2","A22HX7JGLXHJQG","either","1","463","","","","","","","1","0","0","0.6939346182","","0.8","0.4","0.6","0.2","","","","","0.6939346182","0.1193398435","0.7593249252","0.5309627618","","","","","","","","","","72","H","0","img/none_selected.jpg","","85","main_expt","",""
"","bandit","168","741728","0.0-127.0-0.0","09442422","wem/bandit_party_2","A22HX7JGLXHJQG","either","1","493","","","","","","","1","0","0","0.7533471596","","0.8","0.4","0.6","0.2","","","","","0.7533471596","0.1398572341","0.7911667705","0.5482659382","","","","","","","","","","72","H","0","img/none_selected.jpg","","86","main_expt","",""
"","bandit","169","743686","0.0-128.0-0.0","09442422","wem/bandit_party_2","A22HX7JGLXHJQG","either","1","323","","","","","","","0","0","1","0.8040573679","","0.8","0.4","0.6","0.2","","","","","0.8040573679","0.1941505275","0.8480662183","0.4772076429","","","","","","","","","","72","H","0","img/none_selected.jpg","","87","main_expt","",""
"","bandit","170","745626","0.0-129.0-0.0","09442422","wem/bandit_party_2","A22HX7JGLXHJQG","either","1","344","","","","","","","1","0","0","0.7800800897","","0.8","0.4","0.6","0.2","","","","","0.7800800897","0.09645570925","0.8110462569","0.5202977678","","","","","","","","","","72","H","0","img/none_selected.jpg","","88","main_expt","",""
"","bandit","171","747947","0.0-130.0-0.0","09442422","wem/bandit_party_2","A22HX7JGLXHJQG","either","1","726","","","","","","","0","1","0","","0.7329239748","0.8","0.4","0.6","0.2","0.7329239748","0.1304326216","0.7924414871","0.4970482359","","","","","","","","","","","","","","72","H","0","img/none_selected.jpg","","89","main_expt","",""
"","bandit","172","750054","0.0-131.0-0.0","09442422","wem/bandit_party_2","A22HX7JGLXHJQG","either","1","471","","","","","","","1","0","0","0.7202813078","","0.8","0.4","0.6","0.2","","","","","0.7202813078","0.1410434261","0.8190855249","0.4671205494","","","","","","","","","","72","H","0","img/none_selected.jpg","","90","main_expt","",""
"","bandit","173","751955","0.0-132.0-0.0","09442422","wem/bandit_party_2","A22HX7JGLXHJQG","either","1","289","","","","","","","1","0","0","0.698586111","","0.8","0.4","0.6","0.2","","","","","0.698586111","0.1277095213","0.858270253","0.5518401665","","","","","","","","","","72","H","0","img/none_selected.jpg","","91","main_expt","",""
"","bandit","174","754011","0.0-133.0-0.0","09442422","wem/bandit_party_2","A22HX7JGLXHJQG","either","1","456","","","","","","","1","0","0","0.6054304462","","0.8","0.4","0.6","0.2","","","","","0.6054304462","0.08596821216","0.8583259383","0.620788192","","","","","","","","","","72","H","0","img/none_selected.jpg","","92","main_expt","",""
"","bandit","175","756198","0.0-134.0-0.0","09442422","wem/bandit_party_2","A22HX7JGLXHJQG","either","1","552","","","","","","","1","0","0","0.6829204303","","0.8","0.4","0.6","0.2","","","","","0.6829204303","0.05652587691","0.8335107661","0.679669404","","","","","","","","","","72","H","0","img/none_selected.jpg","","93","main_expt","",""
"","bandit","176","758357","0.0-135.0-0.0","09442422","wem/bandit_party_2","A22HX7JGLXHJQG","either","1","544","","","","","","","0","0","1","","0.6084783934","0.8","0.4","0.6","0.2","0.6084783934","0.07490457358","0.8849423118","0.6726581754","","","","","","","","","","","","","","72","H","0","img/none_selected.jpg","","94","main_expt","",""
"","bandit","177","760602","0.0-136.0-0.0","09442422","wem/bandit_party_2","A22HX7JGLXHJQG","either","1","649","","","","","","","0","0","1","0.51962455","","0.8","0.4","0.6","0.2","","","","","0.51962455","0.05201682933","0.9175662658","0.5983950962","","","","","","","","","","72","H","0","img/none_selected.jpg","","95","main_expt","",""
"","bandit","178","763063","0.0-137.0-0.0","09442422","wem/bandit_party_2","A22HX7JGLXHJQG","either","1","877","","","","","","","1","0","0","0.453067158","","0.8","0.4","0.6","0.2","","","","","0.453067158","0.0353667714","0.8726153548","0.6316158747","","","","","","","","","","72","H","0","img/none_selected.jpg","","96","main_expt","",""
"","bandit","179","765236","0.0-138.0-0.0","09442422","wem/bandit_party_2","A22HX7JGLXHJQG","either","1","530","","","","","","","1","0","0","0.4090095009","","0.8","0.4","0.6","0.2","","","","","0.4090095009","0.04301306848","0.7260562137","0.6660601513","","","","","","","","","","72","H","0","img/none_selected.jpg","","97","main_expt","",""
"","bandit","180","767393","0.0-139.0-0.0","09442422","wem/bandit_party_2","A22HX7JGLXHJQG","either","1","549","","","","","","","0","0","1","","0.360727585","0.8","0.4","0.6","0.2","0.360727585","0.03950067624","0.6506148609","0.6185462561","","","","","","","","","","","","","","72","H","0","img/none_selected.jpg","","98","main_expt","",""
"","bandit","181","769324","0.0-140.0-0.0","09442422","wem/bandit_party_2","A22HX7JGLXHJQG","either","1","336","","","","","","","0","0","1","0.03156699585","","0.8","0.4","0.6","0.2","","","","","0.3351327477","0.03156699585","0.5816342488","0.581128502","","","","","","","","","","74","J","1","","","99","main_expt","",""
"","bandit","182","771295","0.0-141.0-0.0","09442422","wem/bandit_party_2","A22HX7JGLXHJQG","either","1","347","","","","","","","0","0","1","","0.5521464449","0.8","0.4","0.6","0.2","0.3491912274","0.0248161238","0.5521464449","0.479775063","","","","","","","","","","","","","","75","K","2","","","100","main_expt","",""
"","bandit","183","773193","0.0-142.0-0.0","09442422","wem/bandit_party_2","A22HX7JGLXHJQG","either","1","282","","","","","","","0","0","1","","0.5114647241","0.8","0.4","0.6","0.2","0.4105375765","0.02218075004","0.6063232436","0.5114647241","","","","","","","","","","","","","","76","L","3","","","101","main_expt","",""
"","bandit","184","775426","0.0-143.0-0.0","09442422","wem/bandit_party_2","A22HX7JGLXHJQG","either","1","644","","","","","","","0","0","1","0.4718740674","","0.8","0.4","0.6","0.2","","","","","0.438632671","0.01802152149","0.5636213764","0.4718740674","","","","","","","","","","76","L","3","","","102","main_expt","",""
"","bandit","185","777600","0.0-144.0-0.0","09442422","wem/bandit_party_2","A22HX7JGLXHJQG","either","1","579","","","","","","","1","0","0","0.5370473259","","0.8","0.4","0.6","0.2","","","","","0.372838406","0.01877214671","0.5370473259","0.5245129891","","","","","","","","","","75","K","2","","","103","main_expt","",""
"","bandit","186","779553","0.0-145.0-0.0","09442422","wem/bandit_party_2","A22HX7JGLXHJQG","either","1","323","","","","","","","1","0","0","0.549647281","","0.8","0.4","0.6","0.2","","","","","0.3057692375","0.01556743346","0.549647281","0.5170751474","","","","","","","","","","75","K","2","","","104","main_expt","",""
"","bandit","187","781775","0.0-146.0-0.0","09442422","wem/bandit_party_2","A22HX7JGLXHJQG","either","1","587","","","","","","","1","0","0","0.4225976111","","0.8","0.4","0.6","0.2","","","","","0.37369274","0.03717147126","0.4225976111","0.472330124","","","","","","","","","","75","K","2","","","105","main_expt","",""
"","bandit","188","783953","0.0-147.0-0.0","09442422","wem/bandit_party_2","A22HX7JGLXHJQG","either","1","552","","","","","","","0","0","1","","0.5005163425","0.8","0.4","0.6","0.2","0.3179799449","0.07687033395","0.5005163425","0.568133852","","","","","","","","","","","","","","75","K","2","","","106","main_expt","",""
"","bandit","189","786158","0.0-148.0-0.0","09442422","wem/bandit_party_2","A22HX7JGLXHJQG","either","1","635","","","","","","","0","1","0","","0.3995396385","0.8","0.4","0.6","0.2","0.3053765494","0.07659049968","0.3995396385","0.536018559","","","","","","","","","","","","","","75","K","2","","","107","main_expt","",""
"","bandit","190","788266","0.0-149.0-0.0","09442422","wem/bandit_party_2","A22HX7JGLXHJQG","either","1","520","","","","","","","0","0","1","0.3855926336","","0.8","0.4","0.6","0.2","","","","","0.2732860947","0.07827602418","0.3855926336","0.3880888981","","","","","","","","","","75","K","2","","","108","main_expt","",""
"","bandit","191","790310","0.0-150.0-0.0","09442422","wem/bandit_party_2","A22HX7JGLXHJQG","either","1","473","","","","","","","0","0","1","0.1352418701","","0.8","0.4","0.6","0.2","","","","","0.2624197952","0.1352418701","0.3059937163","0.3675045314","","","","","","","","","","74","J","1","","","109","main_expt","",""
"","bandit","192","792248","0.0-151.0-0.0","09442422","wem/bandit_party_2","A22HX7JGLXHJQG","either","1","346","","","","","","","0","0","1","","0.1705666919","0.8","0.4","0.6","0.2","0.3303210632","0.1705666919","0.2752892785","0.4560700489","","","","","","","","","","","","","","74","J","1","","","110","main_expt","",""
"","bandit","193","794234","0.0-152.0-0.0","09442422","wem/bandit_party_2","A22HX7JGLXHJQG","either","1","406","","","","","","","0","0","1","0.3541452024","","0.8","0.4","0.6","0.2","","","","","0.3541452024","0.2202970635","0.3038626008","0.5366389876","","","","","","","","","","72","H","0","img/none_selected.jpg","","111","main_expt","",""
"","bandit","194","796265","0.0-153.0-0.0","09442422","wem/bandit_party_2","A22HX7JGLXHJQG","either","1","453","","","","","","","0","0","1","","0.4468573219","0.8","0.4","0.6","0.2","0.4468573219","0.2368742277","0.2308866464","0.5742054707","","","","","","","","","","","","","","72","H","0","img/none_selected.jpg","","112","main_expt","",""
"","bandit","195","798263","0.0-154.0-0.0","09442422","wem/bandit_party_2","A22HX7JGLXHJQG","either","1","431","","","","","","","0","0","1","0.5163231944","","0.8","0.4","0.6","0.2","","","","","0.5163231944","0.2487241586","0.2420052043","0.6014260319","","","","","","","","","","72","H","0","img/none_selected.jpg","","113","main_expt","",""
"","bandit","196","800383","0.0-155.0-0.0","09442422","wem/bandit_party_2","A22HX7JGLXHJQG","either","1","511","","","","","","","0","1","0","","0.3277817495","0.8","0.4","0.6","0.2","0.4064640458","0.238824581","0.3277817495","0.5398035654","","","","","","","","","","","","","","75","K","2","","","114","main_expt","",""
"","bandit","197","802449","0.0-156.0-0.0","09442422","wem/bandit_party_2","A22HX7JGLXHJQG","either","1","496","","","","","","","0","0","1","","0.3280884562","0.8","0.4","0.6","0.2","0.4085425191","0.1480638281","0.3280884562","0.5008208772","","","","","","","","","","","","","","75","K","2","","","115","main_expt","",""
"","bandit","198","804538","0.0-157.0-0.0","09442422","wem/bandit_party_2","A22HX7JGLXHJQG","either","1","498","","","","","","","0","0","1","","0.4137256642","0.8","0.4","0.6","0.2","0.4412864427","0.1246447603","0.4137256642","0.4200837231","","","","","","","","","","","","","","75","K","2","","","116","main_expt","",""
"","bandit","199","807242","0.0-158.0-0.0","09442422","wem/bandit_party_2","A22HX7JGLXHJQG","either","1","1039","","","","","","","0","1","0","","0.4094987027","0.8","0.4","0.6","0.2","0.5188885271","0.1308085784","0.372751341","0.4094987027","","","","","","","","","","","","","","76","L","3","","","117","main_expt","",""
"","bandit","200","809457","0.0-159.0-0.0","09442422","wem/bandit_party_2","A22HX7JGLXHJQG","either","1","547","","","","","","","0","1","0","","0.3862907493","0.8","0.4","0.6","0.2","0.5728151575","0.09076242324","0.4225631273","0.3862907493","","","","","","","","","","","","","","76","L","3","","","118","main_expt","",""
"","bandit","201","811823","0.0-160.0-0.0","09442422","wem/bandit_party_2","A22HX7JGLXHJQG","either","1","766","","","","","","","0","0","1","","0.4437318585","0.8","0.4","0.6","0.2","0.5065624602","0.09057925276","0.4188482812","0.4437318585","","","","","","","","","","","","","","76","L","3","","","119","main_expt","",""
"","bandit","202","814418","0.0-161.0-0.0","09442422","wem/bandit_party_2","A22HX7JGLXHJQG","either","1","1004","","","","","","","0","1","0","","0.293469011","0.8","0.4","0.6","0.2","0.4064427813","0.1288926122","0.3729077829","0.293469011","","","","","","","","","","","","","","76","L","3","","","120","main_expt","",""
"","bandit","203","816950","0.0-162.0-0.0","09442422","wem/bandit_party_2","A22HX7JGLXHJQG","either","1","890","","","","","","","0","0","1","","0.2141601759","0.8","0.4","0.6","0.2","0.3948988447","0.1479701512","0.3817262037","0.2141601759","","","","","","","","","","","","","","76","L","3","","","121","main_expt","",""
"","bandit","204","818998","0.0-163.0-0.0","09442422","wem/bandit_party_2","A22HX7JGLXHJQG","either","1","455","","","","","","","0","0","1","","0.2594293103","0.8","0.4","0.6","0.2","0.316823658","0.1663524813","0.3537210734","0.2594293103","","","","","","","","","","","","","","76","L","3","","","122","main_expt","",""
"","bandit","205","821294","0.0-164.0-0.0","09442422","wem/bandit_party_2","A22HX7JGLXHJQG","either","1","701","","","","","","","0","0","1","","0.1993917655","0.8","0.4","0.6","0.2","0.3045978244","0.1993917655","0.3633727708","0.1519240937","","","","","","","","","","","","","","74","J","1","","","123","main_expt","",""
"","bandit","206","823192","0.0-165.0-0.0","09442422","wem/bandit_party_2","A22HX7JGLXHJQG","either","1","259","","","","","","","0","0","1","0.2389028675","","0.8","0.4","0.6","0.2","","","","","0.2389028675","0.2948689786","0.4139908316","0.2311656533","","","","","","","","","","72","H","0","img/none_selected.jpg","","124","main_expt","",""
"","bandit","207","825386","0.0-166.0-0.0","09442422","wem/bandit_party_2","A22HX7JGLXHJQG","either","1","479","","","","","","","0","1","0","","0.3619800754","0.8","0.4","0.6","0.2","0.2166803268","0.4054398129","0.3619800754","0.1956748967","","","","","","","","","","","","","","75","K","2","","","125","main_expt","",""
"","bandit","208","827337","0.0-167.0-0.0","09442422","wem/bandit_party_2","A22HX7JGLXHJQG","either","1","370","","","","","","","0","0","1","","0.353362548","0.8","0.4","0.6","0.2","0.1613674106","0.5337661481","0.353362548","0.1419383156","","","","","","","","","","","","","","75","K","2","","","126","main_expt","",""
"","bandit","209","829457","0.0-168.0-0.0","09442422","wem/bandit_party_2","A22HX7JGLXHJQG","either","1","511","","","","","","","0","0","1","","0.2888217425","0.8","0.4","0.6","0.2","0.1682412955","0.5510518781","0.2888217425","0.1768105291","","","","","","","","","","","","","","75","K","2","","","127","main_expt","",""
"","bandit","210","831663","0.0-169.0-0.0","09442422","wem/bandit_party_2","A22HX7JGLXHJQG","either","1","568","","","","","","","0","1","0","","0.1187699492","0.8","0.4","0.6","0.2","0.1655910943","0.4746642732","0.3131893798","0.1187699492","","","","","","","","","","","","","","76","L","3","","","128","main_expt","",""
"","bandit","211","833634","0.0-170.0-0.0","09442422","wem/bandit_party_2","A22HX7JGLXHJQG","either","1","371","","","","","","","0","0","1","","0.1860330609","0.8","0.4","0.6","0.2","0.1845506081","0.5345142674","0.2826861836","0.1860330609","","","","","","","","","","","","","","76","L","3","","","129","main_expt","",""
"","bandit","212","835548","0.0-171.0-0.0","09442422","wem/bandit_party_2","A22HX7JGLXHJQG","either","1","319","","","","","","","0","0","1","","0.09722607165","0.8","0.4","0.6","0.2","0.1548240476","0.6617219445","0.3434973012","0.09722607165","","","","","","","","","","","","","","76","L","3","","","130","main_expt","",""
"","bandit","213","837562","0.0-172.0-0.0","09442422","wem/bandit_party_2","A22HX7JGLXHJQG","either","1","384","","","","","","","0","1","0","","0.05626421391","0.8","0.4","0.6","0.2","0.1503989","0.6183560712","0.3848082556","0.05626421391","","","","","","","","","","","","","","76","L","3","","","131","main_expt","",""
"","bandit","214","839683","0.0-173.0-0.0","09442422","wem/bandit_party_2","A22HX7JGLXHJQG","either","1","458","","","","","","","0","0","1","0.1149854728","","0.8","0.4","0.6","0.2","","","","","0.1199593994","0.7009512511","0.4140069858","0.1149854728","","","","","","","","","","76","L","3","","","132","main_expt","",""
"","bandit","215","841607","0.0-174.0-0.0","09442422","wem/bandit_party_2","A22HX7JGLXHJQG","either","1","346","","","","","","","0","0","1","","0.1698175541","0.8","0.4","0.6","0.2","0.1518383839","0.5838974895","0.3745017877","0.1698175541","","","","","","","","","","","","","","76","L","3","","","133","main_expt","",""
"","bandit","216","843740","0.0-175.0-0.0","09442422","wem/bandit_party_2","A22HX7JGLXHJQG","either","1","531","","","","","","","0","0","1","0.1855528241","","0.8","0.4","0.6","0.2","","","","","0.1855528241","0.6628563986","0.3918835711","0.1925371395","","","","","","","","","","72","H","0","img/none_selected.jpg","","134","main_expt","",""
"","bandit","217","845700","0.0-176.0-0.0","09442422","wem/bandit_party_2","A22HX7JGLXHJQG","either","1","309","","","","","","","0","0","1","0.2187769305","","0.8","0.4","0.6","0.2","","","","","0.2187769305","0.5610912218","0.3405764209","0.246136332","","","","","","","","","","72","H","0","img/none_selected.jpg","","135","main_expt","",""
"","bandit","218","847715","0.0-177.0-0.0","09442422","wem/bandit_party_2","A22HX7JGLXHJQG","either","1","410","","","","","","","0","0","1","","0.2001534018","0.8","0.4","0.6","0.2","0.2001534018","0.4834649218","0.4155430462","0.2277518718","","","","","","","","","","","","","","72","H","0","img/none_selected.jpg","","136","main_expt","",""
"","bandit","219","849878","0.0-178.0-0.0","09442422","wem/bandit_party_2","A22HX7JGLXHJQG","either","1","582","","","","","","","1","0","0","0.513072369","","0.8","0.4","0.6","0.2","","","","","0.176995917","0.513072369","0.3389252929","0.252962458","","","","","","","","","","74","J","1","","","137","main_expt","",""
"","bandit","220","851985","0.0-179.0-0.0","09442422","wem/bandit_party_2","A22HX7JGLXHJQG","either","1","517","","","","","","","0","0","1","","0.5502636267","0.8","0.4","0.6","0.2","0.1460019238","0.5502636267","0.2698753193","0.3018696236","","","","","","","","","","","","","","74","J","1","","","138","main_expt","",""
"","bandit","221","854116","0.0-180.0-0.0","09442422","wem/bandit_party_2","A22HX7JGLXHJQG","either","1","497","","","","","","","0","0","1","","0.4564922144","0.8","0.4","0.6","0.2","0.06707115951","0.4564922144","0.2821570394","0.347353107","","","","","","","","","","","","","","74","J","1","","","139","main_expt","",""
"","bandit","222","856335","0.0-181.0-0.0","09442422","wem/bandit_party_2","A22HX7JGLXHJQG","either","1","617","","","","","","","0","1","0","","0.4116013625","0.8","0.4","0.6","0.2","0.1071331831","0.4116013625","0.3577533322","0.2477375586","","","","","","","","","","","","","","74","J","1","","","140","main_expt","",""
"","bandit","223","858458","0.0-182.0-0.0","09442422","wem/bandit_party_2","A22HX7JGLXHJQG","either","1","511","","","","","","","0","0","1","","0.4498847811","0.8","0.4","0.6","0.2","0.1224459691","0.4498847811","0.4250900652","0.2880826197","","","","","","","","","","","","","","74","J","1","","","141","main_expt","",""
"","bandit","224","860498","0.0-183.0-0.0","09442422","wem/bandit_party_2","A22HX7JGLXHJQG","either","1","409","","","","","","","0","0","1","0.4822150968","","0.8","0.4","0.6","0.2","","","","","0.1127900777","0.4822150968","0.3451055681","0.2287108423","","","","","","","","","","74","J","1","","","142","main_expt","",""
"","bandit","225","862503","0.0-184.0-0.0","09442422","wem/bandit_party_2","A22HX7JGLXHJQG","either","1","386","","","","","","","1","0","0","0.4661026996","","0.8","0.4","0.6","0.2","","","","","0.1736101882","0.513506041","0.4661026996","0.2096850542","","","","","","","","","","75","K","2","","","143","main_expt","",""
"","bandit","226","864653","0.0-185.0-0.0","09442422","wem/bandit_party_2","A22HX7JGLXHJQG","either","1","563","","","","","","","0","0","1","","0.4683168179","0.8","0.4","0.6","0.2","0.1231714597","0.556822441","0.4683168179","0.2214165798","","","","","","","","","","","","","","75","K","2","","","144","main_expt","",""
"","bandit","227","866831","0.0-186.0-0.0","09442422","wem/bandit_party_2","A22HX7JGLXHJQG","either","1","567","","","","","","","0","0","1","0.448697065","","0.8","0.4","0.6","0.2","","","","","0.10514291","0.5633269006","0.448697065","0.2412424024","","","","","","","","","","75","K","2","","","145","main_expt","",""
"","bandit","228","868885","0.0-187.0-0.0","09442422","wem/bandit_party_2","A22HX7JGLXHJQG","either","1","381","","","","","","","0","0","1","","0.1841611904","0.8","0.4","0.6","0.2","0.0972381369","0.6482805244","0.4560677512","0.1841611904","","","","","","","","","","","","","","76","L","3","","","146","main_expt","",""
"","bandit","229","870889","0.0-188.0-0.0","09442422","wem/bandit_party_2","A22HX7JGLXHJQG","either","1","347","","","","","","","0","0","1","","0.1577922033","0.8","0.4","0.6","0.2","0.1897119627","0.6036290043","0.513472809","0.1577922033","","","","","","","","","","","","","","76","L","3","","","147","main_expt","",""
"","bandit","230","872829","0.0-189.0-0.0","09442422","wem/bandit_party_2","A22HX7JGLXHJQG","either","1","319","","","","","","","0","0","1","0.1759094881","","0.8","0.4","0.6","0.2","","","","","0.1759094881","0.6110248825","0.3820674583","0.1663963597","","","","","","","","","","72","H","0","img/none_selected.jpg","","148","main_expt","",""
"","bandit","231","874626","0.0-190.0-0.0","09442422","wem/bandit_party_2","A22HX7JGLXHJQG","either","1","198","","","","","","","0","0","1","0.2204336569","","0.8","0.4","0.6","0.2","","","","","0.2204336569","0.6453676348","0.3116557105","0.319747154","","","","","","","","","","72","H","0","img/none_selected.jpg","","149","main_expt","",""
"","bandit","232","876705","0.0-191.0-0.0","09442422","wem/bandit_party_2","A22HX7JGLXHJQG","either","1","493","","","","","","","0","1","0","","0.66235511","0.8","0.4","0.6","0.2","0.2328853871","0.66235511","0.3039338698","0.5410110608","","","","","","","","","","","","","","74","J","1","","","150","main_expt","",""
"","bandit","233","878768","0.0-192.0-0.0","09442422","wem/bandit_party_2","A22HX7JGLXHJQG","either","1","484","","","","","","","1","0","0","0.5547575852","","0.8","0.4","0.6","0.2","","","","","0.2652525627","0.5547575852","0.3092958796","0.5584745132","","","","","","","","","","74","J","1","","","151","main_expt","",""
"","bandit","234","880735","0.0-193.0-0.0","09442422","wem/bandit_party_2","A22HX7JGLXHJQG","either","1","385","","","","","","","1","0","0","0.5223098228","","0.8","0.4","0.6","0.2","","","","","0.2654363334","0.5223098228","0.3097370874","0.5709378499","","","","","","","","","","74","J","1","","","152","main_expt","",""
"","bandit","235","882903","0.0-194.0-0.0","09442422","wem/bandit_party_2","A22HX7JGLXHJQG","either","1","513","","","","","","","0","0","1","","0.5137303037","0.8","0.4","0.6","0.2","0.3505589273","0.5137303037","0.2955649657","0.6314515046","","","","","","","","","","","","","","74","J","1","","","153","main_expt","",""
"","bandit","236","885015","0.0-195.0-0.0","09442422","wem/bandit_party_2","A22HX7JGLXHJQG","either","1","519","","","","","","","0","1","0","","0.5193194566","0.8","0.4","0.6","0.2","0.39889796","0.5193194566","0.221553637","0.6734276465","","","","","","","","","","","","","","74","J","1","","","154","main_expt","",""
"","bandit","237","887058","0.0-196.0-0.0","09442422","wem/bandit_party_2","A22HX7JGLXHJQG","either","1","478","","","","","","","0","0","1","0.4736812385","","0.8","0.4","0.6","0.2","","","","","0.4202606707","0.4736812385","0.2231547498","0.7019144477","","","","","","","","","","74","J","1","","","155","main_expt","",""
"","bandit","238","889307","0.0-197.0-0.0","09442422","wem/bandit_party_2","A22HX7JGLXHJQG","either","1","676","","","","","","","0","0","1","","0.4616442501","0.8","0.4","0.6","0.2","0.4814159609","0.4616442501","0.2750957943","0.6695455193","","","","","","","","","","","","","","74","J","1","","","156","main_expt","",""
"","bandit","239","891457","0.0-198.0-0.0","09442422","wem/bandit_party_2","A22HX7JGLXHJQG","either","1","565","","","","","","","0","1","0","","0.2005793054","0.8","0.4","0.6","0.2","0.5316807058","0.5025740222","0.2005793054","0.6179864128","","","","","","","","","","","","","","75","K","2","","","157","main_expt","",""
"","bandit","240","893569","0.0-199.0-0.0","09442422","wem/bandit_party_2","A22HX7JGLXHJQG","either","1","551","","","","","","","0","0","1","","0.2502080146","0.8","0.4","0.6","0.2","0.5429668589","0.4548105643","0.2502080146","0.7380689997","","","","","","","","","","","","","","75","K","2","","","158","main_expt","",""
"","bandit","241","895503","0.0-200.0-0.0","09442422","wem/bandit_party_2","A22HX7JGLXHJQG","either","1","360","","","","","","","0","0","1","","0.2729805177","0.8","0.4","0.6","0.2","0.5991419929","0.4622667215","0.2729805177","0.7632184112","","","","","","","","","","","","","","75","K","2","","","159","main_expt","",""
"","bandit","242","897413","0.0-201.0-0.0","09442422","wem/bandit_party_2","A22HX7JGLXHJQG","either","1","276","","","","","","","0","0","1","","0.6917664031","0.8","0.4","0.6","0.2","0.6480894682","0.4600517474","0.2801697818","0.6917664031","","","","","","","","","","","","","","76","L","3","","","160","main_expt","",""
"","bandit","243","899451","0.0-202.0-0.0","09442422","wem/bandit_party_2","A22HX7JGLXHJQG","either","1","407","","","","","","","1","0","0","0.6776161973","","0.8","0.4","0.6","0.2","","","","","0.6776161973","0.481388234","0.2437938608","0.7106531984","","","","","","","","","","72","H","0","img/none_selected.jpg","","161","main_expt","",""
"","bandit","244","901432","0.0-203.0-0.0","09442422","wem/bandit_party_2","A22HX7JGLXHJQG","either","1","384","","","","","","","0","0","1","","0.7134031715","0.8","0.4","0.6","0.2","0.7134031715","0.3850106192","0.2687553501","0.809310282","","","","","","","","","","","","","","72","H","0","img/none_selected.jpg","","162","main_expt","",""
"","bandit","245","903424","0.0-204.0-0.0","09442422","wem/bandit_party_2","A22HX7JGLXHJQG","either","1","401","","","","","","","1","0","0","0.6215635068","","0.8","0.4","0.6","0.2","","","","","0.6215635068","0.3498723973","0.245991677","0.7492875705","","","","","","","","","","72","H","0","img/none_selected.jpg","","163","main_expt","",""
"","bandit","246","905555","0.0-205.0-0.0","09442422","wem/bandit_party_2","A22HX7JGLXHJQG","either","1","486","","","","","","","0","0","1","0.5219240024","","0.8","0.4","0.6","0.2","","","","","0.5219240024","0.4287417444","0.270385563","0.7561394707","","","","","","","","","","72","H","0","img/none_selected.jpg","","164","main_expt","",""
"","bandit","247","907467","0.0-206.0-0.0","09442422","wem/bandit_party_2","A22HX7JGLXHJQG","either","1","292","","","","","","","1","0","0","0.4727302842","","0.8","0.4","0.6","0.2","","","","","0.4727302842","0.3150145745","0.3037855967","0.8111415702","","","","","","","","","","72","H","0","img/none_selected.jpg","","165","main_expt","",""
"","bandit","248","909328","0.0-207.0-0.0","09442422","wem/bandit_party_2","A22HX7JGLXHJQG","either","1","256","","","","","","","1","0","0","0.5181018645","","0.8","0.4","0.6","0.2","","","","","0.5181018645","0.2927018344","0.3395577104","0.7759938205","","","","","","","","","","72","H","0","img/none_selected.jpg","","166","main_expt","",""
"","bandit","249","911455","0.0-208.0-0.0","09442422","wem/bandit_party_2","A22HX7JGLXHJQG","either","1","518","","","","","","","0","0","1","","0.5280433419","0.8","0.4","0.6","0.2","0.5280433419","0.3610256338","0.3443901906","0.8267633335","","","","","","","","","","","","","","72","H","0","img/none_selected.jpg","","167","main_expt","",""
"","bandit","250","913658","0.0-209.0-0.0","09442422","wem/bandit_party_2","A22HX7JGLXHJQG","either","1","566","","","","","","","0","1","0","","0.5470010145","0.8","0.4","0.6","0.2","0.5470010145","0.3137127159","0.2552323567","0.8136073627","","","","","","","","","","","","","","72","H","0","img/none_selected.jpg","","168","main_expt","",""
"","bandit","251","915702","0.0-210.0-0.0","09442422","wem/bandit_party_2","A22HX7JGLXHJQG","either","1","431","","","","","","","1","0","0","0.5558845962","","0.8","0.4","0.6","0.2","","","","","0.5558845962","0.2292796242","0.289352286","0.7308533614","","","","","","","","","","72","H","0","img/none_selected.jpg","","169","main_expt","",""
"","bandit","252","917658","0.0-211.0-0.0","09442422","wem/bandit_party_2","A22HX7JGLXHJQG","either","1","348","","","","","","","0","0","1","0.5799309324","","0.8","0.4","0.6","0.2","","","","","0.5799309324","0.221948569","0.2262743404","0.7090730391","","","","","","","","","","72","H","0","img/none_selected.jpg","","170","main_expt","",""
"","bandit","253","919568","0.0-212.0-0.0","09442422","wem/bandit_party_2","A22HX7JGLXHJQG","either","1","274","","","","","","","1","0","0","0.6643953266","","0.8","0.4","0.6","0.2","","","","","0.6643953266","0.159615594","0.2644351609","0.7229684446","","","","","","","","","","72","H","0","img/none_selected.jpg","","171","main_expt","",""
"","bandit","254","921708","0.0-213.0-0.0","09442422","wem/bandit_party_2","A22HX7JGLXHJQG","either","1","489","","","","","","","0","0","1","0.7610666705","","0.8","0.4","0.6","0.2","","","","","0.7610666705","0.1303854457","0.4136296373","0.6612043244","","","","","","","","","","72","H","0","img/none_selected.jpg","","172","main_expt","",""
"","bandit","255","923751","0.0-214.0-0.0","09442422","wem/bandit_party_2","A22HX7JGLXHJQG","either","1","435","","","","","","","1","0","0","0.8006149786","","0.8","0.4","0.6","0.2","","","","","0.8006149786","0.07729024622","0.491318492","0.7669021743","","","","","","","","","","72","H","0","img/none_selected.jpg","","173","main_expt","",""
"","bandit","256","925974","0.0-215.0-0.0","09442422","wem/bandit_party_2","A22HX7JGLXHJQG","either","1","571","","","","","","","0","1","0","","0.791095403","0.8","0.4","0.6","0.2","0.791095403","0.1227026474","0.4966763124","0.8111867287","","","","","","","","","","","","","","72","H","0","img/none_selected.jpg","","174","main_expt","",""
"","bandit","257","928319","0.0-216.0-0.0","09442422","wem/bandit_party_2","A22HX7JGLXHJQG","either","1","723","","","","","","","0","1","0","","0.8572088762","0.8","0.4","0.6","0.2","0.8572088762","0.09483306355","0.5109350621","0.8192498968","","","","","","","","","","","","","","72","H","0","img/none_selected.jpg","","175","main_expt","",""
"","bandit","258","930356","0.0-217.0-0.0","09442422","wem/bandit_party_2","A22HX7JGLXHJQG","either","1","444","","","","","","","1","0","0","0.8576080684","","0.8","0.4","0.6","0.2","","","","","0.8576080684","0.143069758","0.6321295754","0.8371283275","","","","","","","","","","72","H","0","img/none_selected.jpg","","176","main_expt","",""
"","bandit","259","932435","0.0-218.0-0.0","09442422","wem/bandit_party_2","A22HX7JGLXHJQG","either","1","455","","","","","","","0","1","0","","0.8678158231","0.8","0.4","0.6","0.2","0.8678158231","0.1741656422","0.5515755996","0.8545140947","","","","","","","","","","","","","","72","H","0","img/none_selected.jpg","","177","main_expt","",""
"","bandit","260","934484","0.0-219.0-0.0","09442422","wem/bandit_party_2","A22HX7JGLXHJQG","either","1","395","","","","","","","1","0","0","0.8820542777","","0.8","0.4","0.6","0.2","","","","","0.8820542777","0.1904086474","0.5086275016","0.8794893657","","","","","","","","","","72","H","0","img/none_selected.jpg","","178","main_expt","",""
"","bandit","261","936546","0.0-220.0-0.0","09442422","wem/bandit_party_2","A22HX7JGLXHJQG","either","1","440","","","","","","","1","0","0","0.8907334788","","0.8","0.4","0.6","0.2","","","","","0.8907334788","0.1778905233","0.5215192908","0.8939587296","","","","","","","","","","72","H","0","img/none_selected.jpg","","179","main_expt","",""
"","bandit","262","938431","0.0-221.0-0.0","09442422","wem/bandit_party_2","A22HX7JGLXHJQG","either","1","280","","","","","","","1","0","0","0.9161653667","","0.8","0.4","0.6","0.2","","","","","0.9161653667","0.2112817454","0.5193414217","0.868077767","","","","","","","","","","72","H","0","img/none_selected.jpg","","180","main_expt","",""
"","bandit","263","940443","0.0-222.0-0.0","09442422","wem/bandit_party_2","A22HX7JGLXHJQG","either","1","409","","","","","","","1","0","0","0.9327112184","","0.8","0.4","0.6","0.2","","","","","0.9327112184","0.2236312472","0.4613460131","0.9295405476","","","","","","","","","","72","H","0","img/none_selected.jpg","","181","main_expt","",""
"","bandit","264","942489","0.0-223.0-0.0","09442422","wem/bandit_party_2","A22HX7JGLXHJQG","either","1","393","","","","","","","0","1","0","","0.9284398706","0.8","0.4","0.6","0.2","0.9284398706","0.264467441","0.4468633868","0.9213574857","","","","","","","","","","","","","","72","H","0","img/none_selected.jpg","","182","main_expt","",""
"","bandit","265","944594","0.0-224.0-0.0","09442422","wem/bandit_party_2","A22HX7JGLXHJQG","either","1","391","","","","","","","0","1","0","","0.89591471","0.8","0.4","0.6","0.2","0.89591471","0.2240632979","0.4985091709","0.9374560388","","","","","","","","","","","","","","72","H","0","img/none_selected.jpg","","183","main_expt","",""
"","bandit","266","946603","0.0-225.0-0.0","09442422","wem/bandit_party_2","A22HX7JGLXHJQG","either","1","422","","","","","","","1","0","0","0.9146434193","","0.8","0.4","0.6","0.2","","","","","0.9146434193","0.1671404848","0.6057575335","0.9120054929","","","","","","","","","","72","H","0","img/none_selected.jpg","","184","main_expt","",""
"","bandit","267","948777","0.0-226.0-0.0","09442422","wem/bandit_party_2","A22HX7JGLXHJQG","either","1","536","","","","","","","1","0","0","0.8575823977","","0.8","0.4","0.6","0.2","","","","","0.8575823977","0.1932257563","0.4915456485","0.8428471033","","","","","","","","","","72","H","0","img/none_selected.jpg","","185","main_expt","",""
"","bandit","268","950832","0.0-227.0-0.0","09442422","wem/bandit_party_2","A22HX7JGLXHJQG","either","1","428","","","","","","","0","0","1","0.8487952361","","0.8","0.4","0.6","0.2","","","","","0.8487952361","0.155472597","0.5976273718","0.7734335662","","","","","","","","","","72","H","0","img/none_selected.jpg","","186","main_expt","",""
"","bandit","269","952998","0.0-228.0-0.0","09442422","wem/bandit_party_2","A22HX7JGLXHJQG","either","1","565","","","","","","","0","0","1","0.8603972339","","0.8","0.4","0.6","0.2","","","","","0.8603972339","0.1895871356","0.5743595779","0.7667319261","","","","","","","","","","72","H","0","img/none_selected.jpg","","187","main_expt","",""
"","bandit","270","955208","0.0-229.0-0.0","09442422","wem/bandit_party_2","A22HX7JGLXHJQG","either","1","614","","","","","","","0","1","0","","0.8834510925","0.8","0.4","0.6","0.2","0.8834510925","0.2119556673","0.6833173747","0.5945875292","","","","","","","","","","","","","","72","H","0","img/none_selected.jpg","","188","main_expt","",""
"","bandit","271","957673","0.0-230.0-0.0","09442422","wem/bandit_party_2","A22HX7JGLXHJQG","either","1","801","","","","","","","1","0","0","0.8973947779","","0.8","0.4","0.6","0.2","","","","","0.8973947779","0.2255007403","0.651089354","0.7406569186","","","","","","","","","","72","H","0","img/none_selected.jpg","","189","main_expt","",""
"","bandit","272","959537","0.0-231.0-0.0","09442422","wem/bandit_party_2","A22HX7JGLXHJQG","either","1","187","","","","","","","0","1","0","","0.8824587855","0.8","0.4","0.6","0.2","0.8824587855","0.1754842532","0.6599652607","0.7371931777","","","","","","","","","","","","","","72","H","0","img/none_selected.jpg","","190","main_expt","",""
"","bandit","273","961472","0.0-232.0-0.0","09442422","wem/bandit_party_2","A22HX7JGLXHJQG","either","1","330","","","","","","","0","0","1","0.9076431997","","0.8","0.4","0.6","0.2","","","","","0.9076431997","0.1936311571","0.6960236584","0.7019705866","","","","","","","","","","72","H","0","img/none_selected.jpg","","191","main_expt","",""
"","bandit","274","963402","0.0-233.0-0.0","09442422","wem/bandit_party_2","A22HX7JGLXHJQG","either","1","340","","","","","","","1","0","0","0.8673165995","","0.8","0.4","0.6","0.2","","","","","0.8673165995","0.215612591","0.6713911156","0.6198122665","","","","","","","","","","72","H","0","img/none_selected.jpg","","192","main_expt","",""
"","bandit","275","965712","0.0-234.0-0.0","09442422","wem/bandit_party_2","A22HX7JGLXHJQG","either","1","652","","","","","","","1","0","0","0.8264401474","","0.8","0.4","0.6","0.2","","","","","0.8264401474","0.2818734505","0.7244072205","0.6100930929","","","","","","","","","","72","H","0","img/none_selected.jpg","","193","main_expt","",""
"","bandit","276","967825","0.0-235.0-0.0","09442422","wem/bandit_party_2","A22HX7JGLXHJQG","either","1","497","","","","","","","1","0","0","0.8546086414","","0.8","0.4","0.6","0.2","","","","","0.8546086414","0.3616108755","0.7397798508","0.6332739585","","","","","","","","","","72","H","0","img/none_selected.jpg","","194","main_expt","",""
"","bandit","277","970372","0.0-236.0-0.0","09442422","wem/bandit_party_2","A22HX7JGLXHJQG","either","1","959","","","","","","","1","0","0","0.7914914872","","0.8","0.4","0.6","0.2","","","","","0.7914914872","0.3979961615","0.7602069811","0.609207161","","","","","","","","","","72","H","0","img/none_selected.jpg","","195","main_expt","",""
"","bandit","278","972822","0.0-237.0-0.0","09442422","wem/bandit_party_2","A22HX7JGLXHJQG","either","1","815","","","","","","","0","1","0","","0.7608346536","0.8","0.4","0.6","0.2","0.7608346536","0.4366641927","0.7114092524","0.6560649547","","","","","","","","","","","","","","72","H","0","img/none_selected.jpg","","196","main_expt","",""
"","bandit","279","975050","0.0-238.0-0.0","09442422","wem/bandit_party_2","A22HX7JGLXHJQG","either","1","601","","","","","","","0","0","1","0.7003784325","","0.8","0.4","0.6","0.2","","","","","0.7003784325","0.560782874","0.6917424169","0.6656533059","","","","","","","","","","72","H","0","img/none_selected.jpg","","197","main_expt","",""
"","bandit","280","977527","0.0-239.0-0.0","09442422","wem/bandit_party_2","A22HX7JGLXHJQG","either","1","877","","","","","","","1","0","0","0.6036075577","","0.8","0.4","0.6","0.2","","","","","0.6036075577","0.5649388288","0.6561069913","0.6841747727","","","","","","","","","","72","H","0","img/none_selected.jpg","","198","main_expt","",""
"","bandit","281","979968","0.0-240.0-0.0","09442422","wem/bandit_party_2","A22HX7JGLXHJQG","either","1","803","","","","","","","0","1","0","","0.5843314555","0.8","0.4","0.6","0.2","0.5843314555","0.5375892324","0.6948346643","0.7105065455","","","","","","","","","","","","","","72","H","0","img/none_selected.jpg","","199","main_expt","",""
"","bandit","282","982426","0.0-241.0-0.0","09442422","wem/bandit_party_2","A22HX7JGLXHJQG","either","1","799","","","","","","","0","1","0","","0.539414212","0.8","0.4","0.6","0.2","0.539414212","0.5625167851","0.7369743936","0.7380433654","","","","","","","","","","","","","","72","H","0","img/none_selected.jpg","","200","main_expt","",""
"","bandit","283","984509","0.0-242.0-0.0","09442422","wem/bandit_party_2","A22HX7JGLXHJQG","either","1","459","","","","","","","0","0","1","0.3774065742","","0.8","0.4","0.6","0.2","","","","","0.3774065742","0.6266810217","0.8347268415","0.6432951689","","","","","","","","","","72","H","0","img/none_selected.jpg","","201","main_expt","",""
"","bandit","284","986591","0.0-243.0-0.0","09442422","wem/bandit_party_2","A22HX7JGLXHJQG","either","1","487","","","","","","","0","0","1","0.2824615609","","0.8","0.4","0.6","0.2","","","","","0.2824615609","0.6661075828","0.7612264534","0.4995879772","","","","","","","","","","72","H","0","img/none_selected.jpg","","202","main_expt","",""
"","bandit","285","988750","0.0-244.0-0.0","09442422","wem/bandit_party_2","A22HX7JGLXHJQG","either","1","504","","","","","","","1","0","0","0.210170224","","0.8","0.4","0.6","0.2","","","","","0.210170224","0.7534099026","0.6904596671","0.4767352753","","","","","","","","","","72","H","0","img/none_selected.jpg","","203","main_expt","",""
"","bandit","286","990845","0.0-245.0-0.0","09442422","wem/bandit_party_2","A22HX7JGLXHJQG","either","1","480","","","","","","","0","0","1","0.2708138581","","0.8","0.4","0.6","0.2","","","","","0.2708138581","0.7033522103","0.6855485072","0.3680612217","","","","","","","","","","72","H","0","img/none_selected.jpg","","204","main_expt","",""
"","bandit","287","993014","0.0-246.0-0.0","09442422","wem/bandit_party_2","A22HX7JGLXHJQG","either","1","589","","","","","","","1","0","0","0.3319820794","","0.8","0.4","0.6","0.2","","","","","0.3319820794","0.6105989365","0.7006332368","0.3404512965","","","","","","","","","","72","H","0","img/none_selected.jpg","","205","main_expt","",""
"","bandit","288","995203","0.0-247.0-0.0","09442422","wem/bandit_party_2","A22HX7JGLXHJQG","either","1","539","","","","","","","1","0","0","0.3517339603","","0.8","0.4","0.6","0.2","","","","","0.3517339603","0.725137222","0.7533130943","0.2774568564","","","","","","","","","","72","H","0","img/none_selected.jpg","","206","main_expt","",""
"","bandit","289","997476","0.0-248.0-0.0","09442422","wem/bandit_party_2","A22HX7JGLXHJQG","either","1","644","","","","","","","0","0","1","0.2871079035","","0.8","0.4","0.6","0.2","","","","","0.2871079035","0.5888984072","0.7191760557","0.2228883469","","","","","","","","","","72","H","0","img/none_selected.jpg","","207","main_expt","",""
"","bandit","290","999545","0.0-249.0-0.0","09442422","wem/bandit_party_2","A22HX7JGLXHJQG","either","1","460","","","","","","","0","0","1","0.2642306377","","0.8","0.4","0.6","0.2","","","","","0.2642306377","0.4650323514","0.6264293856","0.2829247412","","","","","","","","","","72","H","0","img/none_selected.jpg","","208","main_expt","",""
"","bandit","291","1001581","0.0-250.0-0.0","09442422","wem/bandit_party_2","A22HX7JGLXHJQG","either","1","439","","","","","","","1","0","0","0.3587725811","","0.8","0.4","0.6","0.2","","","","","0.3587725811","0.4100719568","0.6500478562","0.3169104167","","","","","","","","","","72","H","0","img/none_selected.jpg","","209","main_expt","",""
"","bandit","292","1003708","0.0-251.0-0.0","09442422","wem/bandit_party_2","A22HX7JGLXHJQG","either","1","481","","","","","","","0","0","1","0.3103342645","","0.8","0.4","0.6","0.2","","","","","0.3103342645","0.5177296744","0.6498865343","0.2090062306","","","","","","","","","","72","H","0","img/none_selected.jpg","","210","main_expt","",""
"","bandit","293","1005634","0.0-252.0-0.0","09442422","wem/bandit_party_2","A22HX7JGLXHJQG","either","1","312","","","","","","","0","0","1","0.3760595068","","0.8","0.4","0.6","0.2","","","","","0.3760595068","0.5950812693","0.6056301442","0.1481662818","","","","","","","","","","72","H","0","img/none_selected.jpg","","211","main_expt","",""
"","bandit","294","1007983","0.0-253.0-0.0","09442422","wem/bandit_party_2","A22HX7JGLXHJQG","either","1","742","","","","","","","0","1","0","","0.7169745983","0.8","0.4","0.6","0.2","0.447023013","0.7169745983","0.5524844402","0.2114888193","","","","","","","","","","","","","","74","J","1","","","212","main_expt","",""
"","bandit","295","1010143","0.0-254.0-0.0","09442422","wem/bandit_party_2","A22HX7JGLXHJQG","either","1","500","","","","","","","0","1","0","","0.6766124197","0.8","0.4","0.6","0.2","0.4529182837","0.6766124197","0.6984249358","0.2234642754","","","","","","","","","","","","","","74","J","1","","","213","main_expt","",""
"","bandit","296","1012487","0.0-255.0-0.0","09442422","wem/bandit_party_2","A22HX7JGLXHJQG","either","1","716","","","","","","","0","0","1","0.8005648136","","0.8","0.4","0.6","0.2","","","","","0.4306534983","0.8005648136","0.5996975418","0.2315139555","","","","","","","","","","74","J","1","","","214","main_expt","",""
"","bandit","297","1014562","0.0-256.0-0.0","09442422","wem/bandit_party_2","A22HX7JGLXHJQG","either","1","470","","","","","","","0","1","0","","0.8487964291","0.8","0.4","0.6","0.2","0.4314469479","0.8487964291","0.6067129047","0.1949488974","","","","","","","","","","","","","","74","J","1","","","215","main_expt","",""
"","bandit","298","1017027","0.0-257.0-0.0","09442422","wem/bandit_party_2","A22HX7JGLXHJQG","either","1","779","","","","","","","0","1","0","","0.8674123454","0.8","0.4","0.6","0.2","0.45439575","0.8674123454","0.6297976658","0.2333303883","","","","","","","","","","","","","","74","J","1","","","216","main_expt","",""
"","bandit","299","1019189","0.0-258.0-0.0","09442422","wem/bandit_party_2","A22HX7JGLXHJQG","either","1","522","","","","","","","0","1","0","","0.8774404243","0.8","0.4","0.6","0.2","0.5228861726","0.8774404243","0.6095272491","0.2027763819","","","","","","","","","","","","","","74","J","1","","","217","main_expt","",""
"","bandit","300","1021304","0.0-259.0-0.0","09442422","wem/bandit_party_2","A22HX7JGLXHJQG","either","1","453","","","","","","","0","1","0","","0.8836448068","0.8","0.4","0.6","0.2","0.463703458","0.8836448068","0.7058099393","0.1895874514","","","","","","","","","","","","","","74","J","1","","","218","main_expt","",""
"","bandit","301","1023389","0.0-260.0-0.0","09442422","wem/bandit_party_2","A22HX7JGLXHJQG","either","1","476","","","","","","","1","0","0","0.880498508","","0.8","0.4","0.6","0.2","","","","","0.4522864467","0.880498508","0.7396246451","0.1537120117","","","","","","","","","","74","J","1","","","219","main_expt","",""
"","bandit","302","1025438","0.0-261.0-0.0","09442422","wem/bandit_party_2","A22HX7JGLXHJQG","either","1","392","","","","","","","0","1","0","","0.8740874997","0.8","0.4","0.6","0.2","0.4561576612","0.8740874997","0.7091968036","0.2022747423","","","","","","","","","","","","","","74","J","1","","","220","main_expt","",""
"","bandit","303","1027455","0.0-262.0-0.0","09442422","wem/bandit_party_2","A22HX7JGLXHJQG","either","1","331","","","","","","","0","1","0","","0.8527830905","0.8","0.4","0.6","0.2","0.4264657168","0.8527830905","0.7116308873","0.3174413427","","","","","","","","","","","","","","74","J","1","","","221","main_expt","",""
"","bandit","304","1029366","0.0-263.0-0.0","09442422","wem/bandit_party_2","A22HX7JGLXHJQG","either","1","315","","","","","","","1","0","0","0.7717907476","","0.8","0.4","0.6","0.2","","","","","0.3055141729","0.7717907476","0.769465391","0.2315667073","","","","","","","","","","74","J","1","","","222","main_expt","",""
"","bandit","305","1031288","0.0-264.0-0.0","09442422","wem/bandit_party_2","A22HX7JGLXHJQG","either","1","337","","","","","","","0","0","1","","0.8359700354","0.8","0.4","0.6","0.2","0.2868954791","0.8359700354","0.7509006974","0.2261006122","","","","","","","","","","","","","","74","J","1","","","223","main_expt","",""
"","bandit","306","1033536","0.0-265.0-0.0","09442422","wem/bandit_party_2","A22HX7JGLXHJQG","either","1","652","","","","","","","1","0","0","0.819670806","","0.8","0.4","0.6","0.2","","","","","0.2698185242","0.819670806","0.7007688409","0.2662378096","","","","","","","","","","74","J","1","","","224","main_expt","",""
"","bandit","307","1035596","0.0-266.0-0.0","09442422","wem/bandit_party_2","A22HX7JGLXHJQG","either","1","472","","","","","","","0","0","1","","0.8512382749","0.8","0.4","0.6","0.2","0.213842325","0.8512382749","0.7409020096","0.2163280173","","","","","","","","","","","","","","74","J","1","","","225","main_expt","",""
"","bandit","308","1037656","0.0-267.0-0.0","09442422","wem/bandit_party_2","A22HX7JGLXHJQG","either","1","481","","","","","","","0","1","0","","0.8342861847","0.8","0.4","0.6","0.2","0.1616408491","0.8342861847","0.7052945704","0.2809353625","","","","","","","","","","","","","","74","J","1","","","226","main_expt","",""
"","bandit","309","1039616","0.0-268.0-0.0","09442422","wem/bandit_party_2","A22HX7JGLXHJQG","either","1","382","","","","","","","0","1","0","","0.7736041865","0.8","0.4","0.6","0.2","0.1777599287","0.7736041865","0.606091252","0.2396571279","","","","","","","","","","","","","","74","J","1","","","227","main_expt","",""
"","bandit","310","1041629","0.0-269.0-0.0","09442422","wem/bandit_party_2","A22HX7JGLXHJQG","either","1","439","","","","","","","0","1","0","","0.8094350608","0.8","0.4","0.6","0.2","0.2866543064","0.8094350608","0.5834203199","0.3430446928","","","","","","","","","","","","","","74","J","1","","","228","main_expt","",""
