"consent","trial_type","trial_index","time_elapsed","internal_node_id","subjID","study","MID","cond","drift","rt","responses","button_pressed","key_press","like","value","connected","gems","bombs","no_reward","GemPrChosen","BombPrChosen","GainOverPainPr_0","GainOverPainPr_1","GainOverPainPr_2","GainOverPainPr_3","LosePr_0","LosePr_1","LosePr_2","LosePr_3","WinPr_0","WinPr_1","WinPr_2","WinPr_3","Q0","Q1","Q2","gender","age","ethnicity","label","expt_phase","target","respCharCode","respKey","respChoiceNum","respChoice","practice","trial_counter","trial_label","Q0_index"
"GDM/GDM_behavioral_consent_30min_online.html","consent","0","21250","0.0-0.0","10410853","wem/bandit_party_2","A2H0P2FI0JD5Y0","either","4","","","","","","","","","","","","","","","","","","","","","","","","","","","","","","","","","","","","","","","","",""
"","survey-text","1","29715","0.0-1.0","10410853","wem/bandit_party_2","A2H0P2FI0JD5Y0","either","4","7455","{""Q0"":""A2H0P2FI0JD5Y0""}","","","","","","","","","","","","","","","","","","","","","","","","","","","","","","","","","","","","","","",""
"","button-response","2","33558","0.0-2.0","10410853","wem/bandit_party_2","A2H0P2FI0JD5Y0","either","4","2837","","2","","","","","","","","","","","","","","","","","","","","","","","","","","","","","","","","","","","","","",""
"","text-replacement","3","46331","0.0-3.0","10410853","wem/bandit_party_2","A2H0P2FI0JD5Y0","either","4","11768","","","32","","","","","","","","","","","","","","","","","","","","","","","","","","","","","","","","","","","","",""
"","text-replacement","4","65340","0.0-4.0","10410853","wem/bandit_party_2","A2H0P2FI0JD5Y0","either","4","19007","","","32","","","","","","","","","","","","","","","","","","","","","","","","","","","","","","","","","","","","",""
"","text-replacement","5","84196","0.0-5.0-0.0","10410853","wem/bandit_party_2","A2H0P2FI0JD5Y0","either","4","18854","","","32","","","","","","","","","","","","","","","","","","","","","","","","","","","","","","","","","","","","",""
"","identification","6","91691","0.0-6.0-0.0","10410853","wem/bandit_party_2","A2H0P2FI0JD5Y0","either","4","7476","","","","0","0","0","","","","","","","","","","","","","","","","","","","","","","","","pre","identification_pre","the Republican Party","","","","","","","",""
"","identification","7","99574","0.0-6.0-1.0","10410853","wem/bandit_party_2","A2H0P2FI0JD5Y0","either","4","6865","","","","5","6","5","","","","","","","","","","","","","","","","","","","","","","","","pre","identification_pre","the Democratic Party","","","","","","","",""
"","text-replacement","8","107924","0.0-7.0","10410853","wem/bandit_party_2","A2H0P2FI0JD5Y0","either","4","7346","","","32","","","","","","","","","","","","","","","","","","","","","","","","","","","","","","","","","","","","",""
"","text-replacement","9","118212","0.0-8.0","10410853","wem/bandit_party_2","A2H0P2FI0JD5Y0","either","4","10286","","","32","","","","","","","","","","","","","","","","","","","","","","","","","","","","","","","","","","","","",""
"","text-replacement","10","128776","0.0-9.0","10410853","wem/bandit_party_2","A2H0P2FI0JD5Y0","either","4","10562","","","32","","","","","","","","","","","","","","","","","","","","","","","","","","","","","","","","","","","","",""
"","text-replacement","11","134842","0.0-10.0","10410853","wem/bandit_party_2","A2H0P2FI0JD5Y0","either","4","6065","","","32","","","","","","","","","","","","","","","","","","","","","","","","","","","","","","","","","","","","",""
"","text-replacement","12","141292","0.0-11.0","10410853","wem/bandit_party_2","A2H0P2FI0JD5Y0","either","4","6448","","","32","","","","","","","","","","","","","","","","","","","","","","","","","","","","","","","","","","","","",""
"","bandit","13","146201","0.0-12.0-0.0","10410853","wem/bandit_party_2","A2H0P2FI0JD5Y0","either","4","3399","","","","","","","0","0","1","0","0","","","","","0","","","","0","","","","","","","","","","","","","74","J","0","img/none_selected_demo.jpg","true","0","",""
"","bandit","14","149336","0.0-13.0-0.0","10410853","wem/bandit_party_2","A2H0P2FI0JD5Y0","either","4","1629","","","","","","","0","0","1","0","0","","","","","0","","","","0","","","","","","","","","","","","","75","K","0","img/none_selected_demo.jpg","true","0","",""
"","text-replacement","15","159623","0.0-14.0","10410853","wem/bandit_party_2","A2H0P2FI0JD5Y0","either","4","10285","","","32","","","","","","","","","","","","","","","","","","","","","","","","","","","","","","","","","","","","",""
"","text-replacement","16","168895","0.0-15.0","10410853","wem/bandit_party_2","A2H0P2FI0JD5Y0","either","4","9270","","","32","","","","","","","","","","","","","","","","","","","","","","","","","","","","","","","","","","","","",""
"","text-replacement","17","178449","0.0-16.0","10410853","wem/bandit_party_2","A2H0P2FI0JD5Y0","either","4","9553","","","32","","","","","","","","","","","","","","","","","","","","","","","","","","","","","","","","","","","","",""
"","text-replacement","18","185730","0.0-17.0","10410853","wem/bandit_party_2","A2H0P2FI0JD5Y0","either","4","7279","","","32","","","","","","","","","","","","","","","","","","","","","","","","","","","","","","","","","","","","",""
"","bandit","19","188500","0.0-18.0-0.0","10410853","wem/bandit_party_2","A2H0P2FI0JD5Y0","either","4","1263","","","","","","","0","1","0","","0.8","0.5","0.5","","","0.8","0.2","","","","","","","","","","","","","","","","74","J","0","img/none_selected_demo.jpg","true","0","80_20_practice",""
"","bandit","20","190716","0.0-18.0-1.0","10410853","wem/bandit_party_2","A2H0P2FI0JD5Y0","either","4","710","","","","","","","1","0","0","0.8","","0.5","0.5","","","","","","","0.8","0.2","","","","","","","","","","","","74","J","0","img/none_selected_demo.jpg","true","0","80_20_practice",""
"","bandit","21","192724","0.0-18.0-2.0","10410853","wem/bandit_party_2","A2H0P2FI0JD5Y0","either","4","502","","","","","","","0","0","1","","0.8","0.5","0.5","","","0.8","0.2","","","","","","","","","","","","","","","","74","J","0","img/none_selected_demo.jpg","true","0","80_20_practice",""
"","bandit","22","194706","0.0-18.0-3.0","10410853","wem/bandit_party_2","A2H0P2FI0JD5Y0","either","4","476","","","","","","","0","0","1","0.8","","0.5","0.5","","","","","","","0.8","0.2","","","","","","","","","","","","74","J","0","img/none_selected_demo.jpg","true","0","80_20_practice",""
"","bandit","23","196574","0.0-18.0-4.0","10410853","wem/bandit_party_2","A2H0P2FI0JD5Y0","either","4","360","","","","","","","0","1","0","","0.8","0.5","0.5","","","0.8","0.2","","","","","","","","","","","","","","","","74","J","0","img/none_selected_demo.jpg","true","0","80_20_practice",""
"","bandit","24","199469","0.0-18.0-5.0","10410853","wem/bandit_party_2","A2H0P2FI0JD5Y0","either","4","1390","","","","","","","1","0","0","0.8","","0.5","0.5","","","","","","","0.8","0.2","","","","","","","","","","","","74","J","0","img/none_selected_demo.jpg","true","0","80_20_practice",""
"","bandit","25","201573","0.0-18.0-6.0","10410853","wem/bandit_party_2","A2H0P2FI0JD5Y0","either","4","598","","","","","","","0","1","0","","0.8","0.5","0.5","","","0.8","0.2","","","","","","","","","","","","","","","","74","J","0","img/none_selected_demo.jpg","true","0","80_20_practice",""
"","bandit","26","203424","0.0-18.0-7.0","10410853","wem/bandit_party_2","A2H0P2FI0JD5Y0","either","4","345","","","","","","","1","0","0","0.8","","0.5","0.5","","","","","","","0.8","0.2","","","","","","","","","","","","74","J","0","img/none_selected_demo.jpg","true","0","80_20_practice",""
"","bandit","27","205478","0.0-18.0-8.0","10410853","wem/bandit_party_2","A2H0P2FI0JD5Y0","either","4","546","","","","","","","0","0","1","0.8","","0.5","0.5","","","","","","","0.8","0.2","","","","","","","","","","","","74","J","0","img/none_selected_demo.jpg","true","0","80_20_practice",""
"","bandit","28","207283","0.0-18.0-9.0","10410853","wem/bandit_party_2","A2H0P2FI0JD5Y0","either","4","298","","","","","","","1","0","0","0.8","","0.5","0.5","","","","","","","0.8","0.2","","","","","","","","","","","","74","J","0","img/none_selected_demo.jpg","true","0","80_20_practice",""
"","bandit","29","209168","0.0-18.0-10.0","10410853","wem/bandit_party_2","A2H0P2FI0JD5Y0","either","4","380","","","","","","","1","0","0","0.8","","0.5","0.5","","","","","","","0.8","0.2","","","","","","","","","","","","74","J","0","img/none_selected_demo.jpg","true","0","80_20_practice",""
"","bandit","30","211011","0.0-18.0-11.0","10410853","wem/bandit_party_2","A2H0P2FI0JD5Y0","either","4","337","","","","","","","1","0","0","0.8","","0.5","0.5","","","","","","","0.8","0.2","","","","","","","","","","","","74","J","0","img/none_selected_demo.jpg","true","0","80_20_practice",""
"","bandit","31","212943","0.0-18.0-12.0","10410853","wem/bandit_party_2","A2H0P2FI0JD5Y0","either","4","426","","","","","","","1","0","0","0.8","","0.5","0.5","","","","","","","0.8","0.2","","","","","","","","","","","","74","J","0","img/none_selected_demo.jpg","true","0","80_20_practice",""
"","bandit","32","214835","0.0-18.0-13.0","10410853","wem/bandit_party_2","A2H0P2FI0JD5Y0","either","4","385","","","","","","","1","0","0","0.8","","0.5","0.5","","","","","","","0.8","0.2","","","","","","","","","","","","74","J","0","img/none_selected_demo.jpg","true","0","80_20_practice",""
"","bandit","33","217030","0.0-18.0-14.0","10410853","wem/bandit_party_2","A2H0P2FI0JD5Y0","either","4","688","","","","","","","0","0","1","","0.8","0.5","0.5","","","0.8","0.2","","","","","","","","","","","","","","","","74","J","0","img/none_selected_demo.jpg","true","0","80_20_practice",""
"","bandit","34","218885","0.0-18.0-15.0","10410853","wem/bandit_party_2","A2H0P2FI0JD5Y0","either","4","350","","","","","","","0","0","1","","0.2","0.5","0.5","","","0.8","0.2","","","","","","","","","","","","","","","","75","K","1","","true","0","80_20_practice",""
"","bandit","35","220683","0.0-18.0-16.0","10410853","wem/bandit_party_2","A2H0P2FI0JD5Y0","either","4","293","","","","","","","0","0","1","","0.2","0.5","0.5","","","0.8","0.2","","","","","","","","","","","","","","","","75","K","1","","true","0","80_20_practice",""
"","bandit","36","222568","0.0-18.0-17.0","10410853","wem/bandit_party_2","A2H0P2FI0JD5Y0","either","4","379","","","","","","","0","0","1","0.8","","0.5","0.5","","","","","","","0.8","0.2","","","","","","","","","","","","74","J","0","img/none_selected_demo.jpg","true","0","80_20_practice",""
"","bandit","37","224326","0.0-18.0-18.0","10410853","wem/bandit_party_2","A2H0P2FI0JD5Y0","either","4","251","","","","","","","0","0","1","","0.8","0.5","0.5","","","0.8","0.2","","","","","","","","","","","","","","","","74","J","0","img/none_selected_demo.jpg","true","0","80_20_practice",""
"","bandit","38","226147","0.0-18.0-19.0","10410853","wem/bandit_party_2","A2H0P2FI0JD5Y0","either","4","317","","","","","","","1","0","0","0.8","","0.5","0.5","","","","","","","0.8","0.2","","","","","","","","","","","","74","J","0","img/none_selected_demo.jpg","true","0","80_20_practice",""
"","text-replacement","39","232807","0.0-19.0","10410853","wem/bandit_party_2","A2H0P2FI0JD5Y0","either","4","6657","","","32","","","","","","","","","","","","","","","","","","","","","","","","","","","","","","","","","","","","",""
"","bandit","40","236045","0.0-20.0-0.0","10410853","wem/bandit_party_2","A2H0P2FI0JD5Y0","either","4","1731","","","","","","","1","0","0","1","0","","","","","0","1","","","1","0","","","","","","","","","","","","74","J","0","img/none_selected_demo.jpg","true","0","",""
"","text-replacement","41","243556","0.0-21.0","10410853","wem/bandit_party_2","A2H0P2FI0JD5Y0","either","4","7508","","","32","","","","","","","","","","","","","","","","","","","","","","","","","","","","","","","","","","","","",""
"","text-replacement","42","246365","0.0-22.0","10410853","wem/bandit_party_2","A2H0P2FI0JD5Y0","either","4","2806","","","32","","","","","","","","","","","","","","","","","","","","","","","","","","","","","","","","","","","","",""
"","text-replacement","43","250263","0.0-23.0","10410853","wem/bandit_party_2","A2H0P2FI0JD5Y0","either","4","3896","","","32","","","","","","","","","","","","","","","","","","","","","","","","","","","","","","","","","","","","",""
"","text-replacement","44","254204","0.0-24.0","10410853","wem/bandit_party_2","A2H0P2FI0JD5Y0","either","4","3939","","","32","","","","","","","","","","","","","","","","","","","","","","","","","","","","","","","","","","","","",""
"","text-replacement","45","263438","0.0-25.0","10410853","wem/bandit_party_2","A2H0P2FI0JD5Y0","either","4","9231","","","32","","","","","","","","","","","","","","","","","","","","","","","","","","","","","","","","","","","","",""
"","text-replacement","46","267818","0.0-26.0","10410853","wem/bandit_party_2","A2H0P2FI0JD5Y0","either","4","4378","","","32","","","","","","","","","","","","","","","","","","","","","","","","","","","","","","","","","","","","",""
"","text-replacement","47","272592","0.0-27.0","10410853","wem/bandit_party_2","A2H0P2FI0JD5Y0","either","4","4771","","","32","","","","","","","","","","","","","","","","","","","","","","","","","","","","","","","","","","","","",""
"","text-replacement","48","276940","0.0-28.0","10410853","wem/bandit_party_2","A2H0P2FI0JD5Y0","either","4","4346","","","32","","","","","","","","","","","","","","","","","","","","","","","","","","","","","","","","","","","","",""
"","text-replacement","49","282513","0.0-29.0","10410853","wem/bandit_party_2","A2H0P2FI0JD5Y0","either","4","5570","","","32","","","","","","","","","","","","","","","","","","","","","","","","","","","","","","","","","","","","",""
"","text-replacement","50","285497","0.0-30.0","10410853","wem/bandit_party_2","A2H0P2FI0JD5Y0","either","4","2982","","","32","","","","","","","","","","","","","","","","","","","","","","","","","","","","","","","","","","","","",""
"","text-replacement","51","288154","0.0-31.0","10410853","wem/bandit_party_2","A2H0P2FI0JD5Y0","either","4","2654","","","32","","","","","","","","","","","","","","","","","","","","","","","","","","","","","","","","","","","","",""
"","bandit","52","292544","0.0-32.0-0.0","10410853","wem/bandit_party_2","A2H0P2FI0JD5Y0","either","4","2884","","","","","","","1","0","0","0.8","","0.5","0.5","0.5","0.5","","","","","0.8","0.2","0.6","0.2","","","","","","","","","","72","H","0","img/none_selected.jpg","true","0","full_practice",""
"","bandit","53","294624","0.0-32.0-1.0","10410853","wem/bandit_party_2","A2H0P2FI0JD5Y0","either","4","572","","","","","","","1","0","0","0.8","","0.5","0.5","0.5","0.5","","","","","0.8","0.2","0.6","0.2","","","","","","","","","","72","H","0","img/none_selected.jpg","true","0","full_practice",""
"","bandit","54","296527","0.0-32.0-2.0","10410853","wem/bandit_party_2","A2H0P2FI0JD5Y0","either","4","395","","","","","","","0","1","0","","0.8","0.5","0.5","0.5","0.5","0.8","0.2","0.6","0.2","","","","","","","","","","","","","","72","H","0","img/none_selected.jpg","true","0","full_practice",""
"","bandit","55","298378","0.0-32.0-3.0","10410853","wem/bandit_party_2","A2H0P2FI0JD5Y0","either","4","343","","","","","","","1","0","0","0.8","","0.5","0.5","0.5","0.5","","","","","0.8","0.2","0.6","0.2","","","","","","","","","","72","H","0","img/none_selected.jpg","true","0","full_practice",""
"","bandit","56","300254","0.0-32.0-4.0","10410853","wem/bandit_party_2","A2H0P2FI0JD5Y0","either","4","369","","","","","","","0","0","1","0.8","","0.5","0.5","0.5","0.5","","","","","0.8","0.2","0.6","0.2","","","","","","","","","","72","H","0","img/none_selected.jpg","true","0","full_practice",""
"","bandit","57","302102","0.0-32.0-5.0","10410853","wem/bandit_party_2","A2H0P2FI0JD5Y0","either","4","342","","","","","","","0","0","1","","0.8","0.5","0.5","0.5","0.5","0.8","0.2","0.6","0.2","","","","","","","","","","","","","","72","H","0","img/none_selected.jpg","true","0","full_practice",""
"","bandit","58","304351","0.0-32.0-6.0","10410853","wem/bandit_party_2","A2H0P2FI0JD5Y0","either","4","742","","","","","","","0","0","1","","0.2","0.5","0.5","0.5","0.5","0.8","0.2","0.6","0.2","","","","","","","","","","","","","","74","J","1","","true","0","full_practice",""
"","bandit","59","306448","0.0-32.0-7.0","10410853","wem/bandit_party_2","A2H0P2FI0JD5Y0","either","4","591","","","","","","","0","0","1","","0.6","0.5","0.5","0.5","0.5","0.8","0.2","0.6","0.2","","","","","","","","","","","","","","75","K","2","","true","0","full_practice",""
"","bandit","60","308273","0.0-32.0-8.0","10410853","wem/bandit_party_2","A2H0P2FI0JD5Y0","either","4","318","","","","","","","0","0","1","0.2","","0.5","0.5","0.5","0.5","","","","","0.8","0.2","0.6","0.2","","","","","","","","","","76","L","3","","true","0","full_practice",""
"","bandit","61","309937","0.0-32.0-9.0","10410853","wem/bandit_party_2","A2H0P2FI0JD5Y0","either","4","157","","","","","","","0","1","0","","0.8","0.5","0.5","0.5","0.5","0.8","0.2","0.6","0.2","","","","","","","","","","","","","","72","H","0","img/none_selected.jpg","true","0","full_practice",""
"","bandit","62","311716","0.0-32.0-10.0","10410853","wem/bandit_party_2","A2H0P2FI0JD5Y0","either","4","272","","","","","","","0","1","0","","0.8","0.5","0.5","0.5","0.5","0.8","0.2","0.6","0.2","","","","","","","","","","","","","","72","H","0","img/none_selected.jpg","true","0","full_practice",""
"","bandit","63","313495","0.0-32.0-11.0","10410853","wem/bandit_party_2","A2H0P2FI0JD5Y0","either","4","273","","","","","","","1","0","0","0.8","","0.5","0.5","0.5","0.5","","","","","0.8","0.2","0.6","0.2","","","","","","","","","","72","H","0","img/none_selected.jpg","true","0","full_practice",""
"","bandit","64","315315","0.0-32.0-12.0","10410853","wem/bandit_party_2","A2H0P2FI0JD5Y0","either","4","314","","","","","","","0","0","1","0.8","","0.5","0.5","0.5","0.5","","","","","0.8","0.2","0.6","0.2","","","","","","","","","","72","H","0","img/none_selected.jpg","true","0","full_practice",""
"","bandit","65","317146","0.0-32.0-13.0","10410853","wem/bandit_party_2","A2H0P2FI0JD5Y0","either","4","324","","","","","","","0","1","0","","0.8","0.5","0.5","0.5","0.5","0.8","0.2","0.6","0.2","","","","","","","","","","","","","","72","H","0","img/none_selected.jpg","true","0","full_practice",""
"","bandit","66","318978","0.0-32.0-14.0","10410853","wem/bandit_party_2","A2H0P2FI0JD5Y0","either","4","325","","","","","","","0","0","1","","0.8","0.5","0.5","0.5","0.5","0.8","0.2","0.6","0.2","","","","","","","","","","","","","","72","H","0","img/none_selected.jpg","true","0","full_practice",""
"","bandit","67","320819","0.0-32.0-15.0","10410853","wem/bandit_party_2","A2H0P2FI0JD5Y0","either","4","336","","","","","","","0","0","1","0.8","","0.5","0.5","0.5","0.5","","","","","0.8","0.2","0.6","0.2","","","","","","","","","","72","H","0","img/none_selected.jpg","true","0","full_practice",""
"","bandit","68","322608","0.0-32.0-16.0","10410853","wem/bandit_party_2","A2H0P2FI0JD5Y0","either","4","283","","","","","","","1","0","0","0.8","","0.5","0.5","0.5","0.5","","","","","0.8","0.2","0.6","0.2","","","","","","","","","","72","H","0","img/none_selected.jpg","true","0","full_practice",""
"","bandit","69","324381","0.0-32.0-17.0","10410853","wem/bandit_party_2","A2H0P2FI0JD5Y0","either","4","268","","","","","","","0","0","1","","0.2","0.5","0.5","0.5","0.5","0.8","0.2","0.6","0.2","","","","","","","","","","","","","","74","J","1","","true","0","full_practice",""
"","bandit","70","326075","0.0-32.0-18.0","10410853","wem/bandit_party_2","A2H0P2FI0JD5Y0","either","4","184","","","","","","","0","0","1","","0.8","0.5","0.5","0.5","0.5","0.8","0.2","0.6","0.2","","","","","","","","","","","","","","72","H","0","img/none_selected.jpg","true","0","full_practice",""
"","bandit","71","328102","0.0-32.0-19.0","10410853","wem/bandit_party_2","A2H0P2FI0JD5Y0","either","4","518","","","","","","","0","1","0","","0.6","0.5","0.5","0.5","0.5","0.8","0.2","0.6","0.2","","","","","","","","","","","","","","75","K","2","","true","0","full_practice",""
"","text","72","332443","0.0-33.0","10410853","wem/bandit_party_2","A2H0P2FI0JD5Y0","either","4","4333","","","32","","","","","","","","","","","","","","","","","","","","","","","","","","","","","","","","","","","","",""
"","text-replacement","73","347729","0.0-34.0","10410853","wem/bandit_party_2","A2H0P2FI0JD5Y0","either","4","14282","","","32","","","","","","","","","","","","","","","","","","","","","","","","","","","","","","","","","","","","",""
"","text-replacement","74","362131","0.0-35.0","10410853","wem/bandit_party_2","A2H0P2FI0JD5Y0","either","4","14399","","","32","","","","","","","","","","","","","","","","","","","","","","","","","","","","","","","","","","","","",""
"","text-replacement","75","368003","0.0-36.0","10410853","wem/bandit_party_2","A2H0P2FI0JD5Y0","either","4","5870","","","32","","","","","","","","","","","","","","","","","","","","","","","","","","","","","","","","","","","","",""
"","text-replacement","76","376351","0.0-37.0","10410853","wem/bandit_party_2","A2H0P2FI0JD5Y0","either","4","8345","","","32","","","","","","","","","","","","","","","","","","","","","","","","","","","","","","","","","","","","",""
"","text-replacement","77","395773","0.0-38.0","10410853","wem/bandit_party_2","A2H0P2FI0JD5Y0","either","4","19419","","","32","","","","","","","","","","","","","","","","","","","","","","","","","","","","","","","","","","","","",""
"","survey-multi-choice-replacement","78","404972","0.0-39.0-0.0","10410853","wem/bandit_party_2","A2H0P2FI0JD5Y0","either","4","9189","","","","","","","","","","","","","","","","","","","","","","","","Money will be added to the pool for <span style='color:red;'>REPUBLICANS</span>","","","","","","","attn_check","","","","","","","","","0"
"","survey-multi-choice-replacement","79","411932","0.0-40.0-0.0","10410853","wem/bandit_party_2","A2H0P2FI0JD5Y0","either","4","5948","","","","","","","","","","","","","","","","","","","","","","","","Equal amounts of money will be added to the pool for <span style='color:red;'>REPUBLICANS</span> and subtracted from the pool for <span style='color:blue;'>DEMOCRATS</span>","","","","","","","attn_check","","","","","","","","","2"
"","survey-multi-choice-replacement","80","416719","0.0-41.0-0.0","10410853","wem/bandit_party_2","A2H0P2FI0JD5Y0","either","4","3774","","","","","","","","","","","","","","","","","","","","","","","","No money will be added to either pool","","","","","","","attn_check","","","","","","","","","3"
"","bandit","81","424871","0.0-42.0-0.0","10410853","wem/bandit_party_2","A2H0P2FI0JD5Y0","either","4","5642","","","","","","","1","0","0","0.8209843215","","0.2","0.4","0.8","0.6","","","","","0.8209843215","0.2887693562","0.7267404998","0.9858900825","","","","","","","","","","72","H","0","img/none_selected.jpg","","1","main_expt",""
"","bandit","82","426817","0.0-43.0-0.0","10410853","wem/bandit_party_2","A2H0P2FI0JD5Y0","either","4","436","","","","","","","0","1","0","","0.8179122382","0.2","0.4","0.8","0.6","0.8179122382","0.2986217167","0.7034907646","0.9854924354","","","","","","","","","","","","","","72","H","0","img/none_selected.jpg","","2","main_expt",""
"","bandit","83","428681","0.0-44.0-0.0","10410853","wem/bandit_party_2","A2H0P2FI0JD5Y0","either","4","358","","","","","","","0","0","1","","0.8301291561","0.2","0.4","0.8","0.6","0.8301291561","0.261346942","0.6574847675","0.9789624529","","","","","","","","","","","","","","72","H","0","img/none_selected.jpg","","3","main_expt",""
"","bandit","84","430504","0.0-45.0-0.0","10410853","wem/bandit_party_2","A2H0P2FI0JD5Y0","either","4","317","","","","","","","0","0","1","0.8219157537","","0.2","0.4","0.8","0.6","","","","","0.8219157537","0.2757740293","0.5092805277","0.9565345184","","","","","","","","","","72","H","0","img/none_selected.jpg","","4","main_expt",""
"","bandit","85","432352","0.0-46.0-0.0","10410853","wem/bandit_party_2","A2H0P2FI0JD5Y0","either","4","340","","","","","","","0","1","0","","0.7759220463","0.2","0.4","0.8","0.6","0.7759220463","0.3329857669","0.5952926025","0.941194936","","","","","","","","","","","","","","72","H","0","img/none_selected.jpg","","5","main_expt",""
"","bandit","86","434471","0.0-47.0-0.0","10410853","wem/bandit_party_2","A2H0P2FI0JD5Y0","either","4","613","","","","","","","0","1","0","","0.7495930044","0.2","0.4","0.8","0.6","0.7495930044","0.331878758","0.6160758637","0.9305219143","","","","","","","","","","","","","","72","H","0","img/none_selected.jpg","","6","main_expt",""
"","bandit","87","436553","0.0-48.0-0.0","10410853","wem/bandit_party_2","A2H0P2FI0JD5Y0","either","4","576","","","","","","","0","0","1","","0.7078030286","0.2","0.4","0.8","0.6","0.7078030286","0.3863389794","0.6381806331","0.937738562","","","","","","","","","","","","","","72","H","0","img/none_selected.jpg","","7","main_expt",""
"","bandit","88","438541","0.0-49.0-0.0","10410853","wem/bandit_party_2","A2H0P2FI0JD5Y0","either","4","481","","","","","","","0","0","1","","0.689407674","0.2","0.4","0.8","0.6","0.689407674","0.4242016385","0.7047831713","0.8269671957","","","","","","","","","","","","","","72","H","0","img/none_selected.jpg","","8","main_expt",""
"","bandit","89","440414","0.0-50.0-0.0","10410853","wem/bandit_party_2","A2H0P2FI0JD5Y0","either","4","362","","","","","","","0","1","0","","0.7848236408","0.2","0.4","0.8","0.6","0.7848236408","0.379169242","0.6222923336","0.7696709776","","","","","","","","","","","","","","72","H","0","img/none_selected.jpg","","9","main_expt",""
"","bandit","90","442269","0.0-51.0-0.0","10410853","wem/bandit_party_2","A2H0P2FI0JD5Y0","either","4","348","","","","","","","0","1","0","","0.791363481","0.2","0.4","0.8","0.6","0.791363481","0.40569916","0.5629201009","0.7313552403","","","","","","","","","","","","","","72","H","0","img/none_selected.jpg","","10","main_expt",""
"","bandit","91","444071","0.0-52.0-0.0","10410853","wem/bandit_party_2","A2H0P2FI0JD5Y0","either","4","292","","","","","","","0","1","0","","0.7800632456","0.2","0.4","0.8","0.6","0.7800632456","0.4188021694","0.644159789","0.8129169819","","","","","","","","","","","","","","72","H","0","img/none_selected.jpg","","11","main_expt",""
"","bandit","92","445852","0.0-53.0-0.0","10410853","wem/bandit_party_2","A2H0P2FI0JD5Y0","either","4","276","","","","","","","1","0","0","0.7559884596","","0.2","0.4","0.8","0.6","","","","","0.7559884596","0.3689559917","0.6840372722","0.7611571711","","","","","","","","","","72","H","0","img/none_selected.jpg","","12","main_expt",""
"","bandit","93","447621","0.0-54.0-0.0","10410853","wem/bandit_party_2","A2H0P2FI0JD5Y0","either","4","260","","","","","","","0","0","1","","0.7695577991","0.2","0.4","0.8","0.6","0.7695577991","0.4584943612","0.6236151953","0.7628417147","","","","","","","","","","","","","","72","H","0","img/none_selected.jpg","","13","main_expt",""
"","bandit","94","449307","0.0-55.0-0.0","10410853","wem/bandit_party_2","A2H0P2FI0JD5Y0","either","4","177","","","","","","","0","1","0","","0.8509931145","0.2","0.4","0.8","0.6","0.8509931145","0.455083938","0.5388331182","0.7436451733","","","","","","","","","","","","","","72","H","0","img/none_selected.jpg","","14","main_expt",""
"","bandit","95","451118","0.0-56.0-0.0","10410853","wem/bandit_party_2","A2H0P2FI0JD5Y0","either","4","303","","","","","","","0","1","0","","0.7745856811","0.2","0.4","0.8","0.6","0.7745856811","0.5360112786","0.4802769188","0.8256008488","","","","","","","","","","","","","","72","H","0","img/none_selected.jpg","","15","main_expt",""
"","bandit","96","453009","0.0-57.0-0.0","10410853","wem/bandit_party_2","A2H0P2FI0JD5Y0","either","4","385","","","","","","","1","0","0","0.7576521113","","0.2","0.4","0.8","0.6","","","","","0.7576521113","0.4791571541","0.4688000192","0.7683027423","","","","","","","","","","72","H","0","img/none_selected.jpg","","16","main_expt",""
"","bandit","97","454789","0.0-58.0-0.0","10410853","wem/bandit_party_2","A2H0P2FI0JD5Y0","either","4","270","","","","","","","1","0","0","0.8099558365","","0.2","0.4","0.8","0.6","","","","","0.8099558365","0.5263630166","0.6000602573","0.7857675768","","","","","","","","","","72","H","0","img/none_selected.jpg","","17","main_expt",""
"","bandit","98","456549","0.0-59.0-0.0","10410853","wem/bandit_party_2","A2H0P2FI0JD5Y0","either","4","248","","","","","","","0","1","0","","0.7535280451","0.2","0.4","0.8","0.6","0.7535280451","0.543945959","0.6046592687","0.7303419725","","","","","","","","","","","","","","72","H","0","img/none_selected.jpg","","18","main_expt",""
"","bandit","99","458363","0.0-60.0-0.0","10410853","wem/bandit_party_2","A2H0P2FI0JD5Y0","either","4","307","","","","","","","0","1","0","","0.7206444799","0.2","0.4","0.8","0.6","0.7206444799","0.4579801682","0.6177236116","0.7243255268","","","","","","","","","","","","","","72","H","0","img/none_selected.jpg","","19","main_expt",""
"","bandit","100","460149","0.0-61.0-0.0","10410853","wem/bandit_party_2","A2H0P2FI0JD5Y0","either","4","279","","","","","","","0","0","1","","0.6388551968","0.2","0.4","0.8","0.6","0.6388551968","0.5439896582","0.5484637992","0.7691283854","","","","","","","","","","","","","","72","H","0","img/none_selected.jpg","","20","main_expt",""
"","bandit","101","461989","0.0-62.0-0.0","10410853","wem/bandit_party_2","A2H0P2FI0JD5Y0","either","4","333","","","","","","","0","0","1","0.4956822649","","0.2","0.4","0.8","0.6","","","","","0.4956822649","0.5796019833","0.6646151354","0.7068464658","","","","","","","","","","72","H","0","img/none_selected.jpg","","21","main_expt",""
"","bandit","102","463858","0.0-63.0-0.0","10410853","wem/bandit_party_2","A2H0P2FI0JD5Y0","either","4","360","","","","","","","0","0","1","","0.4316307404","0.2","0.4","0.8","0.6","0.4316307404","0.5885929095","0.7223938077","0.7407239748","","","","","","","","","","","","","","72","H","0","img/none_selected.jpg","","22","main_expt",""
"","bandit","103","465963","0.0-64.0-0.0","10410853","wem/bandit_party_2","A2H0P2FI0JD5Y0","either","4","598","","","","","","","0","1","0","","0.4899642796","0.2","0.4","0.8","0.6","0.4158022912","0.4899642796","0.7548690184","0.7300920021","","","","","","","","","","","","","","74","J","1","","","23","main_expt",""
"","bandit","104","467790","0.0-65.0-0.0","10410853","wem/bandit_party_2","A2H0P2FI0JD5Y0","either","4","321","","","","","","","0","0","1","0.4984159311","","0.2","0.4","0.8","0.6","","","","","0.4099928258","0.4984159311","0.7794954679","0.7074307303","","","","","","","","","","74","J","1","","","24","main_expt",""
"","bandit","105","469686","0.0-66.0-0.0","10410853","wem/bandit_party_2","A2H0P2FI0JD5Y0","either","4","389","","","","","","","0","1","0","","0.5885503773","0.2","0.4","0.8","0.6","0.4303724308","0.5885503773","0.8029664172","0.6228099684","","","","","","","","","","","","","","74","J","1","","","25","main_expt",""
"","bandit","106","471561","0.0-67.0-0.0","10410853","wem/bandit_party_2","A2H0P2FI0JD5Y0","either","4","367","","","","","","","0","0","1","","0.6978100054","0.2","0.4","0.8","0.6","0.3291624114","0.6978100054","0.6980766755","0.5588879168","","","","","","","","","","","","","","74","J","1","","","26","main_expt",""
"","bandit","107","473386","0.0-68.0-0.0","10410853","wem/bandit_party_2","A2H0P2FI0JD5Y0","either","4","318","","","","","","","1","0","0","0.6442468271","","0.2","0.4","0.8","0.6","","","","","0.3795789415","0.6442468271","0.7021498626","0.5033257713","","","","","","","","","","74","J","1","","","27","main_expt",""
"","bandit","108","475247","0.0-69.0-0.0","10410853","wem/bandit_party_2","A2H0P2FI0JD5Y0","either","4","352","","","","","","","0","0","1","","0.7399213538","0.2","0.4","0.8","0.6","0.3208573938","0.7399213538","0.7802436781","0.4915102133","","","","","","","","","","","","","","74","J","1","","","28","main_expt",""
"","bandit","109","477046","0.0-70.0-0.0","10410853","wem/bandit_party_2","A2H0P2FI0JD5Y0","either","4","291","","","","","","","0","1","0","","0.7520253205","0.2","0.4","0.8","0.6","0.3352919619","0.7520253205","0.6907923131","0.4291187576","","","","","","","","","","","","","","74","J","1","","","29","main_expt",""
"","bandit","110","478830","0.0-71.0-0.0","10410853","wem/bandit_party_2","A2H0P2FI0JD5Y0","either","4","275","","","","","","","0","1","0","","0.7528469829","0.2","0.4","0.8","0.6","0.3452717309","0.7528469829","0.6771306444","0.5379907803","","","","","","","","","","","","","","74","J","1","","","30","main_expt",""
"","bandit","111","480652","0.0-72.0-0.0","10410853","wem/bandit_party_2","A2H0P2FI0JD5Y0","either","4","314","","","","","","","0","1","0","","0.7571908429","0.2","0.4","0.8","0.6","0.2967094522","0.7571908429","0.7130915948","0.646046857","","","","","","","","","","","","","","74","J","1","","","31","main_expt",""
"","bandit","112","482395","0.0-73.0-0.0","10410853","wem/bandit_party_2","A2H0P2FI0JD5Y0","either","4","235","","","","","","","1","0","0","0.7530934884","","0.2","0.4","0.8","0.6","","","","","0.255781972","0.7530934884","0.6849190202","0.5608885347","","","","","","","","","","74","J","1","","","32","main_expt",""
"","bandit","113","484175","0.0-74.0-0.0","10410853","wem/bandit_party_2","A2H0P2FI0JD5Y0","either","4","272","","","","","","","0","1","0","","0.7163673585","0.2","0.4","0.8","0.6","0.2703771925","0.7163673585","0.7392612035","0.5952322697","","","","","","","","","","","","","","74","J","1","","","33","main_expt",""
"","bandit","114","485971","0.0-75.0-0.0","10410853","wem/bandit_party_2","A2H0P2FI0JD5Y0","either","4","285","","","","","","","0","0","1","","0.6817248107","0.2","0.4","0.8","0.6","0.3572673824","0.6817248107","0.7026009082","0.6206609301","","","","","","","","","","","","","","74","J","1","","","34","main_expt",""
"","bandit","115","487804","0.0-76.0-0.0","10410853","wem/bandit_party_2","A2H0P2FI0JD5Y0","either","4","322","","","","","","","0","0","1","0.6903641832","","0.2","0.4","0.8","0.6","","","","","0.3237575066","0.6903641832","0.632003728","0.6223058769","","","","","","","","","","74","J","1","","","35","main_expt",""
"","bandit","116","489632","0.0-77.0-0.0","10410853","wem/bandit_party_2","A2H0P2FI0JD5Y0","either","4","320","","","","","","","1","0","0","0.6953747248","","0.2","0.4","0.8","0.6","","","","","0.3724209237","0.6953747248","0.7266912659","0.7304722347","","","","","","","","","","74","J","1","","","36","main_expt",""
"","bandit","117","491421","0.0-78.0-0.0","10410853","wem/bandit_party_2","A2H0P2FI0JD5Y0","either","4","280","","","","","","","0","0","1","0.7552078918","","0.2","0.4","0.8","0.6","","","","","0.3848591071","0.7552078918","0.5512211225","0.6789706255","","","","","","","","","","74","J","1","","","37","main_expt",""
"","bandit","118","493258","0.0-79.0-0.0","10410853","wem/bandit_party_2","A2H0P2FI0JD5Y0","either","4","329","","","","","","","0","0","1","0.7095976639","","0.2","0.4","0.8","0.6","","","","","0.4026628424","0.7095976639","0.5888446875","0.6758320082","","","","","","","","","","74","J","1","","","38","main_expt",""
"","bandit","119","495083","0.0-80.0-0.0","10410853","wem/bandit_party_2","A2H0P2FI0JD5Y0","either","4","316","","","","","","","1","0","0","0.7813817897","","0.2","0.4","0.8","0.6","","","","","0.460229008","0.7813817897","0.7349010221","0.753286291","","","","","","","","","","74","J","1","","","39","main_expt",""
"","bandit","120","496873","0.0-81.0-0.0","10410853","wem/bandit_party_2","A2H0P2FI0JD5Y0","either","4","281","","","","","","","0","1","0","","0.7604460558","0.2","0.4","0.8","0.6","0.3392787789","0.7604460558","0.6715391024","0.7527041006","","","","","","","","","","","","","","74","J","1","","","40","main_expt",""
"","bandit","121","498680","0.0-82.0-0.0","10410853","wem/bandit_party_2","A2H0P2FI0JD5Y0","either","4","298","","","","","","","1","0","0","0.7588214983","","0.2","0.4","0.8","0.6","","","","","0.2983701942","0.7588214983","0.688235262","0.7900808451","","","","","","","","","","74","J","1","","","41","main_expt",""
"","bandit","122","500538","0.0-83.0-0.0","10410853","wem/bandit_party_2","A2H0P2FI0JD5Y0","either","4","350","","","","","","","1","0","0","0.8204813903","","0.2","0.4","0.8","0.6","","","","","0.2390858253","0.8204813903","0.750516412","0.7261157662","","","","","","","","","","74","J","1","","","42","main_expt",""
"","bandit","123","502282","0.0-84.0-0.0","10410853","wem/bandit_party_2","A2H0P2FI0JD5Y0","either","4","235","","","","","","","0","1","0","","0.8310219988","0.2","0.4","0.8","0.6","0.1877526289","0.8310219988","0.775378891","0.772887471","","","","","","","","","","","","","","74","J","1","","","43","main_expt",""
"","bandit","124","504023","0.0-85.0-0.0","10410853","wem/bandit_party_2","A2H0P2FI0JD5Y0","either","4","232","","","","","","","0","1","0","","0.8165903167","0.2","0.4","0.8","0.6","0.2713877418","0.8165903167","0.5983035632","0.7359848823","","","","","","","","","","","","","","74","J","1","","","44","main_expt",""
"","bandit","125","505683","0.0-86.0-0.0","10410853","wem/bandit_party_2","A2H0P2FI0JD5Y0","either","4","151","","","","","","","0","0","1","","0.6765015189","0.2","0.4","0.8","0.6","0.2600408605","0.6765015189","0.6453890447","0.6223954065","","","","","","","","","","","","","","74","J","1","","","45","main_expt",""
"","bandit","126","507420","0.0-87.0-0.0","10410853","wem/bandit_party_2","A2H0P2FI0JD5Y0","either","4","229","","","","","","","0","0","1","","0.6613510417","0.2","0.4","0.8","0.6","0.2435580982","0.6613510417","0.4979639723","0.5963379238","","","","","","","","","","","","","","74","J","1","","","46","main_expt",""
"","bandit","127","509165","0.0-88.0-0.0","10410853","wem/bandit_party_2","A2H0P2FI0JD5Y0","either","4","236","","","","","","","0","1","0","","0.7373034573","0.2","0.4","0.8","0.6","0.3258971046","0.7373034573","0.4475739324","0.6161308884","","","","","","","","","","","","","","74","J","1","","","47","main_expt",""
"","bandit","128","510960","0.0-89.0-0.0","10410853","wem/bandit_party_2","A2H0P2FI0JD5Y0","either","4","287","","","","","","","1","0","0","0.6580913366","","0.2","0.4","0.8","0.6","","","","","0.2934977076","0.6580913366","0.570942939","0.6354722558","","","","","","","","","","74","J","1","","","48","main_expt",""
"","bandit","129","512822","0.0-90.0-0.0","10410853","wem/bandit_party_2","A2H0P2FI0JD5Y0","either","4","354","","","","","","","0","0","1","","0.6518545324","0.2","0.4","0.8","0.6","0.3381222087","0.6518545324","0.5943858444","0.5941747261","","","","","","","","","","","","","","74","J","1","","","49","main_expt",""
"","bandit","130","514694","0.0-91.0-0.0","10410853","wem/bandit_party_2","A2H0P2FI0JD5Y0","either","4","364","","","","","","","0","1","0","","0.6362385309","0.2","0.4","0.8","0.6","0.4149653651","0.6362385309","0.72156704","0.5510631732","","","","","","","","","","","","","","74","J","1","","","50","main_expt",""
"","bandit","131","516459","0.0-92.0-0.0","10410853","wem/bandit_party_2","A2H0P2FI0JD5Y0","either","4","255","","","","","","","0","1","0","","0.6673370403","0.2","0.4","0.8","0.6","0.315936401","0.6673370403","0.6453884322","0.5580995271","","","","","","","","","","","","","","74","J","1","","","51","main_expt",""
"","bandit","132","518177","0.0-93.0-0.0","10410853","wem/bandit_party_2","A2H0P2FI0JD5Y0","either","4","210","","","","","","","0","0","1","","0.6614759556","0.2","0.4","0.8","0.6","0.34776451","0.6614759556","0.635653338","0.4492126091","","","","","","","","","","","","","","74","J","1","","","52","main_expt",""
"","bandit","133","520158","0.0-94.0-0.0","10410853","wem/bandit_party_2","A2H0P2FI0JD5Y0","either","4","473","","","","","","","0","0","1","","0.2946288454","0.2","0.4","0.8","0.6","0.2946288454","0.5099009019","0.5700640027","0.4600129001","","","","","","","","","","","","","","72","H","0","img/none_selected.jpg","","53","main_expt",""
"","bandit","134","523118","0.0-95.0-0.0","10410853","wem/bandit_party_2","A2H0P2FI0JD5Y0","either","4","1452","","","","","","","0","0","1","0.3757560715","","0.2","0.4","0.8","0.6","","","","","0.3757560715","0.5323874036","0.4535518587","0.4005354829","","","","","","","","","","72","H","0","img/none_selected.jpg","","54","main_expt",""
"","bandit","135","524996","0.0-96.0-0.0","10410853","wem/bandit_party_2","A2H0P2FI0JD5Y0","either","4","369","","","","","","","0","1","0","","0.3258455482","0.2","0.4","0.8","0.6","0.3258455482","0.5410243768","0.4271895083","0.3305694417","","","","","","","","","","","","","","72","H","0","img/none_selected.jpg","","55","main_expt",""
"","bandit","136","526849","0.0-97.0-0.0","10410853","wem/bandit_party_2","A2H0P2FI0JD5Y0","either","4","345","","","","","","","0","0","1","","0.4350401219","0.2","0.4","0.8","0.6","0.4350401219","0.5594159285","0.3506641683","0.3443449075","","","","","","","","","","","","","","72","H","0","img/none_selected.jpg","","56","main_expt",""
"","bandit","137","528603","0.0-98.0-0.0","10410853","wem/bandit_party_2","A2H0P2FI0JD5Y0","either","4","246","","","","","","","0","0","1","","0.5057935102","0.2","0.4","0.8","0.6","0.3707313189","0.5057935102","0.3266461122","0.3719720486","","","","","","","","","","","","","","74","J","1","","","57","main_expt",""
"","bandit","138","530461","0.0-99.0-0.0","10410853","wem/bandit_party_2","A2H0P2FI0JD5Y0","either","4","350","","","","","","","0","1","0","","0.4921421838","0.2","0.4","0.8","0.6","0.5588799977","0.4921421838","0.3024401834","0.2230753252","","","","","","","","","","","","","","74","J","1","","","58","main_expt",""
"","bandit","139","532618","0.0-100.0-0.0","10410853","wem/bandit_party_2","A2H0P2FI0JD5Y0","either","4","648","","","","","","","0","0","1","","0.4306619987","0.2","0.4","0.8","0.6","0.6863198467","0.4740341295","0.4306619987","0.2255195526","","","","","","","","","","","","","","75","K","2","","","59","main_expt",""
"","bandit","140","534518","0.0-101.0-0.0","10410853","wem/bandit_party_2","A2H0P2FI0JD5Y0","either","4","390","","","","","","","0","0","1","","0.2150487889","0.2","0.4","0.8","0.6","0.6998437478","0.4853159436","0.4710521126","0.2150487889","","","","","","","","","","","","","","76","L","3","","","60","main_expt",""
"","bandit","141","536643","0.0-102.0-0.0","10410853","wem/bandit_party_2","A2H0P2FI0JD5Y0","either","4","616","","","","","","","0","0","1","","0.4843563089","0.2","0.4","0.8","0.6","0.7027468204","0.4843563089","0.4797168847","0.2670703017","","","","","","","","","","","","","","74","J","1","","","61","main_expt",""
"","bandit","142","538444","0.0-103.0-0.0","10410853","wem/bandit_party_2","A2H0P2FI0JD5Y0","either","4","289","","","","","","","0","0","1","0.4970562682","","0.2","0.4","0.8","0.6","","","","","0.7461433662","0.4970562682","0.441351191","0.1622034337","","","","","","","","","","74","J","1","","","62","main_expt",""
"","bandit","143","540266","0.0-104.0-0.0","10410853","wem/bandit_party_2","A2H0P2FI0JD5Y0","either","4","312","","","","","","","0","1","0","","0.4870743105","0.2","0.4","0.8","0.6","0.7956877632","0.4870743105","0.6405696824","0.1872430185","","","","","","","","","","","","","","74","J","1","","","63","main_expt",""
"","bandit","144","542071","0.0-105.0-0.0","10410853","wem/bandit_party_2","A2H0P2FI0JD5Y0","either","4","295","","","","","","","0","0","1","0.5297884171","","0.2","0.4","0.8","0.6","","","","","0.7533911137","0.5297884171","0.5093225209","0.1921602407","","","","","","","","","","74","J","1","","","64","main_expt",""
"","bandit","145","543854","0.0-106.0-0.0","10410853","wem/bandit_party_2","A2H0P2FI0JD5Y0","either","4","274","","","","","","","0","0","1","","0.8407665504","0.2","0.4","0.8","0.6","0.8407665504","0.5510281753","0.5190422554","0.1747679693","","","","","","","","","","","","","","72","H","0","img/none_selected.jpg","","65","main_expt",""
"","bandit","146","545610","0.0-107.0-0.0","10410853","wem/bandit_party_2","A2H0P2FI0JD5Y0","either","4","249","","","","","","","0","0","1","0.4367989657","","0.2","0.4","0.8","0.6","","","","","0.8392190168","0.6548378986","0.4367989657","0.149475979","","","","","","","","","","75","K","2","","","66","main_expt",""
"","bandit","147","547376","0.0-108.0-0.0","10410853","wem/bandit_party_2","A2H0P2FI0JD5Y0","either","4","257","","","","","","","1","0","0","0.1340316754","","0.2","0.4","0.8","0.6","","","","","0.7998105719","0.7873643744","0.4515976155","0.1340316754","","","","","","","","","","76","L","3","","","67","main_expt",""
"","bandit","148","549209","0.0-109.0-0.0","10410853","wem/bandit_party_2","A2H0P2FI0JD5Y0","either","4","325","","","","","","","0","0","1","0.1635100664","","0.2","0.4","0.8","0.6","","","","","0.8055175736","0.8374830125","0.4605235732","0.1635100664","","","","","","","","","","76","L","3","","","68","main_expt",""
"","bandit","149","551022","0.0-110.0-0.0","10410853","wem/bandit_party_2","A2H0P2FI0JD5Y0","either","4","305","","","","","","","0","0","1","0.1227365859","","0.2","0.4","0.8","0.6","","","","","0.9157616325","0.7948054761","0.3799115548","0.1227365859","","","","","","","","","","76","L","3","","","69","main_expt",""
"","bandit","150","552813","0.0-111.0-0.0","10410853","wem/bandit_party_2","A2H0P2FI0JD5Y0","either","4","283","","","","","","","0","0","1","0.1248437045","","0.2","0.4","0.8","0.6","","","","","0.9575411193","0.8257183208","0.4215965018","0.1248437045","","","","","","","","","","76","L","3","","","70","main_expt",""
"","bandit","151","554723","0.0-112.0-0.0","10410853","wem/bandit_party_2","A2H0P2FI0JD5Y0","either","4","400","","","","","","","0","1","0","","0.7378076352","0.2","0.4","0.8","0.6","0.9604429572","0.7378076352","0.4069040491","0.1153860856","","","","","","","","","","","","","","74","J","1","","","71","main_expt",""
"","bandit","152","556498","0.0-113.0-0.0","10410853","wem/bandit_party_2","A2H0P2FI0JD5Y0","either","4","266","","","","","","","0","1","0","","0.7402058239","0.2","0.4","0.8","0.6","0.9598545795","0.7402058239","0.4396577013","0.1355011504","","","","","","","","","","","","","","74","J","1","","","72","main_expt",""
"","bandit","153","558292","0.0-114.0-0.0","10410853","wem/bandit_party_2","A2H0P2FI0JD5Y0","either","4","284","","","","","","","0","1","0","","0.6976791507","0.2","0.4","0.8","0.6","0.944667289","0.6976791507","0.6562772762","0.05996807606","","","","","","","","","","","","","","74","J","1","","","73","main_expt",""
"","bandit","154","560084","0.0-115.0-0.0","10410853","wem/bandit_party_2","A2H0P2FI0JD5Y0","either","4","284","","","","","","","0","1","0","","0.7918365236","0.2","0.4","0.8","0.6","0.9226304804","0.7918365236","0.6973429816","0.05405538329","","","","","","","","","","","","","","74","J","1","","","74","main_expt",""
"","bandit","155","561878","0.0-116.0-0.0","10410853","wem/bandit_party_2","A2H0P2FI0JD5Y0","either","4","285","","","","","","","1","0","0","0.7822783488","","0.2","0.4","0.8","0.6","","","","","0.9398646798","0.7822783488","0.7736122178","0.02989929625","","","","","","","","","","74","J","1","","","75","main_expt",""
"","bandit","156","563805","0.0-117.0-0.0","10410853","wem/bandit_party_2","A2H0P2FI0JD5Y0","either","4","418","","","","","","","1","0","0","0.7290889389","","0.2","0.4","0.8","0.6","","","","","0.9344412274","0.7290889389","0.8130420724","0.0563551135","","","","","","","","","","74","J","1","","","76","main_expt",""
"","bandit","157","565763","0.0-118.0-0.0","10410853","wem/bandit_party_2","A2H0P2FI0JD5Y0","either","4","448","","","","","","","0","1","0","","0.7903383215","0.2","0.4","0.8","0.6","0.9512527415","0.7903383215","0.8182773084","0.0510075381","","","","","","","","","","","","","","74","J","1","","","77","main_expt",""
"","bandit","158","567574","0.0-119.0-0.0","10410853","wem/bandit_party_2","A2H0P2FI0JD5Y0","either","4","303","","","","","","","0","1","0","","0.8093770606","0.2","0.4","0.8","0.6","0.945324638","0.8093770606","0.910984946","0.07280641377","","","","","","","","","","","","","","74","J","1","","","78","main_expt",""
"","bandit","159","569550","0.0-120.0-0.0","10410853","wem/bandit_party_2","A2H0P2FI0JD5Y0","either","4","466","","","","","","","1","0","0","0.7310189459","","0.2","0.4","0.8","0.6","","","","","0.9313693401","0.7310189459","0.9303795674","0.06591604593","","","","","","","","","","74","J","1","","","79","main_expt",""
"","bandit","160","571469","0.0-121.0-0.0","10410853","wem/bandit_party_2","A2H0P2FI0JD5Y0","either","4","410","","","","","","","0","1","0","","0.7915113188","0.2","0.4","0.8","0.6","0.9272018461","0.7915113188","0.9581515868","0.02790121052","","","","","","","","","","","","","","74","J","1","","","80","main_expt",""
"","bandit","161","573492","0.0-122.0-0.0","10410853","wem/bandit_party_2","A2H0P2FI0JD5Y0","either","4","514","","","","","","","0","1","0","","0.8463201033","0.2","0.4","0.8","0.6","0.9340165544","0.8463201033","0.9107397581","0.03997429631","","","","","","","","","","","","","","74","J","1","","","81","main_expt",""
"","bandit","162","575338","0.0-123.0-0.0","10410853","wem/bandit_party_2","A2H0P2FI0JD5Y0","either","4","338","","","","","","","1","0","0","0.9043915002","","0.2","0.4","0.8","0.6","","","","","0.9778602254","0.9043915002","0.9531247327","0.03692483048","","","","","","","","","","74","J","1","","","82","main_expt",""
"","bandit","163","577300","0.0-124.0-0.0","10410853","wem/bandit_party_2","A2H0P2FI0JD5Y0","either","4","452","","","","","","","0","1","0","","0.922294541","0.2","0.4","0.8","0.6","0.9593015187","0.922294541","0.91574064","0.04167024954","","","","","","","","","","","","","","74","J","1","","","83","main_expt",""
"","bandit","164","579232","0.0-125.0-0.0","10410853","wem/bandit_party_2","A2H0P2FI0JD5Y0","either","4","424","","","","","","","1","0","0","0.9079954767","","0.2","0.4","0.8","0.6","","","","","0.9398758864","0.9079954767","0.9287460716","0.03449326924","","","","","","","","","","74","J","1","","","84","main_expt",""
"","bandit","165","581063","0.0-126.0-0.0","10410853","wem/bandit_party_2","A2H0P2FI0JD5Y0","either","4","321","","","","","","","0","1","0","","0.92293493","0.2","0.4","0.8","0.6","0.9256746213","0.92293493","0.9817994773","0.07382848834","","","","","","","","","","","","","","74","J","1","","","85","main_expt",""
"","bandit","166","583378","0.0-127.0-0.0","10410853","wem/bandit_party_2","A2H0P2FI0JD5Y0","either","4","805","","","","","","","1","0","0","0.8831043051","","0.2","0.4","0.8","0.6","","","","","0.8910640916","0.8831043051","0.9651028603","0.08839198485","","","","","","","","","","74","J","1","","","86","main_expt",""
"","bandit","167","585204","0.0-128.0-0.0","10410853","wem/bandit_party_2","A2H0P2FI0JD5Y0","either","4","317","","","","","","","0","1","0","","0.876749115","0.2","0.4","0.8","0.6","0.8729480744","0.876749115","0.9364705545","0.08767612821","","","","","","","","","","","","","","74","J","1","","","87","main_expt",""
"","bandit","168","587045","0.0-129.0-0.0","10410853","wem/bandit_party_2","A2H0P2FI0JD5Y0","either","4","331","","","","","","","0","1","0","","0.9189432589","0.2","0.4","0.8","0.6","0.8780151739","0.9189432589","0.9235767634","0.1606359608","","","","","","","","","","","","","","74","J","1","","","88","main_expt",""
"","bandit","169","588919","0.0-130.0-0.0","10410853","wem/bandit_party_2","A2H0P2FI0JD5Y0","either","4","366","","","","","","","1","0","0","0.8770582065","","0.2","0.4","0.8","0.6","","","","","0.8856980863","0.8770582065","0.9375107972","0.2051996915","","","","","","","","","","74","J","1","","","89","main_expt",""
"","bandit","170","590716","0.0-131.0-0.0","10410853","wem/bandit_party_2","A2H0P2FI0JD5Y0","either","4","288","","","","","","","1","0","0","0.9303780437","","0.2","0.4","0.8","0.6","","","","","0.8828292745","0.9303780437","0.9201099193","0.1757431166","","","","","","","","","","74","J","1","","","90","main_expt",""
"","bandit","171","592529","0.0-132.0-0.0","10410853","wem/bandit_party_2","A2H0P2FI0JD5Y0","either","4","303","","","","","","","1","0","0","0.8870296602","","0.2","0.4","0.8","0.6","","","","","0.9016480115","0.8870296602","0.9416722714","0.3470073597","","","","","","","","","","74","J","1","","","91","main_expt",""
"","bandit","172","594351","0.0-133.0-0.0","10410853","wem/bandit_party_2","A2H0P2FI0JD5Y0","either","4","314","","","","","","","0","1","0","","0.8466670433","0.2","0.4","0.8","0.6","0.9077272713","0.8466670433","0.943817784","0.4969118024","","","","","","","","","","","","","","74","J","1","","","92","main_expt",""
"","bandit","173","596176","0.0-134.0-0.0","10410853","wem/bandit_party_2","A2H0P2FI0JD5Y0","either","4","315","","","","","","","0","1","0","","0.850017275","0.2","0.4","0.8","0.6","0.875936713","0.850017275","0.9078517942","0.5773598144","","","","","","","","","","","","","","74","J","1","","","93","main_expt",""
"","bandit","174","597973","0.0-135.0-0.0","10410853","wem/bandit_party_2","A2H0P2FI0JD5Y0","either","4","285","","","","","","","0","0","1","","0.6893652978","0.2","0.4","0.8","0.6","0.8089346838","0.6893652978","0.8983200186","0.5513550223","","","","","","","","","","","","","","74","J","1","","","94","main_expt",""
"","bandit","175","599751","0.0-136.0-0.0","10410853","wem/bandit_party_2","A2H0P2FI0JD5Y0","either","4","269","","","","","","","0","1","0","","0.6025630118","0.2","0.4","0.8","0.6","0.7472177953","0.6025630118","0.8744309931","0.5461825447","","","","","","","","","","","","","","74","J","1","","","95","main_expt",""
"","bandit","176","601575","0.0-137.0-0.0","10410853","wem/bandit_party_2","A2H0P2FI0JD5Y0","either","4","315","","","","","","","0","0","1","","0.5565182624","0.2","0.4","0.8","0.6","0.631257407","0.5565182624","0.8894212924","0.5564841108","","","","","","","","","","","","","","74","J","1","","","96","main_expt",""
"","bandit","177","603376","0.0-138.0-0.0","10410853","wem/bandit_party_2","A2H0P2FI0JD5Y0","either","4","290","","","","","","","0","1","0","","0.4820287155","0.2","0.4","0.8","0.6","0.7474787878","0.4820287155","0.891162681","0.6513715187","","","","","","","","","","","","","","74","J","1","","","97","main_expt",""
"","bandit","178","605141","0.0-139.0-0.0","10410853","wem/bandit_party_2","A2H0P2FI0JD5Y0","either","4","254","","","","","","","0","1","0","","0.4599621431","0.2","0.4","0.8","0.6","0.7753317291","0.4599621431","0.8495400438","0.7004254565","","","","","","","","","","","","","","74","J","1","","","98","main_expt",""
"","bandit","179","606890","0.0-140.0-0.0","10410853","wem/bandit_party_2","A2H0P2FI0JD5Y0","either","4","241","","","","","","","0","0","1","","0.4109144258","0.2","0.4","0.8","0.6","0.7088399779","0.4109144258","0.8671572546","0.6473310623","","","","","","","","","","","","","","74","J","1","","","99","main_expt",""
"","bandit","180","608635","0.0-141.0-0.0","10410853","wem/bandit_party_2","A2H0P2FI0JD5Y0","either","4","237","","","","","","","1","0","0","0.3466085394","","0.2","0.4","0.8","0.6","","","","","0.7328055719","0.3466085394","0.8312294914","0.6160818326","","","","","","","","","","74","J","1","","","100","main_expt",""
"","bandit","181","610429","0.0-142.0-0.0","10410853","wem/bandit_party_2","A2H0P2FI0JD5Y0","either","4","285","","","","","","","0","0","1","","0.3712289037","0.2","0.4","0.8","0.6","0.8183789849","0.3712289037","0.8135240708","0.6963675268","","","","","","","","","","","","","","74","J","1","","","101","main_expt",""
"","bandit","182","612126","0.0-143.0-0.0","10410853","wem/bandit_party_2","A2H0P2FI0JD5Y0","either","4","189","","","","","","","0","1","0","","0.3626324234","0.2","0.4","0.8","0.6","0.7854635714","0.3626324234","0.8556055773","0.6339579424","","","","","","","","","","","","","","74","J","1","","","102","main_expt",""
"","bandit","183","613899","0.0-144.0-0.0","10410853","wem/bandit_party_2","A2H0P2FI0JD5Y0","either","4","263","","","","","","","0","0","1","","0.2748825764","0.2","0.4","0.8","0.6","0.8481411385","0.2748825764","0.7632006143","0.6908430899","","","","","","","","","","","","","","74","J","1","","","103","main_expt",""
"","bandit","184","615701","0.0-145.0-0.0","10410853","wem/bandit_party_2","A2H0P2FI0JD5Y0","either","4","293","","","","","","","0","1","0","","0.2381725209","0.2","0.4","0.8","0.6","0.8129446485","0.2381725209","0.8273213265","0.6866318891","","","","","","","","","","","","","","74","J","1","","","104","main_expt",""
"","bandit","185","617473","0.0-146.0-0.0","10410853","wem/bandit_party_2","A2H0P2FI0JD5Y0","either","4","261","","","","","","","0","0","1","0.1939551764","","0.2","0.4","0.8","0.6","","","","","0.7898688037","0.1939551764","0.7930501456","0.6749941214","","","","","","","","","","74","J","1","","","105","main_expt",""
"","bandit","186","619295","0.0-147.0-0.0","10410853","wem/bandit_party_2","A2H0P2FI0JD5Y0","either","4","312","","","","","","","0","0","1","","0.1884153881","0.2","0.4","0.8","0.6","0.7810744832","0.1884153881","0.7186603115","0.7300347885","","","","","","","","","","","","","","74","J","1","","","106","main_expt",""
"","bandit","187","621132","0.0-148.0-0.0","10410853","wem/bandit_party_2","A2H0P2FI0JD5Y0","either","4","326","","","","","","","0","0","1","","0.1011451677","0.2","0.4","0.8","0.6","0.7837395221","0.1011451677","0.7155595947","0.8133516847","","","","","","","","","","","","","","74","J","1","","","107","main_expt",""
"","bandit","188","622789","0.0-149.0-0.0","10410853","wem/bandit_party_2","A2H0P2FI0JD5Y0","either","4","148","","","","","","","0","1","0","","0.787971135","0.2","0.4","0.8","0.6","0.787971135","0.1500242655","0.7654707556","0.8009432675","","","","","","","","","","","","","","72","H","0","img/none_selected.jpg","","108","main_expt",""
"","bandit","189","624606","0.0-150.0-0.0","10410853","wem/bandit_party_2","A2H0P2FI0JD5Y0","either","4","308","","","","","","","0","1","0","","0.6866525704","0.2","0.4","0.8","0.6","0.6866525704","0.1285750889","0.6288612937","0.7379370491","","","","","","","","","","","","","","72","H","0","img/none_selected.jpg","","109","main_expt",""
"","bandit","190","626391","0.0-151.0-0.0","10410853","wem/bandit_party_2","A2H0P2FI0JD5Y0","either","4","275","","","","","","","1","0","0","0.5824748378","","0.2","0.4","0.8","0.6","","","","","0.5824748378","0.06279291231","0.6309058105","0.7379992527","","","","","","","","","","72","H","0","img/none_selected.jpg","","110","main_expt",""
"","bandit","191","628230","0.0-152.0-0.0","10410853","wem/bandit_party_2","A2H0P2FI0JD5Y0","either","4","330","","","","","","","0","1","0","","0.659702805","0.2","0.4","0.8","0.6","0.659702805","0.07144278273","0.6218965746","0.7464430213","","","","","","","","","","","","","","72","H","0","img/none_selected.jpg","","111","main_expt",""
"","bandit","192","629992","0.0-153.0-0.0","10410853","wem/bandit_party_2","A2H0P2FI0JD5Y0","either","4","253","","","","","","","0","1","0","","0.5111205641","0.2","0.4","0.8","0.6","0.5111205641","0.06013221683","0.6741482942","0.7736339118","","","","","","","","","","","","","","72","H","0","img/none_selected.jpg","","112","main_expt",""
"","bandit","193","631772","0.0-154.0-0.0","10410853","wem/bandit_party_2","A2H0P2FI0JD5Y0","either","4","270","","","","","","","0","0","1","","0.4852392648","0.2","0.4","0.8","0.6","0.4852392648","0.1442356489","0.7405202534","0.8480767854","","","","","","","","","","","","","","72","H","0","img/none_selected.jpg","","113","main_expt",""
"","bandit","194","633534","0.0-155.0-0.0","10410853","wem/bandit_party_2","A2H0P2FI0JD5Y0","either","4","251","","","","","","","0","0","1","","0.3531287621","0.2","0.4","0.8","0.6","0.3531287621","0.1733870882","0.743157628","0.8016933152","","","","","","","","","","","","","","72","H","0","img/none_selected.jpg","","114","main_expt",""
"","bandit","195","635393","0.0-156.0-0.0","10410853","wem/bandit_party_2","A2H0P2FI0JD5Y0","either","4","351","","","","","","","0","0","1","","0.4090792957","0.2","0.4","0.8","0.6","0.4090792957","0.2198725907","0.7732583829","0.8200260584","","","","","","","","","","","","","","72","H","0","img/none_selected.jpg","","115","main_expt",""
"","bandit","196","637167","0.0-157.0-0.0","10410853","wem/bandit_party_2","A2H0P2FI0JD5Y0","either","4","264","","","","","","","0","1","0","","0.4927933112","0.2","0.4","0.8","0.6","0.4927933112","0.2116870815","0.6224016225","0.7761954976","","","","","","","","","","","","","","72","H","0","img/none_selected.jpg","","116","main_expt",""
"","bandit","197","638995","0.0-158.0-0.0","10410853","wem/bandit_party_2","A2H0P2FI0JD5Y0","either","4","318","","","","","","","0","1","0","","0.4255499736","0.2","0.4","0.8","0.6","0.4255499736","0.1293815938","0.6784399158","0.7722233998","","","","","","","","","","","","","","72","H","0","img/none_selected.jpg","","117","main_expt",""
"","bandit","198","640866","0.0-159.0-0.0","10410853","wem/bandit_party_2","A2H0P2FI0JD5Y0","either","4","362","","","","","","","0","1","0","","0.4073726931","0.2","0.4","0.8","0.6","0.4073726931","0.1442073762","0.7499631032","0.8049831996","","","","","","","","","","","","","","72","H","0","img/none_selected.jpg","","118","main_expt",""
"","bandit","199","642840","0.0-160.0-0.0","10410853","wem/bandit_party_2","A2H0P2FI0JD5Y0","either","4","463","","","","","","","0","0","1","","0.5447318884","0.2","0.4","0.8","0.6","0.5447318884","0.2098334931","0.6258432538","0.8469405197","","","","","","","","","","","","","","72","H","0","img/none_selected.jpg","","119","main_expt",""
"","bandit","200","644700","0.0-161.0-0.0","10410853","wem/bandit_party_2","A2H0P2FI0JD5Y0","either","4","351","","","","","","","0","0","1","0.5336717705","","0.2","0.4","0.8","0.6","","","","","0.5336717705","0.243218138","0.5602994123","0.783925966","","","","","","","","","","72","H","0","img/none_selected.jpg","","120","main_expt",""
"","bandit","201","646446","0.0-162.0-0.0","10410853","wem/bandit_party_2","A2H0P2FI0JD5Y0","either","4","238","","","","","","","0","0","1","0.5621279662","","0.2","0.4","0.8","0.6","","","","","0.5621279662","0.1595445902","0.5850644561","0.8031476983","","","","","","","","","","72","H","0","img/none_selected.jpg","","121","main_expt",""
"","bandit","202","648219","0.0-163.0-0.0","10410853","wem/bandit_party_2","A2H0P2FI0JD5Y0","either","4","262","","","","","","","1","0","0","0.1939767007","","0.2","0.4","0.8","0.6","","","","","0.5664238538","0.1939767007","0.6205732407","0.776878313","","","","","","","","","","74","J","1","","","122","main_expt",""
"","bandit","203","650044","0.0-164.0-0.0","10410853","wem/bandit_party_2","A2H0P2FI0JD5Y0","either","4","314","","","","","","","0","0","1","","0.2265728871","0.2","0.4","0.8","0.6","0.6501842916","0.2265728871","0.7954206102","0.7695343448","","","","","","","","","","","","","","74","J","1","","","123","main_expt",""
"","bandit","204","651906","0.0-165.0-0.0","10410853","wem/bandit_party_2","A2H0P2FI0JD5Y0","either","4","350","","","","","","","0","0","1","","0.2027469411","0.2","0.4","0.8","0.6","0.5413703051","0.2027469411","0.881213352","0.6154230174","","","","","","","","","","","","","","74","J","1","","","124","main_expt",""
"","bandit","205","653679","0.0-166.0-0.0","10410853","wem/bandit_party_2","A2H0P2FI0JD5Y0","either","4","262","","","","","","","0","0","1","","0.5191338098","0.2","0.4","0.8","0.6","0.5191338098","0.1506135949","0.8598562332","0.4710930195","","","","","","","","","","","","","","72","H","0","img/none_selected.jpg","","125","main_expt",""
"","bandit","206","655599","0.0-167.0-0.0","10410853","wem/bandit_party_2","A2H0P2FI0JD5Y0","either","4","410","","","","","","","1","0","0","0.867144728","","0.2","0.4","0.8","0.6","","","","","0.6232591378","0.1875851228","0.867144728","0.5258886302","","","","","","","","","","75","K","2","","","126","main_expt",""
"","bandit","207","657356","0.0-168.0-0.0","10410853","wem/bandit_party_2","A2H0P2FI0JD5Y0","either","4","244","","","","","","","0","1","0","","0.8677917819","0.2","0.4","0.8","0.6","0.601333273","0.2106184636","0.8677917819","0.3996486754","","","","","","","","","","","","","","75","K","2","","","127","main_expt",""
"","bandit","208","659133","0.0-169.0-0.0","10410853","wem/bandit_party_2","A2H0P2FI0JD5Y0","either","4","265","","","","","","","1","0","0","0.8194058857","","0.2","0.4","0.8","0.6","","","","","0.6312294041","0.1276240755","0.8194058857","0.3557241191","","","","","","","","","","75","K","2","","","128","main_expt",""
"","bandit","209","660940","0.0-170.0-0.0","10410853","wem/bandit_party_2","A2H0P2FI0JD5Y0","either","4","297","","","","","","","1","0","0","0.813940224","","0.2","0.4","0.8","0.6","","","","","0.6655034733","0.2163335705","0.813940224","0.2432070908","","","","","","","","","","75","K","2","","","129","main_expt",""
"","bandit","210","662711","0.0-171.0-0.0","10410853","wem/bandit_party_2","A2H0P2FI0JD5Y0","either","4","262","","","","","","","1","0","0","0.7296764962","","0.2","0.4","0.8","0.6","","","","","0.6882303755","0.2448863899","0.7296764962","0.1722843937","","","","","","","","","","75","K","2","","","130","main_expt",""
"","bandit","211","664462","0.0-172.0-0.0","10410853","wem/bandit_party_2","A2H0P2FI0JD5Y0","either","4","242","","","","","","","1","0","0","0.614258276","","0.2","0.4","0.8","0.6","","","","","0.6772884453","0.3447645787","0.614258276","0.1336027919","","","","","","","","","","75","K","2","","","131","main_expt",""
"","bandit","212","666154","0.0-173.0-0.0","10410853","wem/bandit_party_2","A2H0P2FI0JD5Y0","either","4","182","","","","","","","1","0","0","0.5349540706","","0.2","0.4","0.8","0.6","","","","","0.6773684555","0.3622527956","0.5349540706","0.1351629047","","","","","","","","","","75","K","2","","","132","main_expt",""
"","bandit","213","667880","0.0-174.0-0.0","10410853","wem/bandit_party_2","A2H0P2FI0JD5Y0","either","4","217","","","","","","","1","0","0","0.5449090787","","0.2","0.4","0.8","0.6","","","","","0.7437755928","0.2961885878","0.5449090787","0.2495029","","","","","","","","","","75","K","2","","","133","main_expt",""
"","bandit","214","669529","0.0-175.0-0.0","10410853","wem/bandit_party_2","A2H0P2FI0JD5Y0","either","4","138","","","","","","","1","0","0","0.5037108559","","0.2","0.4","0.8","0.6","","","","","0.7423545867","0.2932126781","0.5037108559","0.2118512663","","","","","","","","","","75","K","2","","","134","main_expt",""
"","bandit","215","671296","0.0-176.0-0.0","10410853","wem/bandit_party_2","A2H0P2FI0JD5Y0","either","4","256","","","","","","","0","0","1","0.5131336393","","0.2","0.4","0.8","0.6","","","","","0.7462440124","0.2836439675","0.5131336393","0.2474577379","","","","","","","","","","75","K","2","","","135","main_expt",""
"","bandit","216","673031","0.0-177.0-0.0","10410853","wem/bandit_party_2","A2H0P2FI0JD5Y0","either","4","225","","","","","","","1","0","0","0.5847952324","","0.2","0.4","0.8","0.6","","","","","0.6372772774","0.1985775905","0.5847952324","0.1496333288","","","","","","","","","","75","K","2","","","136","main_expt",""
"","bandit","217","674825","0.0-178.0-0.0","10410853","wem/bandit_party_2","A2H0P2FI0JD5Y0","either","4","284","","","","","","","1","0","0","0.5191620222","","0.2","0.4","0.8","0.6","","","","","0.6587707878","0.2655975","0.5191620222","0.164835495","","","","","","","","","","75","K","2","","","137","main_expt",""
"","bandit","218","677210","0.0-179.0-0.0","10410853","wem/bandit_party_2","A2H0P2FI0JD5Y0","either","4","875","","","","","","","1","0","0","0.3830682141","","0.2","0.4","0.8","0.6","","","","","0.6545472314","0.4066298912","0.3830682141","0.1629561883","","","","","","","","","","75","K","2","","","138","main_expt",""
"","bandit","219","679065","0.0-180.0-0.0","10410853","wem/bandit_party_2","A2H0P2FI0JD5Y0","either","4","346","","","","","","","0","0","1","","0.3036015776","0.2","0.4","0.8","0.6","0.5773899651","0.4537429859","0.3036015776","0.1162724323","","","","","","","","","","","","","","75","K","2","","","139","main_expt",""
"","bandit","220","680844","0.0-181.0-0.0","10410853","wem/bandit_party_2","A2H0P2FI0JD5Y0","either","4","269","","","","","","","0","0","1","0.2541790234","","0.2","0.4","0.8","0.6","","","","","0.5786924042","0.410026376","0.2541790234","0.1262651596","","","","","","","","","","75","K","2","","","140","main_expt",""
"","bandit","221","682531","0.0-182.0-0.0","10410853","wem/bandit_party_2","A2H0P2FI0JD5Y0","either","4","177","","","","","","","0","0","1","0.1899663758","","0.2","0.4","0.8","0.6","","","","","0.4589731036","0.3978668086","0.1899663758","0.1258799353","","","","","","","","","","75","K","2","","","141","main_expt",""
"","bandit","222","684452","0.0-183.0-0.0","10410853","wem/bandit_party_2","A2H0P2FI0JD5Y0","either","4","411","","","","","","","0","0","1","","0.1220135665","0.2","0.4","0.8","0.6","0.3667804619","0.4096738096","0.214868544","0.1220135665","","","","","","","","","","","","","","76","L","3","","","142","main_expt",""
"","bandit","223","686146","0.0-184.0-0.0","10410853","wem/bandit_party_2","A2H0P2FI0JD5Y0","either","4","183","","","","","","","0","0","1","0.1549416237","","0.2","0.4","0.8","0.6","","","","","0.3563831379","0.5422751762","0.1549416237","0.1600355681","","","","","","","","","","75","K","2","","","143","main_expt",""
"","bandit","224","687910","0.0-185.0-0.0","10410853","wem/bandit_party_2","A2H0P2FI0JD5Y0","either","4","255","","","","","","","0","0","1","0.6045197677","","0.2","0.4","0.8","0.6","","","","","0.3675361202","0.6045197677","0.2142728447","0.103653669","","","","","","","","","","74","J","1","","","144","main_expt",""
"","bandit","225","689592","0.0-186.0-0.0","10410853","wem/bandit_party_2","A2H0P2FI0JD5Y0","either","4","173","","","","","","","0","0","1","0.3266856562","","0.2","0.4","0.8","0.6","","","","","0.3266856562","0.6140727406","0.2166472609","0.1417267119","","","","","","","","","","72","H","0","img/none_selected.jpg","","145","main_expt",""
"","bandit","226","691406","0.0-187.0-0.0","10410853","wem/bandit_party_2","A2H0P2FI0JD5Y0","either","4","304","","","","","","","0","1","0","","0.2815179259","0.2","0.4","0.8","0.6","0.2815179259","0.5553742365","0.2446047688","0.1508894681","","","","","","","","","","","","","","72","H","0","img/none_selected.jpg","","146","main_expt",""
"","bandit","227","693240","0.0-188.0-0.0","10410853","wem/bandit_party_2","A2H0P2FI0JD5Y0","either","4","323","","","","","","","0","0","1","","0.3560244833","0.2","0.4","0.8","0.6","0.3560244833","0.52787167","0.3011136322","0.1207147728","","","","","","","","","","","","","","72","H","0","img/none_selected.jpg","","147","main_expt",""
"","bandit","228","695045","0.0-189.0-0.0","10410853","wem/bandit_party_2","A2H0P2FI0JD5Y0","either","4","294","","","","","","","0","0","1","","0.3585854149","0.2","0.4","0.8","0.6","0.3585854149","0.5053851794","0.2519777133","0.1362234148","","","","","","","","","","","","","","72","H","0","img/none_selected.jpg","","148","main_expt",""
"","bandit","229","696749","0.0-190.0-0.0","10410853","wem/bandit_party_2","A2H0P2FI0JD5Y0","either","4","193","","","","","","","0","1","0","","0.5431256022","0.2","0.4","0.8","0.6","0.284478414","0.5431256022","0.2996109941","0.1244444975","","","","","","","","","","","","","","74","J","1","","","149","main_expt",""
"","bandit","230","698505","0.0-191.0-0.0","10410853","wem/bandit_party_2","A2H0P2FI0JD5Y0","either","4","246","","","","","","","0","0","1","0.422574086","","0.2","0.4","0.8","0.6","","","","","0.2617238314","0.422574086","0.2963563975","0.1109305632","","","","","","","","","","74","J","1","","","150","main_expt",""
"","bandit","231","700168","0.0-192.0-0.0","10410853","wem/bandit_party_2","A2H0P2FI0JD5Y0","either","4","152","","","","","","","0","0","1","0.3907227364","","0.2","0.4","0.8","0.6","","","","","0.2709462114","0.3907227364","0.4327396174","0.11412436","","","","","","","","","","74","J","1","","","151","main_expt",""
"","bandit","232","701989","0.0-193.0-0.0","10410853","wem/bandit_party_2","A2H0P2FI0JD5Y0","either","4","311","","","","","","","0","0","1","0.4303068123","","0.2","0.4","0.8","0.6","","","","","0.2993716907","0.5580814469","0.4303068123","0.1469045903","","","","","","","","","","75","K","2","","","152","main_expt",""
"","bandit","233","703790","0.0-194.0-0.0","10410853","wem/bandit_party_2","A2H0P2FI0JD5Y0","either","4","288","","","","","","","1","0","0","0.455197397","","0.2","0.4","0.8","0.6","","","","","0.2733354782","0.51223936","0.455197397","0.1633028487","","","","","","","","","","75","K","2","","","153","main_expt",""
"","bandit","234","705582","0.0-195.0-0.0","10410853","wem/bandit_party_2","A2H0P2FI0JD5Y0","either","4","283","","","","","","","0","0","1","0.6184454144","","0.2","0.4","0.8","0.6","","","","","0.3264007987","0.4811601507","0.6184454144","0.1340882311","","","","","","","","","","75","K","2","","","154","main_expt",""
"","bandit","235","707331","0.0-196.0-0.0","10410853","wem/bandit_party_2","A2H0P2FI0JD5Y0","either","4","236","","","","","","","0","1","0","","0.5833601464","0.2","0.4","0.8","0.6","0.204433578","0.575425417","0.5833601464","0.1041462846","","","","","","","","","","","","","","75","K","2","","","155","main_expt",""
"","bandit","236","709118","0.0-197.0-0.0","10410853","wem/bandit_party_2","A2H0P2FI0JD5Y0","either","4","277","","","","","","","0","0","1","0.646897734","","0.2","0.4","0.8","0.6","","","","","0.07451572188","0.6109018817","0.646897734","0.08564190031","","","","","","","","","","75","K","2","","","156","main_expt",""
"","bandit","237","710932","0.0-198.0-0.0","10410853","wem/bandit_party_2","A2H0P2FI0JD5Y0","either","4","302","","","","","","","0","1","0","","0.6912470103","0.2","0.4","0.8","0.6","0.1251686374","0.6812883852","0.6912470103","0.06977116317","","","","","","","","","","","","","","75","K","2","","","157","main_expt",""
"","bandit","238","712669","0.0-199.0-0.0","10410853","wem/bandit_party_2","A2H0P2FI0JD5Y0","either","4","226","","","","","","","0","1","0","","0.7865398282","0.2","0.4","0.8","0.6","0.1292052795","0.73777041","0.7865398282","0.1504927074","","","","","","","","","","","","","","75","K","2","","","158","main_expt",""
"","bandit","239","714451","0.0-200.0-0.0","10410853","wem/bandit_party_2","A2H0P2FI0JD5Y0","either","4","269","","","","","","","1","0","0","0.7220910122","","0.2","0.4","0.8","0.6","","","","","0.1200050714","0.8388849062","0.7220910122","0.1429264201","","","","","","","","","","75","K","2","","","159","main_expt",""
"","bandit","240","716239","0.0-201.0-0.0","10410853","wem/bandit_party_2","A2H0P2FI0JD5Y0","either","4","276","","","","","","","0","0","1","0.710563805","","0.2","0.4","0.8","0.6","","","","","0.1156014834","0.8006667519","0.710563805","0.1832893837","","","","","","","","","","75","K","2","","","160","main_expt",""
"","bandit","241","718065","0.0-202.0-0.0","10410853","wem/bandit_party_2","A2H0P2FI0JD5Y0","either","4","315","","","","","","","1","0","0","0.6205281072","","0.2","0.4","0.8","0.6","","","","","0.1425751263","0.7406956812","0.6205281072","0.2337310763","","","","","","","","","","75","K","2","","","161","main_expt",""
"","bandit","242","720070","0.0-203.0-0.0","10410853","wem/bandit_party_2","A2H0P2FI0JD5Y0","either","4","497","","","","","","","0","0","1","0.5246840185","","0.2","0.4","0.8","0.6","","","","","0.2108345254","0.775259894","0.5246840185","0.2326198937","","","","","","","","","","75","K","2","","","162","main_expt",""
"","bandit","243","721975","0.0-204.0-0.0","10410853","wem/bandit_party_2","A2H0P2FI0JD5Y0","either","4","395","","","","","","","0","0","1","0.569340372","","0.2","0.4","0.8","0.6","","","","","0.1664621688","0.6539471222","0.569340372","0.1584290897","","","","","","","","","","75","K","2","","","163","main_expt",""
"","bandit","244","723809","0.0-205.0-0.0","10410853","wem/bandit_party_2","A2H0P2FI0JD5Y0","either","4","324","","","","","","","1","0","0","0.5688323765","","0.2","0.4","0.8","0.6","","","","","0.1741279052","0.7914062868","0.5688323765","0.1417900361","","","","","","","","","","75","K","2","","","164","main_expt",""
"","bandit","245","725667","0.0-206.0-0.0","10410853","wem/bandit_party_2","A2H0P2FI0JD5Y0","either","4","340","","","","","","","0","0","1","","0.5195648955","0.2","0.4","0.8","0.6","0.1891196979","0.8415061218","0.5195648955","0.08849486786","","","","","","","","","","","","","","75","K","2","","","165","main_expt",""
"","bandit","246","727544","0.0-207.0-0.0","10410853","wem/bandit_party_2","A2H0P2FI0JD5Y0","either","4","363","","","","","","","0","0","1","0.536500984","","0.2","0.4","0.8","0.6","","","","","0.3016440744","0.9084068317","0.536500984","0.1010416226","","","","","","","","","","75","K","2","","","166","main_expt",""
"","bandit","247","729377","0.0-208.0-0.0","10410853","wem/bandit_party_2","A2H0P2FI0JD5Y0","either","4","322","","","","","","","0","0","1","0.1506776516","","0.2","0.4","0.8","0.6","","","","","0.3427468607","0.8857506799","0.4243381616","0.1506776516","","","","","","","","","","76","L","3","","","167","main_expt",""
"","bandit","248","731131","0.0-209.0-0.0","10410853","wem/bandit_party_2","A2H0P2FI0JD5Y0","either","4","242","","","","","","","1","0","0","0.4877327119","","0.2","0.4","0.8","0.6","","","","","0.3759001064","0.9247721234","0.4877327119","0.2532220847","","","","","","","","","","75","K","2","","","168","main_expt",""
"","bandit","249","732851","0.0-210.0-0.0","10410853","wem/bandit_party_2","A2H0P2FI0JD5Y0","either","4","208","","","","","","","1","0","0","0.5096331713","","0.2","0.4","0.8","0.6","","","","","0.3824832387","0.8870410368","0.5096331713","0.2223654062","","","","","","","","","","75","K","2","","","169","main_expt",""
"","bandit","250","734552","0.0-211.0-0.0","10410853","wem/bandit_party_2","A2H0P2FI0JD5Y0","either","4","192","","","","","","","0","1","0","","0.6111595203","0.2","0.4","0.8","0.6","0.3257043992","0.8782412079","0.6111595203","0.2161840498","","","","","","","","","","","","","","75","K","2","","","170","main_expt",""
"","bandit","251","736314","0.0-212.0-0.0","10410853","wem/bandit_party_2","A2H0P2FI0JD5Y0","either","4","252","","","","","","","0","0","1","0.5888321224","","0.2","0.4","0.8","0.6","","","","","0.2943589708","0.7978982074","0.5888321224","0.1996440145","","","","","","","","","","75","K","2","","","171","main_expt",""
"","bandit","252","738060","0.0-213.0-0.0","10410853","wem/bandit_party_2","A2H0P2FI0JD5Y0","either","4","236","","","","","","","1","0","0","0.6295404033","","0.2","0.4","0.8","0.6","","","","","0.4298537702","0.7896885826","0.6295404033","0.275753823","","","","","","","","","","75","K","2","","","172","main_expt",""
"","bandit","253","739878","0.0-214.0-0.0","10410853","wem/bandit_party_2","A2H0P2FI0JD5Y0","either","4","304","","","","","","","0","0","1","0.5976712981","","0.2","0.4","0.8","0.6","","","","","0.4196262671","0.7771385218","0.5976712981","0.2850946521","","","","","","","","","","75","K","2","","","173","main_expt",""
"","bandit","254","741704","0.0-215.0-0.0","10410853","wem/bandit_party_2","A2H0P2FI0JD5Y0","either","4","314","","","","","","","0","0","1","0.5936331925","","0.2","0.4","0.8","0.6","","","","","0.4056978145","0.8412209493","0.5936331925","0.2836726952","","","","","","","","","","75","K","2","","","174","main_expt",""
"","bandit","255","743431","0.0-216.0-0.0","10410853","wem/bandit_party_2","A2H0P2FI0JD5Y0","either","4","217","","","","","","","0","0","1","","0.27413619","0.2","0.4","0.8","0.6","0.3323311207","0.8433491626","0.544145328","0.27413619","","","","","","","","","","","","","","76","L","3","","","175","main_expt",""
"","bandit","256","745196","0.0-217.0-0.0","10410853","wem/bandit_party_2","A2H0P2FI0JD5Y0","either","4","253","","","","","","","1","0","0","0.3584947592","","0.2","0.4","0.8","0.6","","","","","0.3087900888","0.778586436","0.3584947592","0.2369491767","","","","","","","","","","75","K","2","","","176","main_expt",""
"","bandit","257","746954","0.0-218.0-0.0","10410853","wem/bandit_party_2","A2H0P2FI0JD5Y0","either","4","247","","","","","","","0","0","1","0.436171931","","0.2","0.4","0.8","0.6","","","","","0.3898613412","0.7488794252","0.436171931","0.3440943848","","","","","","","","","","75","K","2","","","177","main_expt",""
"","bandit","258","748731","0.0-219.0-0.0","10410853","wem/bandit_party_2","A2H0P2FI0JD5Y0","either","4","266","","","","","","","0","0","1","","0.7738581751","0.2","0.4","0.8","0.6","0.5236321052","0.7738581751","0.5193680035","0.3529135521","","","","","","","","","","","","","","74","J","1","","","178","main_expt",""
"","bandit","259","750439","0.0-220.0-0.0","10410853","wem/bandit_party_2","A2H0P2FI0JD5Y0","either","4","196","","","","","","","0","1","0","","0.2955080601","0.2","0.4","0.8","0.6","0.2955080601","0.7527820287","0.3957798075","0.3787243664","","","","","","","","","","","","","","72","H","0","img/none_selected.jpg","","179","main_expt",""
"","bandit","260","752145","0.0-221.0-0.0","10410853","wem/bandit_party_2","A2H0P2FI0JD5Y0","either","4","195","","","","","","","0","0","1","","0.3174151272","0.2","0.4","0.8","0.6","0.3174151272","0.8022950929","0.4249873197","0.3092677326","","","","","","","","","","","","","","72","H","0","img/none_selected.jpg","","180","main_expt",""
"","bandit","261","753941","0.0-222.0-0.0","10410853","wem/bandit_party_2","A2H0P2FI0JD5Y0","either","4","283","","","","","","","0","0","1","","0.3560995969","0.2","0.4","0.8","0.6","0.3560995969","0.7505347306","0.4260342439","0.3701559146","","","","","","","","","","","","","","72","H","0","img/none_selected.jpg","","181","main_expt",""
"","bandit","262","756039","0.0-223.0-0.0","10410853","wem/bandit_party_2","A2H0P2FI0JD5Y0","either","4","587","","","","","","","0","0","1","0.4305619521","","0.2","0.4","0.8","0.6","","","","","0.4649908644","0.603349844","0.4305619521","0.2672844749","","","","","","","","","","75","K","2","","","182","main_expt",""
"","bandit","263","757760","0.0-224.0-0.0","10410853","wem/bandit_party_2","A2H0P2FI0JD5Y0","either","4","210","","","","","","","0","0","1","0.4588174784","","0.2","0.4","0.8","0.6","","","","","0.4588174784","0.6464544124","0.4638513582","0.3046315644","","","","","","","","","","72","H","0","img/none_selected.jpg","","183","main_expt",""
"","bandit","264","759431","0.0-225.0-0.0","10410853","wem/bandit_party_2","A2H0P2FI0JD5Y0","either","4","159","","","","","","","0","0","1","0.5084330557","","0.2","0.4","0.8","0.6","","","","","0.509799977","0.6606024443","0.5084330557","0.3507685813","","","","","","","","","","75","K","2","","","184","main_expt",""
"","bandit","265","761078","0.0-226.0-0.0","10410853","wem/bandit_party_2","A2H0P2FI0JD5Y0","either","4","134","","","","","","","0","0","1","0.7034535028","","0.2","0.4","0.8","0.6","","","","","0.4557178443","0.7034535028","0.5853778332","0.3250269766","","","","","","","","","","74","J","1","","","185","main_expt",""
"","bandit","266","762860","0.0-227.0-0.0","10410853","wem/bandit_party_2","A2H0P2FI0JD5Y0","either","4","268","","","","","","","0","0","1","0.3636669497","","0.2","0.4","0.8","0.6","","","","","0.3250172706","0.7672503758","0.5009207633","0.3636669497","","","","","","","","","","76","L","3","","","186","main_expt",""
"","bandit","267","764600","0.0-228.0-0.0","10410853","wem/bandit_party_2","A2H0P2FI0JD5Y0","either","4","228","","","","","","","0","1","0","","0.4095027401","0.2","0.4","0.8","0.6","0.2982192525","0.7505037824","0.4376492532","0.4095027401","","","","","","","","","","","","","","76","L","3","","","187","main_expt",""
"","bandit","268","766381","0.0-229.0-0.0","10410853","wem/bandit_party_2","A2H0P2FI0JD5Y0","either","4","269","","","","","","","0","0","1","0.3356624093","","0.2","0.4","0.8","0.6","","","","","0.2647713636","0.7458261356","0.317868257","0.3356624093","","","","","","","","","","76","L","3","","","188","main_expt",""
"","bandit","269","768149","0.0-230.0-0.0","10410853","wem/bandit_party_2","A2H0P2FI0JD5Y0","either","4","257","","","","","","","0","0","1","","0.3717951419","0.2","0.4","0.8","0.6","0.2798663258","0.747965221","0.3700786551","0.3717951419","","","","","","","","","","","","","","76","L","3","","","189","main_expt",""
"","bandit","270","769958","0.0-231.0-0.0","10410853","wem/bandit_party_2","A2H0P2FI0JD5Y0","either","4","295","","","","","","","0","0","1","0.3423477616","","0.2","0.4","0.8","0.6","","","","","0.2146362806","0.7459095382","0.3423477616","0.3266606931","","","","","","","","","","75","K","2","","","190","main_expt",""
"","bandit","271","771663","0.0-232.0-0.0","10410853","wem/bandit_party_2","A2H0P2FI0JD5Y0","either","4","193","","","","","","","0","0","1","","0.6299055833","0.2","0.4","0.8","0.6","0.3132783624","0.6299055833","0.2488230813","0.4206899072","","","","","","","","","","","","","","74","J","1","","","191","main_expt",""
"","bandit","272","773225","0.0-233.0-0.0","10410853","wem/bandit_party_2","A2H0P2FI0JD5Y0","either","4","51","","","","","","","0","0","1","","0.2488083766","0.2","0.4","0.8","0.6","0.2488083766","0.688533977","0.2193108308","0.4982817076","","","","","","","","","","","","","","72","H","0","img/none_selected.jpg","","192","main_expt",""
"","bandit","273","774821","0.0-234.0-0.0","10410853","wem/bandit_party_2","A2H0P2FI0JD5Y0","either","4","85","","","","","","","0","1","0","","0.225611763","0.2","0.4","0.8","0.6","0.225611763","0.7176496952","0.4057276106","0.4820211017","","","","","","","","","","","","","","72","H","0","img/none_selected.jpg","","193","main_expt",""
"","bandit","274","776524","0.0-235.0-0.0","10410853","wem/bandit_party_2","A2H0P2FI0JD5Y0","either","4","192","","","","","","","0","0","1","","0.2159393038","0.2","0.4","0.8","0.6","0.2159393038","0.746212457","0.3826056333","0.5373891537","","","","","","","","","","","","","","72","H","0","img/none_selected.jpg","","194","main_expt",""
"","bandit","275","778152","0.0-236.0-0.0","10410853","wem/bandit_party_2","A2H0P2FI0JD5Y0","either","4","118","","","","","","","0","0","1","","0.3112228701","0.2","0.4","0.8","0.6","0.3112228701","0.6800784202","0.4922935908","0.3890275207","","","","","","","","","","","","","","72","H","0","img/none_selected.jpg","","195","main_expt",""
"","bandit","276","779965","0.0-237.0-0.0","10410853","wem/bandit_party_2","A2H0P2FI0JD5Y0","either","4","301","","","","","","","0","0","1","","0.5986295964","0.2","0.4","0.8","0.6","0.3249051539","0.5986295964","0.5475793877","0.4329462643","","","","","","","","","","","","","","74","J","1","","","196","main_expt",""
"","bandit","277","781714","0.0-238.0-0.0","10410853","wem/bandit_party_2","A2H0P2FI0JD5Y0","either","4","236","","","","","","","0","0","1","0.6069385875","","0.2","0.4","0.8","0.6","","","","","0.2985018541","0.5323622673","0.6069385875","0.416825946","","","","","","","","","","75","K","2","","","197","main_expt",""
"","bandit","278","783485","0.0-239.0-0.0","10410853","wem/bandit_party_2","A2H0P2FI0JD5Y0","either","4","258","","","","","","","0","1","0","","0.4063336836","0.2","0.4","0.8","0.6","0.3109366799","0.5348043844","0.4946816555","0.4063336836","","","","","","","","","","","","","","76","L","3","","","198","main_expt",""
"","bandit","279","785255","0.0-240.0-0.0","10410853","wem/bandit_party_2","A2H0P2FI0JD5Y0","either","4","258","","","","","","","0","0","1","","0.361264989","0.2","0.4","0.8","0.6","0.3143364341","0.4534403339","0.479635203","0.361264989","","","","","","","","","","","","","","76","L","3","","","199","main_expt",""
"","bandit","280","787021","0.0-241.0-0.0","10410853","wem/bandit_party_2","A2H0P2FI0JD5Y0","either","4","254","","","","","","","0","0","1","0.4700223374","","0.2","0.4","0.8","0.6","","","","","0.3176919365","0.4185876589","0.4969837249","0.4700223374","","","","","","","","","","76","L","3","","","200","main_expt",""
"","bandit","281","788761","0.0-242.0-0.0","10410853","wem/bandit_party_2","A2H0P2FI0JD5Y0","either","4","226","","","","","","","0","0","1","","0.4751543938","0.2","0.4","0.8","0.6","0.2848283651","0.3812211227","0.4548125401","0.4751543938","","","","","","","","","","","","","","76","L","3","","","201","main_expt",""
"","bandit","282","790415","0.0-243.0-0.0","10410853","wem/bandit_party_2","A2H0P2FI0JD5Y0","either","4","141","","","","","","","1","0","0","0.5767771981","","0.2","0.4","0.8","0.6","","","","","0.2439676923","0.4414728031","0.5767771981","0.4044794657","","","","","","","","","","75","K","2","","","202","main_expt",""
"","bandit","283","792062","0.0-244.0-0.0","10410853","wem/bandit_party_2","A2H0P2FI0JD5Y0","either","4","133","","","","","","","1","0","0","0.6118171827","","0.2","0.4","0.8","0.6","","","","","0.2582922662","0.3698030662","0.6118171827","0.3321077444","","","","","","","","","","75","K","2","","","203","main_expt",""
"","bandit","284","793851","0.0-245.0-0.0","10410853","wem/bandit_party_2","A2H0P2FI0JD5Y0","either","4","279","","","","","","","0","0","1","0.5373194108","","0.2","0.4","0.8","0.6","","","","","0.3799793739","0.4899087748","0.5373194108","0.3697340749","","","","","","","","","","75","K","2","","","204","main_expt",""
"","bandit","285","795636","0.0-246.0-0.0","10410853","wem/bandit_party_2","A2H0P2FI0JD5Y0","either","4","272","","","","","","","0","0","1","0.5501461309","","0.2","0.4","0.8","0.6","","","","","0.4441528059","0.4310108402","0.5501461309","0.3998168993","","","","","","","","","","75","K","2","","","205","main_expt",""
"","bandit","286","797402","0.0-247.0-0.0","10410853","wem/bandit_party_2","A2H0P2FI0JD5Y0","either","4","255","","","","","","","1","0","0","0.5094027242","","0.2","0.4","0.8","0.6","","","","","0.4468516792","0.3912115078","0.5094027242","0.4929909192","","","","","","","","","","75","K","2","","","206","main_expt",""
"","bandit","287","799170","0.0-248.0-0.0","10410853","wem/bandit_party_2","A2H0P2FI0JD5Y0","either","4","256","","","","","","","1","0","0","0.6449696869","","0.2","0.4","0.8","0.6","","","","","0.399366085","0.3195818707","0.6449696869","0.4960693894","","","","","","","","","","75","K","2","","","207","main_expt",""
"","bandit","288","800934","0.0-249.0-0.0","10410853","wem/bandit_party_2","A2H0P2FI0JD5Y0","either","4","252","","","","","","","1","0","0","0.549996868","","0.2","0.4","0.8","0.6","","","","","0.4206610772","0.2378171997","0.549996868","0.3912862986","","","","","","","","","","75","K","2","","","208","main_expt",""
"","bandit","289","802678","0.0-250.0-0.0","10410853","wem/bandit_party_2","A2H0P2FI0JD5Y0","either","4","233","","","","","","","0","0","1","0.5258833792","","0.2","0.4","0.8","0.6","","","","","0.5145499259","0.2339104391","0.5258833792","0.4218938049","","","","","","","","","","75","K","2","","","209","main_expt",""
"","bandit","290","804425","0.0-251.0-0.0","10410853","wem/bandit_party_2","A2H0P2FI0JD5Y0","either","4","234","","","","","","","1","0","0","0.5453980868","","0.2","0.4","0.8","0.6","","","","","0.3497539355","0.2506558306","0.5453980868","0.6003160005","","","","","","","","","","75","K","2","","","210","main_expt",""
"","bandit","291","806172","0.0-252.0-0.0","10410853","wem/bandit_party_2","A2H0P2FI0JD5Y0","either","4","234","","","","","","","1","0","0","0.5370950561","","0.2","0.4","0.8","0.6","","","","","0.3335821388","0.3466578502","0.5370950561","0.5481562991","","","","","","","","","","75","K","2","","","211","main_expt",""
"","bandit","292","807933","0.0-253.0-0.0","10410853","wem/bandit_party_2","A2H0P2FI0JD5Y0","either","4","249","","","","","","","0","0","1","0.5774996514","","0.2","0.4","0.8","0.6","","","","","0.2778022227","0.4162959965","0.5774996514","0.6210595125","","","","","","","","","","75","K","2","","","212","main_expt",""
"","bandit","293","809677","0.0-254.0-0.0","10410853","wem/bandit_party_2","A2H0P2FI0JD5Y0","either","4","231","","","","","","","1","0","0","0.4826056363","","0.2","0.4","0.8","0.6","","","","","0.2949104287","0.545788555","0.4826056363","0.7732161257","","","","","","","","","","75","K","2","","","213","main_expt",""
"","bandit","294","811422","0.0-255.0-0.0","10410853","wem/bandit_party_2","A2H0P2FI0JD5Y0","either","4","232","","","","","","","1","0","0","0.4913277851","","0.2","0.4","0.8","0.6","","","","","0.2443343027","0.6077749924","0.4913277851","0.7689771773","","","","","","","","","","75","K","2","","","214","main_expt",""
"","bandit","295","813218","0.0-256.0-0.0","10410853","wem/bandit_party_2","A2H0P2FI0JD5Y0","either","4","284","","","","","","","0","0","1","0.5415006571","","0.2","0.4","0.8","0.6","","","","","0.2232989174","0.4883429648","0.5415006571","0.6841712945","","","","","","","","","","75","K","2","","","215","main_expt",""
"","bandit","296","815083","0.0-257.0-0.0","10410853","wem/bandit_party_2","A2H0P2FI0JD5Y0","either","4","352","","","","","","","0","0","1","0.5198015267","","0.2","0.4","0.8","0.6","","","","","0.2918619336","0.3309854328","0.5198015267","0.7019934296","","","","","","","","","","75","K","2","","","216","main_expt",""
"","bandit","297","816837","0.0-258.0-0.0","10410853","wem/bandit_party_2","A2H0P2FI0JD5Y0","either","4","242","","","","","","","1","0","0","0.545097872","","0.2","0.4","0.8","0.6","","","","","0.3571058798","0.3310528633","0.545097872","0.7537099884","","","","","","","","","","75","K","2","","","217","main_expt",""
"","bandit","298","818595","0.0-259.0-0.0","10410853","wem/bandit_party_2","A2H0P2FI0JD5Y0","either","4","245","","","","","","","1","0","0","0.5776025334","","0.2","0.4","0.8","0.6","","","","","0.3738303097","0.4147218791","0.5776025334","0.8428980993","","","","","","","","","","75","K","2","","","218","main_expt",""
"","bandit","299","820394","0.0-260.0-0.0","10410853","wem/bandit_party_2","A2H0P2FI0JD5Y0","either","4","285","","","","","","","1","0","0","0.5616346574","","0.2","0.4","0.8","0.6","","","","","0.4832874948","0.3402104323","0.5616346574","0.8007326434","","","","","","","","","","75","K","2","","","219","main_expt",""
"","bandit","300","822135","0.0-261.0-0.0","10410853","wem/bandit_party_2","A2H0P2FI0JD5Y0","either","4","229","","","","","","","0","0","1","","0.6261942659","0.2","0.4","0.8","0.6","0.475455537","0.3448871422","0.6261942659","0.8518850648","","","","","","","","","","","","","","75","K","2","","","220","main_expt",""
"","bandit","301","823896","0.0-262.0-0.0","10410853","wem/bandit_party_2","A2H0P2FI0JD5Y0","either","4","246","","","","","","","0","1","0","","0.6533416475","0.2","0.4","0.8","0.6","0.3849790123","0.4438284365","0.6533416475","0.8488451861","","","","","","","","","","","","","","75","K","2","","","221","main_expt",""
"","bandit","302","825707","0.0-263.0-0.0","10410853","wem/bandit_party_2","A2H0P2FI0JD5Y0","either","4","298","","","","","","","0","0","1","0.6780524799","","0.2","0.4","0.8","0.6","","","","","0.2708628555","0.3768672835","0.6780524799","0.8202185963","","","","","","","","","","75","K","2","","","222","main_expt",""
"","bandit","303","827558","0.0-264.0-0.0","10410853","wem/bandit_party_2","A2H0P2FI0JD5Y0","either","4","339","","","","","","","1","0","0","0.638470603","","0.2","0.4","0.8","0.6","","","","","0.3886191555","0.4599748191","0.638470603","0.839196386","","","","","","","","","","75","K","2","","","223","main_expt",""
"","bandit","304","829349","0.0-265.0-0.0","10410853","wem/bandit_party_2","A2H0P2FI0JD5Y0","either","4","278","","","","","","","1","0","0","0.560582988","","0.2","0.4","0.8","0.6","","","","","0.3352763987","0.5868274652","0.560582988","0.8340435664","","","","","","","","","","75","K","2","","","224","main_expt",""
"","bandit","305","831089","0.0-266.0-0.0","10410853","wem/bandit_party_2","A2H0P2FI0JD5Y0","either","4","227","","","","","","","0","0","1","","0.5004803289","0.2","0.4","0.8","0.6","0.3948846532","0.510759767","0.5004803289","0.8229669419","","","","","","","","","","","","","","75","K","2","","","225","main_expt",""
"","bandit","306","832793","0.0-267.0-0.0","10410853","wem/bandit_party_2","A2H0P2FI0JD5Y0","either","4","192","","","","","","","0","0","1","0.5109709899","","0.2","0.4","0.8","0.6","","","","","0.385279681","0.6026028704","0.5109709899","0.8326575293","","","","","","","","","","75","K","2","","","226","main_expt",""
"","bandit","307","834374","0.0-268.0-0.0","10410853","wem/bandit_party_2","A2H0P2FI0JD5Y0","either","4","68","","","","","","","1","0","0","0.4271661703","","0.2","0.4","0.8","0.6","","","","","0.3296530349","0.588132951","0.4271661703","0.8904476858","","","","","","","","","","75","K","2","","","227","main_expt",""
"","bandit","308","836108","0.0-269.0-0.0","10410853","wem/bandit_party_2","A2H0P2FI0JD5Y0","either","4","222","","","","","","","1","0","0","0.374673526","","0.2","0.4","0.8","0.6","","","","","0.4227788413","0.5754590721","0.374673526","0.8877596604","","","","","","","","","","75","K","2","","","228","main_expt",""
"","bandit","309","837864","0.0-270.0-0.0","10410853","wem/bandit_party_2","A2H0P2FI0JD5Y0","either","4","245","","","","","","","0","0","1","0.393435759","","0.2","0.4","0.8","0.6","","","","","0.4470353227","0.6311951266","0.393435759","0.8647697669","","","","","","","","","","75","K","2","","","229","main_expt",""
"","bandit","310","839530","0.0-271.0-0.0","10410853","wem/bandit_party_2","A2H0P2FI0JD5Y0","either","4","154","","","","","","","0","0","1","0.3299431778","","0.2","0.4","0.8","0.6","","","","","0.2986819632","0.6164228117","0.3299431778","0.8704214291","","","","","","","","","","75","K","2","","","230","main_expt",""
"","bandit","311","841261","0.0-272.0-0.0","10410853","wem/bandit_party_2","A2H0P2FI0JD5Y0","either","4","219","","","","","","","0","0","1","0.3477061432","","0.2","0.4","0.8","0.6","","","","","0.4508866759","0.5943568022","0.3477061432","0.8598686354","","","","","","","","","","75","K","2","","","231","main_expt",""
"","bandit","312","843033","0.0-273.0-0.0","10410853","wem/bandit_party_2","A2H0P2FI0JD5Y0","either","4","259","","","","","","","0","1","0","","0.7939027672","0.2","0.4","0.8","0.6","0.5125968159","0.6032910051","0.3430234075","0.7939027672","","","","","","","","","","","","","","76","L","3","","","232","main_expt",""
"","bandit","313","844802","0.0-274.0-0.0","10410853","wem/bandit_party_2","A2H0P2FI0JD5Y0","either","4","255","","","","","","","0","1","0","","0.7930400566","0.2","0.4","0.8","0.6","0.6020802482","0.7225660168","0.2812772396","0.7930400566","","","","","","","","","","","","","","76","L","3","","","233","main_expt",""
"","bandit","314","846489","0.0-275.0-0.0","10410853","wem/bandit_party_2","A2H0P2FI0JD5Y0","either","4","175","","","","","","","1","0","0","0.7549101179","","0.2","0.4","0.8","0.6","","","","","0.5927943616","0.6718439238","0.2049555934","0.7549101179","","","","","","","","","","76","L","3","","","234","main_expt",""
"","bandit","315","848315","0.0-276.0-0.0","10410853","wem/bandit_party_2","A2H0P2FI0JD5Y0","either","4","313","","","","","","","1","0","0","0.7654291135","","0.2","0.4","0.8","0.6","","","","","0.5814417759","0.6025803433","0.144612338","0.7654291135","","","","","","","","","","76","L","3","","","235","main_expt",""
"","bandit","316","850105","0.0-277.0-0.0","10410853","wem/bandit_party_2","A2H0P2FI0JD5Y0","either","4","277","","","","","","","1","0","0","0.6965918162","","0.2","0.4","0.8","0.6","","","","","0.6530024001","0.6170166349","0.1509581517","0.6965918162","","","","","","","","","","76","L","3","","","236","main_expt",""
