"consent","trial_type","trial_index","time_elapsed","internal_node_id","subjID","study","MID","cond","drift","rt","responses","button_pressed","key_press","like","value","connected","gems","bombs","no_reward","GemPrChosen","BombPrChosen","GainOverPainPr_0","GainOverPainPr_1","GainOverPainPr_2","GainOverPainPr_3","LosePr_0","LosePr_1","LosePr_2","LosePr_3","WinPr_0","WinPr_1","WinPr_2","WinPr_3","Q0","Q1","Q2","gender","age","ethnicity","label","expt_phase","target","respCharCode","respKey","respChoiceNum","respChoice","practice","trial_counter","trial_label","Q0_index"
"GDM/GDM_behavioral_consent_30min_online.html","consent","0","12055","0.0-0.0","11013358","wem/bandit_party_2","AG84WP4B1ZC1K","either","2","","","","","","","","","","","","","","","","","","","","","","","","","","","","","","","","","","","","","","","","",""
"","survey-text","1","15998","0.0-1.0","11013358","wem/bandit_party_2","AG84WP4B1ZC1K","either","2","2924","{""Q0"":""AG84WP4B1ZC1K""}","","","","","","","","","","","","","","","","","","","","","","","","","","","","","","","","","","","","","","",""
"","button-response","2","18588","0.0-2.0","11013358","wem/bandit_party_2","AG84WP4B1ZC1K","either","2","1580","","0","","","","","","","","","","","","","","","","","","","","","","","","","","","","","","","","","","","","","",""
"","text-replacement","3","38243","0.0-3.0","11013358","wem/bandit_party_2","AG84WP4B1ZC1K","either","2","18649","","","32","","","","","","","","","","","","","","","","","","","","","","","","","","","","","","","","","","","","",""
"","text-replacement","4","51812","0.0-4.0","11013358","wem/bandit_party_2","AG84WP4B1ZC1K","either","2","13564","","","32","","","","","","","","","","","","","","","","","","","","","","","","","","","","","","","","","","","","",""
"","identification","5","57538","0.0-6.0-0.0","11013358","wem/bandit_party_2","AG84WP4B1ZC1K","either","2","5689","","","","0","0","0","","","","","","","","","","","","","","","","","","","","","","","","pre","identification_pre","the Democratic Party","","","","","","","",""
"","identification","6","62660","0.0-6.0-1.0","11013358","wem/bandit_party_2","AG84WP4B1ZC1K","either","2","4104","","","","3","3","3","","","","","","","","","","","","","","","","","","","","","","","","pre","identification_pre","the Republican Party","","","","","","","",""
"","text-replacement","7","219431","0.0-7.0","11013358","wem/bandit_party_2","AG84WP4B1ZC1K","either","2","155765","","","32","","","","","","","","","","","","","","","","","","","","","","","","","","","","","","","","","","","","",""
"","text-replacement","8","224019","0.0-8.0","11013358","wem/bandit_party_2","AG84WP4B1ZC1K","either","2","4581","","","32","","","","","","","","","","","","","","","","","","","","","","","","","","","","","","","","","","","","",""
"","text-replacement","9","280773","0.0-9.0","11013358","wem/bandit_party_2","AG84WP4B1ZC1K","either","2","56746","","","32","","","","","","","","","","","","","","","","","","","","","","","","","","","","","","","","","","","","",""
"","text-replacement","10","283746","0.0-10.0","11013358","wem/bandit_party_2","AG84WP4B1ZC1K","either","2","2968","","","32","","","","","","","","","","","","","","","","","","","","","","","","","","","","","","","","","","","","",""
"","text-replacement","11","290223","0.0-11.0","11013358","wem/bandit_party_2","AG84WP4B1ZC1K","either","2","6474","","","32","","","","","","","","","","","","","","","","","","","","","","","","","","","","","","","","","","","","",""
"","bandit","12","296107","0.0-12.0-0.0","11013358","wem/bandit_party_2","AG84WP4B1ZC1K","either","2","4374","","","","","","","0","0","1","0","0","","","","","0","","","","0","","","","","","","","","","","","","74","J","0","img/none_selected_demo.jpg","true","0","",""
"","bandit","13","299570","0.0-13.0-0.0","11013358","wem/bandit_party_2","AG84WP4B1ZC1K","either","2","1950","","","","","","","0","0","1","0","0","","","","","0","","","","0","","","","","","","","","","","","","75","K","0","img/none_selected_demo.jpg","true","0","",""
"","text-replacement","14","305215","0.0-14.0","11013358","wem/bandit_party_2","AG84WP4B1ZC1K","either","2","5641","","","32","","","","","","","","","","","","","","","","","","","","","","","","","","","","","","","","","","","","",""
"","text-replacement","15","311476","0.0-15.0","11013358","wem/bandit_party_2","AG84WP4B1ZC1K","either","2","6257","","","32","","","","","","","","","","","","","","","","","","","","","","","","","","","","","","","","","","","","",""
"","text-replacement","16","316889","0.0-16.0","11013358","wem/bandit_party_2","AG84WP4B1ZC1K","either","2","5408","","","32","","","","","","","","","","","","","","","","","","","","","","","","","","","","","","","","","","","","",""
"","text-replacement","17","321126","0.0-17.0","11013358","wem/bandit_party_2","AG84WP4B1ZC1K","either","2","4230","","","32","","","","","","","","","","","","","","","","","","","","","","","","","","","","","","","","","","","","",""
"","bandit","18","323473","0.0-18.0-0.0","11013358","wem/bandit_party_2","AG84WP4B1ZC1K","either","2","838","","","","","","","0","0","1","0.2","","0.5","0.5","","","","","","","0.8","0.2","","","","","","","","","","","","75","K","1","","true","0","80_20_practice",""
"","bandit","19","325455","0.0-18.0-1.0","11013358","wem/bandit_party_2","AG84WP4B1ZC1K","either","2","470","","","","","","","0","0","1","","0.2","0.5","0.5","","","0.8","0.2","","","","","","","","","","","","","","","","75","K","1","","true","0","80_20_practice",""
"","bandit","20","327115","0.0-18.0-2.0","11013358","wem/bandit_party_2","AG84WP4B1ZC1K","either","2","147","","","","","","","0","0","1","","0.2","0.5","0.5","","","0.8","0.2","","","","","","","","","","","","","","","","75","K","1","","true","0","80_20_practice",""
"","bandit","21","330161","0.0-18.0-3.0","11013358","wem/bandit_party_2","AG84WP4B1ZC1K","either","2","1536","","","","","","","0","1","0","","0.8","0.5","0.5","","","0.8","0.2","","","","","","","","","","","","","","","","74","J","0","img/none_selected_demo.jpg","true","0","80_20_practice",""
"","bandit","22","331822","0.0-18.0-4.0","11013358","wem/bandit_party_2","AG84WP4B1ZC1K","either","2","154","","","","","","","0","0","1","","0.8","0.5","0.5","","","0.8","0.2","","","","","","","","","","","","","","","","74","J","0","img/none_selected_demo.jpg","true","0","80_20_practice",""
"","bandit","23","334545","0.0-18.0-5.0","11013358","wem/bandit_party_2","AG84WP4B1ZC1K","either","2","1212","","","","","","","0","1","0","","0.8","0.5","0.5","","","0.8","0.2","","","","","","","","","","","","","","","","74","J","0","img/none_selected_demo.jpg","true","0","80_20_practice",""
"","bandit","24","336428","0.0-18.0-6.0","11013358","wem/bandit_party_2","AG84WP4B1ZC1K","either","2","372","","","","","","","0","1","0","","0.8","0.5","0.5","","","0.8","0.2","","","","","","","","","","","","","","","","74","J","0","img/none_selected_demo.jpg","true","0","80_20_practice",""
"","bandit","25","338120","0.0-18.0-7.0","11013358","wem/bandit_party_2","AG84WP4B1ZC1K","either","2","181","","","","","","","0","0","1","0.8","","0.5","0.5","","","","","","","0.8","0.2","","","","","","","","","","","","74","J","0","img/none_selected_demo.jpg","true","0","80_20_practice",""
"","bandit","26","339788","0.0-18.0-8.0","11013358","wem/bandit_party_2","AG84WP4B1ZC1K","either","2","159","","","","","","","0","1","0","","0.8","0.5","0.5","","","0.8","0.2","","","","","","","","","","","","","","","","74","J","0","img/none_selected_demo.jpg","true","0","80_20_practice",""
"","bandit","27","341512","0.0-18.0-9.0","11013358","wem/bandit_party_2","AG84WP4B1ZC1K","either","2","214","","","","","","","0","1","0","","0.8","0.5","0.5","","","0.8","0.2","","","","","","","","","","","","","","","","74","J","0","img/none_selected_demo.jpg","true","0","80_20_practice",""
"","bandit","28","343028","0.0-18.0-10.0","11013358","wem/bandit_party_2","AG84WP4B1ZC1K","either","2","3","","","","","","","1","0","0","0.8","","0.5","0.5","","","","","","","0.8","0.2","","","","","","","","","","","","74","J","0","img/none_selected_demo.jpg","true","0","80_20_practice",""
"","bandit","29","344657","0.0-18.0-11.0","11013358","wem/bandit_party_2","AG84WP4B1ZC1K","either","2","117","","","","","","","1","0","0","0.8","","0.5","0.5","","","","","","","0.8","0.2","","","","","","","","","","","","74","J","0","img/none_selected_demo.jpg","true","0","80_20_practice",""
"","bandit","30","346830","0.0-18.0-12.0","11013358","wem/bandit_party_2","AG84WP4B1ZC1K","either","2","663","","","","","","","0","0","1","0.8","","0.5","0.5","","","","","","","0.8","0.2","","","","","","","","","","","","74","J","0","img/none_selected_demo.jpg","true","0","80_20_practice",""
"","bandit","31","348923","0.0-18.0-13.0","11013358","wem/bandit_party_2","AG84WP4B1ZC1K","either","2","582","","","","","","","0","0","1","0.8","","0.5","0.5","","","","","","","0.8","0.2","","","","","","","","","","","","74","J","0","img/none_selected_demo.jpg","true","0","80_20_practice",""
"","bandit","32","350533","0.0-18.0-14.0","11013358","wem/bandit_party_2","AG84WP4B1ZC1K","either","2","100","","","","","","","1","0","0","0.8","","0.5","0.5","","","","","","","0.8","0.2","","","","","","","","","","","","74","J","0","img/none_selected_demo.jpg","true","0","80_20_practice",""
"","bandit","33","353734","0.0-18.0-15.0","11013358","wem/bandit_party_2","AG84WP4B1ZC1K","either","2","1688","","","","","","","1","0","0","0.8","","0.5","0.5","","","","","","","0.8","0.2","","","","","","","","","","","","74","J","0","img/none_selected_demo.jpg","true","0","80_20_practice",""
"","bandit","34","357707","0.0-18.0-16.0","11013358","wem/bandit_party_2","AG84WP4B1ZC1K","either","2","2458","","","","","","","0","1","0","","0.8","0.5","0.5","","","0.8","0.2","","","","","","","","","","","","","","","","74","J","0","img/none_selected_demo.jpg","true","0","80_20_practice",""
"","bandit","35","361809","0.0-18.0-17.0","11013358","wem/bandit_party_2","AG84WP4B1ZC1K","either","2","2591","","","","","","","1","0","0","0.8","","0.5","0.5","","","","","","","0.8","0.2","","","","","","","","","","","","74","J","0","img/none_selected_demo.jpg","true","0","80_20_practice",""
"","bandit","36","365820","0.0-18.0-18.0","11013358","wem/bandit_party_2","AG84WP4B1ZC1K","either","2","2500","","","","","","","0","0","1","0.8","","0.5","0.5","","","","","","","0.8","0.2","","","","","","","","","","","","74","J","0","img/none_selected_demo.jpg","true","0","80_20_practice",""
"","bandit","37","368949","0.0-18.0-19.0","11013358","wem/bandit_party_2","AG84WP4B1ZC1K","either","2","1616","","","","","","","1","0","0","0.8","","0.5","0.5","","","","","","","0.8","0.2","","","","","","","","","","","","74","J","0","img/none_selected_demo.jpg","true","0","80_20_practice",""
"","text-replacement","38","403125","0.0-19.0","11013358","wem/bandit_party_2","AG84WP4B1ZC1K","either","2","34172","","","32","","","","","","","","","","","","","","","","","","","","","","","","","","","","","","","","","","","","",""
"","bandit","39","408451","0.0-20.0-0.0","11013358","wem/bandit_party_2","AG84WP4B1ZC1K","either","2","3815","","","","","","","0","1","0","0","1","","","","","0","1","","","1","0","","","","","","","","","","","","75","K","1","","true","0","",""
"","text-replacement","40","413996","0.0-21.0","11013358","wem/bandit_party_2","AG84WP4B1ZC1K","either","2","5540","","","74","","","","","","","","","","","","","","","","","","","","","","","","","","","","","","","","","","","","",""
"","text-replacement","41","420348","0.0-22.0","11013358","wem/bandit_party_2","AG84WP4B1ZC1K","either","2","6347","","","32","","","","","","","","","","","","","","","","","","","","","","","","","","","","","","","","","","","","",""
"","text-replacement","42","465964","0.0-23.0","11013358","wem/bandit_party_2","AG84WP4B1ZC1K","either","2","45614","","","32","","","","","","","","","","","","","","","","","","","","","","","","","","","","","","","","","","","","",""
"","text-replacement","43","468916","0.0-24.0","11013358","wem/bandit_party_2","AG84WP4B1ZC1K","either","2","2948","","","32","","","","","","","","","","","","","","","","","","","","","","","","","","","","","","","","","","","","",""
"","text-replacement","44","474170","0.0-25.0","11013358","wem/bandit_party_2","AG84WP4B1ZC1K","either","2","5251","","","32","","","","","","","","","","","","","","","","","","","","","","","","","","","","","","","","","","","","",""
"","text-replacement","45","476394","0.0-26.0","11013358","wem/bandit_party_2","AG84WP4B1ZC1K","either","2","2220","","","32","","","","","","","","","","","","","","","","","","","","","","","","","","","","","","","","","","","","",""
"","text-replacement","46","479594","0.0-27.0","11013358","wem/bandit_party_2","AG84WP4B1ZC1K","either","2","3196","","","32","","","","","","","","","","","","","","","","","","","","","","","","","","","","","","","","","","","","",""
"","text-replacement","47","482538","0.0-28.0","11013358","wem/bandit_party_2","AG84WP4B1ZC1K","either","2","2939","","","32","","","","","","","","","","","","","","","","","","","","","","","","","","","","","","","","","","","","",""
"","text-replacement","48","487464","0.0-29.0","11013358","wem/bandit_party_2","AG84WP4B1ZC1K","either","2","4922","","","32","","","","","","","","","","","","","","","","","","","","","","","","","","","","","","","","","","","","",""
"","text-replacement","49","488947","0.0-30.0","11013358","wem/bandit_party_2","AG84WP4B1ZC1K","either","2","1479","","","32","","","","","","","","","","","","","","","","","","","","","","","","","","","","","","","","","","","","",""
"","text-replacement","50","498196","0.0-31.0","11013358","wem/bandit_party_2","AG84WP4B1ZC1K","either","2","9245","","","32","","","","","","","","","","","","","","","","","","","","","","","","","","","","","","","","","","","","",""
"","bandit","51","500554","0.0-32.0-0.0","11013358","wem/bandit_party_2","AG84WP4B1ZC1K","either","2","846","","","","","","","0","1","0","","0.2","0.5","0.5","0.5","0.5","0.8","0.2","0.6","0.2","","","","","","","","","","","","","","76","L","3","","true","0","full_practice",""
"","bandit","52","502438","0.0-32.0-1.0","11013358","wem/bandit_party_2","AG84WP4B1ZC1K","either","2","371","","","","","","","0","0","1","0.2","","0.5","0.5","0.5","0.5","","","","","0.8","0.2","0.6","0.2","","","","","","","","","","76","L","3","","true","0","full_practice",""
"","bandit","53","504375","0.0-32.0-2.0","11013358","wem/bandit_party_2","AG84WP4B1ZC1K","either","2","418","","","","","","","0","0","1","0.2","","0.5","0.5","0.5","0.5","","","","","0.8","0.2","0.6","0.2","","","","","","","","","","76","L","3","","true","0","full_practice",""
"","bandit","54","506342","0.0-32.0-3.0","11013358","wem/bandit_party_2","AG84WP4B1ZC1K","either","2","455","","","","","","","0","1","0","","0.2","0.5","0.5","0.5","0.5","0.8","0.2","0.6","0.2","","","","","","","","","","","","","","76","L","3","","true","0","full_practice",""
"","bandit","55","508349","0.0-32.0-4.0","11013358","wem/bandit_party_2","AG84WP4B1ZC1K","either","2","497","","","","","","","0","0","1","","0.2","0.5","0.5","0.5","0.5","0.8","0.2","0.6","0.2","","","","","","","","","","","","","","76","L","3","","true","0","full_practice",""
"","bandit","56","509953","0.0-32.0-5.0","11013358","wem/bandit_party_2","AG84WP4B1ZC1K","either","2","92","","","","","","","1","0","0","0.2","","0.5","0.5","0.5","0.5","","","","","0.8","0.2","0.6","0.2","","","","","","","","","","76","L","3","","true","0","full_practice",""
"","bandit","57","511871","0.0-32.0-6.0","11013358","wem/bandit_party_2","AG84WP4B1ZC1K","either","2","408","","","","","","","0","0","1","0.2","","0.5","0.5","0.5","0.5","","","","","0.8","0.2","0.6","0.2","","","","","","","","","","76","L","3","","true","0","full_practice",""
"","bandit","58","513479","0.0-32.0-7.0","11013358","wem/bandit_party_2","AG84WP4B1ZC1K","either","2","97","","","","","","","1","0","0","0.2","","0.5","0.5","0.5","0.5","","","","","0.8","0.2","0.6","0.2","","","","","","","","","","76","L","3","","true","0","full_practice",""
"","bandit","59","515463","0.0-32.0-8.0","11013358","wem/bandit_party_2","AG84WP4B1ZC1K","either","2","471","","","","","","","0","0","1","","0.2","0.5","0.5","0.5","0.5","0.8","0.2","0.6","0.2","","","","","","","","","","","","","","76","L","3","","true","0","full_practice",""
"","bandit","60","517396","0.0-32.0-9.0","11013358","wem/bandit_party_2","AG84WP4B1ZC1K","either","2","421","","","","","","","0","0","1","0.2","","0.5","0.5","0.5","0.5","","","","","0.8","0.2","0.6","0.2","","","","","","","","","","76","L","3","","true","0","full_practice",""
"","bandit","61","519283","0.0-32.0-10.0","11013358","wem/bandit_party_2","AG84WP4B1ZC1K","either","2","377","","","","","","","0","0","1","","0.2","0.5","0.5","0.5","0.5","0.8","0.2","0.6","0.2","","","","","","","","","","","","","","76","L","3","","true","0","full_practice",""
"","bandit","62","521342","0.0-32.0-11.0","11013358","wem/bandit_party_2","AG84WP4B1ZC1K","either","2","546","","","","","","","0","0","1","0.2","","0.5","0.5","0.5","0.5","","","","","0.8","0.2","0.6","0.2","","","","","","","","","","76","L","3","","true","0","full_practice",""
"","bandit","63","523243","0.0-32.0-12.0","11013358","wem/bandit_party_2","AG84WP4B1ZC1K","either","2","389","","","","","","","0","0","1","","0.2","0.5","0.5","0.5","0.5","0.8","0.2","0.6","0.2","","","","","","","","","","","","","","76","L","3","","true","0","full_practice",""
"","bandit","64","525262","0.0-32.0-13.0","11013358","wem/bandit_party_2","AG84WP4B1ZC1K","either","2","505","","","","","","","1","0","0","0.2","","0.5","0.5","0.5","0.5","","","","","0.8","0.2","0.6","0.2","","","","","","","","","","76","L","3","","true","0","full_practice",""
"","bandit","65","527198","0.0-32.0-14.0","11013358","wem/bandit_party_2","AG84WP4B1ZC1K","either","2","423","","","","","","","0","0","1","0.2","","0.5","0.5","0.5","0.5","","","","","0.8","0.2","0.6","0.2","","","","","","","","","","76","L","3","","true","0","full_practice",""
"","bandit","66","529062","0.0-32.0-15.0","11013358","wem/bandit_party_2","AG84WP4B1ZC1K","either","2","352","","","","","","","0","0","1","0.2","","0.5","0.5","0.5","0.5","","","","","0.8","0.2","0.6","0.2","","","","","","","","","","76","L","3","","true","0","full_practice",""
"","bandit","67","530990","0.0-32.0-16.0","11013358","wem/bandit_party_2","AG84WP4B1ZC1K","either","2","413","","","","","","","0","0","1","0.2","","0.5","0.5","0.5","0.5","","","","","0.8","0.2","0.6","0.2","","","","","","","","","","76","L","3","","true","0","full_practice",""
"","bandit","68","532981","0.0-32.0-17.0","11013358","wem/bandit_party_2","AG84WP4B1ZC1K","either","2","480","","","","","","","0","1","0","","0.6","0.5","0.5","0.5","0.5","0.8","0.2","0.6","0.2","","","","","","","","","","","","","","75","K","2","","true","0","full_practice",""
"","bandit","69","534853","0.0-32.0-18.0","11013358","wem/bandit_party_2","AG84WP4B1ZC1K","either","2","360","","","","","","","1","0","0","0.6","","0.5","0.5","0.5","0.5","","","","","0.8","0.2","0.6","0.2","","","","","","","","","","75","K","2","","true","0","full_practice",""
"","bandit","70","536757","0.0-32.0-19.0","11013358","wem/bandit_party_2","AG84WP4B1ZC1K","either","2","392","","","","","","","0","0","1","0.6","","0.5","0.5","0.5","0.5","","","","","0.8","0.2","0.6","0.2","","","","","","","","","","75","K","2","","true","0","full_practice",""
"","text","71","539929","0.0-33.0","11013358","wem/bandit_party_2","AG84WP4B1ZC1K","either","2","3153","","","32","","","","","","","","","","","","","","","","","","","","","","","","","","","","","","","","","","","","",""
"","text-replacement","72","630567","0.0-34.0","11013358","wem/bandit_party_2","AG84WP4B1ZC1K","either","2","89630","","","32","","","","","","","","","","","","","","","","","","","","","","","","","","","","","","","","","","","","",""
"","text-replacement","73","643254","0.0-35.0","11013358","wem/bandit_party_2","AG84WP4B1ZC1K","either","2","12680","","","32","","","","","","","","","","","","","","","","","","","","","","","","","","","","","","","","","","","","",""
"","text-replacement","74","648727","0.0-36.0","11013358","wem/bandit_party_2","AG84WP4B1ZC1K","either","2","5468","","","32","","","","","","","","","","","","","","","","","","","","","","","","","","","","","","","","","","","","",""
"","text-replacement","75","654648","0.0-37.0","11013358","wem/bandit_party_2","AG84WP4B1ZC1K","either","2","5914","","","32","","","","","","","","","","","","","","","","","","","","","","","","","","","","","","","","","","","","",""
"","text-replacement","76","657917","0.0-38.0","11013358","wem/bandit_party_2","AG84WP4B1ZC1K","either","2","3263","","","32","","","","","","","","","","","","","","","","","","","","","","","","","","","","","","","","","","","","",""
"","survey-multi-choice-replacement","77","664296","0.0-39.0-0.0","11013358","wem/bandit_party_2","AG84WP4B1ZC1K","either","2","6354","","","","","","","","","","","","","","","","","","","","","","","","Money will be added to the pool for <span style='color:red;'>REPUBLICANS</span>","","","","","","","attn_check","","","","","","","","","0"
"","survey-multi-choice-replacement","78","668445","0.0-40.0-0.0","11013358","wem/bandit_party_2","AG84WP4B1ZC1K","either","2","3121","","","","","","","","","","","","","","","","","","","","","","","","Equal amounts of money will be added to the pool for <span style='color:red;'>REPUBLICANS</span> and subtracted from the pool for <span style='color:blue;'>DEMOCRATS</span>","","","","","","","attn_check","","","","","","","","","2"
"","survey-multi-choice-replacement","79","671588","0.0-41.0-0.0","11013358","wem/bandit_party_2","AG84WP4B1ZC1K","either","2","2112","","","","","","","","","","","","","","","","","","","","","","","","No money will be added to either pool","","","","","","","attn_check","","","","","","","","","3"
"","bandit","80","677288","0.0-42.0-0.0","11013358","wem/bandit_party_2","AG84WP4B1ZC1K","either","2","3181","","","","","","","0","1","0","","0.9925337928","0.8","0.4","0.6","0.2","0.4841938304","0.7961415707","0.7092854079","0.9925337928","","","","","","","","","","","","","","76","L","3","","","1","main_expt",""
"","bandit","81","679281","0.0-43.0-0.0","11013358","wem/bandit_party_2","AG84WP4B1ZC1K","either","2","480","","","","","","","1","0","0","0.9909612399","","0.8","0.4","0.6","0.2","","","","","0.5300888233","0.7739630809","0.7343230146","0.9909612399","","","","","","","","","","76","L","3","","","2","main_expt",""
"","bandit","82","681549","0.0-44.0-0.0","11013358","wem/bandit_party_2","AG84WP4B1ZC1K","either","2","755","","","","","","","1","0","0","0.9875934203","","0.8","0.4","0.6","0.2","","","","","0.4747636274","0.807852523","0.7616266478","0.9875934203","","","","","","","","","","76","L","3","","","3","main_expt",""
"","bandit","83","683605","0.0-45.0-0.0","11013358","wem/bandit_party_2","AG84WP4B1ZC1K","either","2","542","","","","","","","0","1","0","","0.9782241123","0.8","0.4","0.6","0.2","0.4841015375","0.7922386472","0.7555889459","0.9782241123","","","","","","","","","","","","","","76","L","3","","","4","main_expt",""
"","bandit","84","685642","0.0-46.0-0.0","11013358","wem/bandit_party_2","AG84WP4B1ZC1K","either","2","525","","","","","","","0","1","0","","0.9756627961","0.8","0.4","0.6","0.2","0.5545204825","0.865094385","0.733520678","0.9756627961","","","","","","","","","","","","","","76","L","3","","","5","main_expt",""
"","bandit","85","687690","0.0-47.0-0.0","11013358","wem/bandit_party_2","AG84WP4B1ZC1K","either","2","536","","","","","","","0","1","0","","0.967089612","0.8","0.4","0.6","0.2","0.6032406034","0.800956518","0.6705264102","0.967089612","","","","","","","","","","","","","","76","L","3","","","6","main_expt",""
"","bandit","86","689799","0.0-48.0-0.0","11013358","wem/bandit_party_2","AG84WP4B1ZC1K","either","2","598","","","","","","","0","1","0","","0.9581374084","0.8","0.4","0.6","0.2","0.6629125932","0.826484282","0.6395389268","0.9581374084","","","","","","","","","","","","","","76","L","3","","","7","main_expt",""
"","bandit","87","692186","0.0-49.0-0.0","11013358","wem/bandit_party_2","AG84WP4B1ZC1K","either","2","873","","","","","","","0","1","0","","0.9470057872","0.8","0.4","0.6","0.2","0.6179372523","0.8721258401","0.6463283336","0.9470057872","","","","","","","","","","","","","","76","L","3","","","8","main_expt",""
"","bandit","88","695324","0.0-50.0-0.0","11013358","wem/bandit_party_2","AG84WP4B1ZC1K","either","2","1625","","","","","","","0","0","1","0.9776699295","","0.8","0.4","0.6","0.2","","","","","0.7126464358","0.9123847657","0.5257156782","0.9776699295","","","","","","","","","","76","L","3","","","9","main_expt",""
"","bandit","89","697420","0.0-51.0-0.0","11013358","wem/bandit_party_2","AG84WP4B1ZC1K","either","2","582","","","","","","","0","1","0","","0.9728878591","0.8","0.4","0.6","0.2","0.7356985298","0.8996742502","0.4763364632","0.9728878591","","","","","","","","","","","","","","76","L","3","","","10","main_expt",""
"","bandit","90","699666","0.0-52.0-0.0","11013358","wem/bandit_party_2","AG84WP4B1ZC1K","either","2","734","","","","","","","0","0","1","","0.9593139104","0.8","0.4","0.6","0.2","0.768711937","0.9131723876","0.4284616273","0.9593139104","","","","","","","","","","","","","","76","L","3","","","11","main_expt",""
"","bandit","91","701739","0.0-53.0-0.0","11013358","wem/bandit_party_2","AG84WP4B1ZC1K","either","2","558","","","","","","","0","1","0","","0.9498917819","0.8","0.4","0.6","0.2","0.775032537","0.8766857583","0.3846657661","0.9498917819","","","","","","","","","","","","","","76","L","3","","","12","main_expt",""
"","bandit","92","704079","0.0-54.0-0.0","11013358","wem/bandit_party_2","AG84WP4B1ZC1K","either","2","826","","","","","","","0","1","0","","0.9541602679","0.8","0.4","0.6","0.2","0.8005481332","0.8395211377","0.4534267517","0.9541602679","","","","","","","","","","","","","","76","L","3","","","13","main_expt",""
"","bandit","93","706229","0.0-55.0-0.0","11013358","wem/bandit_party_2","AG84WP4B1ZC1K","either","2","637","","","","","","","0","0","1","","0.9457654821","0.8","0.4","0.6","0.2","0.8437703121","0.8716273459","0.5781166702","0.9457654821","","","","","","","","","","","","","","76","L","3","","","14","main_expt",""
"","bandit","94","708143","0.0-56.0-0.0","11013358","wem/bandit_party_2","AG84WP4B1ZC1K","either","2","406","","","","","","","0","1","0","","0.961431504","0.8","0.4","0.6","0.2","0.7878475566","0.8884181174","0.6683268695","0.961431504","","","","","","","","","","","","","","76","L","3","","","15","main_expt",""
"","bandit","95","710307","0.0-57.0-0.0","11013358","wem/bandit_party_2","AG84WP4B1ZC1K","either","2","651","","","","","","","0","1","0","","0.9614480804","0.8","0.4","0.6","0.2","0.7873795395","0.9144873871","0.6948649322","0.9614480804","","","","","","","","","","","","","","76","L","3","","","16","main_expt",""
"","bandit","96","712483","0.0-58.0-0.0","11013358","wem/bandit_party_2","AG84WP4B1ZC1K","either","2","666","","","","","","","0","1","0","","0.981184269","0.8","0.4","0.6","0.2","0.8084550093","0.915766025","0.7674725463","0.981184269","","","","","","","","","","","","","","76","L","3","","","17","main_expt",""
"","bandit","97","714637","0.0-59.0-0.0","11013358","wem/bandit_party_2","AG84WP4B1ZC1K","either","2","641","","","","","","","0","1","0","","0.9861919244","0.8","0.4","0.6","0.2","0.8436933745","0.9357816117","0.7706733977","0.9861919244","","","","","","","","","","","","","","76","L","3","","","18","main_expt",""
"","bandit","98","716661","0.0-60.0-0.0","11013358","wem/bandit_party_2","AG84WP4B1ZC1K","either","2","509","","","","","","","0","1","0","","0.986789567","0.8","0.4","0.6","0.2","0.8059530903","0.9482019282","0.7396491891","0.986789567","","","","","","","","","","","","","","76","L","3","","","19","main_expt",""
"","bandit","99","718793","0.0-61.0-0.0","11013358","wem/bandit_party_2","AG84WP4B1ZC1K","either","2","618","","","","","","","0","1","0","","0.986183881","0.8","0.4","0.6","0.2","0.7839513496","0.9433726768","0.6712916173","0.986183881","","","","","","","","","","","","","","76","L","3","","","20","main_expt",""
"","bandit","100","720880","0.0-62.0-0.0","11013358","wem/bandit_party_2","AG84WP4B1ZC1K","either","2","575","","","","","","","0","1","0","","0.9887099493","0.8","0.4","0.6","0.2","0.7841815244","0.9488284628","0.6728887443","0.9887099493","","","","","","","","","","","","","","76","L","3","","","21","main_expt",""
"","bandit","101","722962","0.0-63.0-0.0","11013358","wem/bandit_party_2","AG84WP4B1ZC1K","either","2","567","","","","","","","0","1","0","","0.992558567","0.8","0.4","0.6","0.2","0.8256278583","0.9500515088","0.7838502077","0.992558567","","","","","","","","","","","","","","76","L","3","","","22","main_expt",""
"","bandit","102","725036","0.0-64.0-0.0","11013358","wem/bandit_party_2","AG84WP4B1ZC1K","either","2","560","","","","","","","0","1","0","","0.9906074595","0.8","0.4","0.6","0.2","0.7043778873","0.9645760881","0.8711917965","0.9906074595","","","","","","","","","","","","","","76","L","3","","","23","main_expt",""
"","bandit","103","727036","0.0-65.0-0.0","11013358","wem/bandit_party_2","AG84WP4B1ZC1K","either","2","484","","","","","","","1","0","0","0.9828703082","","0.8","0.4","0.6","0.2","","","","","0.7662705475","0.946785539","0.861124964","0.9828703082","","","","","","","","","","76","L","3","","","24","main_expt",""
"","bandit","104","729030","0.0-66.0-0.0","11013358","wem/bandit_party_2","AG84WP4B1ZC1K","either","2","481","","","","","","","0","1","0","","0.984618899","0.8","0.4","0.6","0.2","0.6915147264","0.9229473608","0.8551403996","0.984618899","","","","","","","","","","","","","","76","L","3","","","25","main_expt",""
"","bandit","105","731029","0.0-67.0-0.0","11013358","wem/bandit_party_2","AG84WP4B1ZC1K","either","2","486","","","","","","","0","1","0","","0.9780938917","0.8","0.4","0.6","0.2","0.6844606422","0.8729820127","0.8959771014","0.9780938917","","","","","","","","","","","","","","76","L","3","","","26","main_expt",""
"","bandit","106","733058","0.0-68.0-0.0","11013358","wem/bandit_party_2","AG84WP4B1ZC1K","either","2","516","","","","","","","0","1","0","","0.9634866904","0.8","0.4","0.6","0.2","0.7953701942","0.859067388","0.8786292531","0.9634866904","","","","","","","","","","","","","","76","L","3","","","27","main_expt",""
"","bandit","107","735114","0.0-69.0-0.0","11013358","wem/bandit_party_2","AG84WP4B1ZC1K","either","2","542","","","","","","","0","1","0","","0.946494378","0.8","0.4","0.6","0.2","0.622657036","0.836267867","0.8920593834","0.946494378","","","","","","","","","","","","","","76","L","3","","","28","main_expt",""
"","bandit","108","737122","0.0-70.0-0.0","11013358","wem/bandit_party_2","AG84WP4B1ZC1K","either","2","496","","","","","","","0","0","1","","0.9338647731","0.8","0.4","0.6","0.2","0.5757463716","0.7158546556","0.8234517222","0.9338647731","","","","","","","","","","","","","","76","L","3","","","29","main_expt",""
"","bandit","109","739063","0.0-71.0-0.0","11013358","wem/bandit_party_2","AG84WP4B1ZC1K","either","2","425","","","","","","","0","1","0","","0.9354801528","0.8","0.4","0.6","0.2","0.6048158844","0.7262950886","0.7963444676","0.9354801528","","","","","","","","","","","","","","76","L","3","","","30","main_expt",""
"","bandit","110","741079","0.0-72.0-0.0","11013358","wem/bandit_party_2","AG84WP4B1ZC1K","either","2","505","","","","","","","1","0","0","0.9323861487","","0.8","0.4","0.6","0.2","","","","","0.4831208743","0.7049485024","0.6847131082","0.9323861487","","","","","","","","","","76","L","3","","","31","main_expt",""
"","bandit","111","743111","0.0-73.0-0.0","11013358","wem/bandit_party_2","AG84WP4B1ZC1K","either","2","519","","","","","","","1","0","0","0.9159531952","","0.8","0.4","0.6","0.2","","","","","0.4413454117","0.6294605358","0.7745616343","0.9159531952","","","","","","","","","","76","L","3","","","32","main_expt",""
"","bandit","112","745059","0.0-74.0-0.0","11013358","wem/bandit_party_2","AG84WP4B1ZC1K","either","2","435","","","","","","","0","1","0","","0.9501333659","0.8","0.4","0.6","0.2","0.589686364","0.7097184707","0.8111568365","0.9501333659","","","","","","","","","","","","","","76","L","3","","","33","main_expt",""
"","bandit","113","747111","0.0-75.0-0.0","11013358","wem/bandit_party_2","AG84WP4B1ZC1K","either","2","538","","","","","","","0","1","0","","0.9485118263","0.8","0.4","0.6","0.2","0.5789977489","0.6324728327","0.7291364049","0.9485118263","","","","","","","","","","","","","","76","L","3","","","34","main_expt",""
"","bandit","114","749010","0.0-76.0-0.0","11013358","wem/bandit_party_2","AG84WP4B1ZC1K","either","2","379","","","","","","","1","0","0","0.959491173","","0.8","0.4","0.6","0.2","","","","","0.5605822786","0.6809104991","0.7920219322","0.959491173","","","","","","","","","","76","L","3","","","35","main_expt",""
"","bandit","115","750885","0.0-77.0-0.0","11013358","wem/bandit_party_2","AG84WP4B1ZC1K","either","2","361","","","","","","","0","1","0","","0.9523687656","0.8","0.4","0.6","0.2","0.3330948712","0.5745256001","0.7889809596","0.9523687656","","","","","","","","","","","","","","76","L","3","","","36","main_expt",""
"","bandit","116","752797","0.0-78.0-0.0","11013358","wem/bandit_party_2","AG84WP4B1ZC1K","either","2","396","","","","","","","0","1","0","","0.9504344127","0.8","0.4","0.6","0.2","0.2430176499","0.6249275122","0.8060385269","0.9504344127","","","","","","","","","","","","","","76","L","3","","","37","main_expt",""
"","bandit","117","754704","0.0-79.0-0.0","11013358","wem/bandit_party_2","AG84WP4B1ZC1K","either","2","393","","","","","","","0","1","0","","0.9321408283","0.8","0.4","0.6","0.2","0.3106083343","0.5582777804","0.7188782676","0.9321408283","","","","","","","","","","","","","","76","L","3","","","38","main_expt",""
"","bandit","118","756571","0.0-80.0-0.0","11013358","wem/bandit_party_2","AG84WP4B1ZC1K","either","2","353","","","","","","","0","1","0","","0.9135525369","0.8","0.4","0.6","0.2","0.3239447463","0.6619895395","0.7387945131","0.9135525369","","","","","","","","","","","","","","76","L","3","","","39","main_expt",""
"","bandit","119","758507","0.0-81.0-0.0","11013358","wem/bandit_party_2","AG84WP4B1ZC1K","either","2","423","","","","","","","0","1","0","","0.8840916364","0.8","0.4","0.6","0.2","0.2946631509","0.6522152691","0.7478035428","0.8840916364","","","","","","","","","","","","","","76","L","3","","","40","main_expt",""
"","bandit","120","760588","0.0-82.0-0.0","11013358","wem/bandit_party_2","AG84WP4B1ZC1K","either","2","568","","","","","","","1","0","0","0.8747037504","","0.8","0.4","0.6","0.2","","","","","0.193597671","0.6714070371","0.7802386085","0.8747037504","","","","","","","","","","76","L","3","","","41","main_expt",""
"","bandit","121","762511","0.0-83.0-0.0","11013358","wem/bandit_party_2","AG84WP4B1ZC1K","either","2","407","","","","","","","1","0","0","0.826315498","","0.8","0.4","0.6","0.2","","","","","0.1834529884","0.6390104416","0.7994277013","0.826315498","","","","","","","","","","76","L","3","","","42","main_expt",""
"","bandit","122","764426","0.0-84.0-0.0","11013358","wem/bandit_party_2","AG84WP4B1ZC1K","either","2","401","","","","","","","0","0","1","","0.7681371561","0.8","0.4","0.6","0.2","0.1558663495","0.6318841448","0.8718069658","0.7681371561","","","","","","","","","","","","","","76","L","3","","","43","main_expt",""
"","bandit","123","766602","0.0-85.0-0.0","11013358","wem/bandit_party_2","AG84WP4B1ZC1K","either","2","660","","","","","","","0","1","0","","0.7584360225","0.8","0.4","0.6","0.2","0.1573065196","0.5708139437","0.7725207311","0.7584360225","","","","","","","","","","","","","","76","L","3","","","44","main_expt",""
"","bandit","124","770477","0.0-86.0-0.0","11013358","wem/bandit_party_2","AG84WP4B1ZC1K","either","2","2362","","","","","","","1","0","0","0.816959585","","0.8","0.4","0.6","0.2","","","","","0.1743203636","0.5703812278","0.8399140445","0.816959585","","","","","","","","","","76","L","3","","","45","main_expt",""
"","bandit","125","772844","0.0-87.0-0.0","11013358","wem/bandit_party_2","AG84WP4B1ZC1K","either","2","853","","","","","","","0","0","1","","0.7571269921","0.8","0.4","0.6","0.2","0.1234040722","0.4520700595","0.7830678696","0.7571269921","","","","","","","","","","","","","","76","L","3","","","46","main_expt",""
"","bandit","126","774772","0.0-88.0-0.0","11013358","wem/bandit_party_2","AG84WP4B1ZC1K","either","2","411","","","","","","","0","1","0","","0.7086567283","0.8","0.4","0.6","0.2","0.1592846429","0.4953600952","0.8255209912","0.7086567283","","","","","","","","","","","","","","76","L","3","","","47","main_expt",""
"","bandit","127","776738","0.0-89.0-0.0","11013358","wem/bandit_party_2","AG84WP4B1ZC1K","either","2","453","","","","","","","1","0","0","0.6428227569","","0.8","0.4","0.6","0.2","","","","","0.1880090658","0.4912921637","0.7728754614","0.6428227569","","","","","","","","","","76","L","3","","","48","main_expt",""
"","bandit","128","778665","0.0-90.0-0.0","11013358","wem/bandit_party_2","AG84WP4B1ZC1K","either","2","412","","","","","","","0","1","0","","0.7004196772","0.8","0.4","0.6","0.2","0.3190576765","0.4694413912","0.8607162984","0.7004196772","","","","","","","","","","","","","","76","L","3","","","49","main_expt",""
"","bandit","129","780695","0.0-91.0-0.0","11013358","wem/bandit_party_2","AG84WP4B1ZC1K","either","2","512","","","","","","","0","1","0","","0.6418514465","0.8","0.4","0.6","0.2","0.277770718","0.5835687148","0.8526113732","0.6418514465","","","","","","","","","","","","","","76","L","3","","","50","main_expt",""
"","bandit","130","782703","0.0-92.0-0.0","11013358","wem/bandit_party_2","AG84WP4B1ZC1K","either","2","499","","","","","","","1","0","0","0.6322169777","","0.8","0.4","0.6","0.2","","","","","0.3304163056","0.581499138","0.8630835666","0.6322169777","","","","","","","","","","76","L","3","","","51","main_expt",""
"","bandit","131","784681","0.0-93.0-0.0","11013358","wem/bandit_party_2","AG84WP4B1ZC1K","either","2","463","","","","","","","1","0","0","0.6160259873","","0.8","0.4","0.6","0.2","","","","","0.3074301744","0.6521379128","0.8689990829","0.6160259873","","","","","","","","","","76","L","3","","","52","main_expt",""
"","bandit","132","786639","0.0-94.0-0.0","11013358","wem/bandit_party_2","AG84WP4B1ZC1K","either","2","444","","","","","","","1","0","0","0.6635838846","","0.8","0.4","0.6","0.2","","","","","0.3292402402","0.5743957808","0.8829627288","0.6635838846","","","","","","","","","","76","L","3","","","53","main_expt",""
"","bandit","133","788603","0.0-95.0-0.0","11013358","wem/bandit_party_2","AG84WP4B1ZC1K","either","2","449","","","","","","","0","1","0","","0.7334380463","0.8","0.4","0.6","0.2","0.3701383524","0.4765250731","0.8577096669","0.7334380463","","","","","","","","","","","","","","76","L","3","","","54","main_expt",""
"","bandit","134","790773","0.0-96.0-0.0","11013358","wem/bandit_party_2","AG84WP4B1ZC1K","either","2","653","","","","","","","0","0","1","","0.6625049704","0.8","0.4","0.6","0.2","0.4023440482","0.472038817","0.7951355038","0.6625049704","","","","","","","","","","","","","","76","L","3","","","55","main_expt",""
"","bandit","135","792704","0.0-97.0-0.0","11013358","wem/bandit_party_2","AG84WP4B1ZC1K","either","2","416","","","","","","","0","1","0","","0.6244126183","0.8","0.4","0.6","0.2","0.3320470731","0.6060805283","0.7832403428","0.6244126183","","","","","","","","","","","","","","76","L","3","","","56","main_expt",""
"","bandit","136","794678","0.0-98.0-0.0","11013358","wem/bandit_party_2","AG84WP4B1ZC1K","either","2","460","","","","","","","0","0","1","0.693445159","","0.8","0.4","0.6","0.2","","","","","0.3398704556","0.5733746242","0.7165346004","0.693445159","","","","","","","","","","76","L","3","","","57","main_expt",""
"","bandit","137","796619","0.0-99.0-0.0","11013358","wem/bandit_party_2","AG84WP4B1ZC1K","either","2","425","","","","","","","1","0","0","0.6603141298","","0.8","0.4","0.6","0.2","","","","","0.3171476707","0.5268086549","0.7840704931","0.6603141298","","","","","","","","","","76","L","3","","","58","main_expt",""
"","bandit","138","798545","0.0-100.0-0.0","11013358","wem/bandit_party_2","AG84WP4B1ZC1K","either","2","411","","","","","","","0","1","0","","0.6435133917","0.8","0.4","0.6","0.2","0.1868584885","0.5298916697","0.7166558068","0.6435133917","","","","","","","","","","","","","","76","L","3","","","59","main_expt",""
"","bandit","139","800557","0.0-101.0-0.0","11013358","wem/bandit_party_2","AG84WP4B1ZC1K","either","2","497","","","","","","","1","0","0","0.6720075741","","0.8","0.4","0.6","0.2","","","","","0.2163153633","0.5547432704","0.6505055492","0.6720075741","","","","","","","","","","76","L","3","","","60","main_expt",""
"","bandit","140","802486","0.0-102.0-0.0","11013358","wem/bandit_party_2","AG84WP4B1ZC1K","either","2","415","","","","","","","0","0","1","","0.6703611074","0.8","0.4","0.6","0.2","0.2086512551","0.5407031957","0.6465946667","0.6703611074","","","","","","","","","","","","","","76","L","3","","","61","main_expt",""
"","bandit","141","804341","0.0-103.0-0.0","11013358","wem/bandit_party_2","AG84WP4B1ZC1K","either","2","339","","","","","","","0","1","0","","0.64477312","0.8","0.4","0.6","0.2","0.2250062338","0.6993449034","0.709990362","0.64477312","","","","","","","","","","","","","","76","L","3","","","62","main_expt",""
"","bandit","142","806367","0.0-104.0-0.0","11013358","wem/bandit_party_2","AG84WP4B1ZC1K","either","2","510","","","","","","","0","1","0","","0.509049177","0.8","0.4","0.6","0.2","0.2739380208","0.6342967703","0.7542168012","0.509049177","","","","","","","","","","","","","","76","L","3","","","63","main_expt",""
"","bandit","143","808373","0.0-105.0-0.0","11013358","wem/bandit_party_2","AG84WP4B1ZC1K","either","2","490","","","","","","","0","1","0","","0.5535424332","0.8","0.4","0.6","0.2","0.3449536465","0.5961490325","0.7660604158","0.5535424332","","","","","","","","","","","","","","76","L","3","","","64","main_expt",""
"","bandit","144","810227","0.0-106.0-0.0","11013358","wem/bandit_party_2","AG84WP4B1ZC1K","either","2","337","","","","","","","0","0","1","","0.6608621899","0.8","0.4","0.6","0.2","0.34640195","0.5771190674","0.7572602099","0.6608621899","","","","","","","","","","","","","","76","L","3","","","65","main_expt",""
"","bandit","145","812172","0.0-107.0-0.0","11013358","wem/bandit_party_2","AG84WP4B1ZC1K","either","2","430","","","","","","","0","1","0","","0.6535341977","0.8","0.4","0.6","0.2","0.5266288285","0.4765921407","0.686926195","0.6535341977","","","","","","","","","","","","","","76","L","3","","","66","main_expt",""
"","bandit","146","814251","0.0-108.0-0.0","11013358","wem/bandit_party_2","AG84WP4B1ZC1K","either","2","564","","","","","","","0","0","1","0.6592628399","","0.8","0.4","0.6","0.2","","","","","0.5588671697","0.5714361875","0.7334195653","0.6592628399","","","","","","","","","","76","L","3","","","67","main_expt",""
"","bandit","147","816159","0.0-109.0-0.0","11013358","wem/bandit_party_2","AG84WP4B1ZC1K","either","2","392","","","","","","","0","1","0","","0.6735013879","0.8","0.4","0.6","0.2","0.6097536784","0.6231829193","0.6114245881","0.6735013879","","","","","","","","","","","","","","76","L","3","","","68","main_expt",""
"","bandit","148","818139","0.0-110.0-0.0","11013358","wem/bandit_party_2","AG84WP4B1ZC1K","either","2","464","","","","","","","0","0","1","","0.7209687993","0.8","0.4","0.6","0.2","0.533457584","0.5130256365","0.6460921668","0.7209687993","","","","","","","","","","","","","","76","L","3","","","69","main_expt",""
"","bandit","149","820076","0.0-111.0-0.0","11013358","wem/bandit_party_2","AG84WP4B1ZC1K","either","2","421","","","","","","","0","0","1","","0.690528825","0.8","0.4","0.6","0.2","0.4124750721","0.5167166","0.6700702736","0.690528825","","","","","","","","","","","","","","76","L","3","","","70","main_expt",""
"","bandit","150","822082","0.0-112.0-0.0","11013358","wem/bandit_party_2","AG84WP4B1ZC1K","either","2","493","","","","","","","0","0","1","","0.6453310316","0.8","0.4","0.6","0.2","0.4486526525","0.6448170737","0.6388012411","0.6453310316","","","","","","","","","","","","","","76","L","3","","","71","main_expt",""
"","bandit","151","823994","0.0-113.0-0.0","11013358","wem/bandit_party_2","AG84WP4B1ZC1K","either","2","395","","","","","","","0","0","1","","0.6046900378","0.8","0.4","0.6","0.2","0.4313602212","0.5640434706","0.6046900378","0.8140348339","","","","","","","","","","","","","","75","K","2","","","72","main_expt",""
"","bandit","152","826123","0.0-114.0-0.0","11013358","wem/bandit_party_2","AG84WP4B1ZC1K","either","2","614","","","","","","","1","0","0","0.6062428704","","0.8","0.4","0.6","0.2","","","","","0.3639072561","0.6296110197","0.6062428704","0.820931829","","","","","","","","","","75","K","2","","","73","main_expt",""
"","bandit","153","828133","0.0-115.0-0.0","11013358","wem/bandit_party_2","AG84WP4B1ZC1K","either","2","493","","","","","","","1","0","0","0.6237194739","","0.8","0.4","0.6","0.2","","","","","0.2882181569","0.6730210969","0.6237194739","0.8096233945","","","","","","","","","","75","K","2","","","74","main_expt",""
"","bandit","154","830292","0.0-116.0-0.0","11013358","wem/bandit_party_2","AG84WP4B1ZC1K","either","2","644","","","","","","","0","0","1","0.5971007372","","0.8","0.4","0.6","0.2","","","","","0.3561187133","0.5720403827","0.5971007372","0.7615001707","","","","","","","","","","75","K","2","","","75","main_expt",""
"","bandit","155","832151","0.0-117.0-0.0","11013358","wem/bandit_party_2","AG84WP4B1ZC1K","either","2","342","","","","","","","1","0","0","0.5810032438","","0.8","0.4","0.6","0.2","","","","","0.4480894403","0.6303512149","0.5810032438","0.8147365981","","","","","","","","","","75","K","2","","","76","main_expt",""
"","bandit","156","834034","0.0-118.0-0.0","11013358","wem/bandit_party_2","AG84WP4B1ZC1K","either","2","367","","","","","","","0","0","1","0.5792233978","","0.8","0.4","0.6","0.2","","","","","0.3220850356","0.5531797874","0.5792233978","0.8926338818","","","","","","","","","","75","K","2","","","77","main_expt",""
"","bandit","157","835901","0.0-119.0-0.0","11013358","wem/bandit_party_2","AG84WP4B1ZC1K","either","2","345","","","","","","","1","0","0","0.692511921","","0.8","0.4","0.6","0.2","","","","","0.3281133775","0.5449672882","0.692511921","0.8669072201","","","","","","","","","","75","K","2","","","78","main_expt",""
"","bandit","158","837796","0.0-120.0-0.0","11013358","wem/bandit_party_2","AG84WP4B1ZC1K","either","2","377","","","","","","","1","0","0","0.7019625083","","0.8","0.4","0.6","0.2","","","","","0.3814329202","0.4484013318","0.7019625083","0.9114006046","","","","","","","","","","75","K","2","","","79","main_expt",""
"","bandit","159","839682","0.0-121.0-0.0","11013358","wem/bandit_party_2","AG84WP4B1ZC1K","either","2","370","","","","","","","1","0","0","0.6785675641","","0.8","0.4","0.6","0.2","","","","","0.3512572076","0.5041425745","0.6785675641","0.9268398106","","","","","","","","","","75","K","2","","","80","main_expt",""
"","bandit","160","841546","0.0-122.0-0.0","11013358","wem/bandit_party_2","AG84WP4B1ZC1K","either","2","347","","","","","","","1","0","0","0.7101061672","","0.8","0.4","0.6","0.2","","","","","0.3624285329","0.3462078978","0.7101061672","0.9582858862","","","","","","","","","","75","K","2","","","81","main_expt",""
"","bandit","161","843329","0.0-123.0-0.0","11013358","wem/bandit_party_2","AG84WP4B1ZC1K","either","2","270","","","","","","","0","0","1","0.7217376576","","0.8","0.4","0.6","0.2","","","","","0.3111883408","0.3226795418","0.7217376576","0.9590071975","","","","","","","","","","75","K","2","","","82","main_expt",""
"","bandit","162","845164","0.0-124.0-0.0","11013358","wem/bandit_party_2","AG84WP4B1ZC1K","either","2","319","","","","","","","0","0","1","","0.6437777395","0.8","0.4","0.6","0.2","0.243162563","0.3023868023","0.6437777395","0.9379973093","","","","","","","","","","","","","","75","K","2","","","83","main_expt",""
"","bandit","163","847001","0.0-125.0-0.0","11013358","wem/bandit_party_2","AG84WP4B1ZC1K","either","2","323","","","","","","","0","0","1","0.6533183273","","0.8","0.4","0.6","0.2","","","","","0.347146949","0.4040419094","0.6533183273","0.9411979228","","","","","","","","","","75","K","2","","","84","main_expt",""
"","bandit","164","848836","0.0-126.0-0.0","11013358","wem/bandit_party_2","AG84WP4B1ZC1K","either","2","318","","","","","","","0","1","0","","0.4716136817","0.8","0.4","0.6","0.2","0.4416309426","0.4716136817","0.7469548387","0.9441700551","","","","","","","","","","","","","","74","J","1","","","85","main_expt",""
"","bandit","165","850690","0.0-127.0-0.0","11013358","wem/bandit_party_2","AG84WP4B1ZC1K","either","2","339","","","","","","","1","0","0","0.4455883603","","0.8","0.4","0.6","0.2","","","","","0.4523797492","0.4455883603","0.7366570046","0.9323605113","","","","","","","","","","74","J","1","","","86","main_expt",""
"","bandit","166","852537","0.0-128.0-0.0","11013358","wem/bandit_party_2","AG84WP4B1ZC1K","either","2","329","","","","","","","0","0","1","","0.5952575165","0.8","0.4","0.6","0.2","0.4621103264","0.5952575165","0.7142428019","0.8871332711","","","","","","","","","","","","","","74","J","1","","","87","main_expt",""
"","bandit","167","854370","0.0-129.0-0.0","11013358","wem/bandit_party_2","AG84WP4B1ZC1K","either","2","318","","","","","","","0","0","1","0.5333825583","","0.8","0.4","0.6","0.2","","","","","0.3800084876","0.5333825583","0.7057172343","0.8520973281","","","","","","","","","","74","J","1","","","88","main_expt",""
"","bandit","168","856213","0.0-130.0-0.0","11013358","wem/bandit_party_2","AG84WP4B1ZC1K","either","2","327","","","","","","","0","1","0","","0.4583166828","0.8","0.4","0.6","0.2","0.2354372355","0.4583166828","0.7289934888","0.7882210871","","","","","","","","","","","","","","74","J","1","","","89","main_expt",""
"","bandit","169","858041","0.0-131.0-0.0","11013358","wem/bandit_party_2","AG84WP4B1ZC1K","either","2","312","","","","","","","1","0","0","0.4782349553","","0.8","0.4","0.6","0.2","","","","","0.2978482647","0.4782349553","0.7475354559","0.720110267","","","","","","","","","","74","J","1","","","90","main_expt",""
"","bandit","170","859874","0.0-132.0-0.0","11013358","wem/bandit_party_2","AG84WP4B1ZC1K","either","2","317","","","","","","","0","0","1","","0.464138054","0.8","0.4","0.6","0.2","0.3723871884","0.464138054","0.6316706059","0.7390342074","","","","","","","","","","","","","","74","J","1","","","91","main_expt",""
"","bandit","171","861789","0.0-133.0-0.0","11013358","wem/bandit_party_2","AG84WP4B1ZC1K","either","2","400","","","","","","","0","1","0","","0.5084128334","0.8","0.4","0.6","0.2","0.5400298203","0.5084128334","0.6957908828","0.8135224625","","","","","","","","","","","","","","74","J","1","","","92","main_expt",""
"","bandit","172","863611","0.0-134.0-0.0","11013358","wem/bandit_party_2","AG84WP4B1ZC1K","either","2","306","","","","","","","0","0","1","","0.5211356389","0.8","0.4","0.6","0.2","0.5134744583","0.5211356389","0.6812665662","0.7814404678","","","","","","","","","","","","","","74","J","1","","","93","main_expt",""
"","bandit","173","865382","0.0-135.0-0.0","11013358","wem/bandit_party_2","AG84WP4B1ZC1K","either","2","255","","","","","","","0","0","1","0.4554037602","","0.8","0.4","0.6","0.2","","","","","0.4101580275","0.4554037602","0.6412933588","0.7672416568","","","","","","","","","","74","J","1","","","94","main_expt",""
"","bandit","174","867147","0.0-136.0-0.0","11013358","wem/bandit_party_2","AG84WP4B1ZC1K","either","2","249","","","","","","","0","0","1","","0.4195046205","0.8","0.4","0.6","0.2","0.2995167601","0.4195046205","0.5696630174","0.7573973965","","","","","","","","","","","","","","74","J","1","","","95","main_expt",""
"","bandit","175","868931","0.0-137.0-0.0","11013358","wem/bandit_party_2","AG84WP4B1ZC1K","either","2","269","","","","","","","0","0","1","","0.3638478563","0.8","0.4","0.6","0.2","0.2934894425","0.3638478563","0.6076398096","0.8177369732","","","","","","","","","","","","","","74","J","1","","","96","main_expt",""
"","bandit","176","870795","0.0-138.0-0.0","11013358","wem/bandit_party_2","AG84WP4B1ZC1K","either","2","347","","","","","","","0","0","1","","0.2802715202","0.8","0.4","0.6","0.2","0.2802715202","0.2839735208","0.5551612935","0.8124666872","","","","","","","","","","","","","","72","H","0","img/none_selected.jpg","","97","main_expt",""
"","bandit","177","872628","0.0-139.0-0.0","11013358","wem/bandit_party_2","AG84WP4B1ZC1K","either","2","317","","","","","","","0","0","1","0.2703087955","","0.8","0.4","0.6","0.2","","","","","0.2703087955","0.2109275999","0.6354974245","0.881496875","","","","","","","","","","72","H","0","img/none_selected.jpg","","98","main_expt",""
"","bandit","178","874482","0.0-140.0-0.0","11013358","wem/bandit_party_2","AG84WP4B1ZC1K","either","2","336","","","","","","","0","0","1","0.3027543159","","0.8","0.4","0.6","0.2","","","","","0.3027543159","0.1531506719","0.5945745664","0.8785981907","","","","","","","","","","72","H","0","img/none_selected.jpg","","99","main_expt",""
"","bandit","179","876373","0.0-141.0-0.0","11013358","wem/bandit_party_2","AG84WP4B1ZC1K","either","2","376","","","","","","","0","0","1","0.3645318829","","0.8","0.4","0.6","0.2","","","","","0.3645318829","0.1262108991","0.5679097985","0.8494581726","","","","","","","","","","72","H","0","img/none_selected.jpg","","100","main_expt",""
"","bandit","180","878222","0.0-142.0-0.0","11013358","wem/bandit_party_2","AG84WP4B1ZC1K","either","2","331","","","","","","","0","0","1","","0.1340220502","0.8","0.4","0.6","0.2","0.4315832637","0.1340220502","0.6430580454","0.7754784616","","","","","","","","","","","","","","74","J","1","","","101","main_expt",""
"","bandit","181","880172","0.0-143.0-0.0","11013358","wem/bandit_party_2","AG84WP4B1ZC1K","either","2","434","","","","","","","0","0","1","0.2167126086","","0.8","0.4","0.6","0.2","","","","","0.3608531129","0.2167126086","0.6340200926","0.7626736499","","","","","","","","","","74","J","1","","","102","main_expt",""
"","bandit","182","882069","0.0-144.0-0.0","11013358","wem/bandit_party_2","AG84WP4B1ZC1K","either","2","380","","","","","","","0","0","1","0.2796352144","","0.8","0.4","0.6","0.2","","","","","0.3688981903","0.2796352144","0.6377668076","0.7329996306","","","","","","","","","","74","J","1","","","103","main_expt",""
"","bandit","183","883913","0.0-145.0-0.0","11013358","wem/bandit_party_2","AG84WP4B1ZC1K","either","2","328","","","","","","","0","1","0","","0.6578341575","0.8","0.4","0.6","0.2","0.3758155051","0.3556406549","0.6578341575","0.7467689404","","","","","","","","","","","","","","75","K","2","","","104","main_expt",""
"","bandit","184","885796","0.0-146.0-0.0","11013358","wem/bandit_party_2","AG84WP4B1ZC1K","either","2","366","","","","","","","1","0","0","0.6727034752","","0.8","0.4","0.6","0.2","","","","","0.4508947075","0.3233911601","0.6727034752","0.737018723","","","","","","","","","","75","K","2","","","105","main_expt",""
"","bandit","185","887611","0.0-147.0-0.0","11013358","wem/bandit_party_2","AG84WP4B1ZC1K","either","2","300","","","","","","","1","0","0","0.6386482702","","0.8","0.4","0.6","0.2","","","","","0.4132181144","0.2024631506","0.6386482702","0.655194185","","","","","","","","","","75","K","2","","","106","main_expt",""
"","bandit","186","889488","0.0-148.0-0.0","11013358","wem/bandit_party_2","AG84WP4B1ZC1K","either","2","360","","","","","","","1","0","0","0.6788938686","","0.8","0.4","0.6","0.2","","","","","0.4393512677","0.2290393164","0.6788938686","0.7122819559","","","","","","","","","","75","K","2","","","107","main_expt",""
"","bandit","187","891315","0.0-149.0-0.0","11013358","wem/bandit_party_2","AG84WP4B1ZC1K","either","2","305","","","","","","","0","0","1","0.7076498576","","0.8","0.4","0.6","0.2","","","","","0.4964319729","0.2217712157","0.7076498576","0.7326995505","","","","","","","","","","75","K","2","","","108","main_expt",""
"","bandit","188","893133","0.0-150.0-0.0","11013358","wem/bandit_party_2","AG84WP4B1ZC1K","either","2","306","","","","","","","0","1","0","","0.6932550908","0.8","0.4","0.6","0.2","0.4790921069","0.1566860935","0.6932550908","0.7165499475","","","","","","","","","","","","","","75","K","2","","","109","main_expt",""
"","bandit","189","894956","0.0-151.0-0.0","11013358","wem/bandit_party_2","AG84WP4B1ZC1K","either","2","306","","","","","","","1","0","0","0.7436061547","","0.8","0.4","0.6","0.2","","","","","0.5856434505","0.1083987113","0.7436061547","0.6058017554","","","","","","","","","","75","K","2","","","110","main_expt",""
"","bandit","190","896770","0.0-152.0-0.0","11013358","wem/bandit_party_2","AG84WP4B1ZC1K","either","2","297","","","","","","","0","0","1","","0.657194241","0.8","0.4","0.6","0.2","0.6444230696","0.217828795","0.657194241","0.5476823758","","","","","","","","","","","","","","75","K","2","","","111","main_expt",""
"","bandit","191","898474","0.0-153.0-0.0","11013358","wem/bandit_party_2","AG84WP4B1ZC1K","either","2","188","","","","","","","0","1","0","","0.6317228327","0.8","0.4","0.6","0.2","0.603417252","0.2212119155","0.6317228327","0.5688313193","","","","","","","","","","","","","","75","K","2","","","112","main_expt",""
"","bandit","192","900320","0.0-154.0-0.0","11013358","wem/bandit_party_2","AG84WP4B1ZC1K","either","2","328","","","","","","","1","0","0","0.4985892417","","0.8","0.4","0.6","0.2","","","","","0.420613871","0.2374112476","0.4985892417","0.50852785","","","","","","","","","","75","K","2","","","113","main_expt",""
"","bandit","193","902200","0.0-155.0-0.0","11013358","wem/bandit_party_2","AG84WP4B1ZC1K","either","2","365","","","","","","","0","1","0","","0.579071345","0.8","0.4","0.6","0.2","0.2851569533","0.2703699348","0.579071345","0.5711084253","","","","","","","","","","","","","","75","K","2","","","114","main_expt",""
"","bandit","194","904072","0.0-156.0-0.0","11013358","wem/bandit_party_2","AG84WP4B1ZC1K","either","2","355","","","","","","","0","1","0","","0.4595939904","0.8","0.4","0.6","0.2","0.3166589884","0.1928485376","0.4595939904","0.4177754351","","","","","","","","","","","","","","75","K","2","","","115","main_expt",""
"","bandit","195","906338","0.0-157.0-0.0","11013358","wem/bandit_party_2","AG84WP4B1ZC1K","either","2","756","","","","","","","0","0","1","","0.3744567546","0.8","0.4","0.6","0.2","0.3928451607","0.136356343","0.3744567546","0.387840809","","","","","","","","","","","","","","75","K","2","","","116","main_expt",""
"","bandit","196","908080","0.0-158.0-0.0","11013358","wem/bandit_party_2","AG84WP4B1ZC1K","either","2","225","","","","","","","0","0","1","","0.302145019","0.8","0.4","0.6","0.2","0.560845346","0.2193113504","0.302145019","0.4456731606","","","","","","","","","","","","","","75","K","2","","","117","main_expt",""
"","bandit","197","910216","0.0-159.0-0.0","11013358","wem/bandit_party_2","AG84WP4B1ZC1K","either","2","621","","","","","","","0","0","1","","0.3522466686","0.8","0.4","0.6","0.2","0.5536818424","0.2686792008","0.3522466686","0.3045880574","","","","","","","","","","","","","","75","K","2","","","118","main_expt",""
"","bandit","198","912030","0.0-160.0-0.0","11013358","wem/bandit_party_2","AG84WP4B1ZC1K","either","2","302","","","","","","","1","0","0","0.4425542362","","0.8","0.4","0.6","0.2","","","","","0.3617659687","0.2668270476","0.4425542362","0.3994134075","","","","","","","","","","75","K","2","","","119","main_expt",""
"","bandit","199","913833","0.0-161.0-0.0","11013358","wem/bandit_party_2","AG84WP4B1ZC1K","either","2","287","","","","","","","0","0","1","","0.3377532805","0.8","0.4","0.6","0.2","0.3454740543","0.3723992114","0.3377532805","0.351449483","","","","","","","","","","","","","","75","K","2","","","120","main_expt",""
"","bandit","200","915670","0.0-162.0-0.0","11013358","wem/bandit_party_2","AG84WP4B1ZC1K","either","2","319","","","","","","","1","0","0","0.2929504356","","0.8","0.4","0.6","0.2","","","","","0.2798257893","0.4001238515","0.2929504356","0.3641911367","","","","","","","","","","75","K","2","","","121","main_expt",""
"","bandit","201","917564","0.0-163.0-0.0","11013358","wem/bandit_party_2","AG84WP4B1ZC1K","either","2","376","","","","","","","0","0","1","","0.2504028886","0.8","0.4","0.6","0.2","0.2261540995","0.4090120715","0.2504028886","0.2673706252","","","","","","","","","","","","","","75","K","2","","","122","main_expt",""
"","bandit","202","919493","0.0-164.0-0.0","11013358","wem/bandit_party_2","AG84WP4B1ZC1K","either","2","413","","","","","","","0","0","1","0.2414849785","","0.8","0.4","0.6","0.2","","","","","0.2766663047","0.4746108064","0.2414849785","0.3455372181","","","","","","","","","","75","K","2","","","123","main_expt",""
"","bandit","203","921261","0.0-165.0-0.0","11013358","wem/bandit_party_2","AG84WP4B1ZC1K","either","2","252","","","","","","","0","0","1","0.1791255979","","0.8","0.4","0.6","0.2","","","","","0.3126864395","0.453231646","0.1791255979","0.3524137631","","","","","","","","","","75","K","2","","","124","main_expt",""
"","bandit","204","923165","0.0-166.0-0.0","11013358","wem/bandit_party_2","AG84WP4B1ZC1K","either","2","396","","","","","","","0","1","0","","0.3680881866","0.8","0.4","0.6","0.2","0.2772507379","0.4888945922","0.1952456852","0.3680881866","","","","","","","","","","","","","","76","L","3","","","125","main_expt",""
"","bandit","205","949001","0.0-167.0-0.0","11013358","wem/bandit_party_2","AG84WP4B1ZC1K","either","2","24318","","","","","","","0","0","1","0.396932523","","0.8","0.4","0.6","0.2","","","","","0.2441417391","0.396932523","0.2614303707","0.2884444508","","","","","","","","","","74","J","1","","","126","main_expt",""
"","bandit","206","950923","0.0-168.0-0.0","11013358","wem/bandit_party_2","AG84WP4B1ZC1K","either","2","404","","","","","","","0","0","1","0.267511235","","0.8","0.4","0.6","0.2","","","","","0.2304038214","0.4026562496","0.267511235","0.2931854252","","","","","","","","","","75","K","2","","","127","main_expt",""
"","bandit","207","953303","0.0-169.0-0.0","11013358","wem/bandit_party_2","AG84WP4B1ZC1K","either","2","864","","","","","","","0","0","1","","0.2582460394","0.8","0.4","0.6","0.2","0.2463692943","0.3072143153","0.2582460394","0.3115494401","","","","","","","","","","","","","","75","K","2","","","128","main_expt",""
"","bandit","208","956117","0.0-170.0-0.0","11013358","wem/bandit_party_2","AG84WP4B1ZC1K","either","2","1298","","","","","","","0","0","1","0.249100023","","0.8","0.4","0.6","0.2","","","","","0.262841392","0.3024431642","0.249100023","0.287093163","","","","","","","","","","75","K","2","","","129","main_expt",""
"","bandit","209","958188","0.0-171.0-0.0","11013358","wem/bandit_party_2","AG84WP4B1ZC1K","either","2","552","","","","","","","0","0","1","","0.383823705","0.8","0.4","0.6","0.2","0.3044503748","0.383823705","0.2014680341","0.242368994","","","","","","","","","","","","","","74","J","1","","","130","main_expt",""
"","bandit","210","960964","0.0-172.0-0.0","11013358","wem/bandit_party_2","AG84WP4B1ZC1K","either","2","1260","","","","","","","1","0","0","0.5448185218","","0.8","0.4","0.6","0.2","","","","","0.2231782293","0.5448185218","0.2514612397","0.3141093292","","","","","","","","","","74","J","1","","","131","main_expt",""
"","bandit","211","962891","0.0-173.0-0.0","11013358","wem/bandit_party_2","AG84WP4B1ZC1K","either","2","409","","","","","","","0","1","0","","0.5741986762","0.8","0.4","0.6","0.2","0.265126842","0.5741986762","0.1719215191","0.3186943837","","","","","","","","","","","","","","74","J","1","","","132","main_expt",""
"","bandit","212","964878","0.0-174.0-0.0","11013358","wem/bandit_party_2","AG84WP4B1ZC1K","either","2","469","","","","","","","1","0","0","0.54298015","","0.8","0.4","0.6","0.2","","","","","0.1996467811","0.54298015","0.151851594","0.3218599317","","","","","","","","","","74","J","1","","","133","main_expt",""
"","bandit","213","966718","0.0-175.0-0.0","11013358","wem/bandit_party_2","AG84WP4B1ZC1K","either","2","324","","","","","","","0","0","1","","0.5504084981","0.8","0.4","0.6","0.2","0.1900899503","0.5504084981","0.1693242304","0.3372263261","","","","","","","","","","","","","","74","J","1","","","134","main_expt",""
"","bandit","214","968513","0.0-176.0-0.0","11013358","wem/bandit_party_2","AG84WP4B1ZC1K","either","2","279","","","","","","","1","0","0","0.4874659601","","0.8","0.4","0.6","0.2","","","","","0.172295534","0.4874659601","0.1541174352","0.3515125386","","","","","","","","","","74","J","1","","","135","main_expt",""
"","bandit","215","970350","0.0-177.0-0.0","11013358","wem/bandit_party_2","AG84WP4B1ZC1K","either","2","317","","","","","","","0","0","1","","0.3677382912","0.8","0.4","0.6","0.2","0.1171098277","0.3677382912","0.1374012581","0.2312583875","","","","","","","","","","","","","","74","J","1","","","136","main_expt",""
"","bandit","216","972194","0.0-178.0-0.0","11013358","wem/bandit_party_2","AG84WP4B1ZC1K","either","2","327","","","","","","","0","0","1","0.2944012193","","0.8","0.4","0.6","0.2","","","","","0.1390909791","0.2944012193","0.2889288236","0.3496768842","","","","","","","","","","74","J","1","","","137","main_expt",""
"","bandit","217","974023","0.0-179.0-0.0","11013358","wem/bandit_party_2","AG84WP4B1ZC1K","either","2","311","","","","","","","0","0","1","0.3020033879","","0.8","0.4","0.6","0.2","","","","","0.1209370274","0.3020033879","0.2177367931","0.4217982028","","","","","","","","","","74","J","1","","","138","main_expt",""
"","bandit","218","975896","0.0-180.0-0.0","11013358","wem/bandit_party_2","AG84WP4B1ZC1K","either","2","354","","","","","","","0","0","1","","0.2908104057","0.8","0.4","0.6","0.2","0.1441291996","0.2908104057","0.1704259453","0.5123523738","","","","","","","","","","","","","","74","J","1","","","139","main_expt",""
"","bandit","219","977758","0.0-181.0-0.0","11013358","wem/bandit_party_2","AG84WP4B1ZC1K","either","2","344","","","","","","","0","1","0","","0.2738290205","0.8","0.4","0.6","0.2","0.1380406349","0.2738290205","0.1827322183","0.3892042576","","","","","","","","","","","","","","74","J","1","","","140","main_expt",""
"","bandit","220","979592","0.0-182.0-0.0","11013358","wem/bandit_party_2","AG84WP4B1ZC1K","either","2","317","","","","","","","0","1","0","","0.3865798498","0.8","0.4","0.6","0.2","0.1312769784","0.3865798498","0.2030288612","0.4680147771","","","","","","","","","","","","","","74","J","1","","","141","main_expt",""
"","bandit","221","981410","0.0-183.0-0.0","11013358","wem/bandit_party_2","AG84WP4B1ZC1K","either","2","300","","","","","","","0","1","0","","0.3507917403","0.8","0.4","0.6","0.2","0.1880730553","0.3507917403","0.1760536641","0.3970866904","","","","","","","","","","","","","","74","J","1","","","142","main_expt",""
"","bandit","222","983235","0.0-184.0-0.0","11013358","wem/bandit_party_2","AG84WP4B1ZC1K","either","2","309","","","","","","","1","0","0","0.2787839286","","0.8","0.4","0.6","0.2","","","","","0.1798266991","0.2787839286","0.1428921374","0.3609481858","","","","","","","","","","74","J","1","","","143","main_expt",""
"","bandit","223","985015","0.0-185.0-0.0","11013358","wem/bandit_party_2","AG84WP4B1ZC1K","either","2","263","","","","","","","1","0","0","0.2106619402","","0.8","0.4","0.6","0.2","","","","","0.1881666754","0.2106619402","0.1260474704","0.3701270871","","","","","","","","","","74","J","1","","","144","main_expt",""
"","bandit","224","986618","0.0-186.0-0.0","11013358","wem/bandit_party_2","AG84WP4B1ZC1K","either","2","85","","","","","","","1","0","0","0.3211677341","","0.8","0.4","0.6","0.2","","","","","0.1683386122","0.3211677341","0.151337539","0.3110645609","","","","","","","","","","74","J","1","","","145","main_expt",""
"","bandit","225","988429","0.0-187.0-0.0","11013358","wem/bandit_party_2","AG84WP4B1ZC1K","either","2","293","","","","","","","1","0","0","0.4417580917","","0.8","0.4","0.6","0.2","","","","","0.2609121533","0.4417580917","0.1600114734","0.356964637","","","","","","","","","","74","J","1","","","146","main_expt",""
"","bandit","226","990513","0.0-188.0-0.0","11013358","wem/bandit_party_2","AG84WP4B1ZC1K","either","2","567","","","","","","","0","0","1","0.278611551","","0.8","0.4","0.6","0.2","","","","","0.280259565","0.278611551","0.1262446547","0.5143633813","","","","","","","","","","74","J","1","","","147","main_expt",""
"","bandit","227","992271","0.0-189.0-0.0","11013358","wem/bandit_party_2","AG84WP4B1ZC1K","either","2","240","","","","","","","0","0","1","","0.2811332351","0.8","0.4","0.6","0.2","0.2972918914","0.2811332351","0.1030311585","0.5086187798","","","","","","","","","","","","","","74","J","1","","","148","main_expt",""
"","bandit","228","994441","0.0-190.0-0.0","11013358","wem/bandit_party_2","AG84WP4B1ZC1K","either","2","653","","","","","","","0","0","1","","0.2606345315","0.8","0.4","0.6","0.2","0.3284309668","0.2606345315","0.123834606","0.4676315778","","","","","","","","","","","","","","74","J","1","","","149","main_expt",""
"","bandit","229","1012919","0.0-191.0-0.0","11013358","wem/bandit_party_2","AG84WP4B1ZC1K","either","2","16960","","","","","","","0","0","1","","0.260677327","0.8","0.4","0.6","0.2","0.3186890608","0.260677327","0.06566206942","0.4737351686","","","","","","","","","","","","","","74","J","1","","","150","main_expt",""
"","bandit","230","1014788","0.0-192.0-0.0","11013358","wem/bandit_party_2","AG84WP4B1ZC1K","either","2","353","","","","","","","0","0","1","0.2579624968","","0.8","0.4","0.6","0.2","","","","","0.3331747037","0.2579624968","0.06342121736","0.5387476985","","","","","","","","","","74","J","1","","","151","main_expt",""
"","bandit","231","1016635","0.0-193.0-0.0","11013358","wem/bandit_party_2","AG84WP4B1ZC1K","either","2","329","","","","","","","0","0","1","","0.2536911072","0.8","0.4","0.6","0.2","0.364096089","0.2536911072","0.1162046696","0.5065138565","","","","","","","","","","","","","","74","J","1","","","152","main_expt",""
"","bandit","232","1018766","0.0-194.0-0.0","11013358","wem/bandit_party_2","AG84WP4B1ZC1K","either","2","612","","","","","","","0","0","1","","0.1427943183","0.8","0.4","0.6","0.2","0.3189440566","0.1427943183","0.1388943584","0.5190676077","","","","","","","","","","","","","","74","J","1","","","153","main_expt",""
"","bandit","233","1020936","0.0-195.0-0.0","11013358","wem/bandit_party_2","AG84WP4B1ZC1K","either","2","652","","","","","","","0","0","1","0.08934943386","","0.8","0.4","0.6","0.2","","","","","0.486858514","0.08934943386","0.1188489222","0.4944482457","","","","","","","","","","74","J","1","","","154","main_expt",""
"","bandit","234","1025797","0.0-196.0-0.0","11013358","wem/bandit_party_2","AG84WP4B1ZC1K","either","2","3342","","","","","","","0","0","1","","0.1048919666","0.8","0.4","0.6","0.2","0.398958755","0.1048919666","0.1255079792","0.4987902374","","","","","","","","","","","","","","74","J","1","","","155","main_expt",""
"","bandit","235","1028548","0.0-197.0-0.0","11013358","wem/bandit_party_2","AG84WP4B1ZC1K","either","2","1231","","","","","","","0","0","1","","0.1348874752","0.8","0.4","0.6","0.2","0.3508932217","0.1348874752","0.1705129017","0.4151199053","","","","","","","","","","","","","","74","J","1","","","156","main_expt",""
"","bandit","236","1030653","0.0-198.0-0.0","11013358","wem/bandit_party_2","AG84WP4B1ZC1K","either","2","584","","","","","","","1","0","0","0.1197456909","","0.8","0.4","0.6","0.2","","","","","0.3736640956","0.1197456909","0.1892203872","0.4215128153","","","","","","","","","","74","J","1","","","157","main_expt",""
"","bandit","237","1036247","0.0-199.0-0.0","11013358","wem/bandit_party_2","AG84WP4B1ZC1K","either","2","4074","","","","","","","0","0","1","","0.1343935597","0.8","0.4","0.6","0.2","0.3215678611","0.1343935597","0.1589595026","0.3666899102","","","","","","","","","","","","","","74","J","1","","","158","main_expt",""
"","bandit","238","1038374","0.0-200.0-0.0","11013358","wem/bandit_party_2","AG84WP4B1ZC1K","either","2","608","","","","","","","0","0","1","","0.04604274909","0.8","0.4","0.6","0.2","0.2732838962","0.04604274909","0.1426383857","0.3906786657","","","","","","","","","","","","","","74","J","1","","","159","main_expt",""
"","bandit","239","1045264","0.0-201.0-0.0","11013358","wem/bandit_party_2","AG84WP4B1ZC1K","either","2","5372","","","","","","","0","0","1","","0.08927965808","0.8","0.4","0.6","0.2","0.2323229575","0.08927965808","0.2747613825","0.4769972016","","","","","","","","","","","","","","74","J","1","","","160","main_expt",""
"","bandit","240","1062423","0.0-202.0-0.0","11013358","wem/bandit_party_2","AG84WP4B1ZC1K","either","2","15639","","","","","","","0","0","1","","0.1038156196","0.8","0.4","0.6","0.2","0.399022808","0.1038156196","0.2046882866","0.4405879513","","","","","","","","","","","","","","74","J","1","","","161","main_expt",""
"","bandit","241","1067105","0.0-203.0-0.0","11013358","wem/bandit_party_2","AG84WP4B1ZC1K","either","2","3162","","","","","","","0","0","1","","0.1470739062","0.8","0.4","0.6","0.2","0.4967313539","0.1470739062","0.1715152701","0.44055992","","","","","","","","","","","","","","74","J","1","","","162","main_expt",""
"","bandit","242","1069513","0.0-204.0-0.0","11013358","wem/bandit_party_2","AG84WP4B1ZC1K","either","2","889","","","","","","","0","1","0","","0.1214264794","0.8","0.4","0.6","0.2","0.5245029489","0.1214264794","0.2396687428","0.3434222481","","","","","","","","","","","","","","74","J","1","","","163","main_expt",""
"","bandit","243","1071427","0.0-205.0-0.0","11013358","wem/bandit_party_2","AG84WP4B1ZC1K","either","2","406","","","","","","","0","0","1","","0.1563758897","0.8","0.4","0.6","0.2","0.5808119749","0.1563758897","0.3359744524","0.3862652833","","","","","","","","","","","","","","74","J","1","","","164","main_expt",""
"","bandit","244","1073175","0.0-206.0-0.0","11013358","wem/bandit_party_2","AG84WP4B1ZC1K","either","2","228","","","","","","","0","0","1","","0.1311500467","0.8","0.4","0.6","0.2","0.6473032069","0.1311500467","0.4940159592","0.4270444342","","","","","","","","","","","","","","74","J","1","","","165","main_expt",""
"","bandit","245","1075038","0.0-207.0-0.0","11013358","wem/bandit_party_2","AG84WP4B1ZC1K","either","2","337","","","","","","","0","0","1","","0.1419689761","0.8","0.4","0.6","0.2","0.6790689848","0.1419689761","0.5922229292","0.5073102058","","","","","","","","","","","","","","74","J","1","","","166","main_expt",""
"","bandit","246","1077199","0.0-208.0-0.0","11013358","wem/bandit_party_2","AG84WP4B1ZC1K","either","2","641","","","","","","","0","0","1","","0.5562626425","0.8","0.4","0.6","0.2","0.5959653185","0.150246256","0.5562626425","0.5417092253","","","","","","","","","","","","","","75","K","2","","","167","main_expt",""
"","bandit","247","1079532","0.0-209.0-0.0","11013358","wem/bandit_party_2","AG84WP4B1ZC1K","either","2","812","","","","","","","0","0","1","0.361841396","","0.8","0.4","0.6","0.2","","","","","0.361841396","0.2070971521","0.6489587791","0.6505471885","","","","","","","","","","72","H","0","img/none_selected.jpg","","168","main_expt",""
"","bandit","248","1081373","0.0-210.0-0.0","11013358","wem/bandit_party_2","AG84WP4B1ZC1K","either","2","318","","","","","","","0","0","1","0.2594844845","","0.8","0.4","0.6","0.2","","","","","0.2594844845","0.2564452127","0.5652428614","0.6226729341","","","","","","","","","","72","H","0","img/none_selected.jpg","","169","main_expt",""
"","bandit","249","1083225","0.0-211.0-0.0","11013358","wem/bandit_party_2","AG84WP4B1ZC1K","either","2","333","","","","","","","0","0","1","0.1987556041","","0.8","0.4","0.6","0.2","","","","","0.1987556041","0.2845729388","0.5344749526","0.7574543886","","","","","","","","","","72","H","0","img/none_selected.jpg","","170","main_expt",""
"","bandit","250","1085065","0.0-212.0-0.0","11013358","wem/bandit_party_2","AG84WP4B1ZC1K","either","2","319","","","","","","","0","0","1","0.2360657399","","0.8","0.4","0.6","0.2","","","","","0.1583585206","0.2360657399","0.6364900983","0.774201251","","","","","","","","","","74","J","1","","","171","main_expt",""
"","bandit","251","1086745","0.0-213.0-0.0","11013358","wem/bandit_party_2","AG84WP4B1ZC1K","either","2","160","","","","","","","0","0","1","","0.1494938987","0.8","0.4","0.6","0.2","0.1494938987","0.3453554921","0.5516193693","0.7739789177","","","","","","","","","","","","","","72","H","0","img/none_selected.jpg","","172","main_expt",""
"","bandit","252","1088614","0.0-214.0-0.0","11013358","wem/bandit_party_2","AG84WP4B1ZC1K","either","2","348","","","","","","","0","0","1","0.1996494969","","0.8","0.4","0.6","0.2","","","","","0.1996494969","0.2909261263","0.5081608063","0.7146420849","","","","","","","","","","72","H","0","img/none_selected.jpg","","173","main_expt",""
"","bandit","253","1090528","0.0-215.0-0.0","11013358","wem/bandit_party_2","AG84WP4B1ZC1K","either","2","394","","","","","","","0","0","1","0.2200767262","","0.8","0.4","0.6","0.2","","","","","0.2200767262","0.3807546558","0.5247340446","0.683245412","","","","","","","","","","72","H","0","img/none_selected.jpg","","174","main_expt",""
"","bandit","254","1092355","0.0-216.0-0.0","11013358","wem/bandit_party_2","AG84WP4B1ZC1K","either","2","303","","","","","","","0","0","1","0.1929710708","","0.8","0.4","0.6","0.2","","","","","0.1929710708","0.3889518003","0.5823110366","0.7163731774","","","","","","","","","","72","H","0","img/none_selected.jpg","","175","main_expt",""
"","bandit","255","1094195","0.0-217.0-0.0","11013358","wem/bandit_party_2","AG84WP4B1ZC1K","either","2","318","","","","","","","0","0","1","","0.6676116703","0.8","0.4","0.6","0.2","0.1756556012","0.3662842853","0.7693722391","0.6676116703","","","","","","","","","","","","","","76","L","3","","","176","main_expt",""
"","bandit","256","1096081","0.0-218.0-0.0","11013358","wem/bandit_party_2","AG84WP4B1ZC1K","either","2","363","","","","","","","1","0","0","0.711116056","","0.8","0.4","0.6","0.2","","","","","0.2404611203","0.3102656016","0.8048595062","0.711116056","","","","","","","","","","76","L","3","","","177","main_expt",""
"","bandit","257","1097910","0.0-219.0-0.0","11013358","wem/bandit_party_2","AG84WP4B1ZC1K","either","2","307","","","","","","","0","0","1","","0.6541247318","0.8","0.4","0.6","0.2","0.1651874793","0.3272385177","0.8147320782","0.6541247318","","","","","","","","","","","","","","76","L","3","","","178","main_expt",""
"","bandit","258","1099741","0.0-220.0-0.0","11013358","wem/bandit_party_2","AG84WP4B1ZC1K","either","2","310","","","","","","","0","1","0","","0.600925469","0.8","0.4","0.6","0.2","0.1297692321","0.3185807274","0.7755432213","0.600925469","","","","","","","","","","","","","","76","L","3","","","179","main_expt",""
"","bandit","259","1101622","0.0-221.0-0.0","11013358","wem/bandit_party_2","AG84WP4B1ZC1K","either","2","367","","","","","","","0","0","1","","0.6321701674","0.8","0.4","0.6","0.2","0.1311169289","0.3896265469","0.7309951384","0.6321701674","","","","","","","","","","","","","","76","L","3","","","180","main_expt",""
"","bandit","260","1103462","0.0-222.0-0.0","11013358","wem/bandit_party_2","AG84WP4B1ZC1K","either","2","318","","","","","","","0","1","0","","0.7040606398","0.8","0.4","0.6","0.2","0.2184653543","0.4381139349","0.8068071681","0.7040606398","","","","","","","","","","","","","","76","L","3","","","181","main_expt",""
"","bandit","261","1105296","0.0-223.0-0.0","11013358","wem/bandit_party_2","AG84WP4B1ZC1K","either","2","313","","","","","","","0","1","0","","0.6551517927","0.8","0.4","0.6","0.2","0.156745214","0.4339703771","0.8096694819","0.6551517927","","","","","","","","","","","","","","76","L","3","","","182","main_expt",""
"","bandit","262","1107140","0.0-224.0-0.0","11013358","wem/bandit_party_2","AG84WP4B1ZC1K","either","2","324","","","","","","","0","1","0","","0.7709035389","0.8","0.4","0.6","0.2","0.07710569088","0.5270594011","0.8522040983","0.7709035389","","","","","","","","","","","","","","76","L","3","","","183","main_expt",""
"","bandit","263","1108977","0.0-225.0-0.0","11013358","wem/bandit_party_2","AG84WP4B1ZC1K","either","2","317","","","","","","","1","0","0","0.7869666122","","0.8","0.4","0.6","0.2","","","","","0.07901501252","0.4791569234","0.8636776132","0.7869666122","","","","","","","","","","76","L","3","","","184","main_expt",""
"","bandit","264","1110832","0.0-226.0-0.0","11013358","wem/bandit_party_2","AG84WP4B1ZC1K","either","2","335","","","","","","","0","1","0","","0.804571828","0.8","0.4","0.6","0.2","0.05695362571","0.464074867","0.8605951951","0.804571828","","","","","","","","","","","","","","76","L","3","","","185","main_expt",""
"","bandit","265","1112676","0.0-227.0-0.0","11013358","wem/bandit_party_2","AG84WP4B1ZC1K","either","2","323","","","","","","","0","1","0","","0.7866627628","0.8","0.4","0.6","0.2","0.03796608352","0.4654947356","0.8578427848","0.7866627628","","","","","","","","","","","","","","76","L","3","","","186","main_expt",""
"","bandit","266","1114482","0.0-228.0-0.0","11013358","wem/bandit_party_2","AG84WP4B1ZC1K","either","2","284","","","","","","","0","0","1","","0.8006736442","0.8","0.4","0.6","0.2","0.05986429342","0.4338668179","0.8253306036","0.8006736442","","","","","","","","","","","","","","76","L","3","","","187","main_expt",""
"","bandit","267","1116126","0.0-229.0-0.0","11013358","wem/bandit_party_2","AG84WP4B1ZC1K","either","2","124","","","","","","","0","1","0","","0.7687627789","0.8","0.4","0.6","0.2","0.05827831728","0.4679469354","0.8118593573","0.7687627789","","","","","","","","","","","","","","76","L","3","","","188","main_expt",""
"","bandit","268","1117874","0.0-230.0-0.0","11013358","wem/bandit_party_2","AG84WP4B1ZC1K","either","2","227","","","","","","","0","1","0","","0.7009429779","0.8","0.4","0.6","0.2","0.06499387038","0.4645116859","0.8319104568","0.7009429779","","","","","","","","","","","","","","76","L","3","","","189","main_expt",""
"","bandit","269","1120282","0.0-231.0-0.0","11013358","wem/bandit_party_2","AG84WP4B1ZC1K","either","2","888","","","","","","","0","0","1","","0.7531121838","0.8","0.4","0.6","0.2","0.0878029059","0.4260553166","0.8949986836","0.7531121838","","","","","","","","","","","","","","76","L","3","","","190","main_expt",""
"","bandit","270","1122536","0.0-232.0-0.0","11013358","wem/bandit_party_2","AG84WP4B1ZC1K","either","2","732","","","","","","","0","0","1","","0.6174616994","0.8","0.4","0.6","0.2","0.1101088583","0.5323747461","0.9258368343","0.6174616994","","","","","","","","","","","","","","76","L","3","","","191","main_expt",""
"","bandit","271","1124935","0.0-233.0-0.0","11013358","wem/bandit_party_2","AG84WP4B1ZC1K","either","2","878","","","","","","","0","1","0","","0.6331996982","0.8","0.4","0.6","0.2","0.1559643099","0.6013900654","0.9221438833","0.6331996982","","","","","","","","","","","","","","76","L","3","","","192","main_expt",""
"","bandit","272","1126800","0.0-234.0-0.0","11013358","wem/bandit_party_2","AG84WP4B1ZC1K","either","2","343","","","","","","","0","1","0","","0.5596167322","0.8","0.4","0.6","0.2","0.1348882638","0.5332063066","0.878376231","0.5596167322","","","","","","","","","","","","","","76","L","3","","","193","main_expt",""
"","bandit","273","1128613","0.0-235.0-0.0","11013358","wem/bandit_party_2","AG84WP4B1ZC1K","either","2","292","","","","","","","0","0","1","","0.5887018809","0.8","0.4","0.6","0.2","0.243093686","0.5499496643","0.7914694382","0.5887018809","","","","","","","","","","","","","","76","L","3","","","194","main_expt",""
"","bandit","274","1131582","0.0-236.0-0.0","11013358","wem/bandit_party_2","AG84WP4B1ZC1K","either","2","1448","","","","","","","0","1","0","","0.561552955","0.8","0.4","0.6","0.2","0.2792315856","0.4170732774","0.7843027812","0.561552955","","","","","","","","","","","","","","76","L","3","","","195","main_expt",""
"","bandit","275","1133450","0.0-237.0-0.0","11013358","wem/bandit_party_2","AG84WP4B1ZC1K","either","2","347","","","","","","","1","0","0","0.6199522587","","0.8","0.4","0.6","0.2","","","","","0.2075419965","0.4050854298","0.7888241066","0.6199522587","","","","","","","","","","76","L","3","","","196","main_expt",""
"","bandit","276","1135435","0.0-238.0-0.0","11013358","wem/bandit_party_2","AG84WP4B1ZC1K","either","2","464","","","","","","","1","0","0","0.6886125155","","0.8","0.4","0.6","0.2","","","","","0.1899284635","0.4522405917","0.8145025162","0.6886125155","","","","","","","","","","76","L","3","","","197","main_expt",""
"","bandit","277","1137865","0.0-239.0-0.0","11013358","wem/bandit_party_2","AG84WP4B1ZC1K","either","2","913","","","","","","","0","1","0","","0.6468609917","0.8","0.4","0.6","0.2","0.1632143895","0.4547961131","0.8795467387","0.6468609917","","","","","","","","","","","","","","76","L","3","","","198","main_expt",""
"","bandit","278","1139867","0.0-240.0-0.0","11013358","wem/bandit_party_2","AG84WP4B1ZC1K","either","2","480","","","","","","","0","0","1","","0.7134983028","0.8","0.4","0.6","0.2","0.1580048483","0.456709553","0.8716255916","0.7134983028","","","","","","","","","","","","","","76","L","3","","","199","main_expt",""
"","bandit","279","1142471","0.0-241.0-0.0","11013358","wem/bandit_party_2","AG84WP4B1ZC1K","either","2","1081","","","","","","","1","0","0","0.6545285445","","0.8","0.4","0.6","0.2","","","","","0.1815025648","0.4197111003","0.8596876402","0.6545285445","","","","","","","","","","76","L","3","","","200","main_expt",""
"","bandit","280","1145820","0.0-242.0-0.0","11013358","wem/bandit_party_2","AG84WP4B1ZC1K","either","2","1828","","","","","","","1","0","0","0.6827561938","","0.8","0.4","0.6","0.2","","","","","0.1453003075","0.4468864226","0.8714244785","0.6827561938","","","","","","","","","","76","L","3","","","201","main_expt",""
"","bandit","281","1190900","0.0-243.0-0.0","11013358","wem/bandit_party_2","AG84WP4B1ZC1K","either","2","43556","","","","","","","1","0","0","0.6590680519","","0.8","0.4","0.6","0.2","","","","","0.1061510446","0.3852152277","0.8679491409","0.6590680519","","","","","","","","","","76","L","3","","","202","main_expt",""
"","bandit","282","1194987","0.0-244.0-0.0","11013358","wem/bandit_party_2","AG84WP4B1ZC1K","either","2","2562","","","","","","","0","1","0","","0.67998256","0.8","0.4","0.6","0.2","0.09667757311","0.3481501846","0.8421855008","0.67998256","","","","","","","","","","","","","","76","L","3","","","203","main_expt",""
"","bandit","283","1196944","0.0-245.0-0.0","11013358","wem/bandit_party_2","AG84WP4B1ZC1K","either","2","436","","","","","","","0","0","1","","0.7157802034","0.8","0.4","0.6","0.2","0.109576977","0.3688904748","0.8741547355","0.7157802034","","","","","","","","","","","","","","76","L","3","","","204","main_expt",""
"","bandit","284","1198937","0.0-246.0-0.0","11013358","wem/bandit_party_2","AG84WP4B1ZC1K","either","2","473","","","","","","","0","1","0","","0.6750594522","0.8","0.4","0.6","0.2","0.1370524017","0.4196025605","0.8589537271","0.6750594522","","","","","","","","","","","","","","76","L","3","","","205","main_expt",""
"","bandit","285","1202911","0.0-247.0-0.0","11013358","wem/bandit_party_2","AG84WP4B1ZC1K","either","2","2451","","","","","","","0","1","0","","0.7170784861","0.8","0.4","0.6","0.2","0.1005848846","0.3558717694","0.8009191088","0.7170784861","","","","","","","","","","","","","","76","L","3","","","206","main_expt",""
"","bandit","286","1204921","0.0-248.0-0.0","11013358","wem/bandit_party_2","AG84WP4B1ZC1K","either","2","487","","","","","","","1","0","0","0.6886550294","","0.8","0.4","0.6","0.2","","","","","0.1100528349","0.3978287694","0.8146279372","0.6886550294","","","","","","","","","","76","L","3","","","207","main_expt",""
"","bandit","287","1206824","0.0-249.0-0.0","11013358","wem/bandit_party_2","AG84WP4B1ZC1K","either","2","383","","","","","","","0","1","0","","0.7340041914","0.8","0.4","0.6","0.2","0.1165568201","0.3647175361","0.7498886323","0.7340041914","","","","","","","","","","","","","","76","L","3","","","208","main_expt",""
"","bandit","288","1208864","0.0-250.0-0.0","11013358","wem/bandit_party_2","AG84WP4B1ZC1K","either","2","525","","","","","","","0","1","0","","0.7108339061","0.8","0.4","0.6","0.2","0.1607141963","0.2942091963","0.781298432","0.7108339061","","","","","","","","","","","","","","76","L","3","","","209","main_expt",""
"","bandit","289","1210709","0.0-251.0-0.0","11013358","wem/bandit_party_2","AG84WP4B1ZC1K","either","2","323","","","","","","","0","0","1","0.7322658343","","0.8","0.4","0.6","0.2","","","","","0.2005879304","0.3228874634","0.8374694261","0.7322658343","","","","","","","","","","76","L","3","","","210","main_expt",""
"","bandit","290","1212531","0.0-252.0-0.0","11013358","wem/bandit_party_2","AG84WP4B1ZC1K","either","2","301","","","","","","","0","1","0","","0.6220956771","0.8","0.4","0.6","0.2","0.1999716741","0.3300931135","0.7461264045","0.6220956771","","","","","","","","","","","","","","76","L","3","","","211","main_expt",""
"","bandit","291","1214420","0.0-253.0-0.0","11013358","wem/bandit_party_2","AG84WP4B1ZC1K","either","2","367","","","","","","","0","1","0","","0.5400145011","0.8","0.4","0.6","0.2","0.2135957141","0.4044608811","0.7267359419","0.5400145011","","","","","","","","","","","","","","76","L","3","","","212","main_expt",""
"","bandit","292","1216335","0.0-254.0-0.0","11013358","wem/bandit_party_2","AG84WP4B1ZC1K","either","2","392","","","","","","","0","1","0","","0.5419994818","0.8","0.4","0.6","0.2","0.2041793084","0.4916994921","0.6529835343","0.5419994818","","","","","","","","","","","","","","76","L","3","","","213","main_expt",""
"","bandit","293","1218186","0.0-255.0-0.0","11013358","wem/bandit_party_2","AG84WP4B1ZC1K","either","2","330","","","","","","","0","1","0","","0.6195319152","0.8","0.4","0.6","0.2","0.2563089198","0.5387088508","0.5734554779","0.6195319152","","","","","","","","","","","","","","76","L","3","","","214","main_expt",""
"","bandit","294","1220139","0.0-256.0-0.0","11013358","wem/bandit_party_2","AG84WP4B1ZC1K","either","2","432","","","","","","","0","1","0","","0.7405966814","0.8","0.4","0.6","0.2","0.2870699064","0.567041903","0.7056003711","0.7405966814","","","","","","","","","","","","","","76","L","3","","","215","main_expt",""
"","bandit","295","1221948","0.0-257.0-0.0","11013358","wem/bandit_party_2","AG84WP4B1ZC1K","either","2","298","","","","","","","0","1","0","","0.8005734678","0.8","0.4","0.6","0.2","0.2715554895","0.539749723","0.7717913507","0.8005734678","","","","","","","","","","","","","","76","L","3","","","216","main_expt",""
"","bandit","296","1223848","0.0-258.0-0.0","11013358","wem/bandit_party_2","AG84WP4B1ZC1K","either","2","379","","","","","","","0","1","0","","0.8392159132","0.8","0.4","0.6","0.2","0.2027777883","0.3803352486","0.834894728","0.8392159132","","","","","","","","","","","","","","76","L","3","","","217","main_expt",""
"","bandit","297","1227011","0.0-259.0-0.0","11013358","wem/bandit_party_2","AG84WP4B1ZC1K","either","2","1653","","","","","","","0","1","0","","0.7445585264","0.8","0.4","0.6","0.2","0.2169787163","0.3236333655","0.868580258","0.7445585264","","","","","","","","","","","","","","76","L","3","","","218","main_expt",""
"","bandit","298","1232296","0.0-260.0-0.0","11013358","wem/bandit_party_2","AG84WP4B1ZC1K","either","2","3763","","","","","","","0","0","1","","0.7174829008","0.8","0.4","0.6","0.2","0.2292932202","0.2612589469","0.8236231074","0.7174829008","","","","","","","","","","","","","","76","L","3","","","219","main_expt",""
"","bandit","299","1234399","0.0-261.0-0.0","11013358","wem/bandit_party_2","AG84WP4B1ZC1K","either","2","580","","","","","","","0","1","0","","0.6601767392","0.8","0.4","0.6","0.2","0.2829053382","0.2228319794","0.7719294443","0.6601767392","","","","","","","","","","","","","","76","L","3","","","220","main_expt",""
"","bandit","300","1238021","0.0-262.0-0.0","11013358","wem/bandit_party_2","AG84WP4B1ZC1K","either","2","2100","","","","","","","1","0","0","0.703996204","","0.8","0.4","0.6","0.2","","","","","0.2691731019","0.2204856404","0.7609360252","0.703996204","","","","","","","","","","76","L","3","","","221","main_expt",""
"","bandit","301","1239978","0.0-263.0-0.0","11013358","wem/bandit_party_2","AG84WP4B1ZC1K","either","2","436","","","","","","","0","1","0","","0.6188024556","0.8","0.4","0.6","0.2","0.1974112065","0.2269951902","0.7319851961","0.6188024556","","","","","","","","","","","","","","76","L","3","","","222","main_expt",""
"","bandit","302","1265727","0.0-264.0-0.0","11013358","wem/bandit_party_2","AG84WP4B1ZC1K","either","2","24224","","","","","","","0","0","1","","0.5695888615","0.8","0.4","0.6","0.2","0.08486155027","0.3417830843","0.6994646324","0.5695888615","","","","","","","","","","","","","","76","L","3","","","223","main_expt",""
"","bandit","303","1267792","0.0-265.0-0.0","11013358","wem/bandit_party_2","AG84WP4B1ZC1K","either","2","543","","","","","","","0","0","1","","0.6590173842","0.8","0.4","0.6","0.2","0.1930609847","0.4057490183","0.6817307813","0.6590173842","","","","","","","","","","","","","","76","L","3","","","224","main_expt",""
"","bandit","304","1269650","0.0-266.0-0.0","11013358","wem/bandit_party_2","AG84WP4B1ZC1K","either","2","336","","","","","","","0","0","1","0.6779124893","","0.8","0.4","0.6","0.2","","","","","0.2026087193","0.4266979185","0.67394888","0.6779124893","","","","","","","","","","76","L","3","","","225","main_expt",""
"","bandit","305","1271520","0.0-267.0-0.0","11013358","wem/bandit_party_2","AG84WP4B1ZC1K","either","2","346","","","","","","","0","1","0","","0.6433757785","0.8","0.4","0.6","0.2","0.1295559036","0.4723095555","0.6520670614","0.6433757785","","","","","","","","","","","","","","76","L","3","","","226","main_expt",""
"","bandit","306","1273354","0.0-268.0-0.0","11013358","wem/bandit_party_2","AG84WP4B1ZC1K","either","2","312","","","","","","","0","0","1","","0.6050090536","0.8","0.4","0.6","0.2","0.1014701128","0.4396274322","0.6598054912","0.6050090536","","","","","","","","","","","","","","76","L","3","","","227","main_expt",""
"","bandit","307","1275210","0.0-269.0-0.0","11013358","wem/bandit_party_2","AG84WP4B1ZC1K","either","2","332","","","","","","","0","0","1","","0.5614220587","0.8","0.4","0.6","0.2","0.1374428951","0.4581465293","0.7313296172","0.5614220587","","","","","","","","","","","","","","76","L","3","","","228","main_expt",""
"","bandit","308","1277076","0.0-270.0-0.0","11013358","wem/bandit_party_2","AG84WP4B1ZC1K","either","2","344","","","","","","","0","0","1","","0.536938762","0.8","0.4","0.6","0.2","0.2147377822","0.3635076811","0.5771612872","0.536938762","","","","","","","","","","","","","","76","L","3","","","229","main_expt",""
"","bandit","309","1278945","0.0-271.0-0.0","11013358","wem/bandit_party_2","AG84WP4B1ZC1K","either","2","345","","","","","","","0","0","1","","0.6474737632","0.8","0.4","0.6","0.2","0.2128984172","0.4109812081","0.6474737632","0.4691369301","","","","","","","","","","","","","","75","K","2","","","230","main_expt",""
"","bandit","310","1280752","0.0-272.0-0.0","11013358","wem/bandit_party_2","AG84WP4B1ZC1K","either","2","284","","","","","","","1","0","0","0.77083729","","0.8","0.4","0.6","0.2","","","","","0.2566260117","0.3769467169","0.77083729","0.3801843724","","","","","","","","","","75","K","2","","","231","main_expt",""
"","bandit","311","1282550","0.0-273.0-0.0","11013358","wem/bandit_party_2","AG84WP4B1ZC1K","either","2","275","","","","","","","1","0","0","0.7372448464","","0.8","0.4","0.6","0.2","","","","","0.307190163","0.4489681289","0.7372448464","0.4401380948","","","","","","","","","","75","K","2","","","232","main_expt",""
"","bandit","312","1284399","0.0-274.0-0.0","11013358","wem/bandit_party_2","AG84WP4B1ZC1K","either","2","325","","","","","","","0","0","1","","0.8061851957","0.8","0.4","0.6","0.2","0.3235632008","0.5191563331","0.8061851957","0.4589823784","","","","","","","","","","","","","","75","K","2","","","233","main_expt",""
"","bandit","313","1286178","0.0-275.0-0.0","11013358","wem/bandit_party_2","AG84WP4B1ZC1K","either","2","254","","","","","","","0","0","1","0.7628128465","","0.8","0.4","0.6","0.2","","","","","0.2229472669","0.5635532962","0.7628128465","0.412850409","","","","","","","","","","75","K","2","","","234","main_expt",""
"","bandit","314","1288049","0.0-276.0-0.0","11013358","wem/bandit_party_2","AG84WP4B1ZC1K","either","2","347","","","","","","","1","0","0","0.7139354314","","0.8","0.4","0.6","0.2","","","","","0.3245092944","0.6059211115","0.7139354314","0.3071086281","","","","","","","","","","75","K","2","","","235","main_expt",""
"","bandit","315","1291230","0.0-277.0-0.0","11013358","wem/bandit_party_2","AG84WP4B1ZC1K","either","2","1655","","","","","","","1","0","0","0.8459685894","","0.8","0.4","0.6","0.2","","","","","0.3817813951","0.5767319418","0.8459685894","0.3088172556","","","","","","","","","","75","K","2","","","236","main_expt",""
"","bandit","316","1321399","0.0-278.0-0.0","11013358","wem/bandit_party_2","AG84WP4B1ZC1K","either","2","28645","","","","","","","1","0","0","0.8258062243","","0.8","0.4","0.6","0.2","","","","","0.5108794425","0.6195352853","0.8258062243","0.2725525041","","","","","","","","","","75","K","2","","","237","main_expt",""
"","bandit","317","1324934","0.0-279.0-0.0","11013358","wem/bandit_party_2","AG84WP4B1ZC1K","either","2","2025","","","","","","","1","0","0","0.7390020401","","0.8","0.4","0.6","0.2","","","","","0.545868674","0.7504070514","0.7390020401","0.2929581335","","","","","","","","","","75","K","2","","","238","main_expt",""
"","bandit","318","1327102","0.0-280.0-0.0","11013358","wem/bandit_party_2","AG84WP4B1ZC1K","either","2","645","","","","","","","0","0","1","0.7159327665","","0.8","0.4","0.6","0.2","","","","","0.5696008367","0.7863609923","0.7159327665","0.3009301418","","","","","","","","","","75","K","2","","","239","main_expt",""
"","bandit","319","1329046","0.0-281.0-0.0","11013358","wem/bandit_party_2","AG84WP4B1ZC1K","either","2","421","","","","","","","0","1","0","","0.7704913736","0.8","0.4","0.6","0.2","0.7175907516","0.7472107855","0.7704913736","0.1757133805","","","","","","","","","","","","","","75","K","2","","","240","main_expt",""
"","bandit","320","1331049","0.0-282.0-0.0","11013358","wem/bandit_party_2","AG84WP4B1ZC1K","either","2","480","","","","","","","1","0","0","0.7832900934","","0.8","0.4","0.6","0.2","","","","","0.8333566257","0.7633099306","0.7832900934","0.1490953818","","","","","","","","","","75","K","2","","","241","main_expt",""
