"consent","trial_type","trial_index","time_elapsed","internal_node_id","subjID","study","MID","cond","drift","rt","responses","button_pressed","key_press","like","value","connected","gems","bombs","no_reward","GemPrChosen","BombPrChosen","GainOverPainPr_0","GainOverPainPr_1","GainOverPainPr_2","GainOverPainPr_3","LosePr_0","LosePr_1","LosePr_2","LosePr_3","WinPr_0","WinPr_1","WinPr_2","WinPr_3","Q0","Q1","Q2","gender","age","ethnicity","label","expt_phase","target","respCharCode","respKey","respChoiceNum","respChoice","practice","trial_counter","trial_label","Q0_index"
"GDM/GDM_behavioral_consent_30min_online.html","consent","0","12492","0.0-0.0","11712939","wem/bandit_party_2","A1KTPYX40PRLVW","either","1","","","","","","","","","","","","","","","","","","","","","","","","","","","","","","","","","","","","","","","","",""
"","survey-text","1","28445","0.0-1.0","11712939","wem/bandit_party_2","A1KTPYX40PRLVW","either","1","13910","{""Q0"":""A1KTPYX40PRLVW""}","","","","","","","","","","","","","","","","","","","","","","","","","","","","","","","","","","","","","","",""
"","button-response","2","31219","0.0-2.0","11712939","wem/bandit_party_2","A1KTPYX40PRLVW","either","1","1746","","1","","","","","","","","","","","","","","","","","","","","","","","","","","","","","","","","","","","","","",""
"","text-replacement","3","48024","0.0-3.0","11712939","wem/bandit_party_2","A1KTPYX40PRLVW","either","1","15791","","","32","","","","","","","","","","","","","","","","","","","","","","","","","","","","","","","","","","","","",""
"","text-replacement","4","56573","0.0-4.0","11712939","wem/bandit_party_2","A1KTPYX40PRLVW","either","1","8536","","","32","","","","","","","","","","","","","","","","","","","","","","","","","","","","","","","","","","","","",""
"","identification","5","72245","0.0-6.0-0.0","11712939","wem/bandit_party_2","A1KTPYX40PRLVW","either","1","15602","","","","2","3","1","","","","","","","","","","","","","","","","","","","","","","","","pre","identification_pre","the Republican Party","","","","","","","",""
"","identification","6","79763","0.0-6.0-1.0","11712939","wem/bandit_party_2","A1KTPYX40PRLVW","either","1","6329","","","","4","3","3","","","","","","","","","","","","","","","","","","","","","","","","pre","identification_pre","the Democratic Party","","","","","","","",""
"","text-replacement","7","87234","0.0-7.0","11712939","wem/bandit_party_2","A1KTPYX40PRLVW","either","1","5521","","","32","","","","","","","","","","","","","","","","","","","","","","","","","","","","","","","","","","","","",""
"","text-replacement","8","93845","0.0-8.0","11712939","wem/bandit_party_2","A1KTPYX40PRLVW","either","1","6599","","","32","","","","","","","","","","","","","","","","","","","","","","","","","","","","","","","","","","","","",""
"","text-replacement","9","111567","0.0-9.0","11712939","wem/bandit_party_2","A1KTPYX40PRLVW","either","1","17713","","","32","","","","","","","","","","","","","","","","","","","","","","","","","","","","","","","","","","","","",""
"","text-replacement","10","117446","0.0-10.0","11712939","wem/bandit_party_2","A1KTPYX40PRLVW","either","1","5867","","","32","","","","","","","","","","","","","","","","","","","","","","","","","","","","","","","","","","","","",""
"","text-replacement","11","123269","0.0-11.0","11712939","wem/bandit_party_2","A1KTPYX40PRLVW","either","1","5815","","","32","","","","","","","","","","","","","","","","","","","","","","","","","","","","","","","","","","","","",""
"","bandit","12","128335","0.0-12.0-0.0","11712939","wem/bandit_party_2","A1KTPYX40PRLVW","either","1","3527","","","","","","","0","0","1","0","0","","","","","0","","","","0","","","","","","","","","","","","","74","J","0","img/none_selected_demo.jpg","true","0","",""
"","bandit","13","131399","0.0-13.0-0.0","11712939","wem/bandit_party_2","A1KTPYX40PRLVW","either","1","1540","","","","","","","0","0","1","0","0","","","","","0","","","","0","","","","","","","","","","","","","75","K","0","img/none_selected_demo.jpg","true","0","",""
"","text-replacement","14","140531","0.0-14.0","11712939","wem/bandit_party_2","A1KTPYX40PRLVW","either","1","9119","","","32","","","","","","","","","","","","","","","","","","","","","","","","","","","","","","","","","","","","",""
"","text-replacement","15","151292","0.0-15.0","11712939","wem/bandit_party_2","A1KTPYX40PRLVW","either","1","10751","","","32","","","","","","","","","","","","","","","","","","","","","","","","","","","","","","","","","","","","",""
"","text-replacement","16","159697","0.0-16.0","11712939","wem/bandit_party_2","A1KTPYX40PRLVW","either","1","8392","","","32","","","","","","","","","","","","","","","","","","","","","","","","","","","","","","","","","","","","",""
"","text-replacement","17","166193","0.0-17.0","11712939","wem/bandit_party_2","A1KTPYX40PRLVW","either","1","6488","","","32","","","","","","","","","","","","","","","","","","","","","","","","","","","","","","","","","","","","",""
"","bandit","18","169614","0.0-18.0-0.0","11712939","wem/bandit_party_2","A1KTPYX40PRLVW","either","1","1898","","","","","","","0","0","1","0.2","","0.5","0.5","","","","","","","0.8","0.2","","","","","","","","","","","","75","K","1","","true","0","80_20_practice",""
"","bandit","19","173435","0.0-18.0-1.0","11712939","wem/bandit_party_2","A1KTPYX40PRLVW","either","1","1809","","","","","","","0","0","1","","0.8","0.5","0.5","","","0.8","0.2","","","","","","","","","","","","","","","","74","J","0","img/none_selected_demo.jpg","true","0","80_20_practice",""
"","bandit","20","176209","0.0-18.0-2.0","11712939","wem/bandit_party_2","A1KTPYX40PRLVW","either","1","1254","","","","","","","0","1","0","","0.8","0.5","0.5","","","0.8","0.2","","","","","","","","","","","","","","","","74","J","0","img/none_selected_demo.jpg","true","0","80_20_practice",""
"","bandit","21","179580","0.0-18.0-3.0","11712939","wem/bandit_party_2","A1KTPYX40PRLVW","either","1","1167","","","","","","","0","0","1","","0.2","0.5","0.5","","","0.8","0.2","","","","","","","","","","","","","","","","75","K","1","","true","0","80_20_practice",""
"","bandit","22","181466","0.0-18.0-4.0","11712939","wem/bandit_party_2","A1KTPYX40PRLVW","either","1","362","","","","","","","0","0","1","0.2","","0.5","0.5","","","","","","","0.8","0.2","","","","","","","","","","","","75","K","1","","true","0","80_20_practice",""
"","bandit","23","183888","0.0-18.0-5.0","11712939","wem/bandit_party_2","A1KTPYX40PRLVW","either","1","493","","","","","","","0","1","0","","0.2","0.5","0.5","","","0.8","0.2","","","","","","","","","","","","","","","","75","K","1","","true","0","80_20_practice",""
"","bandit","24","187318","0.0-18.0-6.0","11712939","wem/bandit_party_2","A1KTPYX40PRLVW","either","1","1914","","","","","","","1","0","0","0.8","","0.5","0.5","","","","","","","0.8","0.2","","","","","","","","","","","","74","J","0","img/none_selected_demo.jpg","true","0","80_20_practice",""
"","bandit","25","190133","0.0-18.0-7.0","11712939","wem/bandit_party_2","A1KTPYX40PRLVW","either","1","1073","","","","","","","0","1","0","","0.8","0.5","0.5","","","0.8","0.2","","","","","","","","","","","","","","","","74","J","0","img/none_selected_demo.jpg","true","0","80_20_practice",""
"","bandit","26","193449","0.0-18.0-8.0","11712939","wem/bandit_party_2","A1KTPYX40PRLVW","either","1","902","","","","","","","0","0","1","0.2","","0.5","0.5","","","","","","","0.8","0.2","","","","","","","","","","","","75","K","1","","true","0","80_20_practice",""
"","bandit","27","195657","0.0-18.0-9.0","11712939","wem/bandit_party_2","A1KTPYX40PRLVW","either","1","685","","","","","","","1","0","0","0.8","","0.5","0.5","","","","","","","0.8","0.2","","","","","","","","","","","","74","J","0","img/none_selected_demo.jpg","true","0","80_20_practice",""
"","bandit","28","197591","0.0-18.0-10.0","11712939","wem/bandit_party_2","A1KTPYX40PRLVW","either","1","398","","","","","","","0","0","1","0.8","","0.5","0.5","","","","","","","0.8","0.2","","","","","","","","","","","","74","J","0","img/none_selected_demo.jpg","true","0","80_20_practice",""
"","bandit","29","200507","0.0-18.0-11.0","11712939","wem/bandit_party_2","A1KTPYX40PRLVW","either","1","296","","","","","","","0","1","0","","0.8","0.5","0.5","","","0.8","0.2","","","","","","","","","","","","","","","","74","J","0","img/none_selected_demo.jpg","true","0","80_20_practice",""
"","bandit","30","202669","0.0-18.0-12.0","11712939","wem/bandit_party_2","A1KTPYX40PRLVW","either","1","635","","","","","","","0","1","0","","0.2","0.5","0.5","","","0.8","0.2","","","","","","","","","","","","","","","","75","K","1","","true","0","80_20_practice",""
"","bandit","31","205754","0.0-18.0-13.0","11712939","wem/bandit_party_2","A1KTPYX40PRLVW","either","1","342","","","","","","","0","0","1","","0.2","0.5","0.5","","","0.8","0.2","","","","","","","","","","","","","","","","75","K","1","","true","0","80_20_practice",""
"","bandit","32","208677","0.0-18.0-14.0","11712939","wem/bandit_party_2","A1KTPYX40PRLVW","either","1","1395","","","","","","","0","1","0","","0.2","0.5","0.5","","","0.8","0.2","","","","","","","","","","","","","","","","75","K","1","","true","0","80_20_practice",""
"","bandit","33","210653","0.0-18.0-15.0","11712939","wem/bandit_party_2","A1KTPYX40PRLVW","either","1","453","","","","","","","0","1","0","","0.8","0.5","0.5","","","0.8","0.2","","","","","","","","","","","","","","","","74","J","0","img/none_selected_demo.jpg","true","0","80_20_practice",""
"","bandit","34","213771","0.0-18.0-16.0","11712939","wem/bandit_party_2","A1KTPYX40PRLVW","either","1","1589","","","","","","","0","0","1","","0.2","0.5","0.5","","","0.8","0.2","","","","","","","","","","","","","","","","75","K","1","","true","0","80_20_practice",""
"","bandit","35","215830","0.0-18.0-17.0","11712939","wem/bandit_party_2","A1KTPYX40PRLVW","either","1","535","","","","","","","0","1","0","","0.8","0.5","0.5","","","0.8","0.2","","","","","","","","","","","","","","","","74","J","0","img/none_selected_demo.jpg","true","0","80_20_practice",""
"","bandit","36","219412","0.0-18.0-18.0","11712939","wem/bandit_party_2","A1KTPYX40PRLVW","either","1","859","","","","","","","1","0","0","0.8","","0.5","0.5","","","","","","","0.8","0.2","","","","","","","","","","","","74","J","0","img/none_selected_demo.jpg","true","0","80_20_practice",""
"","bandit","37","221300","0.0-18.0-19.0","11712939","wem/bandit_party_2","A1KTPYX40PRLVW","either","1","370","","","","","","","0","0","1","","0.8","0.5","0.5","","","0.8","0.2","","","","","","","","","","","","","","","","74","J","0","img/none_selected_demo.jpg","true","0","80_20_practice",""
"","text-replacement","38","231956","0.0-19.0","11712939","wem/bandit_party_2","A1KTPYX40PRLVW","either","1","10644","","","32","","","","","","","","","","","","","","","","","","","","","","","","","","","","","","","","","","","","",""
"","bandit","39","236662","0.0-20.0-0.0","11712939","wem/bandit_party_2","A1KTPYX40PRLVW","either","1","2366","","","","","","","1","0","0","1","0","","","","","0","1","","","1","0","","","","","","","","","","","","74","J","0","img/none_selected_demo.jpg","true","0","",""
"","text-replacement","40","243438","0.0-21.0","11712939","wem/bandit_party_2","A1KTPYX40PRLVW","either","1","6764","","","32","","","","","","","","","","","","","","","","","","","","","","","","","","","","","","","","","","","","",""
"","text-replacement","41","249788","0.0-22.0","11712939","wem/bandit_party_2","A1KTPYX40PRLVW","either","1","6342","","","32","","","","","","","","","","","","","","","","","","","","","","","","","","","","","","","","","","","","",""
"","text-replacement","42","254420","0.0-23.0","11712939","wem/bandit_party_2","A1KTPYX40PRLVW","either","1","4618","","","32","","","","","","","","","","","","","","","","","","","","","","","","","","","","","","","","","","","","",""
"","text-replacement","43","259628","0.0-24.0","11712939","wem/bandit_party_2","A1KTPYX40PRLVW","either","1","5196","","","32","","","","","","","","","","","","","","","","","","","","","","","","","","","","","","","","","","","","",""
"","text-replacement","44","271102","0.0-25.0","11712939","wem/bandit_party_2","A1KTPYX40PRLVW","either","1","11466","","","32","","","","","","","","","","","","","","","","","","","","","","","","","","","","","","","","","","","","",""
"","text-replacement","45","274951","0.0-26.0","11712939","wem/bandit_party_2","A1KTPYX40PRLVW","either","1","3830","","","32","","","","","","","","","","","","","","","","","","","","","","","","","","","","","","","","","","","","",""
"","text-replacement","46","281387","0.0-27.0","11712939","wem/bandit_party_2","A1KTPYX40PRLVW","either","1","6428","","","32","","","","","","","","","","","","","","","","","","","","","","","","","","","","","","","","","","","","",""
"","text-replacement","47","288192","0.0-28.0","11712939","wem/bandit_party_2","A1KTPYX40PRLVW","either","1","6793","","","32","","","","","","","","","","","","","","","","","","","","","","","","","","","","","","","","","","","","",""
"","text-replacement","48","293332","0.0-29.0","11712939","wem/bandit_party_2","A1KTPYX40PRLVW","either","1","5124","","","32","","","","","","","","","","","","","","","","","","","","","","","","","","","","","","","","","","","","",""
"","text-replacement","49","295361","0.0-30.0","11712939","wem/bandit_party_2","A1KTPYX40PRLVW","either","1","2017","","","32","","","","","","","","","","","","","","","","","","","","","","","","","","","","","","","","","","","","",""
"","text-replacement","50","303544","0.0-31.0","11712939","wem/bandit_party_2","A1KTPYX40PRLVW","either","1","8171","","","32","","","","","","","","","","","","","","","","","","","","","","","","","","","","","","","","","","","","",""
"","bandit","51","307184","0.0-32.0-0.0","11712939","wem/bandit_party_2","A1KTPYX40PRLVW","either","1","1729","","","","","","","1","0","0","0.8","","0.5","0.5","0.5","0.5","","","","","0.8","0.2","0.6","0.2","","","","","","","","","","72","H","0","img/none_selected.jpg","true","0","full_practice",""
"","bandit","52","311075","0.0-32.0-1.0","11712939","wem/bandit_party_2","A1KTPYX40PRLVW","either","1","2330","","","","","","","0","0","1","0.2","","0.5","0.5","0.5","0.5","","","","","0.8","0.2","0.6","0.2","","","","","","","","","","74","J","1","","true","0","full_practice",""
"","bandit","53","312702","0.0-32.0-2.0","11712939","wem/bandit_party_2","A1KTPYX40PRLVW","either","1","105","","","","","","","0","0","1","","0.6","0.5","0.5","0.5","0.5","0.8","0.2","0.6","0.2","","","","","","","","","","","","","","75","K","2","","true","0","full_practice",""
"","bandit","54","314948","0.0-32.0-3.0","11712939","wem/bandit_party_2","A1KTPYX40PRLVW","either","1","400","","","","","","","0","0","1","","0.2","0.5","0.5","0.5","0.5","0.8","0.2","0.6","0.2","","","","","","","","","","","","","","76","L","3","","true","0","full_practice",""
"","bandit","55","317709","0.0-32.0-4.0","11712939","wem/bandit_party_2","A1KTPYX40PRLVW","either","1","1243","","","","","","","0","1","0","","0.8","0.5","0.5","0.5","0.5","0.8","0.2","0.6","0.2","","","","","","","","","","","","","","72","H","0","img/none_selected.jpg","true","0","full_practice",""
"","bandit","56","319702","0.0-32.0-5.0","11712939","wem/bandit_party_2","A1KTPYX40PRLVW","either","1","473","","","","","","","0","1","0","","0.8","0.5","0.5","0.5","0.5","0.8","0.2","0.6","0.2","","","","","","","","","","","","","","72","H","0","img/none_selected.jpg","true","0","full_practice",""
"","bandit","57","321537","0.0-32.0-6.0","11712939","wem/bandit_party_2","A1KTPYX40PRLVW","either","1","298","","","","","","","0","1","0","","0.2","0.5","0.5","0.5","0.5","0.8","0.2","0.6","0.2","","","","","","","","","","","","","","74","J","1","","true","0","full_practice",""
"","bandit","58","324513","0.0-32.0-7.0","11712939","wem/bandit_party_2","A1KTPYX40PRLVW","either","1","291","","","","","","","1","0","0","0.2","","0.5","0.5","0.5","0.5","","","","","0.8","0.2","0.6","0.2","","","","","","","","","","74","J","1","","true","0","full_practice",""
"","bandit","59","326240","0.0-32.0-8.0","11712939","wem/bandit_party_2","A1KTPYX40PRLVW","either","1","195","","","","","","","0","0","1","","0.2","0.5","0.5","0.5","0.5","0.8","0.2","0.6","0.2","","","","","","","","","","","","","","74","J","1","","true","0","full_practice",""
"","bandit","60","329276","0.0-32.0-9.0","11712939","wem/bandit_party_2","A1KTPYX40PRLVW","either","1","1186","","","","","","","0","1","0","","0.6","0.5","0.5","0.5","0.5","0.8","0.2","0.6","0.2","","","","","","","","","","","","","","75","K","2","","true","0","full_practice",""
"","bandit","61","330943","0.0-32.0-10.0","11712939","wem/bandit_party_2","A1KTPYX40PRLVW","either","1","145","","","","","","","0","1","0","","0.6","0.5","0.5","0.5","0.5","0.8","0.2","0.6","0.2","","","","","","","","","","","","","","75","K","2","","true","0","full_practice",""
"","bandit","62","332635","0.0-32.0-11.0","11712939","wem/bandit_party_2","A1KTPYX40PRLVW","either","1","150","","","","","","","0","0","1","","0.6","0.5","0.5","0.5","0.5","0.8","0.2","0.6","0.2","","","","","","","","","","","","","","75","K","2","","true","0","full_practice",""
"","bandit","63","337209","0.0-32.0-12.0","11712939","wem/bandit_party_2","A1KTPYX40PRLVW","either","1","2329","","","","","","","1","0","0","0.2","","0.5","0.5","0.5","0.5","","","","","0.8","0.2","0.6","0.2","","","","","","","","","","76","L","3","","true","0","full_practice",""
"","bandit","64","339061","0.0-32.0-13.0","11712939","wem/bandit_party_2","A1KTPYX40PRLVW","either","1","320","","","","","","","1","0","0","0.2","","0.5","0.5","0.5","0.5","","","","","0.8","0.2","0.6","0.2","","","","","","","","","","76","L","3","","true","0","full_practice",""
"","bandit","65","341243","0.0-32.0-14.0","11712939","wem/bandit_party_2","A1KTPYX40PRLVW","either","1","646","","","","","","","0","0","1","","0.2","0.5","0.5","0.5","0.5","0.8","0.2","0.6","0.2","","","","","","","","","","","","","","76","L","3","","true","0","full_practice",""
"","bandit","66","344368","0.0-32.0-15.0","11712939","wem/bandit_party_2","A1KTPYX40PRLVW","either","1","160","","","","","","","0","0","1","0.8","","0.5","0.5","0.5","0.5","","","","","0.8","0.2","0.6","0.2","","","","","","","","","","72","H","0","img/none_selected.jpg","true","0","full_practice",""
"","bandit","67","346409","0.0-32.0-16.0","11712939","wem/bandit_party_2","A1KTPYX40PRLVW","either","1","514","","","","","","","1","0","0","0.8","","0.5","0.5","0.5","0.5","","","","","0.8","0.2","0.6","0.2","","","","","","","","","","72","H","0","img/none_selected.jpg","true","0","full_practice",""
"","bandit","68","348423","0.0-32.0-17.0","11712939","wem/bandit_party_2","A1KTPYX40PRLVW","either","1","478","","","","","","","1","0","0","0.8","","0.5","0.5","0.5","0.5","","","","","0.8","0.2","0.6","0.2","","","","","","","","","","72","H","0","img/none_selected.jpg","true","0","full_practice",""
"","bandit","69","351088","0.0-32.0-18.0","11712939","wem/bandit_party_2","A1KTPYX40PRLVW","either","1","332","","","","","","","0","1","0","","0.8","0.5","0.5","0.5","0.5","0.8","0.2","0.6","0.2","","","","","","","","","","","","","","72","H","0","img/none_selected.jpg","true","0","full_practice",""
"","bandit","70","353529","0.0-32.0-19.0","11712939","wem/bandit_party_2","A1KTPYX40PRLVW","either","1","909","","","","","","","0","0","1","","0.2","0.5","0.5","0.5","0.5","0.8","0.2","0.6","0.2","","","","","","","","","","","","","","74","J","1","","true","0","full_practice",""
"","text","71","357531","0.0-33.0","11712939","wem/bandit_party_2","A1KTPYX40PRLVW","either","1","3950","","","32","","","","","","","","","","","","","","","","","","","","","","","","","","","","","","","","","","","","",""
"","text-replacement","72","371147","0.0-34.0","11712939","wem/bandit_party_2","A1KTPYX40PRLVW","either","1","12600","","","32","","","","","","","","","","","","","","","","","","","","","","","","","","","","","","","","","","","","",""
"","text-replacement","73","378787","0.0-35.0","11712939","wem/bandit_party_2","A1KTPYX40PRLVW","either","1","7620","","","32","","","","","","","","","","","","","","","","","","","","","","","","","","","","","","","","","","","","",""
"","text-replacement","74","381920","0.0-36.0","11712939","wem/bandit_party_2","A1KTPYX40PRLVW","either","1","3121","","","32","","","","","","","","","","","","","","","","","","","","","","","","","","","","","","","","","","","","",""
"","text-replacement","75","384866","0.0-37.0","11712939","wem/bandit_party_2","A1KTPYX40PRLVW","either","1","2931","","","32","","","","","","","","","","","","","","","","","","","","","","","","","","","","","","","","","","","","",""
"","text-replacement","76","387532","0.0-38.0","11712939","wem/bandit_party_2","A1KTPYX40PRLVW","either","1","2650","","","32","","","","","","","","","","","","","","","","","","","","","","","","","","","","","","","","","","","","",""
"","survey-multi-choice-replacement","77","400110","0.0-39.0-0.0","11712939","wem/bandit_party_2","A1KTPYX40PRLVW","either","1","12534","","","","","","","","","","","","","","","","","","","","","","","","Money will be added to the pool for <span style='color:blue;'>DEMOCRATS</span>","","","","","","","attn_check","","","","","","","","","0"
"","survey-multi-choice-replacement","78","407022","0.0-40.0-0.0","11712939","wem/bandit_party_2","A1KTPYX40PRLVW","either","1","5857","","","","","","","","","","","","","","","","","","","","","","","","Equal amounts of money will be added to the pool for <span style='color:blue;'>DEMOCRATS</span> and subtracted from the pool for <span style='color:red;'>REPUBLICANS</span>","","","","","","","attn_check","","","","","","","","","2"
"","survey-multi-choice-replacement","79","412995","0.0-41.0-0.0","11712939","wem/bandit_party_2","A1KTPYX40PRLVW","either","1","4922","","","","","","","","","","","","","","","","","","","","","","","","No money will be added to either pool","","","","","","","attn_check","","","","","","","","","3"
"","bandit","80","418742","0.0-42.0-0.0","11712939","wem/bandit_party_2","A1KTPYX40PRLVW","either","1","1686","","","","","","","0","0","1","0.5202783506","","0.4","0.2","0.8","0.6","","","","","0.5202783506","0.8101107889","0.4995060561","0.7674833066","","","","","","","","","","72","H","0","img/none_selected.jpg","","1","main_expt",""
"","bandit","81","420335","0.0-43.0-0.0","11712939","wem/bandit_party_2","A1KTPYX40PRLVW","either","1","61","","","","","","","1","0","0","0.8827976921","","0.4","0.2","0.8","0.6","","","","","0.4559554218","0.8827976921","0.4452888422","0.7786696111","","","","","","","","","","74","J","1","","","2","main_expt",""
"","bandit","82","422103","0.0-44.0-0.0","11712939","wem/bandit_party_2","A1KTPYX40PRLVW","either","1","245","","","","","","","0","1","0","","0.4956599627","0.4","0.2","0.8","0.6","0.3791335739","0.918633781","0.4956599627","0.7883912796","","","","","","","","","","","","","","75","K","2","","","3","main_expt",""
"","bandit","83","425167","0.0-45.0-0.0","11712939","wem/bandit_party_2","A1KTPYX40PRLVW","either","1","168","","","","","","","0","1","0","","0.8311681014","0.4","0.2","0.8","0.6","0.362446662","0.8961075186","0.3939226057","0.8311681014","","","","","","","","","","","","","","76","L","3","","","4","main_expt",""
"","bandit","84","427126","0.0-46.0-0.0","11712939","wem/bandit_party_2","A1KTPYX40PRLVW","either","1","433","","","","","","","0","0","1","","0.706748425","0.4","0.2","0.8","0.6","0.4337427147","0.9065038385","0.4737796053","0.706748425","","","","","","","","","","","","","","76","L","3","","","5","main_expt",""
"","bandit","85","430342","0.0-47.0-0.0","11712939","wem/bandit_party_2","A1KTPYX40PRLVW","either","1","1313","","","","","","","0","0","1","0.5798080576","","0.4","0.2","0.8","0.6","","","","","0.4260566605","0.9628954729","0.5798080576","0.7246132019","","","","","","","","","","75","K","2","","","6","main_expt",""
"","bandit","86","433572","0.0-48.0-0.0","11712939","wem/bandit_party_2","A1KTPYX40PRLVW","either","1","508","","","","","","","0","0","1","","0.5595739282","0.4","0.2","0.8","0.6","0.5595739282","0.9244273404","0.6184433593","0.822103072","","","","","","","","","","","","","","72","H","0","img/none_selected.jpg","","7","main_expt",""
"","bandit","87","436598","0.0-49.0-0.0","11712939","wem/bandit_party_2","A1KTPYX40PRLVW","either","1","1489","","","","","","","1","0","0","0.9214665689","","0.4","0.2","0.8","0.6","","","","","0.5757792393","0.9214665689","0.5380809204","0.8176183596","","","","","","","","","","74","J","1","","","8","main_expt",""
"","bandit","88","440088","0.0-50.0-0.0","11712939","wem/bandit_party_2","A1KTPYX40PRLVW","either","1","1955","","","","","","","1","0","0","0.9604963414","","0.4","0.2","0.8","0.6","","","","","0.5508288143","0.9604963414","0.4884558296","0.7421782695","","","","","","","","","","74","J","1","","","9","main_expt",""
"","bandit","89","443002","0.0-51.0-0.0","11712939","wem/bandit_party_2","A1KTPYX40PRLVW","either","1","1381","","","","","","","1","0","0","0.973544224","","0.4","0.2","0.8","0.6","","","","","0.4615344473","0.973544224","0.6062827564","0.7112185725","","","","","","","","","","74","J","1","","","10","main_expt",""
"","bandit","90","444970","0.0-52.0-0.0","11712939","wem/bandit_party_2","A1KTPYX40PRLVW","either","1","416","","","","","","","1","0","0","0.6618996933","","0.4","0.2","0.8","0.6","","","","","0.4731032433","0.9756729976","0.6618996933","0.6656122322","","","","","","","","","","75","K","2","","","11","main_expt",""
"","bandit","91","446893","0.0-53.0-0.0","11712939","wem/bandit_party_2","A1KTPYX40PRLVW","either","1","390","","","","","","","0","1","0","","0.9824084628","0.4","0.2","0.8","0.6","0.5028989732","0.9824084628","0.6589688621","0.632951522","","","","","","","","","","","","","","74","J","1","","","12","main_expt",""
"","bandit","92","449318","0.0-54.0-0.0","11712939","wem/bandit_party_2","A1KTPYX40PRLVW","either","1","335","","","","","","","0","1","0","","0.9852841122","0.4","0.2","0.8","0.6","0.5252386458","0.9852841122","0.7483501345","0.6428643634","","","","","","","","","","","","","","74","J","1","","","13","main_expt",""
"","bandit","93","452392","0.0-55.0-0.0","11712939","wem/bandit_party_2","A1KTPYX40PRLVW","either","1","492","","","","","","","0","1","0","","0.9844185579","0.4","0.2","0.8","0.6","0.4883642101","0.9844185579","0.7642220585","0.5693663763","","","","","","","","","","","","","","74","J","1","","","14","main_expt",""
"","bandit","94","454363","0.0-56.0-0.0","11712939","wem/bandit_party_2","A1KTPYX40PRLVW","either","1","435","","","","","","","0","1","0","","0.8255663415","0.4","0.2","0.8","0.6","0.5125695872","0.9716790186","0.8255663415","0.6354763258","","","","","","","","","","","","","","75","K","2","","","15","main_expt",""
"","bandit","95","457569","0.0-57.0-0.0","11712939","wem/bandit_party_2","A1KTPYX40PRLVW","either","1","855","","","","","","","0","1","0","","0.9724226268","0.4","0.2","0.8","0.6","0.483313844","0.9724226268","0.8262734196","0.6074668868","","","","","","","","","","","","","","74","J","1","","","16","main_expt",""
"","bandit","96","460235","0.0-58.0-0.0","11712939","wem/bandit_party_2","A1KTPYX40PRLVW","either","1","1136","","","","","","","1","0","0","0.8957105494","","0.4","0.2","0.8","0.6","","","","","0.4764119597","0.969397438","0.8957105494","0.634379517","","","","","","","","","","75","K","2","","","17","main_expt",""
"","bandit","97","463656","0.0-59.0-0.0","11712939","wem/bandit_party_2","A1KTPYX40PRLVW","either","1","453","","","","","","","0","1","0","","0.9487821198","0.4","0.2","0.8","0.6","0.4742144938","0.9487821198","0.8243017832","0.7399013172","","","","","","","","","","","","","","74","J","1","","","18","main_expt",""
"","bandit","98","465876","0.0-60.0-0.0","11712939","wem/bandit_party_2","A1KTPYX40PRLVW","either","1","691","","","","","","","1","0","0","0.8174393347","","0.4","0.2","0.8","0.6","","","","","0.5445729057","0.8822386923","0.8174393347","0.6892422428","","","","","","","","","","75","K","2","","","19","main_expt",""
"","bandit","99","467792","0.0-61.0-0.0","11712939","wem/bandit_party_2","A1KTPYX40PRLVW","either","1","374","","","","","","","0","1","0","","0.8658452863","0.4","0.2","0.8","0.6","0.5114357523","0.8658452863","0.8457625901","0.5544472153","","","","","","","","","","","","","","74","J","1","","","20","main_expt",""
"","bandit","100","471447","0.0-62.0-0.0","11712939","wem/bandit_party_2","A1KTPYX40PRLVW","either","1","2123","","","","","","","0","1","0","","0.8597265301","0.4","0.2","0.8","0.6","0.4948626968","0.8597265301","0.8565453533","0.4705077418","","","","","","","","","","","","","","74","J","1","","","21","main_expt",""
"","bandit","101","474009","0.0-63.0-0.0","11712939","wem/bandit_party_2","A1KTPYX40PRLVW","either","1","1026","","","","","","","1","0","0","0.929530396","","0.4","0.2","0.8","0.6","","","","","0.3750889156","0.929530396","0.8821281293","0.5364913494","","","","","","","","","","74","J","1","","","22","main_expt",""
"","bandit","102","476938","0.0-64.0-0.0","11712939","wem/bandit_party_2","A1KTPYX40PRLVW","either","1","1397","","","","","","","1","0","0","0.9149061772","","0.4","0.2","0.8","0.6","","","","","0.3874093852","0.9149061772","0.8253896901","0.5450887529","","","","","","","","","","74","J","1","","","23","main_expt",""
"","bandit","103","478821","0.0-65.0-0.0","11712939","wem/bandit_party_2","A1KTPYX40PRLVW","either","1","332","","","","","","","0","1","0","","0.9389899916","0.4","0.2","0.8","0.6","0.4126546177","0.9389899916","0.8682133559","0.6013055931","","","","","","","","","","","","","","74","J","1","","","24","main_expt",""
"","bandit","104","482772","0.0-66.0-0.0","11712939","wem/bandit_party_2","A1KTPYX40PRLVW","either","1","1035","","","","","","","1","0","0","0.8186134727","","0.4","0.2","0.8","0.6","","","","","0.3871809826","0.9583062328","0.8186134727","0.7116226269","","","","","","","","","","75","K","2","","","25","main_expt",""
"","bandit","105","484776","0.0-67.0-0.0","11712939","wem/bandit_party_2","A1KTPYX40PRLVW","either","1","464","","","","","","","0","1","0","","0.9349434311","0.4","0.2","0.8","0.6","0.4162773602","0.9349434311","0.841170918","0.7284905038","","","","","","","","","","","","","","74","J","1","","","26","main_expt",""
"","bandit","106","488122","0.0-68.0-0.0","11712939","wem/bandit_party_2","A1KTPYX40PRLVW","either","1","911","","","","","","","0","1","0","","0.9147743466","0.4","0.2","0.8","0.6","0.4153433109","0.9147743466","0.8332298301","0.7007901837","","","","","","","","","","","","","","74","J","1","","","27","main_expt",""
"","bandit","107","489972","0.0-69.0-0.0","11712939","wem/bandit_party_2","A1KTPYX40PRLVW","either","1","311","","","","","","","0","1","0","","0.8913744663","0.4","0.2","0.8","0.6","0.3083156359","0.8913744663","0.8340804883","0.7197690037","","","","","","","","","","","","","","74","J","1","","","28","main_expt",""
"","bandit","108","492139","0.0-70.0-0.0","11712939","wem/bandit_party_2","A1KTPYX40PRLVW","either","1","328","","","","","","","1","0","0","0.9004815278","","0.4","0.2","0.8","0.6","","","","","0.4048150761","0.9004815278","0.8800986549","0.7569205749","","","","","","","","","","74","J","1","","","29","main_expt",""
"","bandit","109","494575","0.0-71.0-0.0","11712939","wem/bandit_party_2","A1KTPYX40PRLVW","either","1","328","","","","","","","0","1","0","","0.8335499875","0.4","0.2","0.8","0.6","0.5604470694","0.8335499875","0.800988266","0.7007062976","","","","","","","","","","","","","","74","J","1","","","30","main_expt",""
"","bandit","110","496268","0.0-72.0-0.0","11712939","wem/bandit_party_2","A1KTPYX40PRLVW","either","1","161","","","","","","","0","0","1","","0.7904098286","0.4","0.2","0.8","0.6","0.5114456598","0.7904098286","0.8092707987","0.6218809145","","","","","","","","","","","","","","74","J","1","","","31","main_expt",""
"","bandit","111","501528","0.0-73.0-0.0","11712939","wem/bandit_party_2","A1KTPYX40PRLVW","either","1","2324","","","","","","","1","0","0","0.7600689364","","0.4","0.2","0.8","0.6","","","","","0.5195843055","0.8156470634","0.7600689364","0.5448888872","","","","","","","","","","75","K","2","","","32","main_expt",""
"","bandit","112","503477","0.0-74.0-0.0","11712939","wem/bandit_party_2","A1KTPYX40PRLVW","either","1","411","","","","","","","0","1","0","","0.7268405739","0.4","0.2","0.8","0.6","0.4278216128","0.7458483223","0.7268405739","0.4396040002","","","","","","","","","","","","","","75","K","2","","","33","main_expt",""
"","bandit","113","506784","0.0-75.0-0.0","11712939","wem/bandit_party_2","A1KTPYX40PRLVW","either","1","850","","","","","","","1","0","0","0.7867385379","","0.4","0.2","0.8","0.6","","","","","0.4581725564","0.8745519215","0.7867385379","0.3418027302","","","","","","","","","","75","K","2","","","34","main_expt",""
"","bandit","114","508628","0.0-76.0-0.0","11712939","wem/bandit_party_2","A1KTPYX40PRLVW","either","1","316","","","","","","","1","0","0","0.7776722478","","0.4","0.2","0.8","0.6","","","","","0.5170179058","0.8761773117","0.7776722478","0.3770378826","","","","","","","","","","75","K","2","","","35","main_expt",""
"","bandit","115","510519","0.0-77.0-0.0","11712939","wem/bandit_party_2","A1KTPYX40PRLVW","either","1","352","","","","","","","1","0","0","0.8110731924","","0.4","0.2","0.8","0.6","","","","","0.5761285305","0.8898579413","0.8110731924","0.3264650107","","","","","","","","","","75","K","2","","","36","main_expt",""
"","bandit","116","513454","0.0-78.0-0.0","11712939","wem/bandit_party_2","A1KTPYX40PRLVW","either","1","689","","","","","","","1","0","0","0.8371501114","","0.4","0.2","0.8","0.6","","","","","0.5824592389","0.9189960073","0.8371501114","0.1696248696","","","","","","","","","","75","K","2","","","37","main_expt",""
"","bandit","117","515313","0.0-79.0-0.0","11712939","wem/bandit_party_2","A1KTPYX40PRLVW","either","1","331","","","","","","","1","0","0","0.801984358","","0.4","0.2","0.8","0.6","","","","","0.5039158184","0.9429067042","0.801984358","0.3008725236","","","","","","","","","","75","K","2","","","38","main_expt",""
"","bandit","118","517213","0.0-80.0-0.0","11712939","wem/bandit_party_2","A1KTPYX40PRLVW","either","1","362","","","","","","","0","1","0","","0.836760671","0.4","0.2","0.8","0.6","0.4906961915","0.8860185862","0.836760671","0.3612597963","","","","","","","","","","","","","","75","K","2","","","39","main_expt",""
"","bandit","119","520343","0.0-81.0-0.0","11712939","wem/bandit_party_2","A1KTPYX40PRLVW","either","1","351","","","","","","","1","0","0","0.7930168878","","0.4","0.2","0.8","0.6","","","","","0.5118773476","0.8958725565","0.7930168878","0.3316001813","","","","","","","","","","75","K","2","","","40","main_expt",""
"","bandit","120","522582","0.0-82.0-0.0","11712939","wem/bandit_party_2","A1KTPYX40PRLVW","either","1","706","","","","","","","1","0","0","0.6758505439","","0.4","0.2","0.8","0.6","","","","","0.5207000815","0.8369757826","0.6758505439","0.251761063","","","","","","","","","","75","K","2","","","41","main_expt",""
"","bandit","121","524542","0.0-83.0-0.0","11712939","wem/bandit_party_2","A1KTPYX40PRLVW","either","1","422","","","","","","","1","0","0","0.669091732","","0.4","0.2","0.8","0.6","","","","","0.6208632684","0.8724413244","0.669091732","0.3764367217","","","","","","","","","","75","K","2","","","42","main_expt",""
"","bandit","122","527671","0.0-84.0-0.0","11712939","wem/bandit_party_2","A1KTPYX40PRLVW","either","1","847","","","","","","","1","0","0","0.5774386383","","0.4","0.2","0.8","0.6","","","","","0.6736877605","0.8721156492","0.5774386383","0.4280411123","","","","","","","","","","75","K","2","","","43","main_expt",""
"","bandit","123","529679","0.0-85.0-0.0","11712939","wem/bandit_party_2","A1KTPYX40PRLVW","either","1","475","","","","","","","1","0","0","0.5402750746","","0.4","0.2","0.8","0.6","","","","","0.6770598463","0.874486911","0.5402750746","0.4250007774","","","","","","","","","","75","K","2","","","44","main_expt",""
"","bandit","124","531521","0.0-86.0-0.0","11712939","wem/bandit_party_2","A1KTPYX40PRLVW","either","1","309","","","","","","","1","0","0","0.4769525635","","0.4","0.2","0.8","0.6","","","","","0.6811336834","0.7653026016","0.4769525635","0.3964774122","","","","","","","","","","75","K","2","","","45","main_expt",""
"","bandit","125","534965","0.0-87.0-0.0","11712939","wem/bandit_party_2","A1KTPYX40PRLVW","either","1","321","","","","","","","1","0","0","0.460739512","","0.4","0.2","0.8","0.6","","","","","0.7409040253","0.6884850605","0.460739512","0.3755541509","","","","","","","","","","75","K","2","","","46","main_expt",""
"","bandit","126","536846","0.0-88.0-0.0","11712939","wem/bandit_party_2","A1KTPYX40PRLVW","either","1","348","","","","","","","0","0","1","0.3953603582","","0.4","0.2","0.8","0.6","","","","","0.8602274841","0.6869729855","0.3953603582","0.3698766084","","","","","","","","","","75","K","2","","","47","main_expt",""
"","bandit","127","538858","0.0-89.0-0.0","11712939","wem/bandit_party_2","A1KTPYX40PRLVW","either","1","471","","","","","","","0","0","1","","0.2924141828","0.4","0.2","0.8","0.6","0.8947369126","0.624749708","0.5194217752","0.2924141828","","","","","","","","","","","","","","76","L","3","","","48","main_expt",""
"","bandit","128","541914","0.0-90.0-0.0","11712939","wem/bandit_party_2","A1KTPYX40PRLVW","either","1","1523","","","","","","","1","0","0","0.9071052574","","0.4","0.2","0.8","0.6","","","","","0.9071052574","0.6269608649","0.5015721984","0.2506794134","","","","","","","","","","72","H","0","img/none_selected.jpg","","49","main_expt",""
"","bandit","129","544411","0.0-91.0-0.0","11712939","wem/bandit_party_2","A1KTPYX40PRLVW","either","1","329","","","","","","","1","0","0","0.8569531155","","0.4","0.2","0.8","0.6","","","","","0.8569531155","0.5394470416","0.4427204185","0.2200095001","","","","","","","","","","72","H","0","img/none_selected.jpg","","50","main_expt",""
"","bandit","130","547617","0.0-92.0-0.0","11712939","wem/bandit_party_2","A1KTPYX40PRLVW","either","1","345","","","","","","","0","0","1","","0.8728609703","0.4","0.2","0.8","0.6","0.8728609703","0.4991806479","0.5194544998","0.2703780474","","","","","","","","","","","","","","72","H","0","img/none_selected.jpg","","51","main_expt",""
"","bandit","131","549687","0.0-93.0-0.0","11712939","wem/bandit_party_2","A1KTPYX40PRLVW","either","1","541","","","","","","","0","1","0","","0.5431464126","0.4","0.2","0.8","0.6","0.902184381","0.5431464126","0.4420680866","0.3215640211","","","","","","","","","","","","","","74","J","1","","","52","main_expt",""
"","bandit","132","552012","0.0-94.0-0.0","11712939","wem/bandit_party_2","A1KTPYX40PRLVW","either","1","340","","","","","","","0","0","1","","0.4799783957","0.4","0.2","0.8","0.6","0.8975054296","0.4799783957","0.5541791803","0.2918797996","","","","","","","","","","","","","","74","J","1","","","53","main_expt",""
"","bandit","133","555461","0.0-95.0-0.0","11712939","wem/bandit_party_2","A1KTPYX40PRLVW","either","1","1915","","","","","","","0","1","0","","0.9436546011","0.4","0.2","0.8","0.6","0.9436546011","0.3946877269","0.6187664305","0.2432815539","","","","","","","","","","","","","","72","H","0","img/none_selected.jpg","","54","main_expt",""
"","bandit","134","557760","0.0-96.0-0.0","11712939","wem/bandit_party_2","A1KTPYX40PRLVW","either","1","342","","","","","","","1","0","0","0.9411334538","","0.4","0.2","0.8","0.6","","","","","0.9411334538","0.3892466866","0.538030076","0.1993500609","","","","","","","","","","72","H","0","img/none_selected.jpg","","55","main_expt",""
"","bandit","135","560980","0.0-97.0-0.0","11712939","wem/bandit_party_2","A1KTPYX40PRLVW","either","1","1621","","","","","","","0","1","0","","0.862285227","0.4","0.2","0.8","0.6","0.862285227","0.347268188","0.5137881872","0.1832364248","","","","","","","","","","","","","","72","H","0","img/none_selected.jpg","","56","main_expt",""
"","bandit","136","563992","0.0-98.0-0.0","11712939","wem/bandit_party_2","A1KTPYX40PRLVW","either","1","961","","","","","","","1","0","0","0.9034803314","","0.4","0.2","0.8","0.6","","","","","0.9034803314","0.3462231845","0.6274604021","0.1703919496","","","","","","","","","","72","H","0","img/none_selected.jpg","","57","main_expt",""
"","bandit","137","567594","0.0-99.0-0.0","11712939","wem/bandit_party_2","A1KTPYX40PRLVW","either","1","636","","","","","","","1","0","0","0.9062052911","","0.4","0.2","0.8","0.6","","","","","0.9062052911","0.3707442777","0.5636132077","0.2146973212","","","","","","","","","","72","H","0","img/none_selected.jpg","","58","main_expt",""
"","bandit","138","569678","0.0-100.0-0.0","11712939","wem/bandit_party_2","A1KTPYX40PRLVW","either","1","535","","","","","","","1","0","0","0.9169546289","","0.4","0.2","0.8","0.6","","","","","0.9169546289","0.4530366532","0.6555757088","0.2118107272","","","","","","","","","","72","H","0","img/none_selected.jpg","","59","main_expt",""
"","bandit","139","573399","0.0-101.0-0.0","11712939","wem/bandit_party_2","A1KTPYX40PRLVW","either","1","866","","","","","","","0","1","0","","0.9048679239","0.4","0.2","0.8","0.6","0.9048679239","0.4335409142","0.6555481193","0.2096036334","","","","","","","","","","","","","","72","H","0","img/none_selected.jpg","","60","main_expt",""
"","bandit","140","575273","0.0-102.0-0.0","11712939","wem/bandit_party_2","A1KTPYX40PRLVW","either","1","335","","","","","","","0","1","0","","0.9346572725","0.4","0.2","0.8","0.6","0.9346572725","0.3601573371","0.6988977931","0.1985607356","","","","","","","","","","","","","","72","H","0","img/none_selected.jpg","","61","main_expt",""
"","bandit","141","578978","0.0-103.0-0.0","11712939","wem/bandit_party_2","A1KTPYX40PRLVW","either","1","414","","","","","","","1","0","0","0.9332729597","","0.4","0.2","0.8","0.6","","","","","0.9332729597","0.3187004912","0.6124712875","0.2352246004","","","","","","","","","","72","H","0","img/none_selected.jpg","","62","main_expt",""
"","bandit","142","580952","0.0-104.0-0.0","11712939","wem/bandit_party_2","A1KTPYX40PRLVW","either","1","438","","","","","","","0","1","0","","0.9300142507","0.4","0.2","0.8","0.6","0.9300142507","0.331276396","0.4881994696","0.1989126294","","","","","","","","","","","","","","72","H","0","img/none_selected.jpg","","63","main_expt",""
"","bandit","143","582977","0.0-105.0-0.0","11712939","wem/bandit_party_2","A1KTPYX40PRLVW","either","1","439","","","","","","","0","0","1","","0.8992917639","0.4","0.2","0.8","0.6","0.8992917639","0.3984677","0.5007509184","0.2231035509","","","","","","","","","","","","","","72","H","0","img/none_selected.jpg","","64","main_expt",""
"","bandit","144","586635","0.0-106.0-0.0","11712939","wem/bandit_party_2","A1KTPYX40PRLVW","either","1","1752","","","","","","","0","0","1","","0.174077904","0.4","0.2","0.8","0.6","0.7939475476","0.3012021372","0.6077525222","0.174077904","","","","","","","","","","","","","","76","L","3","","","65","main_expt",""
"","bandit","145","588678","0.0-107.0-0.0","11712939","wem/bandit_party_2","A1KTPYX40PRLVW","either","1","454","","","","","","","0","0","1","","0.2848395029","0.4","0.2","0.8","0.6","0.7848839068","0.2848395029","0.4876759876","0.1505104035","","","","","","","","","","","","","","74","J","1","","","66","main_expt",""
"","bandit","146","592340","0.0-108.0-0.0","11712939","wem/bandit_party_2","A1KTPYX40PRLVW","either","1","2096","","","","","","","0","0","1","0.4705728971","","0.4","0.2","0.8","0.6","","","","","0.7712869283","0.2908363747","0.4705728971","0.1706094741","","","","","","","","","","75","K","2","","","67","main_expt",""
"","bandit","147","594128","0.0-109.0-0.0","11712939","wem/bandit_party_2","A1KTPYX40PRLVW","either","1","207","","","","","","","0","0","1","","0.7426915226","0.4","0.2","0.8","0.6","0.7426915226","0.3226378352","0.5822594153","0.193375558","","","","","","","","","","","","","","72","H","0","img/none_selected.jpg","","68","main_expt",""
"","bandit","148","596220","0.0-110.0-0.0","11712939","wem/bandit_party_2","A1KTPYX40PRLVW","either","1","335","","","","","","","0","0","1","","0.592712881","0.4","0.2","0.8","0.6","0.592712881","0.4490581071","0.6189715015","0.226811003","","","","","","","","","","","","","","72","H","0","img/none_selected.jpg","","69","main_expt",""
"","bandit","149","599467","0.0-111.0-0.0","11712939","wem/bandit_party_2","A1KTPYX40PRLVW","either","1","1174","","","","","","","0","0","1","","0.42365523","0.4","0.2","0.8","0.6","0.6587085967","0.42365523","0.5307799745","0.191142909","","","","","","","","","","","","","","74","J","1","","","70","main_expt",""
"","bandit","150","602399","0.0-112.0-0.0","11712939","wem/bandit_party_2","A1KTPYX40PRLVW","either","1","292","","","","","","","1","0","0","0.5205551237","","0.4","0.2","0.8","0.6","","","","","0.7562029562","0.427101634","0.5205551237","0.2371486809","","","","","","","","","","75","K","2","","","71","main_expt",""
"","bandit","151","604264","0.0-113.0-0.0","11712939","wem/bandit_party_2","A1KTPYX40PRLVW","either","1","330","","","","","","","1","0","0","0.5913901284","","0.4","0.2","0.8","0.6","","","","","0.670676276","0.5387899421","0.5913901284","0.2602117984","","","","","","","","","","75","K","2","","","72","main_expt",""
"","bandit","152","607276","0.0-114.0-0.0","11712939","wem/bandit_party_2","A1KTPYX40PRLVW","either","1","992","","","","","","","1","0","0","0.7127465592","","0.4","0.2","0.8","0.6","","","","","0.6870219419","0.4931252492","0.7127465592","0.1837165363","","","","","","","","","","75","K","2","","","73","main_expt",""
"","bandit","153","609115","0.0-115.0-0.0","11712939","wem/bandit_party_2","A1KTPYX40PRLVW","either","1","300","","","","","","","1","0","0","0.7804212289","","0.4","0.2","0.8","0.6","","","","","0.582898469","0.3888626504","0.7804212289","0.2032334464","","","","","","","","","","75","K","2","","","74","main_expt",""
"","bandit","154","610994","0.0-116.0-0.0","11712939","wem/bandit_party_2","A1KTPYX40PRLVW","either","1","335","","","","","","","0","0","1","0.7966502287","","0.4","0.2","0.8","0.6","","","","","0.6452442043","0.3866429177","0.7966502287","0.2782751631","","","","","","","","","","75","K","2","","","75","main_expt",""
"","bandit","155","614271","0.0-117.0-0.0","11712939","wem/bandit_party_2","A1KTPYX40PRLVW","either","1","819","","","","","","","1","0","0","0.7775959854","","0.4","0.2","0.8","0.6","","","","","0.7031137023","0.3948468247","0.7775959854","0.3318782676","","","","","","","","","","75","K","2","","","76","main_expt",""
"","bandit","156","616097","0.0-118.0-0.0","11712939","wem/bandit_party_2","A1KTPYX40PRLVW","either","1","255","","","","","","","1","0","0","0.8523583745","","0.4","0.2","0.8","0.6","","","","","0.6096498107","0.4853082722","0.8523583745","0.312607664","","","","","","","","","","75","K","2","","","77","main_expt",""
"","bandit","157","618966","0.0-119.0-0.0","11712939","wem/bandit_party_2","A1KTPYX40PRLVW","either","1","290","","","","","","","0","0","1","0.7707034136","","0.4","0.2","0.8","0.6","","","","","0.532302087","0.4971609959","0.7707034136","0.3250695504","","","","","","","","","","75","K","2","","","78","main_expt",""
"","bandit","158","621455","0.0-120.0-0.0","11712939","wem/bandit_party_2","A1KTPYX40PRLVW","either","1","950","","","","","","","0","0","1","","0.277144637","0.4","0.2","0.8","0.6","0.4448734945","0.5349041547","0.7919080975","0.277144637","","","","","","","","","","","","","","76","L","3","","","79","main_expt",""
"","bandit","159","623685","0.0-121.0-0.0","11712939","wem/bandit_party_2","A1KTPYX40PRLVW","either","1","279","","","","","","","0","0","1","","0.4713204996","0.4","0.2","0.8","0.6","0.34513516","0.4713204996","0.8107458935","0.293018971","","","","","","","","","","","","","","74","J","1","","","80","main_expt",""
"","bandit","160","626116","0.0-122.0-0.0","11712939","wem/bandit_party_2","A1KTPYX40PRLVW","either","1","893","","","","","","","1","0","0","0.7851591746","","0.4","0.2","0.8","0.6","","","","","0.406584365","0.4132476049","0.7851591746","0.2730851157","","","","","","","","","","75","K","2","","","81","main_expt",""
"","bandit","161","629212","0.0-123.0-0.0","11712939","wem/bandit_party_2","A1KTPYX40PRLVW","either","1","322","","","","","","","1","0","0","0.8067558171","","0.4","0.2","0.8","0.6","","","","","0.5068312928","0.4640808921","0.8067558171","0.2436011542","","","","","","","","","","75","K","2","","","82","main_expt",""
"","bandit","162","631625","0.0-124.0-0.0","11712939","wem/bandit_party_2","A1KTPYX40PRLVW","either","1","874","","","","","","","1","0","0","0.7777816444","","0.4","0.2","0.8","0.6","","","","","0.5209063211","0.442115463","0.7777816444","0.2009218657","","","","","","","","","","75","K","2","","","83","main_expt",""
"","bandit","163","633758","0.0-125.0-0.0","11712939","wem/bandit_party_2","A1KTPYX40PRLVW","either","1","593","","","","","","","0","0","1","","0.7801041195","0.4","0.2","0.8","0.6","0.6221591745","0.5117806844","0.7801041195","0.1550904625","","","","","","","","","","","","","","75","K","2","","","84","main_expt",""
"","bandit","164","636333","0.0-126.0-0.0","11712939","wem/bandit_party_2","A1KTPYX40PRLVW","either","1","699","","","","","","","1","0","0","0.7593249252","","0.4","0.2","0.8","0.6","","","","","0.6939346182","0.5309627618","0.7593249252","0.1193398435","","","","","","","","","","75","K","2","","","85","main_expt",""
"","bandit","165","638210","0.0-127.0-0.0","11712939","wem/bandit_party_2","A1KTPYX40PRLVW","either","1","341","","","","","","","1","0","0","0.7911667705","","0.4","0.2","0.8","0.6","","","","","0.7533471596","0.5482659382","0.7911667705","0.1398572341","","","","","","","","","","75","K","2","","","86","main_expt",""
"","bandit","166","640512","0.0-128.0-0.0","11712939","wem/bandit_party_2","A1KTPYX40PRLVW","either","1","342","","","","","","","1","0","0","0.8480662183","","0.4","0.2","0.8","0.6","","","","","0.8040573679","0.4772076429","0.8480662183","0.1941505275","","","","","","","","","","75","K","2","","","87","main_expt",""
"","bandit","167","643940","0.0-129.0-0.0","11712939","wem/bandit_party_2","A1KTPYX40PRLVW","either","1","356","","","","","","","1","0","0","0.8110462569","","0.4","0.2","0.8","0.6","","","","","0.7800800897","0.5202977678","0.8110462569","0.09645570925","","","","","","","","","","75","K","2","","","88","main_expt",""
"","bandit","168","646558","0.0-130.0-0.0","11712939","wem/bandit_party_2","A1KTPYX40PRLVW","either","1","968","","","","","","","0","1","0","","0.7924414871","0.4","0.2","0.8","0.6","0.7329239748","0.4970482359","0.7924414871","0.1304326216","","","","","","","","","","","","","","75","K","2","","","89","main_expt",""
"","bandit","169","650115","0.0-131.0-0.0","11712939","wem/bandit_party_2","A1KTPYX40PRLVW","either","1","1956","","","","","","","1","0","0","0.8190855249","","0.4","0.2","0.8","0.6","","","","","0.7202813078","0.4671205494","0.8190855249","0.1410434261","","","","","","","","","","75","K","2","","","90","main_expt",""
"","bandit","170","652824","0.0-132.0-0.0","11712939","wem/bandit_party_2","A1KTPYX40PRLVW","either","1","579","","","","","","","0","1","0","","0.858270253","0.4","0.2","0.8","0.6","0.698586111","0.5518401665","0.858270253","0.1277095213","","","","","","","","","","","","","","75","K","2","","","91","main_expt",""
"","bandit","171","657235","0.0-133.0-0.0","11712939","wem/bandit_party_2","A1KTPYX40PRLVW","either","1","2851","","","","","","","0","1","0","","0.8583259383","0.4","0.2","0.8","0.6","0.6054304462","0.620788192","0.8583259383","0.08596821216","","","","","","","","","","","","","","75","K","2","","","92","main_expt",""
"","bandit","172","660067","0.0-134.0-0.0","11712939","wem/bandit_party_2","A1KTPYX40PRLVW","either","1","793","","","","","","","0","0","1","0.8335107661","","0.4","0.2","0.8","0.6","","","","","0.6829204303","0.679669404","0.8335107661","0.05652587691","","","","","","","","","","75","K","2","","","93","main_expt",""
"","bandit","173","663449","0.0-135.0-0.0","11712939","wem/bandit_party_2","A1KTPYX40PRLVW","either","1","563","","","","","","","0","0","1","","0.6084783934","0.4","0.2","0.8","0.6","0.6084783934","0.6726581754","0.8849423118","0.07490457358","","","","","","","","","","","","","","72","H","0","img/none_selected.jpg","","94","main_expt",""
"","bandit","174","665333","0.0-136.0-0.0","11712939","wem/bandit_party_2","A1KTPYX40PRLVW","either","1","337","","","","","","","0","1","0","","0.9175662658","0.4","0.2","0.8","0.6","0.51962455","0.5983950962","0.9175662658","0.05201682933","","","","","","","","","","","","","","75","K","2","","","95","main_expt",""
"","bandit","175","668082","0.0-137.0-0.0","11712939","wem/bandit_party_2","A1KTPYX40PRLVW","either","1","764","","","","","","","1","0","0","0.8726153548","","0.4","0.2","0.8","0.6","","","","","0.453067158","0.6316158747","0.8726153548","0.0353667714","","","","","","","","","","75","K","2","","","96","main_expt",""
"","bandit","176","669958","0.0-138.0-0.0","11712939","wem/bandit_party_2","A1KTPYX40PRLVW","either","1","345","","","","","","","0","1","0","","0.7260562137","0.4","0.2","0.8","0.6","0.4090095009","0.6660601513","0.7260562137","0.04301306848","","","","","","","","","","","","","","75","K","2","","","97","main_expt",""
"","bandit","177","671881","0.0-139.0-0.0","11712939","wem/bandit_party_2","A1KTPYX40PRLVW","either","1","374","","","","","","","0","1","0","","0.6506148609","0.4","0.2","0.8","0.6","0.360727585","0.6185462561","0.6506148609","0.03950067624","","","","","","","","","","","","","","75","K","2","","","98","main_expt",""
"","bandit","178","674090","0.0-140.0-0.0","11712939","wem/bandit_party_2","A1KTPYX40PRLVW","either","1","588","","","","","","","1","0","0","0.5816342488","","0.4","0.2","0.8","0.6","","","","","0.3351327477","0.581128502","0.5816342488","0.03156699585","","","","","","","","","","75","K","2","","","99","main_expt",""
"","bandit","179","676540","0.0-141.0-0.0","11712939","wem/bandit_party_2","A1KTPYX40PRLVW","either","1","910","","","","","","","1","0","0","0.5521464449","","0.4","0.2","0.8","0.6","","","","","0.3491912274","0.479775063","0.5521464449","0.0248161238","","","","","","","","","","75","K","2","","","100","main_expt",""
"","bandit","180","680334","0.0-142.0-0.0","11712939","wem/bandit_party_2","A1KTPYX40PRLVW","either","1","409","","","","","","","0","0","1","0.6063232436","","0.4","0.2","0.8","0.6","","","","","0.4105375765","0.5114647241","0.6063232436","0.02218075004","","","","","","","","","","75","K","2","","","101","main_expt",""
"","bandit","181","681886","0.0-143.0-0.0","11712939","wem/bandit_party_2","A1KTPYX40PRLVW","either","1","4","","","","","","","1","0","0","0.5636213764","","0.4","0.2","0.8","0.6","","","","","0.438632671","0.4718740674","0.5636213764","0.01802152149","","","","","","","","","","75","K","2","","","102","main_expt",""
"","bandit","182","684077","0.0-144.0-0.0","11712939","wem/bandit_party_2","A1KTPYX40PRLVW","either","1","345","","","","","","","0","0","1","","0.5370473259","0.4","0.2","0.8","0.6","0.372838406","0.5245129891","0.5370473259","0.01877214671","","","","","","","","","","","","","","75","K","2","","","103","main_expt",""
"","bandit","183","689483","0.0-145.0-0.0","11712939","wem/bandit_party_2","A1KTPYX40PRLVW","either","1","3808","","","","","","","0","0","1","","0.5170751474","0.4","0.2","0.8","0.6","0.3057692375","0.5170751474","0.549647281","0.01556743346","","","","","","","","","","","","","","74","J","1","","","104","main_expt",""
"","bandit","184","692579","0.0-146.0-0.0","11712939","wem/bandit_party_2","A1KTPYX40PRLVW","either","1","489","","","","","","","0","0","1","0.03717147126","","0.4","0.2","0.8","0.6","","","","","0.37369274","0.472330124","0.4225976111","0.03717147126","","","","","","","","","","76","L","3","","","105","main_expt",""
"","bandit","185","696411","0.0-147.0-0.0","11712939","wem/bandit_party_2","A1KTPYX40PRLVW","either","1","2096","","","","","","","0","1","0","","0.5005163425","0.4","0.2","0.8","0.6","0.3179799449","0.568133852","0.5005163425","0.07687033395","","","","","","","","","","","","","","75","K","2","","","106","main_expt",""
"","bandit","186","699842","0.0-148.0-0.0","11712939","wem/bandit_party_2","A1KTPYX40PRLVW","either","1","321","","","","","","","0","1","0","","0.3995396385","0.4","0.2","0.8","0.6","0.3053765494","0.536018559","0.3995396385","0.07659049968","","","","","","","","","","","","","","75","K","2","","","107","main_expt",""
"","bandit","187","701796","0.0-149.0-0.0","11712939","wem/bandit_party_2","A1KTPYX40PRLVW","either","1","403","","","","","","","0","0","1","0.3855926336","","0.4","0.2","0.8","0.6","","","","","0.2732860947","0.3880888981","0.3855926336","0.07827602418","","","","","","","","","","75","K","2","","","108","main_expt",""
"","bandit","188","705456","0.0-150.0-0.0","11712939","wem/bandit_party_2","A1KTPYX40PRLVW","either","1","435","","","","","","","0","0","1","0.3059937163","","0.4","0.2","0.8","0.6","","","","","0.2624197952","0.3675045314","0.3059937163","0.1352418701","","","","","","","","","","75","K","2","","","109","main_expt",""
"","bandit","189","707843","0.0-151.0-0.0","11712939","wem/bandit_party_2","A1KTPYX40PRLVW","either","1","840","","","","","","","0","0","1","0.3303210632","","0.4","0.2","0.8","0.6","","","","","0.3303210632","0.4560700489","0.2752892785","0.1705666919","","","","","","","","","","72","H","0","img/none_selected.jpg","","110","main_expt",""
"","bandit","190","710162","0.0-152.0-0.0","11712939","wem/bandit_party_2","A1KTPYX40PRLVW","either","1","388","","","","","","","0","1","0","","0.5366389876","0.4","0.2","0.8","0.6","0.3541452024","0.5366389876","0.3038626008","0.2202970635","","","","","","","","","","","","","","74","J","1","","","111","main_expt",""
"","bandit","191","712086","0.0-153.0-0.0","11712939","wem/bandit_party_2","A1KTPYX40PRLVW","either","1","370","","","","","","","1","0","0","0.5742054707","","0.4","0.2","0.8","0.6","","","","","0.4468573219","0.5742054707","0.2308866464","0.2368742277","","","","","","","","","","74","J","1","","","112","main_expt",""
"","bandit","192","715240","0.0-154.0-0.0","11712939","wem/bandit_party_2","A1KTPYX40PRLVW","either","1","1187","","","","","","","0","0","1","","0.6014260319","0.4","0.2","0.8","0.6","0.5163231944","0.6014260319","0.2420052043","0.2487241586","","","","","","","","","","","","","","74","J","1","","","113","main_expt",""
"","bandit","193","717515","0.0-155.0-0.0","11712939","wem/bandit_party_2","A1KTPYX40PRLVW","either","1","438","","","","","","","0","0","1","","0.5398035654","0.4","0.2","0.8","0.6","0.4064640458","0.5398035654","0.3277817495","0.238824581","","","","","","","","","","","","","","74","J","1","","","114","main_expt",""
"","bandit","194","719272","0.0-156.0-0.0","11712939","wem/bandit_party_2","A1KTPYX40PRLVW","either","1","220","","","","","","","0","0","1","","0.3280884562","0.4","0.2","0.8","0.6","0.4085425191","0.5008208772","0.3280884562","0.1480638281","","","","","","","","","","","","","","75","K","2","","","115","main_expt",""
"","bandit","195","722219","0.0-157.0-0.0","11712939","wem/bandit_party_2","A1KTPYX40PRLVW","either","1","352","","","","","","","0","0","1","0.4137256642","","0.4","0.2","0.8","0.6","","","","","0.4412864427","0.4200837231","0.4137256642","0.1246447603","","","","","","","","","","75","K","2","","","116","main_expt",""
"","bandit","196","724431","0.0-158.0-0.0","11712939","wem/bandit_party_2","A1KTPYX40PRLVW","either","1","673","","","","","","","0","0","1","","0.1308085784","0.4","0.2","0.8","0.6","0.5188885271","0.4094987027","0.372751341","0.1308085784","","","","","","","","","","","","","","76","L","3","","","117","main_expt",""
"","bandit","197","726335","0.0-159.0-0.0","11712939","wem/bandit_party_2","A1KTPYX40PRLVW","either","1","360","","","","","","","0","0","1","","0.09076242324","0.4","0.2","0.8","0.6","0.5728151575","0.3862907493","0.4225631273","0.09076242324","","","","","","","","","","","","","","76","L","3","","","118","main_expt",""
"","bandit","198","729518","0.0-160.0-0.0","11712939","wem/bandit_party_2","A1KTPYX40PRLVW","either","1","690","","","","","","","0","0","1","","0.5065624602","0.4","0.2","0.8","0.6","0.5065624602","0.4437318585","0.4188482812","0.09057925276","","","","","","","","","","","","","","72","H","0","img/none_selected.jpg","","119","main_expt",""
"","bandit","199","731394","0.0-161.0-0.0","11712939","wem/bandit_party_2","A1KTPYX40PRLVW","either","1","324","","","","","","","0","0","1","0.4064427813","","0.4","0.2","0.8","0.6","","","","","0.4064427813","0.293469011","0.3729077829","0.1288926122","","","","","","","","","","72","H","0","img/none_selected.jpg","","120","main_expt",""
"","bandit","200","733488","0.0-162.0-0.0","11712939","wem/bandit_party_2","A1KTPYX40PRLVW","either","1","541","","","","","","","0","0","1","","0.3817262037","0.4","0.2","0.8","0.6","0.3948988447","0.2141601759","0.3817262037","0.1479701512","","","","","","","","","","","","","","75","K","2","","","121","main_expt",""
"","bandit","201","737224","0.0-163.0-0.0","11712939","wem/bandit_party_2","A1KTPYX40PRLVW","either","1","1061","","","","","","","0","0","1","","0.3537210734","0.4","0.2","0.8","0.6","0.316823658","0.2594293103","0.3537210734","0.1663524813","","","","","","","","","","","","","","75","K","2","","","122","main_expt",""
"","bandit","202","738842","0.0-164.0-0.0","11712939","wem/bandit_party_2","A1KTPYX40PRLVW","either","1","65","","","","","","","0","0","1","0.1519240937","","0.4","0.2","0.8","0.6","","","","","0.3045978244","0.1519240937","0.3633727708","0.1993917655","","","","","","","","","","74","J","1","","","123","main_expt",""
"","bandit","203","740746","0.0-165.0-0.0","11712939","wem/bandit_party_2","A1KTPYX40PRLVW","either","1","359","","","","","","","0","0","1","","0.2311656533","0.4","0.2","0.8","0.6","0.2389028675","0.2311656533","0.4139908316","0.2948689786","","","","","","","","","","","","","","74","J","1","","","124","main_expt",""
"","bandit","204","743337","0.0-166.0-0.0","11712939","wem/bandit_party_2","A1KTPYX40PRLVW","either","1","689","","","","","","","0","1","0","","0.1956748967","0.4","0.2","0.8","0.6","0.2166803268","0.1956748967","0.3619800754","0.4054398129","","","","","","","","","","","","","","74","J","1","","","125","main_expt",""
"","bandit","205","745170","0.0-167.0-0.0","11712939","wem/bandit_party_2","A1KTPYX40PRLVW","either","1","293","","","","","","","0","0","1","","0.1419383156","0.4","0.2","0.8","0.6","0.1613674106","0.1419383156","0.353362548","0.5337661481","","","","","","","","","","","","","","74","J","1","","","126","main_expt",""
"","bandit","206","746768","0.0-168.0-0.0","11712939","wem/bandit_party_2","A1KTPYX40PRLVW","either","1","61","","","","","","","1","0","0","0.2888217425","","0.4","0.2","0.8","0.6","","","","","0.1682412955","0.1768105291","0.2888217425","0.5510518781","","","","","","","","","","75","K","2","","","127","main_expt",""
"","bandit","207","750362","0.0-169.0-0.0","11712939","wem/bandit_party_2","A1KTPYX40PRLVW","either","1","772","","","","","","","0","0","1","","0.3131893798","0.4","0.2","0.8","0.6","0.1655910943","0.1187699492","0.3131893798","0.4746642732","","","","","","","","","","","","","","75","K","2","","","128","main_expt",""
"","bandit","208","752177","0.0-170.0-0.0","11712939","wem/bandit_party_2","A1KTPYX40PRLVW","either","1","267","","","","","","","0","0","1","0.2826861836","","0.4","0.2","0.8","0.6","","","","","0.1845506081","0.1860330609","0.2826861836","0.5345142674","","","","","","","","","","75","K","2","","","129","main_expt",""
"","bandit","209","753842","0.0-171.0-0.0","11712939","wem/bandit_party_2","A1KTPYX40PRLVW","either","1","109","","","","","","","0","0","1","","0.09722607165","0.4","0.2","0.8","0.6","0.1548240476","0.09722607165","0.3434973012","0.6617219445","","","","","","","","","","","","","","74","J","1","","","130","main_expt",""
"","bandit","210","756501","0.0-172.0-0.0","11712939","wem/bandit_party_2","A1KTPYX40PRLVW","either","1","1117","","","","","","","0","0","1","","0.1503989","0.4","0.2","0.8","0.6","0.1503989","0.05626421391","0.3848082556","0.6183560712","","","","","","","","","","","","","","72","H","0","img/none_selected.jpg","","131","main_expt",""
"","bandit","211","758370","0.0-173.0-0.0","11712939","wem/bandit_party_2","A1KTPYX40PRLVW","either","1","327","","","","","","","0","0","1","","0.1199593994","0.4","0.2","0.8","0.6","0.1199593994","0.1149854728","0.4140069858","0.7009512511","","","","","","","","","","","","","","72","H","0","img/none_selected.jpg","","132","main_expt",""
"","bandit","212","761755","0.0-174.0-0.0","11712939","wem/bandit_party_2","A1KTPYX40PRLVW","either","1","502","","","","","","","0","1","0","","0.1698175541","0.4","0.2","0.8","0.6","0.1518383839","0.1698175541","0.3745017877","0.5838974895","","","","","","","","","","","","","","74","J","1","","","133","main_expt",""
"","bandit","213","763664","0.0-175.0-0.0","11712939","wem/bandit_party_2","A1KTPYX40PRLVW","either","1","358","","","","","","","0","0","1","0.1925371395","","0.4","0.2","0.8","0.6","","","","","0.1855528241","0.1925371395","0.3918835711","0.6628563986","","","","","","","","","","74","J","1","","","134","main_expt",""
"","bandit","214","766383","0.0-176.0-0.0","11712939","wem/bandit_party_2","A1KTPYX40PRLVW","either","1","700","","","","","","","0","1","0","","0.246136332","0.4","0.2","0.8","0.6","0.2187769305","0.246136332","0.3405764209","0.5610912218","","","","","","","","","","","","","","74","J","1","","","135","main_expt",""
"","bandit","215","768263","0.0-177.0-0.0","11712939","wem/bandit_party_2","A1KTPYX40PRLVW","either","1","339","","","","","","","0","0","1","","0.2277518718","0.4","0.2","0.8","0.6","0.2001534018","0.2277518718","0.4155430462","0.4834649218","","","","","","","","","","","","","","74","J","1","","","136","main_expt",""
"","bandit","216","771100","0.0-178.0-0.0","11712939","wem/bandit_party_2","A1KTPYX40PRLVW","either","1","656","","","","","","","1","0","0","0.3389252929","","0.4","0.2","0.8","0.6","","","","","0.176995917","0.252962458","0.3389252929","0.513072369","","","","","","","","","","75","K","2","","","137","main_expt",""
"","bandit","217","773047","0.0-179.0-0.0","11712939","wem/bandit_party_2","A1KTPYX40PRLVW","either","1","333","","","","","","","0","0","1","0.2698753193","","0.4","0.2","0.8","0.6","","","","","0.1460019238","0.3018696236","0.2698753193","0.5502636267","","","","","","","","","","75","K","2","","","138","main_expt",""
"","bandit","218","774894","0.0-180.0-0.0","11712939","wem/bandit_party_2","A1KTPYX40PRLVW","either","1","300","","","","","","","1","0","0","0.4564922144","","0.4","0.2","0.8","0.6","","","","","0.06707115951","0.347353107","0.2821570394","0.4564922144","","","","","","","","","","76","L","3","","","139","main_expt",""
"","bandit","219","778180","0.0-181.0-0.0","11712939","wem/bandit_party_2","A1KTPYX40PRLVW","either","1","350","","","","","","","0","0","1","0.4116013625","","0.4","0.2","0.8","0.6","","","","","0.1071331831","0.2477375586","0.3577533322","0.4116013625","","","","","","","","","","76","L","3","","","140","main_expt",""
"","bandit","220","780392","0.0-182.0-0.0","11712939","wem/bandit_party_2","A1KTPYX40PRLVW","either","1","669","","","","","","","0","0","1","","0.4498847811","0.4","0.2","0.8","0.6","0.1224459691","0.2880826197","0.4250900652","0.4498847811","","","","","","","","","","","","","","76","L","3","","","141","main_expt",""
"","bandit","221","782771","0.0-183.0-0.0","11712939","wem/bandit_party_2","A1KTPYX40PRLVW","either","1","428","","","","","","","0","0","1","","0.3451055681","0.4","0.2","0.8","0.6","0.1127900777","0.2287108423","0.3451055681","0.4822150968","","","","","","","","","","","","","","75","K","2","","","142","main_expt",""
"","bandit","222","785230","0.0-184.0-0.0","11712939","wem/bandit_party_2","A1KTPYX40PRLVW","either","1","196","","","","","","","0","0","1","","0.513506041","0.4","0.2","0.8","0.6","0.1736101882","0.2096850542","0.4661026996","0.513506041","","","","","","","","","","","","","","76","L","3","","","143","main_expt",""
"","bandit","223","787098","0.0-185.0-0.0","11712939","wem/bandit_party_2","A1KTPYX40PRLVW","either","1","285","","","","","","","1","0","0","0.4683168179","","0.4","0.2","0.8","0.6","","","","","0.1231714597","0.2214165798","0.4683168179","0.556822441","","","","","","","","","","75","K","2","","","144","main_expt",""
"","bandit","224","790449","0.0-186.0-0.0","11712939","wem/bandit_party_2","A1KTPYX40PRLVW","either","1","393","","","","","","","0","0","1","","0.448697065","0.4","0.2","0.8","0.6","0.10514291","0.2412424024","0.448697065","0.5633269006","","","","","","","","","","","","","","75","K","2","","","145","main_expt",""
"","bandit","225","792783","0.0-187.0-0.0","11712939","wem/bandit_party_2","A1KTPYX40PRLVW","either","1","794","","","","","","","0","0","1","","0.1841611904","0.4","0.2","0.8","0.6","0.0972381369","0.1841611904","0.4560677512","0.6482805244","","","","","","","","","","","","","","74","J","1","","","146","main_expt",""
"","bandit","226","795955","0.0-188.0-0.0","11712939","wem/bandit_party_2","A1KTPYX40PRLVW","either","1","281","","","","","","","1","0","0","0.513472809","","0.4","0.2","0.8","0.6","","","","","0.1897119627","0.1577922033","0.513472809","0.6036290043","","","","","","","","","","75","K","2","","","147","main_expt",""
"","bandit","227","798055","0.0-189.0-0.0","11712939","wem/bandit_party_2","A1KTPYX40PRLVW","either","1","543","","","","","","","0","0","1","0.3820674583","","0.4","0.2","0.8","0.6","","","","","0.1759094881","0.1663963597","0.3820674583","0.6110248825","","","","","","","","","","75","K","2","","","148","main_expt",""
"","bandit","228","800256","0.0-190.0-0.0","11712939","wem/bandit_party_2","A1KTPYX40PRLVW","either","1","389","","","","","","","0","0","1","0.3116557105","","0.4","0.2","0.8","0.6","","","","","0.2204336569","0.319747154","0.3116557105","0.6453676348","","","","","","","","","","75","K","2","","","149","main_expt",""
"","bandit","229","803613","0.0-191.0-0.0","11712939","wem/bandit_party_2","A1KTPYX40PRLVW","either","1","536","","","","","","","0","1","0","","0.5410110608","0.4","0.2","0.8","0.6","0.2328853871","0.5410110608","0.3039338698","0.66235511","","","","","","","","","","","","","","74","J","1","","","150","main_expt",""
"","bandit","230","805630","0.0-192.0-0.0","11712939","wem/bandit_party_2","A1KTPYX40PRLVW","either","1","457","","","","","","","0","0","1","","0.5584745132","0.4","0.2","0.8","0.6","0.2652525627","0.5584745132","0.3092958796","0.5547575852","","","","","","","","","","","","","","74","J","1","","","151","main_expt",""
"","bandit","231","810112","0.0-193.0-0.0","11712939","wem/bandit_party_2","A1KTPYX40PRLVW","either","1","2946","","","","","","","0","0","1","0.5223098228","","0.4","0.2","0.8","0.6","","","","","0.2654363334","0.5709378499","0.3097370874","0.5223098228","","","","","","","","","","76","L","3","","","152","main_expt",""
"","bandit","232","812085","0.0-194.0-0.0","11712939","wem/bandit_party_2","A1KTPYX40PRLVW","either","1","419","","","","","","","0","0","1","0.5137303037","","0.4","0.2","0.8","0.6","","","","","0.3505589273","0.6314515046","0.2955649657","0.5137303037","","","","","","","","","","76","L","3","","","153","main_expt",""
"","bandit","233","815507","0.0-195.0-0.0","11712939","wem/bandit_party_2","A1KTPYX40PRLVW","either","1","905","","","","","","","0","1","0","","0.5193194566","0.4","0.2","0.8","0.6","0.39889796","0.6734276465","0.221553637","0.5193194566","","","","","","","","","","","","","","76","L","3","","","154","main_expt",""
"","bandit","234","817684","0.0-196.0-0.0","11712939","wem/bandit_party_2","A1KTPYX40PRLVW","either","1","597","","","","","","","0","1","0","","0.4736812385","0.4","0.2","0.8","0.6","0.4202606707","0.7019144477","0.2231547498","0.4736812385","","","","","","","","","","","","","","76","L","3","","","155","main_expt",""
"","bandit","235","819720","0.0-197.0-0.0","11712939","wem/bandit_party_2","A1KTPYX40PRLVW","either","1","459","","","","","","","0","0","1","","0.4616442501","0.4","0.2","0.8","0.6","0.4814159609","0.6695455193","0.2750957943","0.4616442501","","","","","","","","","","","","","","76","L","3","","","156","main_expt",""
"","bandit","236","822781","0.0-198.0-0.0","11712939","wem/bandit_party_2","A1KTPYX40PRLVW","either","1","1305","","","","","","","1","0","0","0.5025740222","","0.4","0.2","0.8","0.6","","","","","0.5316807058","0.6179864128","0.2005793054","0.5025740222","","","","","","","","","","76","L","3","","","157","main_expt",""
"","bandit","237","824638","0.0-199.0-0.0","11712939","wem/bandit_party_2","A1KTPYX40PRLVW","either","1","310","","","","","","","1","0","0","0.4548105643","","0.4","0.2","0.8","0.6","","","","","0.5429668589","0.7380689997","0.2502080146","0.4548105643","","","","","","","","","","76","L","3","","","158","main_expt",""
"","bandit","238","826784","0.0-200.0-0.0","11712939","wem/bandit_party_2","A1KTPYX40PRLVW","either","1","367","","","","","","","0","0","1","0.4622667215","","0.4","0.2","0.8","0.6","","","","","0.5991419929","0.7632184112","0.2729805177","0.4622667215","","","","","","","","","","76","L","3","","","159","main_expt",""
"","bandit","239","828520","0.0-201.0-0.0","11712939","wem/bandit_party_2","A1KTPYX40PRLVW","either","1","197","","","","","","","0","0","1","0.4600517474","","0.4","0.2","0.8","0.6","","","","","0.6480894682","0.6917664031","0.2801697818","0.4600517474","","","","","","","","","","76","L","3","","","160","main_expt",""
"","bandit","240","832798","0.0-202.0-0.0","11712939","wem/bandit_party_2","A1KTPYX40PRLVW","either","1","2207","","","","","","","1","0","0","0.481388234","","0.4","0.2","0.8","0.6","","","","","0.6776161973","0.7106531984","0.2437938608","0.481388234","","","","","","","","","","76","L","3","","","161","main_expt",""
"","bandit","241","835097","0.0-203.0-0.0","11712939","wem/bandit_party_2","A1KTPYX40PRLVW","either","1","385","","","","","","","0","0","1","0.3850106192","","0.4","0.2","0.8","0.6","","","","","0.7134031715","0.809310282","0.2687553501","0.3850106192","","","","","","","","","","76","L","3","","","162","main_expt",""
"","bandit","242","837022","0.0-204.0-0.0","11712939","wem/bandit_party_2","A1KTPYX40PRLVW","either","1","384","","","","","","","0","0","1","0.245991677","","0.4","0.2","0.8","0.6","","","","","0.6215635068","0.7492875705","0.245991677","0.3498723973","","","","","","","","","","75","K","2","","","163","main_expt",""
"","bandit","243","838851","0.0-205.0-0.0","11712939","wem/bandit_party_2","A1KTPYX40PRLVW","either","1","283","","","","","","","0","0","1","0.4287417444","","0.4","0.2","0.8","0.6","","","","","0.5219240024","0.7561394707","0.270385563","0.4287417444","","","","","","","","","","76","L","3","","","164","main_expt",""
"","bandit","244","840954","0.0-206.0-0.0","11712939","wem/bandit_party_2","A1KTPYX40PRLVW","either","1","561","","","","","","","0","0","1","0.3150145745","","0.4","0.2","0.8","0.6","","","","","0.4727302842","0.8111415702","0.3037855967","0.3150145745","","","","","","","","","","76","L","3","","","165","main_expt",""
"","bandit","245","843674","0.0-207.0-0.0","11712939","wem/bandit_party_2","A1KTPYX40PRLVW","either","1","1174","","","","","","","1","0","0","0.2927018344","","0.4","0.2","0.8","0.6","","","","","0.5181018645","0.7759938205","0.3395577104","0.2927018344","","","","","","","","","","76","L","3","","","166","main_expt",""
"","bandit","246","845655","0.0-208.0-0.0","11712939","wem/bandit_party_2","A1KTPYX40PRLVW","either","1","417","","","","","","","0","0","1","","0.3610256338","0.4","0.2","0.8","0.6","0.5280433419","0.8267633335","0.3443901906","0.3610256338","","","","","","","","","","","","","","76","L","3","","","167","main_expt",""
"","bandit","247","848335","0.0-209.0-0.0","11712939","wem/bandit_party_2","A1KTPYX40PRLVW","either","1","668","","","","","","","0","0","1","0.2552323567","","0.4","0.2","0.8","0.6","","","","","0.5470010145","0.8136073627","0.2552323567","0.3137127159","","","","","","","","","","75","K","2","","","168","main_expt",""
"","bandit","248","850752","0.0-210.0-0.0","11712939","wem/bandit_party_2","A1KTPYX40PRLVW","either","1","882","","","","","","","1","0","0","0.7308533614","","0.4","0.2","0.8","0.6","","","","","0.5558845962","0.7308533614","0.289352286","0.2292796242","","","","","","","","","","74","J","1","","","169","main_expt",""
"","bandit","249","854030","0.0-211.0-0.0","11712939","wem/bandit_party_2","A1KTPYX40PRLVW","either","1","1616","","","","","","","0","0","1","0.7090730391","","0.4","0.2","0.8","0.6","","","","","0.5799309324","0.7090730391","0.2262743404","0.221948569","","","","","","","","","","74","J","1","","","170","main_expt",""
"","bandit","250","856044","0.0-212.0-0.0","11712939","wem/bandit_party_2","A1KTPYX40PRLVW","either","1","476","","","","","","","0","1","0","","0.6643953266","0.4","0.2","0.8","0.6","0.6643953266","0.7229684446","0.2644351609","0.159615594","","","","","","","","","","","","","","72","H","0","img/none_selected.jpg","","171","main_expt",""
"","bandit","251","859055","0.0-213.0-0.0","11712939","wem/bandit_party_2","A1KTPYX40PRLVW","either","1","571","","","","","","","1","0","0","0.7610666705","","0.4","0.2","0.8","0.6","","","","","0.7610666705","0.6612043244","0.4136296373","0.1303854457","","","","","","","","","","72","H","0","img/none_selected.jpg","","172","main_expt",""
"","bandit","252","861263","0.0-214.0-0.0","11712939","wem/bandit_party_2","A1KTPYX40PRLVW","either","1","667","","","","","","","0","0","1","","0.8006149786","0.4","0.2","0.8","0.6","0.8006149786","0.7669021743","0.491318492","0.07729024622","","","","","","","","","","","","","","72","H","0","img/none_selected.jpg","","173","main_expt",""
"","bandit","253","863337","0.0-215.0-0.0","11712939","wem/bandit_party_2","A1KTPYX40PRLVW","either","1","530","","","","","","","0","1","0","","0.791095403","0.4","0.2","0.8","0.6","0.791095403","0.8111867287","0.4966763124","0.1227026474","","","","","","","","","","","","","","72","H","0","img/none_selected.jpg","","174","main_expt",""
"","bandit","254","866231","0.0-216.0-0.0","11712939","wem/bandit_party_2","A1KTPYX40PRLVW","either","1","464","","","","","","","1","0","0","0.8572088762","","0.4","0.2","0.8","0.6","","","","","0.8572088762","0.8192498968","0.5109350621","0.09483306355","","","","","","","","","","72","H","0","img/none_selected.jpg","","175","main_expt",""
"","bandit","255","869550","0.0-217.0-0.0","11712939","wem/bandit_party_2","A1KTPYX40PRLVW","either","1","1765","","","","","","","0","1","0","","0.8576080684","0.4","0.2","0.8","0.6","0.8576080684","0.8371283275","0.6321295754","0.143069758","","","","","","","","","","","","","","72","H","0","img/none_selected.jpg","","176","main_expt",""
"","bandit","256","873471","0.0-218.0-0.0","11712939","wem/bandit_party_2","A1KTPYX40PRLVW","either","1","2369","","","","","","","0","1","0","","0.8678158231","0.4","0.2","0.8","0.6","0.8678158231","0.8545140947","0.5515755996","0.1741656422","","","","","","","","","","","","","","72","H","0","img/none_selected.jpg","","177","main_expt",""
"","bandit","257","875638","0.0-219.0-0.0","11712939","wem/bandit_party_2","A1KTPYX40PRLVW","either","1","612","","","","","","","0","1","0","","0.8820542777","0.4","0.2","0.8","0.6","0.8820542777","0.8794893657","0.5086275016","0.1904086474","","","","","","","","","","","","","","72","H","0","img/none_selected.jpg","","178","main_expt",""
"","bandit","258","878263","0.0-220.0-0.0","11712939","wem/bandit_party_2","A1KTPYX40PRLVW","either","1","1075","","","","","","","1","0","0","0.8907334788","","0.4","0.2","0.8","0.6","","","","","0.8907334788","0.8939587296","0.5215192908","0.1778905233","","","","","","","","","","72","H","0","img/none_selected.jpg","","179","main_expt",""
"","bandit","259","880152","0.0-221.0-0.0","11712939","wem/bandit_party_2","A1KTPYX40PRLVW","either","1","342","","","","","","","1","0","0","0.9161653667","","0.4","0.2","0.8","0.6","","","","","0.9161653667","0.868077767","0.5193414217","0.2112817454","","","","","","","","","","72","H","0","img/none_selected.jpg","","180","main_expt",""
"","bandit","260","882894","0.0-222.0-0.0","11712939","wem/bandit_party_2","A1KTPYX40PRLVW","either","1","656","","","","","","","1","0","0","0.9327112184","","0.4","0.2","0.8","0.6","","","","","0.9327112184","0.9295405476","0.4613460131","0.2236312472","","","","","","","","","","72","H","0","img/none_selected.jpg","","181","main_expt",""
"","bandit","261","885214","0.0-223.0-0.0","11712939","wem/bandit_party_2","A1KTPYX40PRLVW","either","1","416","","","","","","","1","0","0","0.9284398706","","0.4","0.2","0.8","0.6","","","","","0.9284398706","0.9213574857","0.4468633868","0.264467441","","","","","","","","","","72","H","0","img/none_selected.jpg","","182","main_expt",""
"","bandit","262","887629","0.0-224.0-0.0","11712939","wem/bandit_party_2","A1KTPYX40PRLVW","either","1","664","","","","","","","0","1","0","","0.89591471","0.4","0.2","0.8","0.6","0.89591471","0.9374560388","0.4985091709","0.2240632979","","","","","","","","","","","","","","72","H","0","img/none_selected.jpg","","183","main_expt",""
"","bandit","263","889673","0.0-225.0-0.0","11712939","wem/bandit_party_2","A1KTPYX40PRLVW","either","1","487","","","","","","","0","1","0","","0.9146434193","0.4","0.2","0.8","0.6","0.9146434193","0.9120054929","0.6057575335","0.1671404848","","","","","","","","","","","","","","72","H","0","img/none_selected.jpg","","184","main_expt",""
"","bandit","264","892328","0.0-226.0-0.0","11712939","wem/bandit_party_2","A1KTPYX40PRLVW","either","1","548","","","","","","","0","1","0","","0.8575823977","0.4","0.2","0.8","0.6","0.8575823977","0.8428471033","0.4915456485","0.1932257563","","","","","","","","","","","","","","72","H","0","img/none_selected.jpg","","185","main_expt",""
"","bandit","265","894285","0.0-227.0-0.0","11712939","wem/bandit_party_2","A1KTPYX40PRLVW","either","1","412","","","","","","","0","0","1","0.8487952361","","0.4","0.2","0.8","0.6","","","","","0.8487952361","0.7734335662","0.5976273718","0.155472597","","","","","","","","","","72","H","0","img/none_selected.jpg","","186","main_expt",""
"","bandit","266","896366","0.0-228.0-0.0","11712939","wem/bandit_party_2","A1KTPYX40PRLVW","either","1","533","","","","","","","0","1","0","","0.8603972339","0.4","0.2","0.8","0.6","0.8603972339","0.7667319261","0.5743595779","0.1895871356","","","","","","","","","","","","","","72","H","0","img/none_selected.jpg","","187","main_expt",""
"","bandit","267","899565","0.0-229.0-0.0","11712939","wem/bandit_party_2","A1KTPYX40PRLVW","either","1","570","","","","","","","1","0","0","0.8834510925","","0.4","0.2","0.8","0.6","","","","","0.8834510925","0.5945875292","0.6833173747","0.2119556673","","","","","","","","","","72","H","0","img/none_selected.jpg","","188","main_expt",""
"","bandit","268","901515","0.0-230.0-0.0","11712939","wem/bandit_party_2","A1KTPYX40PRLVW","either","1","390","","","","","","","0","1","0","","0.8973947779","0.4","0.2","0.8","0.6","0.8973947779","0.7406569186","0.651089354","0.2255007403","","","","","","","","","","","","","","72","H","0","img/none_selected.jpg","","189","main_expt",""
"","bandit","269","903460","0.0-231.0-0.0","11712939","wem/bandit_party_2","A1KTPYX40PRLVW","either","1","401","","","","","","","1","0","0","0.8824587855","","0.4","0.2","0.8","0.6","","","","","0.8824587855","0.7371931777","0.6599652607","0.1754842532","","","","","","","","","","72","H","0","img/none_selected.jpg","","190","main_expt",""
"","bandit","270","905360","0.0-232.0-0.0","11712939","wem/bandit_party_2","A1KTPYX40PRLVW","either","1","347","","","","","","","0","1","0","","0.9076431997","0.4","0.2","0.8","0.6","0.9076431997","0.7019705866","0.6960236584","0.1936311571","","","","","","","","","","","","","","72","H","0","img/none_selected.jpg","","191","main_expt",""
"","bandit","271","909083","0.0-233.0-0.0","11712939","wem/bandit_party_2","A1KTPYX40PRLVW","either","1","2178","","","","","","","1","0","0","0.8673165995","","0.4","0.2","0.8","0.6","","","","","0.8673165995","0.6198122665","0.6713911156","0.215612591","","","","","","","","","","72","H","0","img/none_selected.jpg","","192","main_expt",""
"","bandit","272","911041","0.0-234.0-0.0","11712939","wem/bandit_party_2","A1KTPYX40PRLVW","either","1","396","","","","","","","1","0","0","0.8264401474","","0.4","0.2","0.8","0.6","","","","","0.8264401474","0.6100930929","0.7244072205","0.2818734505","","","","","","","","","","72","H","0","img/none_selected.jpg","","193","main_expt",""
"","bandit","273","914486","0.0-235.0-0.0","11712939","wem/bandit_party_2","A1KTPYX40PRLVW","either","1","970","","","","","","","1","0","0","0.8546086414","","0.4","0.2","0.8","0.6","","","","","0.8546086414","0.6332739585","0.7397798508","0.3616108755","","","","","","","","","","72","H","0","img/none_selected.jpg","","194","main_expt",""
"","bandit","274","916931","0.0-236.0-0.0","11712939","wem/bandit_party_2","A1KTPYX40PRLVW","either","1","891","","","","","","","0","1","0","","0.7914914872","0.4","0.2","0.8","0.6","0.7914914872","0.609207161","0.7602069811","0.3979961615","","","","","","","","","","","","","","72","H","0","img/none_selected.jpg","","195","main_expt",""
"","bandit","275","921371","0.0-237.0-0.0","11712939","wem/bandit_party_2","A1KTPYX40PRLVW","either","1","1634","","","","","","","0","0","1","","0.7608346536","0.4","0.2","0.8","0.6","0.7608346536","0.6560649547","0.7114092524","0.4366641927","","","","","","","","","","","","","","72","H","0","img/none_selected.jpg","","196","main_expt",""
"","bandit","276","926330","0.0-238.0-0.0","11712939","wem/bandit_party_2","A1KTPYX40PRLVW","either","1","2811","","","","","","","0","1","0","","0.7003784325","0.4","0.2","0.8","0.6","0.7003784325","0.6656533059","0.6917424169","0.560782874","","","","","","","","","","","","","","72","H","0","img/none_selected.jpg","","197","main_expt",""
"","bandit","277","928589","0.0-239.0-0.0","11712939","wem/bandit_party_2","A1KTPYX40PRLVW","either","1","701","","","","","","","0","0","1","","0.6036075577","0.4","0.2","0.8","0.6","0.6036075577","0.6841747727","0.6561069913","0.5649388288","","","","","","","","","","","","","","72","H","0","img/none_selected.jpg","","198","main_expt",""
"","bandit","278","930894","0.0-240.0-0.0","11712939","wem/bandit_party_2","A1KTPYX40PRLVW","either","1","756","","","","","","","0","0","1","","0.5843314555","0.4","0.2","0.8","0.6","0.5843314555","0.7105065455","0.6948346643","0.5375892324","","","","","","","","","","","","","","72","H","0","img/none_selected.jpg","","199","main_expt",""
"","bandit","279","934360","0.0-241.0-0.0","11712939","wem/bandit_party_2","A1KTPYX40PRLVW","either","1","1914","","","","","","","0","0","1","0.539414212","","0.4","0.2","0.8","0.6","","","","","0.539414212","0.7380433654","0.7369743936","0.5625167851","","","","","","","","","","72","H","0","img/none_selected.jpg","","200","main_expt",""
"","bandit","280","936350","0.0-242.0-0.0","11712939","wem/bandit_party_2","A1KTPYX40PRLVW","either","1","433","","","","","","","0","0","1","0.6432951689","","0.4","0.2","0.8","0.6","","","","","0.3774065742","0.6432951689","0.8347268415","0.6266810217","","","","","","","","","","74","J","1","","","201","main_expt",""
"","bandit","281","939095","0.0-243.0-0.0","11712939","wem/bandit_party_2","A1KTPYX40PRLVW","either","1","152","","","","","","","1","0","0","0.7612264534","","0.4","0.2","0.8","0.6","","","","","0.2824615609","0.4995879772","0.7612264534","0.6661075828","","","","","","","","","","75","K","2","","","202","main_expt",""
"","bandit","282","941160","0.0-244.0-0.0","11712939","wem/bandit_party_2","A1KTPYX40PRLVW","either","1","515","","","","","","","1","0","0","0.6904596671","","0.4","0.2","0.8","0.6","","","","","0.210170224","0.4767352753","0.6904596671","0.7534099026","","","","","","","","","","75","K","2","","","203","main_expt",""
"","bandit","283","943011","0.0-245.0-0.0","11712939","wem/bandit_party_2","A1KTPYX40PRLVW","either","1","290","","","","","","","0","1","0","","0.6855485072","0.4","0.2","0.8","0.6","0.2708138581","0.3680612217","0.6855485072","0.7033522103","","","","","","","","","","","","","","75","K","2","","","204","main_expt",""
"","bandit","284","946458","0.0-246.0-0.0","11712939","wem/bandit_party_2","A1KTPYX40PRLVW","either","1","628","","","","","","","0","0","1","0.7006332368","","0.4","0.2","0.8","0.6","","","","","0.3319820794","0.3404512965","0.7006332368","0.6105989365","","","","","","","","","","75","K","2","","","205","main_expt",""
"","bandit","285","948368","0.0-247.0-0.0","11712939","wem/bandit_party_2","A1KTPYX40PRLVW","either","1","357","","","","","","","0","1","0","","0.7533130943","0.4","0.2","0.8","0.6","0.3517339603","0.2774568564","0.7533130943","0.725137222","","","","","","","","","","","","","","75","K","2","","","206","main_expt",""
"","bandit","286","951441","0.0-248.0-0.0","11712939","wem/bandit_party_2","A1KTPYX40PRLVW","either","1","231","","","","","","","1","0","0","0.7191760557","","0.4","0.2","0.8","0.6","","","","","0.2871079035","0.2228883469","0.7191760557","0.5888984072","","","","","","","","","","75","K","2","","","207","main_expt",""
"","bandit","287","953564","0.0-249.0-0.0","11712939","wem/bandit_party_2","A1KTPYX40PRLVW","either","1","568","","","","","","","0","0","1","0.6264293856","","0.4","0.2","0.8","0.6","","","","","0.2642306377","0.2829247412","0.6264293856","0.4650323514","","","","","","","","","","75","K","2","","","208","main_expt",""
"","bandit","288","957406","0.0-250.0-0.0","11712939","wem/bandit_party_2","A1KTPYX40PRLVW","either","1","819","","","","","","","1","0","0","0.6500478562","","0.4","0.2","0.8","0.6","","","","","0.3587725811","0.3169104167","0.6500478562","0.4100719568","","","","","","","","","","75","K","2","","","209","main_expt",""
"","bandit","289","959621","0.0-251.0-0.0","11712939","wem/bandit_party_2","A1KTPYX40PRLVW","either","1","621","","","","","","","1","0","0","0.6498865343","","0.4","0.2","0.8","0.6","","","","","0.3103342645","0.2090062306","0.6498865343","0.5177296744","","","","","","","","","","75","K","2","","","210","main_expt",""
"","bandit","290","962050","0.0-252.0-0.0","11712939","wem/bandit_party_2","A1KTPYX40PRLVW","either","1","782","","","","","","","1","0","0","0.6056301442","","0.4","0.2","0.8","0.6","","","","","0.3760595068","0.1481662818","0.6056301442","0.5950812693","","","","","","","","","","75","K","2","","","211","main_expt",""
"","bandit","291","965877","0.0-253.0-0.0","11712939","wem/bandit_party_2","A1KTPYX40PRLVW","either","1","2286","","","","","","","1","0","0","0.5524844402","","0.4","0.2","0.8","0.6","","","","","0.447023013","0.2114888193","0.5524844402","0.7169745983","","","","","","","","","","75","K","2","","","212","main_expt",""
"","bandit","292","969278","0.0-254.0-0.0","11712939","wem/bandit_party_2","A1KTPYX40PRLVW","either","1","1260","","","","","","","1","0","0","0.6984249358","","0.4","0.2","0.8","0.6","","","","","0.4529182837","0.2234642754","0.6984249358","0.6766124197","","","","","","","","","","75","K","2","","","213","main_expt",""
"","bandit","293","971328","0.0-255.0-0.0","11712939","wem/bandit_party_2","A1KTPYX40PRLVW","either","1","511","","","","","","","1","0","0","0.5996975418","","0.4","0.2","0.8","0.6","","","","","0.4306534983","0.2315139555","0.5996975418","0.8005648136","","","","","","","","","","75","K","2","","","214","main_expt",""
"","bandit","294","973876","0.0-256.0-0.0","11712939","wem/bandit_party_2","A1KTPYX40PRLVW","either","1","446","","","","","","","1","0","0","0.6067129047","","0.4","0.2","0.8","0.6","","","","","0.4314469479","0.1949488974","0.6067129047","0.8487964291","","","","","","","","","","75","K","2","","","215","main_expt",""
"","bandit","295","977181","0.0-257.0-0.0","11712939","wem/bandit_party_2","A1KTPYX40PRLVW","either","1","1733","","","","","","","0","0","1","","0.6297976658","0.4","0.2","0.8","0.6","0.45439575","0.2333303883","0.6297976658","0.8674123454","","","","","","","","","","","","","","75","K","2","","","216","main_expt",""
"","bandit","296","979517","0.0-258.0-0.0","11712939","wem/bandit_party_2","A1KTPYX40PRLVW","either","1","777","","","","","","","0","0","1","0.6095272491","","0.4","0.2","0.8","0.6","","","","","0.5228861726","0.2027763819","0.6095272491","0.8774404243","","","","","","","","","","75","K","2","","","217","main_expt",""
"","bandit","297","982956","0.0-259.0-0.0","11712939","wem/bandit_party_2","A1KTPYX40PRLVW","either","1","700","","","","","","","1","0","0","0.8836448068","","0.4","0.2","0.8","0.6","","","","","0.463703458","0.1895874514","0.7058099393","0.8836448068","","","","","","","","","","76","L","3","","","218","main_expt",""
"","bandit","298","984954","0.0-260.0-0.0","11712939","wem/bandit_party_2","A1KTPYX40PRLVW","either","1","452","","","","","","","1","0","0","0.880498508","","0.4","0.2","0.8","0.6","","","","","0.4522864467","0.1537120117","0.7396246451","0.880498508","","","","","","","","","","76","L","3","","","219","main_expt",""
"","bandit","299","988493","0.0-261.0-0.0","11712939","wem/bandit_party_2","A1KTPYX40PRLVW","either","1","1403","","","","","","","0","1","0","","0.8740874997","0.4","0.2","0.8","0.6","0.4561576612","0.2022747423","0.7091968036","0.8740874997","","","","","","","","","","","","","","76","L","3","","","220","main_expt",""
"","bandit","300","990992","0.0-262.0-0.0","11712939","wem/bandit_party_2","A1KTPYX40PRLVW","either","1","905","","","","","","","0","1","0","","0.8527830905","0.4","0.2","0.8","0.6","0.4264657168","0.3174413427","0.7116308873","0.8527830905","","","","","","","","","","","","","","76","L","3","","","221","main_expt",""
"","bandit","301","994402","0.0-263.0-0.0","11712939","wem/bandit_party_2","A1KTPYX40PRLVW","either","1","728","","","","","","","0","1","0","","0.7717907476","0.4","0.2","0.8","0.6","0.3055141729","0.2315667073","0.769465391","0.7717907476","","","","","","","","","","","","","","76","L","3","","","222","main_expt",""
"","bandit","302","996451","0.0-264.0-0.0","11712939","wem/bandit_party_2","A1KTPYX40PRLVW","either","1","473","","","","","","","0","0","1","0.8359700354","","0.4","0.2","0.8","0.6","","","","","0.2868954791","0.2261006122","0.7509006974","0.8359700354","","","","","","","","","","76","L","3","","","223","main_expt",""
"","bandit","303","998386","0.0-265.0-0.0","11712939","wem/bandit_party_2","A1KTPYX40PRLVW","either","1","366","","","","","","","0","0","1","0.819670806","","0.4","0.2","0.8","0.6","","","","","0.2698185242","0.2662378096","0.7007688409","0.819670806","","","","","","","","","","76","L","3","","","224","main_expt",""
"","bandit","304","1001489","0.0-266.0-0.0","11712939","wem/bandit_party_2","A1KTPYX40PRLVW","either","1","508","","","","","","","0","0","1","","0.2163280173","0.4","0.2","0.8","0.6","0.213842325","0.2163280173","0.7409020096","0.8512382749","","","","","","","","","","","","","","74","J","1","","","225","main_expt",""
"","bandit","305","1003374","0.0-267.0-0.0","11712939","wem/bandit_party_2","A1KTPYX40PRLVW","either","1","335","","","","","","","0","0","1","0.2809353625","","0.4","0.2","0.8","0.6","","","","","0.1616408491","0.2809353625","0.7052945704","0.8342861847","","","","","","","","","","74","J","1","","","226","main_expt",""
"","bandit","306","1005420","0.0-268.0-0.0","11712939","wem/bandit_party_2","A1KTPYX40PRLVW","either","1","491","","","","","","","1","0","0","0.1777599287","","0.4","0.2","0.8","0.6","","","","","0.1777599287","0.2396571279","0.606091252","0.7736041865","","","","","","","","","","72","H","0","img/none_selected.jpg","","227","main_expt",""
"","bandit","307","1008048","0.0-269.0-0.0","11712939","wem/bandit_party_2","A1KTPYX40PRLVW","either","1","763","","","","","","","0","0","1","","0.2866543064","0.4","0.2","0.8","0.6","0.2866543064","0.3430446928","0.5834203199","0.8094350608","","","","","","","","","","","","","","72","H","0","img/none_selected.jpg","","228","main_expt",""
"","bandit","308","1009949","0.0-270.0-0.0","11712939","wem/bandit_party_2","A1KTPYX40PRLVW","either","1","348","","","","","","","0","0","1","","0.3948293382","0.4","0.2","0.8","0.6","0.3948293382","0.2886233194","0.5466214007","0.8078722129","","","","","","","","","","","","","","72","H","0","img/none_selected.jpg","","229","main_expt",""
"","bandit","309","1011831","0.0-271.0-0.0","11712939","wem/bandit_party_2","A1KTPYX40PRLVW","either","1","333","","","","","","","0","0","1","0.5519014059","","0.4","0.2","0.8","0.6","","","","","0.3291786684","0.3213731463","0.5519014059","0.7719043616","","","","","","","","","","75","K","2","","","230","main_expt",""
"","bandit","310","1014032","0.0-272.0-0.0","11712939","wem/bandit_party_2","A1KTPYX40PRLVW","either","1","640","","","","","","","0","0","1","0.4527164215","","0.4","0.2","0.8","0.6","","","","","0.2378236032","0.2771614906","0.4527164215","0.8049264475","","","","","","","","","","75","K","2","","","231","main_expt",""
"","bandit","311","1015593","0.0-273.0-0.0","11712939","wem/bandit_party_2","A1KTPYX40PRLVW","either","1","8","","","","","","","1","0","0","0.5135082398","","0.4","0.2","0.8","0.6","","","","","0.246393804","0.2249105956","0.5135082398","0.8850589997","","","","","","","","","","75","K","2","","","232","main_expt",""
"","bandit","312","1017759","0.0-274.0-0.0","11712939","wem/bandit_party_2","A1KTPYX40PRLVW","either","1","613","","","","","","","0","0","1","0.5502454751","","0.4","0.2","0.8","0.6","","","","","0.2141634692","0.2447973041","0.5502454751","0.9183615156","","","","","","","","","","75","K","2","","","233","main_expt",""
"","bandit","313","1020841","0.0-275.0-0.0","11712939","wem/bandit_party_2","A1KTPYX40PRLVW","either","1","1525","","","","","","","0","0","1","0.3783923662","","0.4","0.2","0.8","0.6","","","","","0.2876436191","0.24601643","0.3783923662","0.9639410842","","","","","","","","","","75","K","2","","","234","main_expt",""
"","bandit","314","1023380","0.0-276.0-0.0","11712939","wem/bandit_party_2","A1KTPYX40PRLVW","either","1","840","","","","","","","0","1","0","","0.2769077257","0.4","0.2","0.8","0.6","0.2769077257","0.1629844561","0.2814299379","0.9697187448","","","","","","","","","","","","","","72","H","0","img/none_selected.jpg","","235","main_expt",""
"","bandit","315","1025420","0.0-277.0-0.0","11712939","wem/bandit_party_2","A1KTPYX40PRLVW","either","1","469","","","","","","","0","0","1","","0.136865198","0.4","0.2","0.8","0.6","0.136865198","0.1929455839","0.3106100538","0.9571573523","","","","","","","","","","","","","","72","H","0","img/none_selected.jpg","","236","main_expt",""
"","bandit","316","1027305","0.0-278.0-0.0","11712939","wem/bandit_party_2","A1KTPYX40PRLVW","either","1","343","","","","","","","0","0","1","","0.1123790732","0.4","0.2","0.8","0.6","0.1123790732","0.1497712966","0.3152445528","0.9170696074","","","","","","","","","","","","","","72","H","0","img/none_selected.jpg","","237","main_expt",""
