"consent","trial_type","trial_index","time_elapsed","internal_node_id","subjID","study","MID","cond","drift","rt","responses","button_pressed","key_press","like","value","connected","gems","bombs","no_reward","GemPrChosen","BombPrChosen","GainOverPainPr_0","GainOverPainPr_1","GainOverPainPr_2","GainOverPainPr_3","LosePr_0","LosePr_1","LosePr_2","LosePr_3","WinPr_0","WinPr_1","WinPr_2","WinPr_3","Q0","Q1","Q2","gender","age","ethnicity","label","expt_phase","target","respCharCode","respKey","respChoiceNum","respChoice","practice","trial_counter","trial_label","Q0_index"
"GDM/GDM_behavioral_consent_30min_online.html","consent","0","7654","0.0-0.0","13153349","wem/bandit_party_2","A3RM13YVEAFIU5","either","2","","","","","","","","","","","","","","","","","","","","","","","","","","","","","","","","","","","","","","","","",""
"","survey-text","1","12903","0.0-1.0","13153349","wem/bandit_party_2","A3RM13YVEAFIU5","either","2","4227","{""Q0"":""A3RM13YVEAFIU5""}","","","","","","","","","","","","","","","","","","","","","","","","","","","","","","","","","","","","","","",""
"","button-response","2","15572","0.0-2.0","13153349","wem/bandit_party_2","A3RM13YVEAFIU5","either","2","1644","","0","","","","","","","","","","","","","","","","","","","","","","","","","","","","","","","","","","","","","",""
"","text-replacement","3","20721","0.0-3.0","13153349","wem/bandit_party_2","A3RM13YVEAFIU5","either","2","4139","","","32","","","","","","","","","","","","","","","","","","","","","","","","","","","","","","","","","","","","",""
"","text-replacement","4","25385","0.0-4.0","13153349","wem/bandit_party_2","A3RM13YVEAFIU5","either","2","4658","","","32","","","","","","","","","","","","","","","","","","","","","","","","","","","","","","","","","","","","",""
"","identification","5","32148","0.0-6.0-0.0","13153349","wem/bandit_party_2","A3RM13YVEAFIU5","either","2","6715","","","","2","2","2","","","","","","","","","","","","","","","","","","","","","","","","pre","identification_pre","the Democratic Party","","","","","","","",""
"","identification","6","36404","0.0-6.0-1.0","13153349","wem/bandit_party_2","A3RM13YVEAFIU5","either","2","3210","","","","3","3","3","","","","","","","","","","","","","","","","","","","","","","","","pre","identification_pre","the Republican Party","","","","","","","",""
"","text-replacement","7","41505","0.0-7.0","13153349","wem/bandit_party_2","A3RM13YVEAFIU5","either","2","4093","","","32","","","","","","","","","","","","","","","","","","","","","","","","","","","","","","","","","","","","",""
"","text-replacement","8","45978","0.0-8.0","13153349","wem/bandit_party_2","A3RM13YVEAFIU5","either","2","4467","","","32","","","","","","","","","","","","","","","","","","","","","","","","","","","","","","","","","","","","",""
"","text-replacement","9","52187","0.0-9.0","13153349","wem/bandit_party_2","A3RM13YVEAFIU5","either","2","6200","","","32","","","","","","","","","","","","","","","","","","","","","","","","","","","","","","","","","","","","",""
"","text-replacement","10","55469","0.0-10.0","13153349","wem/bandit_party_2","A3RM13YVEAFIU5","either","2","3276","","","32","","","","","","","","","","","","","","","","","","","","","","","","","","","","","","","","","","","","",""
"","text-replacement","11","62098","0.0-11.0","13153349","wem/bandit_party_2","A3RM13YVEAFIU5","either","2","6623","","","32","","","","","","","","","","","","","","","","","","","","","","","","","","","","","","","","","","","","",""
"","bandit","12","66111","0.0-12.0-0.0","13153349","wem/bandit_party_2","A3RM13YVEAFIU5","either","2","2485","","","","","","","0","0","1","0","0","","","","","0","","","","0","","","","","","","","","","","","","74","J","0","img/none_selected_demo.jpg","true","0","",""
"","bandit","13","68517","0.0-13.0-0.0","13153349","wem/bandit_party_2","A3RM13YVEAFIU5","either","2","888","","","","","","","0","0","1","0","0","","","","","0","","","","0","","","","","","","","","","","","","75","K","0","img/none_selected_demo.jpg","true","0","",""
"","text-replacement","14","71122","0.0-14.0","13153349","wem/bandit_party_2","A3RM13YVEAFIU5","either","2","2595","","","32","","","","","","","","","","","","","","","","","","","","","","","","","","","","","","","","","","","","",""
"","text-replacement","15","75363","0.0-15.0","13153349","wem/bandit_party_2","A3RM13YVEAFIU5","either","2","4235","","","32","","","","","","","","","","","","","","","","","","","","","","","","","","","","","","","","","","","","",""
"","text-replacement","16","80698","0.0-16.0","13153349","wem/bandit_party_2","A3RM13YVEAFIU5","either","2","5328","","","32","","","","","","","","","","","","","","","","","","","","","","","","","","","","","","","","","","","","",""
"","text-replacement","17","84040","0.0-17.0","13153349","wem/bandit_party_2","A3RM13YVEAFIU5","either","2","3336","","","32","","","","","","","","","","","","","","","","","","","","","","","","","","","","","","","","","","","","",""
"","bandit","18","85992","0.0-18.0-0.0","13153349","wem/bandit_party_2","A3RM13YVEAFIU5","either","2","434","","","","","","","0","1","0","","0.8","0.5","0.5","","","0.8","0.2","","","","","","","","","","","","","","","","74","J","0","img/none_selected_demo.jpg","true","0","80_20_practice",""
"","bandit","19","88919","0.0-18.0-1.0","13153349","wem/bandit_party_2","A3RM13YVEAFIU5","either","2","1411","","","","","","","0","0","1","0.2","","0.5","0.5","","","","","","","0.8","0.2","","","","","","","","","","","","75","K","1","","true","0","80_20_practice",""
"","bandit","20","90778","0.0-18.0-2.0","13153349","wem/bandit_party_2","A3RM13YVEAFIU5","either","2","339","","","","","","","0","1","0","","0.8","0.5","0.5","","","0.8","0.2","","","","","","","","","","","","","","","","74","J","0","img/none_selected_demo.jpg","true","0","80_20_practice",""
"","bandit","21","92675","0.0-18.0-3.0","13153349","wem/bandit_party_2","A3RM13YVEAFIU5","either","2","377","","","","","","","1","0","0","0.8","","0.5","0.5","","","","","","","0.8","0.2","","","","","","","","","","","","74","J","0","img/none_selected_demo.jpg","true","0","80_20_practice",""
"","bandit","22","94618","0.0-18.0-4.0","13153349","wem/bandit_party_2","A3RM13YVEAFIU5","either","2","428","","","","","","","1","0","0","0.8","","0.5","0.5","","","","","","","0.8","0.2","","","","","","","","","","","","74","J","0","img/none_selected_demo.jpg","true","0","80_20_practice",""
"","bandit","23","96386","0.0-18.0-5.0","13153349","wem/bandit_party_2","A3RM13YVEAFIU5","either","2","253","","","","","","","0","0","1","0.2","","0.5","0.5","","","","","","","0.8","0.2","","","","","","","","","","","","75","K","1","","true","0","80_20_practice",""
"","bandit","24","97906","0.0-18.0-6.0","13153349","wem/bandit_party_2","A3RM13YVEAFIU5","either","2","3","","","","","","","0","0","1","","0.8","0.5","0.5","","","0.8","0.2","","","","","","","","","","","","","","","","74","J","0","img/none_selected_demo.jpg","true","0","80_20_practice",""
"","bandit","25","99613","0.0-18.0-7.0","13153349","wem/bandit_party_2","A3RM13YVEAFIU5","either","2","191","","","","","","","0","1","0","","0.8","0.5","0.5","","","0.8","0.2","","","","","","","","","","","","","","","","74","J","0","img/none_selected_demo.jpg","true","0","80_20_practice",""
"","bandit","26","101220","0.0-18.0-8.0","13153349","wem/bandit_party_2","A3RM13YVEAFIU5","either","2","90","","","","","","","1","0","0","0.8","","0.5","0.5","","","","","","","0.8","0.2","","","","","","","","","","","","74","J","0","img/none_selected_demo.jpg","true","0","80_20_practice",""
"","bandit","27","102799","0.0-18.0-9.0","13153349","wem/bandit_party_2","A3RM13YVEAFIU5","either","2","58","","","","","","","0","0","1","0.8","","0.5","0.5","","","","","","","0.8","0.2","","","","","","","","","","","","74","J","0","img/none_selected_demo.jpg","true","0","80_20_practice",""
"","bandit","28","104447","0.0-18.0-10.0","13153349","wem/bandit_party_2","A3RM13YVEAFIU5","either","2","132","","","","","","","1","0","0","0.8","","0.5","0.5","","","","","","","0.8","0.2","","","","","","","","","","","","74","J","0","img/none_selected_demo.jpg","true","0","80_20_practice",""
"","bandit","29","106117","0.0-18.0-11.0","13153349","wem/bandit_party_2","A3RM13YVEAFIU5","either","2","153","","","","","","","1","0","0","0.8","","0.5","0.5","","","","","","","0.8","0.2","","","","","","","","","","","","74","J","0","img/none_selected_demo.jpg","true","0","80_20_practice",""
"","bandit","30","107772","0.0-18.0-12.0","13153349","wem/bandit_party_2","A3RM13YVEAFIU5","either","2","139","","","","","","","1","0","0","0.8","","0.5","0.5","","","","","","","0.8","0.2","","","","","","","","","","","","74","J","0","img/none_selected_demo.jpg","true","0","80_20_practice",""
"","bandit","31","109702","0.0-18.0-13.0","13153349","wem/bandit_party_2","A3RM13YVEAFIU5","either","2","413","","","","","","","0","0","1","","0.2","0.5","0.5","","","0.8","0.2","","","","","","","","","","","","","","","","75","K","1","","true","0","80_20_practice",""
"","bandit","32","111225","0.0-18.0-14.0","13153349","wem/bandit_party_2","A3RM13YVEAFIU5","either","2","2","","","","","","","0","0","1","","0.8","0.5","0.5","","","0.8","0.2","","","","","","","","","","","","","","","","74","J","0","img/none_selected_demo.jpg","true","0","80_20_practice",""
"","bandit","33","113684","0.0-18.0-15.0","13153349","wem/bandit_party_2","A3RM13YVEAFIU5","either","2","941","","","","","","","1","0","0","0.8","","0.5","0.5","","","","","","","0.8","0.2","","","","","","","","","","","","74","J","0","img/none_selected_demo.jpg","true","0","80_20_practice",""
"","bandit","34","115243","0.0-18.0-16.0","13153349","wem/bandit_party_2","A3RM13YVEAFIU5","either","2","40","","","","","","","1","0","0","0.8","","0.5","0.5","","","","","","","0.8","0.2","","","","","","","","","","","","74","J","0","img/none_selected_demo.jpg","true","0","80_20_practice",""
"","bandit","35","116847","0.0-18.0-17.0","13153349","wem/bandit_party_2","A3RM13YVEAFIU5","either","2","88","","","","","","","0","1","0","","0.8","0.5","0.5","","","0.8","0.2","","","","","","","","","","","","","","","","74","J","0","img/none_selected_demo.jpg","true","0","80_20_practice",""
"","bandit","36","118369","0.0-18.0-18.0","13153349","wem/bandit_party_2","A3RM13YVEAFIU5","either","2","2","","","","","","","0","1","0","","0.8","0.5","0.5","","","0.8","0.2","","","","","","","","","","","","","","","","74","J","0","img/none_selected_demo.jpg","true","0","80_20_practice",""
"","bandit","37","119930","0.0-18.0-19.0","13153349","wem/bandit_party_2","A3RM13YVEAFIU5","either","2","40","","","","","","","0","1","0","","0.8","0.5","0.5","","","0.8","0.2","","","","","","","","","","","","","","","","74","J","0","img/none_selected_demo.jpg","true","0","80_20_practice",""
"","text-replacement","38","122251","0.0-19.0","13153349","wem/bandit_party_2","A3RM13YVEAFIU5","either","2","2313","","","32","","","","","","","","","","","","","","","","","","","","","","","","","","","","","","","","","","","","",""
"","bandit","39","124269","0.0-20.0-0.0","13153349","wem/bandit_party_2","A3RM13YVEAFIU5","either","2","499","","","","","","","1","0","0","1","0","","","","","0","1","","","1","0","","","","","","","","","","","","74","J","0","img/none_selected_demo.jpg","true","0","",""
"","text-replacement","40","127946","0.0-21.0","13153349","wem/bandit_party_2","A3RM13YVEAFIU5","either","2","3671","","","32","","","","","","","","","","","","","","","","","","","","","","","","","","","","","","","","","","","","",""
"","text-replacement","41","130859","0.0-22.0","13153349","wem/bandit_party_2","A3RM13YVEAFIU5","either","2","2906","","","32","","","","","","","","","","","","","","","","","","","","","","","","","","","","","","","","","","","","",""
"","text-replacement","42","133713","0.0-23.0","13153349","wem/bandit_party_2","A3RM13YVEAFIU5","either","2","2842","","","32","","","","","","","","","","","","","","","","","","","","","","","","","","","","","","","","","","","","",""
"","text-replacement","43","135694","0.0-24.0","13153349","wem/bandit_party_2","A3RM13YVEAFIU5","either","2","1973","","","32","","","","","","","","","","","","","","","","","","","","","","","","","","","","","","","","","","","","",""
"","text-replacement","44","137697","0.0-25.0","13153349","wem/bandit_party_2","A3RM13YVEAFIU5","either","2","1993","","","32","","","","","","","","","","","","","","","","","","","","","","","","","","","","","","","","","","","","",""
"","text-replacement","45","138968","0.0-26.0","13153349","wem/bandit_party_2","A3RM13YVEAFIU5","either","2","1262","","","32","","","","","","","","","","","","","","","","","","","","","","","","","","","","","","","","","","","","",""
"","text-replacement","46","140542","0.0-27.0","13153349","wem/bandit_party_2","A3RM13YVEAFIU5","either","2","1568","","","32","","","","","","","","","","","","","","","","","","","","","","","","","","","","","","","","","","","","",""
"","text-replacement","47","143038","0.0-28.0","13153349","wem/bandit_party_2","A3RM13YVEAFIU5","either","2","2485","","","32","","","","","","","","","","","","","","","","","","","","","","","","","","","","","","","","","","","","",""
"","text-replacement","48","145071","0.0-29.0","13153349","wem/bandit_party_2","A3RM13YVEAFIU5","either","2","2022","","","32","","","","","","","","","","","","","","","","","","","","","","","","","","","","","","","","","","","","",""
"","text-replacement","49","147276","0.0-30.0","13153349","wem/bandit_party_2","A3RM13YVEAFIU5","either","2","2195","","","32","","","","","","","","","","","","","","","","","","","","","","","","","","","","","","","","","","","","",""
"","text-replacement","50","152173","0.0-31.0","13153349","wem/bandit_party_2","A3RM13YVEAFIU5","either","2","4891","","","32","","","","","","","","","","","","","","","","","","","","","","","","","","","","","","","","","","","","",""
"","bandit","51","154246","0.0-32.0-0.0","13153349","wem/bandit_party_2","A3RM13YVEAFIU5","either","2","551","","","","","","","1","0","0","0.8","","0.5","0.5","0.5","0.5","","","","","0.8","0.2","0.6","0.2","","","","","","","","","","72","H","0","img/none_selected.jpg","true","0","full_practice",""
"","bandit","52","155894","0.0-32.0-1.0","13153349","wem/bandit_party_2","A3RM13YVEAFIU5","either","2","126","","","","","","","0","1","0","","0.8","0.5","0.5","0.5","0.5","0.8","0.2","0.6","0.2","","","","","","","","","","","","","","72","H","0","img/none_selected.jpg","true","0","full_practice",""
"","bandit","53","157595","0.0-32.0-2.0","13153349","wem/bandit_party_2","A3RM13YVEAFIU5","either","2","177","","","","","","","0","1","0","","0.8","0.5","0.5","0.5","0.5","0.8","0.2","0.6","0.2","","","","","","","","","","","","","","72","H","0","img/none_selected.jpg","true","0","full_practice",""
"","bandit","54","159294","0.0-32.0-3.0","13153349","wem/bandit_party_2","A3RM13YVEAFIU5","either","2","179","","","","","","","1","0","0","0.8","","0.5","0.5","0.5","0.5","","","","","0.8","0.2","0.6","0.2","","","","","","","","","","72","H","0","img/none_selected.jpg","true","0","full_practice",""
"","bandit","55","160906","0.0-32.0-4.0","13153349","wem/bandit_party_2","A3RM13YVEAFIU5","either","2","96","","","","","","","0","0","1","","0.8","0.5","0.5","0.5","0.5","0.8","0.2","0.6","0.2","","","","","","","","","","","","","","72","H","0","img/none_selected.jpg","true","0","full_practice",""
"","bandit","56","162441","0.0-32.0-5.0","13153349","wem/bandit_party_2","A3RM13YVEAFIU5","either","2","15","","","","","","","0","1","0","","0.2","0.5","0.5","0.5","0.5","0.8","0.2","0.6","0.2","","","","","","","","","","","","","","74","J","1","","true","0","full_practice",""
"","bandit","57","164023","0.0-32.0-6.0","13153349","wem/bandit_party_2","A3RM13YVEAFIU5","either","2","67","","","","","","","0","0","1","0.2","","0.5","0.5","0.5","0.5","","","","","0.8","0.2","0.6","0.2","","","","","","","","","","74","J","1","","true","0","full_practice",""
"","bandit","58","165727","0.0-32.0-7.0","13153349","wem/bandit_party_2","A3RM13YVEAFIU5","either","2","188","","","","","","","0","1","0","","0.6","0.5","0.5","0.5","0.5","0.8","0.2","0.6","0.2","","","","","","","","","","","","","","75","K","2","","true","0","full_practice",""
"","bandit","59","167300","0.0-32.0-8.0","13153349","wem/bandit_party_2","A3RM13YVEAFIU5","either","2","51","","","","","","","0","0","1","0.6","","0.5","0.5","0.5","0.5","","","","","0.8","0.2","0.6","0.2","","","","","","","","","","75","K","2","","true","0","full_practice",""
"","bandit","60","168974","0.0-32.0-9.0","13153349","wem/bandit_party_2","A3RM13YVEAFIU5","either","2","156","","","","","","","0","0","1","0.2","","0.5","0.5","0.5","0.5","","","","","0.8","0.2","0.6","0.2","","","","","","","","","","76","L","3","","true","0","full_practice",""
"","bandit","61","170544","0.0-32.0-10.0","13153349","wem/bandit_party_2","A3RM13YVEAFIU5","either","2","51","","","","","","","0","1","0","","0.8","0.5","0.5","0.5","0.5","0.8","0.2","0.6","0.2","","","","","","","","","","","","","","72","H","0","img/none_selected.jpg","true","0","full_practice",""
"","bandit","62","172180","0.0-32.0-11.0","13153349","wem/bandit_party_2","A3RM13YVEAFIU5","either","2","114","","","","","","","0","0","1","0.8","","0.5","0.5","0.5","0.5","","","","","0.8","0.2","0.6","0.2","","","","","","","","","","72","H","0","img/none_selected.jpg","true","0","full_practice",""
"","bandit","63","173898","0.0-32.0-12.0","13153349","wem/bandit_party_2","A3RM13YVEAFIU5","either","2","197","","","","","","","0","1","0","","0.8","0.5","0.5","0.5","0.5","0.8","0.2","0.6","0.2","","","","","","","","","","","","","","72","H","0","img/none_selected.jpg","true","0","full_practice",""
"","bandit","64","175594","0.0-32.0-13.0","13153349","wem/bandit_party_2","A3RM13YVEAFIU5","either","2","175","","","","","","","0","1","0","","0.8","0.5","0.5","0.5","0.5","0.8","0.2","0.6","0.2","","","","","","","","","","","","","","72","H","0","img/none_selected.jpg","true","0","full_practice",""
"","bandit","65","177266","0.0-32.0-14.0","13153349","wem/bandit_party_2","A3RM13YVEAFIU5","either","2","153","","","","","","","0","1","0","","0.8","0.5","0.5","0.5","0.5","0.8","0.2","0.6","0.2","","","","","","","","","","","","","","72","H","0","img/none_selected.jpg","true","0","full_practice",""
"","bandit","66","178859","0.0-32.0-15.0","13153349","wem/bandit_party_2","A3RM13YVEAFIU5","either","2","74","","","","","","","0","0","1","","0.8","0.5","0.5","0.5","0.5","0.8","0.2","0.6","0.2","","","","","","","","","","","","","","72","H","0","img/none_selected.jpg","true","0","full_practice",""
"","bandit","67","180619","0.0-32.0-16.0","13153349","wem/bandit_party_2","A3RM13YVEAFIU5","either","2","242","","","","","","","0","0","1","","0.8","0.5","0.5","0.5","0.5","0.8","0.2","0.6","0.2","","","","","","","","","","","","","","72","H","0","img/none_selected.jpg","true","0","full_practice",""
"","bandit","68","182164","0.0-32.0-17.0","13153349","wem/bandit_party_2","A3RM13YVEAFIU5","either","2","32","","","","","","","0","0","1","0.2","","0.5","0.5","0.5","0.5","","","","","0.8","0.2","0.6","0.2","","","","","","","","","","74","J","1","","true","0","full_practice",""
"","bandit","69","183819","0.0-32.0-18.0","13153349","wem/bandit_party_2","A3RM13YVEAFIU5","either","2","134","","","","","","","0","0","1","","0.6","0.5","0.5","0.5","0.5","0.8","0.2","0.6","0.2","","","","","","","","","","","","","","75","K","2","","true","0","full_practice",""
"","bandit","70","185649","0.0-32.0-19.0","13153349","wem/bandit_party_2","A3RM13YVEAFIU5","either","2","310","","","","","","","0","0","1","","0.2","0.5","0.5","0.5","0.5","0.8","0.2","0.6","0.2","","","","","","","","","","","","","","76","L","3","","true","0","full_practice",""
"","text","71","187628","0.0-33.0","13153349","wem/bandit_party_2","A3RM13YVEAFIU5","either","2","1961","","","32","","","","","","","","","","","","","","","","","","","","","","","","","","","","","","","","","","","","",""
"","text-replacement","72","197731","0.0-34.0","13153349","wem/bandit_party_2","A3RM13YVEAFIU5","either","2","9092","","","32","","","","","","","","","","","","","","","","","","","","","","","","","","","","","","","","","","","","",""
"","text-replacement","73","199574","0.0-35.0","13153349","wem/bandit_party_2","A3RM13YVEAFIU5","either","2","1830","","","32","","","","","","","","","","","","","","","","","","","","","","","","","","","","","","","","","","","","",""
"","text-replacement","74","201040","0.0-36.0","13153349","wem/bandit_party_2","A3RM13YVEAFIU5","either","2","1455","","","32","","","","","","","","","","","","","","","","","","","","","","","","","","","","","","","","","","","","",""
"","text-replacement","75","202460","0.0-37.0","13153349","wem/bandit_party_2","A3RM13YVEAFIU5","either","2","1408","","","32","","","","","","","","","","","","","","","","","","","","","","","","","","","","","","","","","","","","",""
"","text-replacement","76","203915","0.0-38.0","13153349","wem/bandit_party_2","A3RM13YVEAFIU5","either","2","1448","","","32","","","","","","","","","","","","","","","","","","","","","","","","","","","","","","","","","","","","",""
"","survey-multi-choice-replacement","77","208763","0.0-39.0-0.0","13153349","wem/bandit_party_2","A3RM13YVEAFIU5","either","2","4821","","","","","","","","","","","","","","","","","","","","","","","","Money will be added to the pool for <span style='color:red;'>REPUBLICANS</span>","","","","","","","attn_check","","","","","","","","","0"
"","survey-multi-choice-replacement","78","220428","0.0-40.0-0.0","13153349","wem/bandit_party_2","A3RM13YVEAFIU5","either","2","10625","","","","","","","","","","","","","","","","","","","","","","","","Equal amounts of money will be added to the pool for <span style='color:red;'>REPUBLICANS</span> and subtracted from the pool for <span style='color:blue;'>DEMOCRATS</span>","","","","","","","attn_check","","","","","","","","","2"
"","survey-multi-choice-replacement","79","224689","0.0-41.0-0.0","13153349","wem/bandit_party_2","A3RM13YVEAFIU5","either","2","3228","","","","","","","","","","","","","","","","","","","","","","","","No money will be added to either pool","","","","","","","attn_check","","","","","","","","","3"
"","bandit","80","228836","0.0-42.0-0.0","13153349","wem/bandit_party_2","A3RM13YVEAFIU5","either","2","1612","","","","","","","0","1","0","","0.7961415707","0.2","0.8","0.4","0.6","0.7961415707","0.9925337928","0.4841938304","0.7092854079","","","","","","","","","","","","","","72","H","0","img/none_selected.jpg","","1","main_expt",""
"","bandit","81","230862","0.0-43.0-0.0","13153349","wem/bandit_party_2","A3RM13YVEAFIU5","either","2","500","","","","","","","0","1","0","","0.7739630809","0.2","0.8","0.4","0.6","0.7739630809","0.9909612399","0.5300888233","0.7343230146","","","","","","","","","","","","","","72","H","0","img/none_selected.jpg","","2","main_expt",""
"","bandit","82","233018","0.0-44.0-0.0","13153349","wem/bandit_party_2","A3RM13YVEAFIU5","either","2","638","","","","","","","0","0","1","0.807852523","","0.2","0.8","0.4","0.6","","","","","0.807852523","0.9875934203","0.4747636274","0.7616266478","","","","","","","","","","72","H","0","img/none_selected.jpg","","3","main_expt",""
"","bandit","83","235348","0.0-45.0-0.0","13153349","wem/bandit_party_2","A3RM13YVEAFIU5","either","2","804","","","","","","","1","0","0","0.7922386472","","0.2","0.8","0.4","0.6","","","","","0.7922386472","0.9782241123","0.4841015375","0.7555889459","","","","","","","","","","72","H","0","img/none_selected.jpg","","4","main_expt",""
"","bandit","84","237736","0.0-46.0-0.0","13153349","wem/bandit_party_2","A3RM13YVEAFIU5","either","2","869","","","","","","","1","0","0","0.865094385","","0.2","0.8","0.4","0.6","","","","","0.865094385","0.9756627961","0.5545204825","0.733520678","","","","","","","","","","72","H","0","img/none_selected.jpg","","5","main_expt",""
"","bandit","85","240106","0.0-47.0-0.0","13153349","wem/bandit_party_2","A3RM13YVEAFIU5","either","2","846","","","","","","","1","0","0","0.800956518","","0.2","0.8","0.4","0.6","","","","","0.800956518","0.967089612","0.6032406034","0.6705264102","","","","","","","","","","72","H","0","img/none_selected.jpg","","6","main_expt",""
"","bandit","86","242261","0.0-48.0-0.0","13153349","wem/bandit_party_2","A3RM13YVEAFIU5","either","2","630","","","","","","","0","1","0","","0.826484282","0.2","0.8","0.4","0.6","0.826484282","0.9581374084","0.6629125932","0.6395389268","","","","","","","","","","","","","","72","H","0","img/none_selected.jpg","","7","main_expt",""
"","bandit","87","244471","0.0-49.0-0.0","13153349","wem/bandit_party_2","A3RM13YVEAFIU5","either","2","692","","","","","","","0","1","0","","0.8721258401","0.2","0.8","0.4","0.6","0.8721258401","0.9470057872","0.6179372523","0.6463283336","","","","","","","","","","","","","","72","H","0","img/none_selected.jpg","","8","main_expt",""
"","bandit","88","246646","0.0-50.0-0.0","13153349","wem/bandit_party_2","A3RM13YVEAFIU5","either","2","654","","","","","","","1","0","0","0.9123847657","","0.2","0.8","0.4","0.6","","","","","0.9123847657","0.9776699295","0.7126464358","0.5257156782","","","","","","","","","","72","H","0","img/none_selected.jpg","","9","main_expt",""
"","bandit","89","249010","0.0-51.0-0.0","13153349","wem/bandit_party_2","A3RM13YVEAFIU5","either","2","839","","","","","","","0","1","0","","0.8996742502","0.2","0.8","0.4","0.6","0.8996742502","0.9728878591","0.7356985298","0.4763364632","","","","","","","","","","","","","","72","H","0","img/none_selected.jpg","","10","main_expt",""
"","bandit","90","251340","0.0-52.0-0.0","13153349","wem/bandit_party_2","A3RM13YVEAFIU5","either","2","805","","","","","","","0","1","0","","0.9131723876","0.2","0.8","0.4","0.6","0.9131723876","0.9593139104","0.768711937","0.4284616273","","","","","","","","","","","","","","72","H","0","img/none_selected.jpg","","11","main_expt",""
"","bandit","91","253537","0.0-53.0-0.0","13153349","wem/bandit_party_2","A3RM13YVEAFIU5","either","2","678","","","","","","","0","1","0","","0.8766857583","0.2","0.8","0.4","0.6","0.8766857583","0.9498917819","0.775032537","0.3846657661","","","","","","","","","","","","","","72","H","0","img/none_selected.jpg","","12","main_expt",""
"","bandit","92","255518","0.0-54.0-0.0","13153349","wem/bandit_party_2","A3RM13YVEAFIU5","either","2","457","","","","","","","1","0","0","0.8395211377","","0.2","0.8","0.4","0.6","","","","","0.8395211377","0.9541602679","0.8005481332","0.4534267517","","","","","","","","","","72","H","0","img/none_selected.jpg","","13","main_expt",""
"","bandit","93","257622","0.0-55.0-0.0","13153349","wem/bandit_party_2","A3RM13YVEAFIU5","either","2","582","","","","","","","0","1","0","","0.8716273459","0.2","0.8","0.4","0.6","0.8716273459","0.9457654821","0.8437703121","0.5781166702","","","","","","","","","","","","","","72","H","0","img/none_selected.jpg","","14","main_expt",""
"","bandit","94","259995","0.0-56.0-0.0","13153349","wem/bandit_party_2","A3RM13YVEAFIU5","either","2","856","","","","","","","0","1","0","","0.8884181174","0.2","0.8","0.4","0.6","0.8884181174","0.961431504","0.7878475566","0.6683268695","","","","","","","","","","","","","","72","H","0","img/none_selected.jpg","","15","main_expt",""
"","bandit","95","262350","0.0-57.0-0.0","13153349","wem/bandit_party_2","A3RM13YVEAFIU5","either","2","827","","","","","","","0","0","1","0.9144873871","","0.2","0.8","0.4","0.6","","","","","0.9144873871","0.9614480804","0.7873795395","0.6948649322","","","","","","","","","","72","H","0","img/none_selected.jpg","","16","main_expt",""
"","bandit","96","264542","0.0-58.0-0.0","13153349","wem/bandit_party_2","A3RM13YVEAFIU5","either","2","667","","","","","","","0","1","0","","0.915766025","0.2","0.8","0.4","0.6","0.915766025","0.981184269","0.8084550093","0.7674725463","","","","","","","","","","","","","","72","H","0","img/none_selected.jpg","","17","main_expt",""
"","bandit","97","267045","0.0-59.0-0.0","13153349","wem/bandit_party_2","A3RM13YVEAFIU5","either","2","973","","","","","","","1","0","0","0.9357816117","","0.2","0.8","0.4","0.6","","","","","0.9357816117","0.9861919244","0.8436933745","0.7706733977","","","","","","","","","","72","H","0","img/none_selected.jpg","","18","main_expt",""
"","bandit","98","269420","0.0-60.0-0.0","13153349","wem/bandit_party_2","A3RM13YVEAFIU5","either","2","850","","","","","","","0","1","0","","0.9482019282","0.2","0.8","0.4","0.6","0.9482019282","0.986789567","0.8059530903","0.7396491891","","","","","","","","","","","","","","72","H","0","img/none_selected.jpg","","19","main_expt",""
"","bandit","99","271886","0.0-61.0-0.0","13153349","wem/bandit_party_2","A3RM13YVEAFIU5","either","2","948","","","","","","","0","1","0","","0.9433726768","0.2","0.8","0.4","0.6","0.9433726768","0.986183881","0.7839513496","0.6712916173","","","","","","","","","","","","","","72","H","0","img/none_selected.jpg","","20","main_expt",""
"","bandit","100","274231","0.0-62.0-0.0","13153349","wem/bandit_party_2","A3RM13YVEAFIU5","either","2","827","","","","","","","0","1","0","","0.9488284628","0.2","0.8","0.4","0.6","0.9488284628","0.9887099493","0.7841815244","0.6728887443","","","","","","","","","","","","","","72","H","0","img/none_selected.jpg","","21","main_expt",""
"","bandit","101","276608","0.0-63.0-0.0","13153349","wem/bandit_party_2","A3RM13YVEAFIU5","either","2","861","","","","","","","0","1","0","","0.9500515088","0.2","0.8","0.4","0.6","0.9500515088","0.992558567","0.8256278583","0.7838502077","","","","","","","","","","","","","","72","H","0","img/none_selected.jpg","","22","main_expt",""
"","bandit","102","278849","0.0-64.0-0.0","13153349","wem/bandit_party_2","A3RM13YVEAFIU5","either","2","719","","","","","","","1","0","0","0.9645760881","","0.2","0.8","0.4","0.6","","","","","0.9645760881","0.9906074595","0.7043778873","0.8711917965","","","","","","","","","","72","H","0","img/none_selected.jpg","","23","main_expt",""
"","bandit","103","281089","0.0-65.0-0.0","13153349","wem/bandit_party_2","A3RM13YVEAFIU5","either","2","719","","","","","","","0","1","0","","0.946785539","0.2","0.8","0.4","0.6","0.946785539","0.9828703082","0.7662705475","0.861124964","","","","","","","","","","","","","","72","H","0","img/none_selected.jpg","","24","main_expt",""
"","bandit","104","283095","0.0-66.0-0.0","13153349","wem/bandit_party_2","A3RM13YVEAFIU5","either","2","487","","","","","","","0","1","0","","0.9229473608","0.2","0.8","0.4","0.6","0.9229473608","0.984618899","0.6915147264","0.8551403996","","","","","","","","","","","","","","72","H","0","img/none_selected.jpg","","25","main_expt",""
"","bandit","105","285124","0.0-67.0-0.0","13153349","wem/bandit_party_2","A3RM13YVEAFIU5","either","2","502","","","","","","","1","0","0","0.8729820127","","0.2","0.8","0.4","0.6","","","","","0.8729820127","0.9780938917","0.6844606422","0.8959771014","","","","","","","","","","72","H","0","img/none_selected.jpg","","26","main_expt",""
"","bandit","106","287303","0.0-68.0-0.0","13153349","wem/bandit_party_2","A3RM13YVEAFIU5","either","2","656","","","","","","","0","1","0","","0.859067388","0.2","0.8","0.4","0.6","0.859067388","0.9634866904","0.7953701942","0.8786292531","","","","","","","","","","","","","","72","H","0","img/none_selected.jpg","","27","main_expt",""
"","bandit","107","289758","0.0-69.0-0.0","13153349","wem/bandit_party_2","A3RM13YVEAFIU5","either","2","933","","","","","","","0","0","1","","0.836267867","0.2","0.8","0.4","0.6","0.836267867","0.946494378","0.622657036","0.8920593834","","","","","","","","","","","","","","72","H","0","img/none_selected.jpg","","28","main_expt",""
"","bandit","108","291773","0.0-70.0-0.0","13153349","wem/bandit_party_2","A3RM13YVEAFIU5","either","2","492","","","","","","","0","1","0","","0.7158546556","0.2","0.8","0.4","0.6","0.7158546556","0.9338647731","0.5757463716","0.8234517222","","","","","","","","","","","","","","72","H","0","img/none_selected.jpg","","29","main_expt",""
"","bandit","109","294142","0.0-71.0-0.0","13153349","wem/bandit_party_2","A3RM13YVEAFIU5","either","2","850","","","","","","","1","0","0","0.7262950886","","0.2","0.8","0.4","0.6","","","","","0.7262950886","0.9354801528","0.6048158844","0.7963444676","","","","","","","","","","72","H","0","img/none_selected.jpg","","30","main_expt",""
"","bandit","110","296344","0.0-72.0-0.0","13153349","wem/bandit_party_2","A3RM13YVEAFIU5","either","2","681","","","","","","","0","1","0","","0.7049485024","0.2","0.8","0.4","0.6","0.7049485024","0.9323861487","0.4831208743","0.6847131082","","","","","","","","","","","","","","72","H","0","img/none_selected.jpg","","31","main_expt",""
"","bandit","111","298479","0.0-73.0-0.0","13153349","wem/bandit_party_2","A3RM13YVEAFIU5","either","2","612","","","","","","","0","1","0","","0.6294605358","0.2","0.8","0.4","0.6","0.6294605358","0.9159531952","0.4413454117","0.7745616343","","","","","","","","","","","","","","72","H","0","img/none_selected.jpg","","32","main_expt",""
"","bandit","112","300477","0.0-74.0-0.0","13153349","wem/bandit_party_2","A3RM13YVEAFIU5","either","2","480","","","","","","","0","1","0","","0.7097184707","0.2","0.8","0.4","0.6","0.7097184707","0.9501333659","0.589686364","0.8111568365","","","","","","","","","","","","","","72","H","0","img/none_selected.jpg","","33","main_expt",""
"","bandit","113","302515","0.0-75.0-0.0","13153349","wem/bandit_party_2","A3RM13YVEAFIU5","either","2","511","","","","","","","0","1","0","","0.6324728327","0.2","0.8","0.4","0.6","0.6324728327","0.9485118263","0.5789977489","0.7291364049","","","","","","","","","","","","","","72","H","0","img/none_selected.jpg","","34","main_expt",""
"","bandit","114","304589","0.0-76.0-0.0","13153349","wem/bandit_party_2","A3RM13YVEAFIU5","either","2","552","","","","","","","0","1","0","","0.6809104991","0.2","0.8","0.4","0.6","0.6809104991","0.959491173","0.5605822786","0.7920219322","","","","","","","","","","","","","","72","H","0","img/none_selected.jpg","","35","main_expt",""
"","bandit","115","306941","0.0-77.0-0.0","13153349","wem/bandit_party_2","A3RM13YVEAFIU5","either","2","830","","","","","","","0","0","1","","0.5745256001","0.2","0.8","0.4","0.6","0.5745256001","0.9523687656","0.3330948712","0.7889809596","","","","","","","","","","","","","","72","H","0","img/none_selected.jpg","","36","main_expt",""
"","bandit","116","308941","0.0-78.0-0.0","13153349","wem/bandit_party_2","A3RM13YVEAFIU5","either","2","484","","","","","","","0","0","1","","0.6249275122","0.2","0.8","0.4","0.6","0.6249275122","0.9504344127","0.2430176499","0.8060385269","","","","","","","","","","","","","","72","H","0","img/none_selected.jpg","","37","main_expt",""
"","bandit","117","311012","0.0-79.0-0.0","13153349","wem/bandit_party_2","A3RM13YVEAFIU5","either","2","551","","","","","","","0","1","0","","0.5582777804","0.2","0.8","0.4","0.6","0.5582777804","0.9321408283","0.3106083343","0.7188782676","","","","","","","","","","","","","","72","H","0","img/none_selected.jpg","","38","main_expt",""
"","bandit","118","313621","0.0-80.0-0.0","13153349","wem/bandit_party_2","A3RM13YVEAFIU5","either","2","1089","","","","","","","1","0","0","0.6619895395","","0.2","0.8","0.4","0.6","","","","","0.6619895395","0.9135525369","0.3239447463","0.7387945131","","","","","","","","","","72","H","0","img/none_selected.jpg","","39","main_expt",""
"","bandit","119","315976","0.0-81.0-0.0","13153349","wem/bandit_party_2","A3RM13YVEAFIU5","either","2","831","","","","","","","0","0","1","","0.6522152691","0.2","0.8","0.4","0.6","0.6522152691","0.8840916364","0.2946631509","0.7478035428","","","","","","","","","","","","","","72","H","0","img/none_selected.jpg","","40","main_expt",""
"","bandit","120","318217","0.0-82.0-0.0","13153349","wem/bandit_party_2","A3RM13YVEAFIU5","either","2","717","","","","","","","0","0","1","","0.6714070371","0.2","0.8","0.4","0.6","0.6714070371","0.8747037504","0.193597671","0.7802386085","","","","","","","","","","","","","","72","H","0","img/none_selected.jpg","","41","main_expt",""
"","bandit","121","320195","0.0-83.0-0.0","13153349","wem/bandit_party_2","A3RM13YVEAFIU5","either","2","457","","","","","","","0","0","1","0.826315498","","0.2","0.8","0.4","0.6","","","","","0.6390104416","0.826315498","0.1834529884","0.7994277013","","","","","","","","","","74","J","1","","","42","main_expt",""
"","bandit","122","322341","0.0-84.0-0.0","13153349","wem/bandit_party_2","A3RM13YVEAFIU5","either","2","629","","","","","","","0","0","1","0.1558663495","","0.2","0.8","0.4","0.6","","","","","0.6318841448","0.7681371561","0.1558663495","0.8718069658","","","","","","","","","","75","K","2","","","43","main_expt",""
"","bandit","123","324183","0.0-85.0-0.0","13153349","wem/bandit_party_2","A3RM13YVEAFIU5","either","2","317","","","","","","","1","0","0","0.7725207311","","0.2","0.8","0.4","0.6","","","","","0.5708139437","0.7584360225","0.1573065196","0.7725207311","","","","","","","","","","76","L","3","","","44","main_expt",""
"","bandit","124","326122","0.0-86.0-0.0","13153349","wem/bandit_party_2","A3RM13YVEAFIU5","either","2","421","","","","","","","1","0","0","0.8399140445","","0.2","0.8","0.4","0.6","","","","","0.5703812278","0.816959585","0.1743203636","0.8399140445","","","","","","","","","","76","L","3","","","45","main_expt",""
"","bandit","125","328057","0.0-87.0-0.0","13153349","wem/bandit_party_2","A3RM13YVEAFIU5","either","2","410","","","","","","","1","0","0","0.7830678696","","0.2","0.8","0.4","0.6","","","","","0.4520700595","0.7571269921","0.1234040722","0.7830678696","","","","","","","","","","76","L","3","","","46","main_expt",""
"","bandit","126","330060","0.0-88.0-0.0","13153349","wem/bandit_party_2","A3RM13YVEAFIU5","either","2","473","","","","","","","0","1","0","","0.8255209912","0.2","0.8","0.4","0.6","0.4953600952","0.7086567283","0.1592846429","0.8255209912","","","","","","","","","","","","","","76","L","3","","","47","main_expt",""
"","bandit","127","332135","0.0-89.0-0.0","13153349","wem/bandit_party_2","A3RM13YVEAFIU5","either","2","550","","","","","","","0","0","1","0.7728754614","","0.2","0.8","0.4","0.6","","","","","0.4912921637","0.6428227569","0.1880090658","0.7728754614","","","","","","","","","","76","L","3","","","48","main_expt",""
"","bandit","128","333928","0.0-90.0-0.0","13153349","wem/bandit_party_2","A3RM13YVEAFIU5","either","2","264","","","","","","","0","0","1","","0.4694413912","0.2","0.8","0.4","0.6","0.4694413912","0.7004196772","0.3190576765","0.8607162984","","","","","","","","","","","","","","72","H","0","img/none_selected.jpg","","49","main_expt",""
"","bandit","129","335775","0.0-91.0-0.0","13153349","wem/bandit_party_2","A3RM13YVEAFIU5","either","2","320","","","","","","","1","0","0","0.8526113732","","0.2","0.8","0.4","0.6","","","","","0.5835687148","0.6418514465","0.277770718","0.8526113732","","","","","","","","","","76","L","3","","","50","main_expt",""
"","bandit","130","337982","0.0-92.0-0.0","13153349","wem/bandit_party_2","A3RM13YVEAFIU5","either","2","682","","","","","","","0","1","0","","0.8630835666","0.2","0.8","0.4","0.6","0.581499138","0.6322169777","0.3304163056","0.8630835666","","","","","","","","","","","","","","76","L","3","","","51","main_expt",""
"","bandit","131","340135","0.0-93.0-0.0","13153349","wem/bandit_party_2","A3RM13YVEAFIU5","either","2","632","","","","","","","0","0","1","0.8689990829","","0.2","0.8","0.4","0.6","","","","","0.6521379128","0.6160259873","0.3074301744","0.8689990829","","","","","","","","","","76","L","3","","","52","main_expt",""
"","bandit","132","342375","0.0-94.0-0.0","13153349","wem/bandit_party_2","A3RM13YVEAFIU5","either","2","715","","","","","","","0","1","0","","0.8829627288","0.2","0.8","0.4","0.6","0.5743957808","0.6635838846","0.3292402402","0.8829627288","","","","","","","","","","","","","","76","L","3","","","53","main_expt",""
"","bandit","133","344734","0.0-95.0-0.0","13153349","wem/bandit_party_2","A3RM13YVEAFIU5","either","2","832","","","","","","","1","0","0","0.8577096669","","0.2","0.8","0.4","0.6","","","","","0.4765250731","0.7334380463","0.3701383524","0.8577096669","","","","","","","","","","76","L","3","","","54","main_expt",""
"","bandit","134","346998","0.0-96.0-0.0","13153349","wem/bandit_party_2","A3RM13YVEAFIU5","either","2","741","","","","","","","0","1","0","","0.7951355038","0.2","0.8","0.4","0.6","0.472038817","0.6625049704","0.4023440482","0.7951355038","","","","","","","","","","","","","","76","L","3","","","55","main_expt",""
"","bandit","135","349457","0.0-97.0-0.0","13153349","wem/bandit_party_2","A3RM13YVEAFIU5","either","2","929","","","","","","","0","1","0","","0.7832403428","0.2","0.8","0.4","0.6","0.6060805283","0.6244126183","0.3320470731","0.7832403428","","","","","","","","","","","","","","76","L","3","","","56","main_expt",""
"","bandit","136","351598","0.0-98.0-0.0","13153349","wem/bandit_party_2","A3RM13YVEAFIU5","either","2","619","","","","","","","0","1","0","","0.7165346004","0.2","0.8","0.4","0.6","0.5733746242","0.693445159","0.3398704556","0.7165346004","","","","","","","","","","","","","","76","L","3","","","57","main_expt",""
"","bandit","137","354001","0.0-99.0-0.0","13153349","wem/bandit_party_2","A3RM13YVEAFIU5","either","2","872","","","","","","","1","0","0","0.7840704931","","0.2","0.8","0.4","0.6","","","","","0.5268086549","0.6603141298","0.3171476707","0.7840704931","","","","","","","","","","76","L","3","","","58","main_expt",""
"","bandit","138","356029","0.0-100.0-0.0","13153349","wem/bandit_party_2","A3RM13YVEAFIU5","either","2","507","","","","","","","0","1","0","","0.7166558068","0.2","0.8","0.4","0.6","0.5298916697","0.6435133917","0.1868584885","0.7166558068","","","","","","","","","","","","","","76","L","3","","","59","main_expt",""
"","bandit","139","358018","0.0-101.0-0.0","13153349","wem/bandit_party_2","A3RM13YVEAFIU5","either","2","464","","","","","","","1","0","0","0.6505055492","","0.2","0.8","0.4","0.6","","","","","0.5547432704","0.6720075741","0.2163153633","0.6505055492","","","","","","","","","","76","L","3","","","60","main_expt",""
"","bandit","140","359935","0.0-102.0-0.0","13153349","wem/bandit_party_2","A3RM13YVEAFIU5","either","2","391","","","","","","","0","0","1","","0.6465946667","0.2","0.8","0.4","0.6","0.5407031957","0.6703611074","0.2086512551","0.6465946667","","","","","","","","","","","","","","76","L","3","","","61","main_expt",""
"","bandit","141","361916","0.0-103.0-0.0","13153349","wem/bandit_party_2","A3RM13YVEAFIU5","either","2","452","","","","","","","0","0","1","0.6993449034","","0.2","0.8","0.4","0.6","","","","","0.6993449034","0.64477312","0.2250062338","0.709990362","","","","","","","","","","72","H","0","img/none_selected.jpg","","62","main_expt",""
"","bandit","142","363754","0.0-104.0-0.0","13153349","wem/bandit_party_2","A3RM13YVEAFIU5","either","2","311","","","","","","","1","0","0","0.7542168012","","0.2","0.8","0.4","0.6","","","","","0.6342967703","0.509049177","0.2739380208","0.7542168012","","","","","","","","","","76","L","3","","","63","main_expt",""
"","bandit","143","366091","0.0-105.0-0.0","13153349","wem/bandit_party_2","A3RM13YVEAFIU5","either","2","809","","","","","","","0","1","0","","0.7660604158","0.2","0.8","0.4","0.6","0.5961490325","0.5535424332","0.3449536465","0.7660604158","","","","","","","","","","","","","","76","L","3","","","64","main_expt",""
"","bandit","144","368291","0.0-106.0-0.0","13153349","wem/bandit_party_2","A3RM13YVEAFIU5","either","2","678","","","","","","","1","0","0","0.7572602099","","0.2","0.8","0.4","0.6","","","","","0.5771190674","0.6608621899","0.34640195","0.7572602099","","","","","","","","","","76","L","3","","","65","main_expt",""
"","bandit","145","370448","0.0-107.0-0.0","13153349","wem/bandit_party_2","A3RM13YVEAFIU5","either","2","635","","","","","","","1","0","0","0.686926195","","0.2","0.8","0.4","0.6","","","","","0.4765921407","0.6535341977","0.5266288285","0.686926195","","","","","","","","","","76","L","3","","","66","main_expt",""
"","bandit","146","372890","0.0-108.0-0.0","13153349","wem/bandit_party_2","A3RM13YVEAFIU5","either","2","921","","","","","","","0","0","1","","0.7334195653","0.2","0.8","0.4","0.6","0.5714361875","0.6592628399","0.5588671697","0.7334195653","","","","","","","","","","","","","","76","L","3","","","67","main_expt",""
"","bandit","147","375236","0.0-109.0-0.0","13153349","wem/bandit_party_2","A3RM13YVEAFIU5","either","2","825","","","","","","","0","1","0","","0.6231829193","0.2","0.8","0.4","0.6","0.6231829193","0.6735013879","0.6097536784","0.6114245881","","","","","","","","","","","","","","72","H","0","img/none_selected.jpg","","68","main_expt",""
"","bandit","148","377386","0.0-110.0-0.0","13153349","wem/bandit_party_2","A3RM13YVEAFIU5","either","2","628","","","","","","","0","1","0","","0.5130256365","0.2","0.8","0.4","0.6","0.5130256365","0.7209687993","0.533457584","0.6460921668","","","","","","","","","","","","","","72","H","0","img/none_selected.jpg","","69","main_expt",""
"","bandit","149","379433","0.0-111.0-0.0","13153349","wem/bandit_party_2","A3RM13YVEAFIU5","either","2","525","","","","","","","1","0","0","0.5167166","","0.2","0.8","0.4","0.6","","","","","0.5167166","0.690528825","0.4124750721","0.6700702736","","","","","","","","","","72","H","0","img/none_selected.jpg","","70","main_expt",""
"","bandit","150","381383","0.0-112.0-0.0","13153349","wem/bandit_party_2","A3RM13YVEAFIU5","either","2","425","","","","","","","1","0","0","0.6448170737","","0.2","0.8","0.4","0.6","","","","","0.6448170737","0.6453310316","0.4486526525","0.6388012411","","","","","","","","","","72","H","0","img/none_selected.jpg","","71","main_expt",""
"","bandit","151","383261","0.0-113.0-0.0","13153349","wem/bandit_party_2","A3RM13YVEAFIU5","either","2","354","","","","","","","0","0","1","","0.5640434706","0.2","0.8","0.4","0.6","0.5640434706","0.8140348339","0.4313602212","0.6046900378","","","","","","","","","","","","","","72","H","0","img/none_selected.jpg","","72","main_expt",""
"","bandit","152","385183","0.0-114.0-0.0","13153349","wem/bandit_party_2","A3RM13YVEAFIU5","either","2","396","","","","","","","0","0","1","0.6296110197","","0.2","0.8","0.4","0.6","","","","","0.6296110197","0.820931829","0.3639072561","0.6062428704","","","","","","","","","","72","H","0","img/none_selected.jpg","","73","main_expt",""
"","bandit","153","387094","0.0-115.0-0.0","13153349","wem/bandit_party_2","A3RM13YVEAFIU5","either","2","387","","","","","","","0","1","0","","0.8096233945","0.2","0.8","0.4","0.6","0.6730210969","0.8096233945","0.2882181569","0.6237194739","","","","","","","","","","","","","","74","J","1","","","74","main_expt",""
"","bandit","154","389415","0.0-116.0-0.0","13153349","wem/bandit_party_2","A3RM13YVEAFIU5","either","2","793","","","","","","","1","0","0","0.7615001707","","0.2","0.8","0.4","0.6","","","","","0.5720403827","0.7615001707","0.3561187133","0.5971007372","","","","","","","","","","74","J","1","","","75","main_expt",""
"","bandit","155","391354","0.0-117.0-0.0","13153349","wem/bandit_party_2","A3RM13YVEAFIU5","either","2","420","","","","","","","1","0","0","0.8147365981","","0.2","0.8","0.4","0.6","","","","","0.6303512149","0.8147365981","0.4480894403","0.5810032438","","","","","","","","","","74","J","1","","","76","main_expt",""
"","bandit","156","393251","0.0-118.0-0.0","13153349","wem/bandit_party_2","A3RM13YVEAFIU5","either","2","372","","","","","","","1","0","0","0.8926338818","","0.2","0.8","0.4","0.6","","","","","0.5531797874","0.8926338818","0.3220850356","0.5792233978","","","","","","","","","","74","J","1","","","77","main_expt",""
"","bandit","157","395263","0.0-119.0-0.0","13153349","wem/bandit_party_2","A3RM13YVEAFIU5","either","2","484","","","","","","","1","0","0","0.8669072201","","0.2","0.8","0.4","0.6","","","","","0.5449672882","0.8669072201","0.3281133775","0.692511921","","","","","","","","","","74","J","1","","","78","main_expt",""
"","bandit","158","397420","0.0-120.0-0.0","13153349","wem/bandit_party_2","A3RM13YVEAFIU5","either","2","632","","","","","","","0","1","0","","0.9114006046","0.2","0.8","0.4","0.6","0.4484013318","0.9114006046","0.3814329202","0.7019625083","","","","","","","","","","","","","","74","J","1","","","79","main_expt",""
"","bandit","159","399714","0.0-121.0-0.0","13153349","wem/bandit_party_2","A3RM13YVEAFIU5","either","2","762","","","","","","","1","0","0","0.9268398106","","0.2","0.8","0.4","0.6","","","","","0.5041425745","0.9268398106","0.3512572076","0.6785675641","","","","","","","","","","74","J","1","","","80","main_expt",""
"","bandit","160","401718","0.0-122.0-0.0","13153349","wem/bandit_party_2","A3RM13YVEAFIU5","either","2","477","","","","","","","1","0","0","0.9582858862","","0.2","0.8","0.4","0.6","","","","","0.3462078978","0.9582858862","0.3624285329","0.7101061672","","","","","","","","","","74","J","1","","","81","main_expt",""
"","bandit","161","403697","0.0-123.0-0.0","13153349","wem/bandit_party_2","A3RM13YVEAFIU5","either","2","451","","","","","","","1","0","0","0.9590071975","","0.2","0.8","0.4","0.6","","","","","0.3226795418","0.9590071975","0.3111883408","0.7217376576","","","","","","","","","","74","J","1","","","82","main_expt",""
"","bandit","162","405669","0.0-124.0-0.0","13153349","wem/bandit_party_2","A3RM13YVEAFIU5","either","2","442","","","","","","","1","0","0","0.9379973093","","0.2","0.8","0.4","0.6","","","","","0.3023868023","0.9379973093","0.243162563","0.6437777395","","","","","","","","","","74","J","1","","","83","main_expt",""
"","bandit","163","407850","0.0-125.0-0.0","13153349","wem/bandit_party_2","A3RM13YVEAFIU5","either","2","653","","","","","","","0","0","1","","0.9411979228","0.2","0.8","0.4","0.6","0.4040419094","0.9411979228","0.347146949","0.6533183273","","","","","","","","","","","","","","74","J","1","","","84","main_expt",""
"","bandit","164","409691","0.0-126.0-0.0","13153349","wem/bandit_party_2","A3RM13YVEAFIU5","either","2","318","","","","","","","0","0","1","","0.4416309426","0.2","0.8","0.4","0.6","0.4716136817","0.9441700551","0.4416309426","0.7469548387","","","","","","","","","","","","","","75","K","2","","","85","main_expt",""
"","bandit","165","411360","0.0-127.0-0.0","13153349","wem/bandit_party_2","A3RM13YVEAFIU5","either","2","141","","","","","","","1","0","0","0.9323605113","","0.2","0.8","0.4","0.6","","","","","0.4455883603","0.9323605113","0.4523797492","0.7366570046","","","","","","","","","","74","J","1","","","86","main_expt",""
"","bandit","166","413346","0.0-128.0-0.0","13153349","wem/bandit_party_2","A3RM13YVEAFIU5","either","2","455","","","","","","","0","1","0","","0.8871332711","0.2","0.8","0.4","0.6","0.5952575165","0.8871332711","0.4621103264","0.7142428019","","","","","","","","","","","","","","74","J","1","","","87","main_expt",""
"","bandit","167","415214","0.0-129.0-0.0","13153349","wem/bandit_party_2","A3RM13YVEAFIU5","either","2","344","","","","","","","0","0","1","0.8520973281","","0.2","0.8","0.4","0.6","","","","","0.5333825583","0.8520973281","0.3800084876","0.7057172343","","","","","","","","","","74","J","1","","","88","main_expt",""
"","bandit","168","417085","0.0-130.0-0.0","13153349","wem/bandit_party_2","A3RM13YVEAFIU5","either","2","343","","","","","","","1","0","0","0.7882210871","","0.2","0.8","0.4","0.6","","","","","0.4583166828","0.7882210871","0.2354372355","0.7289934888","","","","","","","","","","74","J","1","","","89","main_expt",""
"","bandit","169","419115","0.0-131.0-0.0","13153349","wem/bandit_party_2","A3RM13YVEAFIU5","either","2","499","","","","","","","1","0","0","0.720110267","","0.2","0.8","0.4","0.6","","","","","0.4782349553","0.720110267","0.2978482647","0.7475354559","","","","","","","","","","74","J","1","","","90","main_expt",""
"","bandit","170","420909","0.0-132.0-0.0","13153349","wem/bandit_party_2","A3RM13YVEAFIU5","either","2","269","","","","","","","0","0","1","0.7390342074","","0.2","0.8","0.4","0.6","","","","","0.464138054","0.7390342074","0.3723871884","0.6316706059","","","","","","","","","","74","J","1","","","91","main_expt",""
"","bandit","171","422755","0.0-133.0-0.0","13153349","wem/bandit_party_2","A3RM13YVEAFIU5","either","2","319","","","","","","","1","0","0","0.8135224625","","0.2","0.8","0.4","0.6","","","","","0.5084128334","0.8135224625","0.5400298203","0.6957908828","","","","","","","","","","74","J","1","","","92","main_expt",""
"","bandit","172","424667","0.0-134.0-0.0","13153349","wem/bandit_party_2","A3RM13YVEAFIU5","either","2","382","","","","","","","1","0","0","0.7814404678","","0.2","0.8","0.4","0.6","","","","","0.5211356389","0.7814404678","0.5134744583","0.6812665662","","","","","","","","","","74","J","1","","","93","main_expt",""
"","bandit","173","426790","0.0-135.0-0.0","13153349","wem/bandit_party_2","A3RM13YVEAFIU5","either","2","596","","","","","","","1","0","0","0.7672416568","","0.2","0.8","0.4","0.6","","","","","0.4554037602","0.7672416568","0.4101580275","0.6412933588","","","","","","","","","","74","J","1","","","94","main_expt",""
"","bandit","174","428930","0.0-136.0-0.0","13153349","wem/bandit_party_2","A3RM13YVEAFIU5","either","2","615","","","","","","","1","0","0","0.7573973965","","0.2","0.8","0.4","0.6","","","","","0.4195046205","0.7573973965","0.2995167601","0.5696630174","","","","","","","","","","74","J","1","","","95","main_expt",""
"","bandit","175","431034","0.0-137.0-0.0","13153349","wem/bandit_party_2","A3RM13YVEAFIU5","either","2","579","","","","","","","1","0","0","0.8177369732","","0.2","0.8","0.4","0.6","","","","","0.3638478563","0.8177369732","0.2934894425","0.6076398096","","","","","","","","","","74","J","1","","","96","main_expt",""
"","bandit","176","433047","0.0-138.0-0.0","13153349","wem/bandit_party_2","A3RM13YVEAFIU5","either","2","488","","","","","","","1","0","0","0.8124666872","","0.2","0.8","0.4","0.6","","","","","0.2839735208","0.8124666872","0.2802715202","0.5551612935","","","","","","","","","","74","J","1","","","97","main_expt",""
"","bandit","177","434899","0.0-139.0-0.0","13153349","wem/bandit_party_2","A3RM13YVEAFIU5","either","2","325","","","","","","","1","0","0","0.881496875","","0.2","0.8","0.4","0.6","","","","","0.2109275999","0.881496875","0.2703087955","0.6354974245","","","","","","","","","","74","J","1","","","98","main_expt",""
"","bandit","178","436752","0.0-140.0-0.0","13153349","wem/bandit_party_2","A3RM13YVEAFIU5","either","2","331","","","","","","","1","0","0","0.8785981907","","0.2","0.8","0.4","0.6","","","","","0.1531506719","0.8785981907","0.3027543159","0.5945745664","","","","","","","","","","74","J","1","","","99","main_expt",""
"","bandit","179","438619","0.0-141.0-0.0","13153349","wem/bandit_party_2","A3RM13YVEAFIU5","either","2","336","","","","","","","1","0","0","0.8494581726","","0.2","0.8","0.4","0.6","","","","","0.1262108991","0.8494581726","0.3645318829","0.5679097985","","","","","","","","","","74","J","1","","","100","main_expt",""
"","bandit","180","440525","0.0-142.0-0.0","13153349","wem/bandit_party_2","A3RM13YVEAFIU5","either","2","380","","","","","","","0","1","0","","0.7754784616","0.2","0.8","0.4","0.6","0.1340220502","0.7754784616","0.4315832637","0.6430580454","","","","","","","","","","","","","","74","J","1","","","101","main_expt",""
"","bandit","181","442397","0.0-143.0-0.0","13153349","wem/bandit_party_2","A3RM13YVEAFIU5","either","2","348","","","","","","","1","0","0","0.7626736499","","0.2","0.8","0.4","0.6","","","","","0.2167126086","0.7626736499","0.3608531129","0.6340200926","","","","","","","","","","74","J","1","","","102","main_expt",""
"","bandit","182","444313","0.0-144.0-0.0","13153349","wem/bandit_party_2","A3RM13YVEAFIU5","either","2","389","","","","","","","1","0","0","0.7329996306","","0.2","0.8","0.4","0.6","","","","","0.2796352144","0.7329996306","0.3688981903","0.6377668076","","","","","","","","","","74","J","1","","","103","main_expt",""
"","bandit","183","447039","0.0-145.0-0.0","13153349","wem/bandit_party_2","A3RM13YVEAFIU5","either","2","1193","","","","","","","0","1","0","","0.7467689404","0.2","0.8","0.4","0.6","0.3556406549","0.7467689404","0.3758155051","0.6578341575","","","","","","","","","","","","","","74","J","1","","","104","main_expt",""
"","bandit","184","448991","0.0-146.0-0.0","13153349","wem/bandit_party_2","A3RM13YVEAFIU5","either","2","423","","","","","","","1","0","0","0.737018723","","0.2","0.8","0.4","0.6","","","","","0.3233911601","0.737018723","0.4508947075","0.6727034752","","","","","","","","","","74","J","1","","","105","main_expt",""
"","bandit","185","451015","0.0-147.0-0.0","13153349","wem/bandit_party_2","A3RM13YVEAFIU5","either","2","497","","","","","","","0","0","1","0.655194185","","0.2","0.8","0.4","0.6","","","","","0.2024631506","0.655194185","0.4132181144","0.6386482702","","","","","","","","","","74","J","1","","","106","main_expt",""
"","bandit","186","453195","0.0-148.0-0.0","13153349","wem/bandit_party_2","A3RM13YVEAFIU5","either","2","651","","","","","","","0","0","1","0.7122819559","","0.2","0.8","0.4","0.6","","","","","0.2290393164","0.7122819559","0.4393512677","0.6788938686","","","","","","","","","","74","J","1","","","107","main_expt",""
"","bandit","187","455164","0.0-149.0-0.0","13153349","wem/bandit_party_2","A3RM13YVEAFIU5","either","2","445","","","","","","","1","0","0","0.7326995505","","0.2","0.8","0.4","0.6","","","","","0.2217712157","0.7326995505","0.4964319729","0.7076498576","","","","","","","","","","74","J","1","","","108","main_expt",""
"","bandit","188","457658","0.0-150.0-0.0","13153349","wem/bandit_party_2","A3RM13YVEAFIU5","either","2","969","","","","","","","1","0","0","0.7165499475","","0.2","0.8","0.4","0.6","","","","","0.1566860935","0.7165499475","0.4790921069","0.6932550908","","","","","","","","","","74","J","1","","","109","main_expt",""
"","bandit","189","459899","0.0-151.0-0.0","13153349","wem/bandit_party_2","A3RM13YVEAFIU5","either","2","719","","","","","","","1","0","0","0.6058017554","","0.2","0.8","0.4","0.6","","","","","0.1083987113","0.6058017554","0.5856434505","0.7436061547","","","","","","","","","","74","J","1","","","110","main_expt",""
"","bandit","190","462499","0.0-152.0-0.0","13153349","wem/bandit_party_2","A3RM13YVEAFIU5","either","2","1075","","","","","","","1","0","0","0.5476823758","","0.2","0.8","0.4","0.6","","","","","0.217828795","0.5476823758","0.6444230696","0.657194241","","","","","","","","","","74","J","1","","","111","main_expt",""
"","bandit","191","464397","0.0-153.0-0.0","13153349","wem/bandit_party_2","A3RM13YVEAFIU5","either","2","374","","","","","","","1","0","0","0.5688313193","","0.2","0.8","0.4","0.6","","","","","0.2212119155","0.5688313193","0.603417252","0.6317228327","","","","","","","","","","74","J","1","","","112","main_expt",""
"","bandit","192","466530","0.0-154.0-0.0","13153349","wem/bandit_party_2","A3RM13YVEAFIU5","either","2","609","","","","","","","1","0","0","0.50852785","","0.2","0.8","0.4","0.6","","","","","0.2374112476","0.50852785","0.420613871","0.4985892417","","","","","","","","","","74","J","1","","","113","main_expt",""
"","bandit","193","468736","0.0-155.0-0.0","13153349","wem/bandit_party_2","A3RM13YVEAFIU5","either","2","679","","","","","","","1","0","0","0.5711084253","","0.2","0.8","0.4","0.6","","","","","0.2703699348","0.5711084253","0.2851569533","0.579071345","","","","","","","","","","74","J","1","","","114","main_expt",""
"","bandit","194","471004","0.0-156.0-0.0","13153349","wem/bandit_party_2","A3RM13YVEAFIU5","either","2","737","","","","","","","0","0","1","","0.4177754351","0.2","0.8","0.4","0.6","0.1928485376","0.4177754351","0.3166589884","0.4595939904","","","","","","","","","","","","","","74","J","1","","","115","main_expt",""
"","bandit","195","472886","0.0-157.0-0.0","13153349","wem/bandit_party_2","A3RM13YVEAFIU5","either","2","354","","","","","","","0","0","1","","0.3744567546","0.2","0.8","0.4","0.6","0.136356343","0.387840809","0.3928451607","0.3744567546","","","","","","","","","","","","","","76","L","3","","","116","main_expt",""
"","bandit","196","474674","0.0-158.0-0.0","13153349","wem/bandit_party_2","A3RM13YVEAFIU5","either","2","260","","","","","","","1","0","0","0.560845346","","0.2","0.8","0.4","0.6","","","","","0.2193113504","0.4456731606","0.560845346","0.302145019","","","","","","","","","","75","K","2","","","117","main_expt",""
"","bandit","197","476460","0.0-159.0-0.0","13153349","wem/bandit_party_2","A3RM13YVEAFIU5","either","2","262","","","","","","","0","1","0","","0.5536818424","0.2","0.8","0.4","0.6","0.2686792008","0.3045880574","0.5536818424","0.3522466686","","","","","","","","","","","","","","75","K","2","","","118","main_expt",""
"","bandit","198","478477","0.0-160.0-0.0","13153349","wem/bandit_party_2","A3RM13YVEAFIU5","either","2","494","","","","","","","1","0","0","0.3617659687","","0.2","0.8","0.4","0.6","","","","","0.2668270476","0.3994134075","0.3617659687","0.4425542362","","","","","","","","","","75","K","2","","","119","main_expt",""
"","bandit","199","480331","0.0-161.0-0.0","13153349","wem/bandit_party_2","A3RM13YVEAFIU5","either","2","328","","","","","","","0","0","1","0.3454740543","","0.2","0.8","0.4","0.6","","","","","0.3723992114","0.351449483","0.3454740543","0.3377532805","","","","","","","","","","75","K","2","","","120","main_expt",""
"","bandit","200","484503","0.0-162.0-0.0","13153349","wem/bandit_party_2","A3RM13YVEAFIU5","either","2","2648","","","","","","","0","0","1","","0.2798257893","0.2","0.8","0.4","0.6","0.4001238515","0.3641911367","0.2798257893","0.2929504356","","","","","","","","","","","","","","75","K","2","","","121","main_expt",""
"","bandit","201","486460","0.0-163.0-0.0","13153349","wem/bandit_party_2","A3RM13YVEAFIU5","either","2","431","","","","","","","0","0","1","","0.4090120715","0.2","0.8","0.4","0.6","0.4090120715","0.2673706252","0.2261540995","0.2504028886","","","","","","","","","","","","","","72","H","0","img/none_selected.jpg","","122","main_expt",""
"","bandit","202","488263","0.0-164.0-0.0","13153349","wem/bandit_party_2","A3RM13YVEAFIU5","either","2","276","","","","","","","1","0","0","0.3455372181","","0.2","0.8","0.4","0.6","","","","","0.4746108064","0.3455372181","0.2766663047","0.2414849785","","","","","","","","","","74","J","1","","","123","main_expt",""
"","bandit","203","490226","0.0-165.0-0.0","13153349","wem/bandit_party_2","A3RM13YVEAFIU5","either","2","438","","","","","","","0","0","1","0.3524137631","","0.2","0.8","0.4","0.6","","","","","0.453231646","0.3524137631","0.3126864395","0.1791255979","","","","","","","","","","74","J","1","","","124","main_expt",""
"","bandit","204","492066","0.0-166.0-0.0","13153349","wem/bandit_party_2","A3RM13YVEAFIU5","either","2","312","","","","","","","0","0","1","0.3680881866","","0.2","0.8","0.4","0.6","","","","","0.4888945922","0.3680881866","0.2772507379","0.1952456852","","","","","","","","","","74","J","1","","","125","main_expt",""
"","bandit","205","493849","0.0-167.0-0.0","13153349","wem/bandit_party_2","A3RM13YVEAFIU5","either","2","255","","","","","","","1","0","0","0.2614303707","","0.2","0.8","0.4","0.6","","","","","0.396932523","0.2884444508","0.2441417391","0.2614303707","","","","","","","","","","76","L","3","","","126","main_expt",""
"","bandit","206","495736","0.0-168.0-0.0","13153349","wem/bandit_party_2","A3RM13YVEAFIU5","either","2","359","","","","","","","0","0","1","","0.267511235","0.2","0.8","0.4","0.6","0.4026562496","0.2931854252","0.2304038214","0.267511235","","","","","","","","","","","","","","76","L","3","","","127","main_expt",""
"","bandit","207","497599","0.0-169.0-0.0","13153349","wem/bandit_party_2","A3RM13YVEAFIU5","either","2","331","","","","","","","0","1","0","","0.2582460394","0.2","0.8","0.4","0.6","0.3072143153","0.3115494401","0.2463692943","0.2582460394","","","","","","","","","","","","","","76","L","3","","","128","main_expt",""
"","bandit","208","499625","0.0-170.0-0.0","13153349","wem/bandit_party_2","A3RM13YVEAFIU5","either","2","497","","","","","","","0","0","1","0.249100023","","0.2","0.8","0.4","0.6","","","","","0.3024431642","0.287093163","0.262841392","0.249100023","","","","","","","","","","76","L","3","","","129","main_expt",""
"","bandit","209","501447","0.0-171.0-0.0","13153349","wem/bandit_party_2","A3RM13YVEAFIU5","either","2","295","","","","","","","1","0","0","0.3044503748","","0.2","0.8","0.4","0.6","","","","","0.383823705","0.242368994","0.3044503748","0.2014680341","","","","","","","","","","75","K","2","","","130","main_expt",""
"","bandit","210","503608","0.0-172.0-0.0","13153349","wem/bandit_party_2","A3RM13YVEAFIU5","either","2","631","","","","","","","0","1","0","","0.2231782293","0.2","0.8","0.4","0.6","0.5448185218","0.3141093292","0.2231782293","0.2514612397","","","","","","","","","","","","","","75","K","2","","","131","main_expt",""
"","bandit","211","505447","0.0-173.0-0.0","13153349","wem/bandit_party_2","A3RM13YVEAFIU5","either","2","308","","","","","","","0","0","1","0.265126842","","0.2","0.8","0.4","0.6","","","","","0.5741986762","0.3186943837","0.265126842","0.1719215191","","","","","","","","","","75","K","2","","","132","main_expt",""
"","bandit","212","507237","0.0-174.0-0.0","13153349","wem/bandit_party_2","A3RM13YVEAFIU5","either","2","268","","","","","","","0","0","1","","0.1996467811","0.2","0.8","0.4","0.6","0.54298015","0.3218599317","0.1996467811","0.151851594","","","","","","","","","","","","","","75","K","2","","","133","main_expt",""
"","bandit","213","509012","0.0-175.0-0.0","13153349","wem/bandit_party_2","A3RM13YVEAFIU5","either","2","246","","","","","","","1","0","0","0.3372263261","","0.2","0.8","0.4","0.6","","","","","0.5504084981","0.3372263261","0.1900899503","0.1693242304","","","","","","","","","","74","J","1","","","134","main_expt",""
"","bandit","214","510795","0.0-176.0-0.0","13153349","wem/bandit_party_2","A3RM13YVEAFIU5","either","2","248","","","","","","","0","0","1","0.3515125386","","0.2","0.8","0.4","0.6","","","","","0.4874659601","0.3515125386","0.172295534","0.1541174352","","","","","","","","","","74","J","1","","","135","main_expt",""
"","bandit","215","512771","0.0-177.0-0.0","13153349","wem/bandit_party_2","A3RM13YVEAFIU5","either","2","445","","","","","","","0","0","1","0.2312583875","","0.2","0.8","0.4","0.6","","","","","0.3677382912","0.2312583875","0.1171098277","0.1374012581","","","","","","","","","","74","J","1","","","136","main_expt",""
"","bandit","216","514575","0.0-178.0-0.0","13153349","wem/bandit_party_2","A3RM13YVEAFIU5","either","2","277","","","","","","","0","1","0","","0.1390909791","0.2","0.8","0.4","0.6","0.2944012193","0.3496768842","0.1390909791","0.2889288236","","","","","","","","","","","","","","75","K","2","","","137","main_expt",""
"","bandit","217","516598","0.0-179.0-0.0","13153349","wem/bandit_party_2","A3RM13YVEAFIU5","either","2","495","","","","","","","0","1","0","","0.1209370274","0.2","0.8","0.4","0.6","0.3020033879","0.4217982028","0.1209370274","0.2177367931","","","","","","","","","","","","","","75","K","2","","","138","main_expt",""
"","bandit","218","518360","0.0-180.0-0.0","13153349","wem/bandit_party_2","A3RM13YVEAFIU5","either","2","233","","","","","","","0","0","1","0.1441291996","","0.2","0.8","0.4","0.6","","","","","0.2908104057","0.5123523738","0.1441291996","0.1704259453","","","","","","","","","","75","K","2","","","139","main_expt",""
"","bandit","219","520003","0.0-181.0-0.0","13153349","wem/bandit_party_2","A3RM13YVEAFIU5","either","2","117","","","","","","","0","0","1","0.1380406349","","0.2","0.8","0.4","0.6","","","","","0.2738290205","0.3892042576","0.1380406349","0.1827322183","","","","","","","","","","75","K","2","","","140","main_expt",""
"","bandit","220","521576","0.0-182.0-0.0","13153349","wem/bandit_party_2","A3RM13YVEAFIU5","either","2","50","","","","","","","0","0","1","0.4680147771","","0.2","0.8","0.4","0.6","","","","","0.3865798498","0.4680147771","0.1312769784","0.2030288612","","","","","","","","","","74","J","1","","","141","main_expt",""
"","bandit","221","523367","0.0-183.0-0.0","13153349","wem/bandit_party_2","A3RM13YVEAFIU5","either","2","270","","","","","","","0","0","1","0.3970866904","","0.2","0.8","0.4","0.6","","","","","0.3507917403","0.3970866904","0.1880730553","0.1760536641","","","","","","","","","","74","J","1","","","142","main_expt",""
"","bandit","222","525059","0.0-184.0-0.0","13153349","wem/bandit_party_2","A3RM13YVEAFIU5","either","2","170","","","","","","","0","0","1","","0.1428921374","0.2","0.8","0.4","0.6","0.2787839286","0.3609481858","0.1798266991","0.1428921374","","","","","","","","","","","","","","76","L","3","","","143","main_expt",""
"","bandit","223","526733","0.0-185.0-0.0","13153349","wem/bandit_party_2","A3RM13YVEAFIU5","either","2","148","","","","","","","0","0","1","","0.2106619402","0.2","0.8","0.4","0.6","0.2106619402","0.3701270871","0.1881666754","0.1260474704","","","","","","","","","","","","","","72","H","0","img/none_selected.jpg","","144","main_expt",""
"","bandit","224","528449","0.0-186.0-0.0","13153349","wem/bandit_party_2","A3RM13YVEAFIU5","either","2","191","","","","","","","0","0","1","","0.151337539","0.2","0.8","0.4","0.6","0.3211677341","0.3110645609","0.1683386122","0.151337539","","","","","","","","","","","","","","76","L","3","","","145","main_expt",""
"","bandit","225","529980","0.0-187.0-0.0","13153349","wem/bandit_party_2","A3RM13YVEAFIU5","either","2","9","","","","","","","0","0","1","0.356964637","","0.2","0.8","0.4","0.6","","","","","0.4417580917","0.356964637","0.2609121533","0.1600114734","","","","","","","","","","74","J","1","","","146","main_expt",""
"","bandit","226","531786","0.0-188.0-0.0","13153349","wem/bandit_party_2","A3RM13YVEAFIU5","either","2","278","","","","","","","1","0","0","0.280259565","","0.2","0.8","0.4","0.6","","","","","0.278611551","0.5143633813","0.280259565","0.1262446547","","","","","","","","","","75","K","2","","","147","main_expt",""
"","bandit","227","533532","0.0-189.0-0.0","13153349","wem/bandit_party_2","A3RM13YVEAFIU5","either","2","214","","","","","","","0","0","1","0.2972918914","","0.2","0.8","0.4","0.6","","","","","0.2811332351","0.5086187798","0.2972918914","0.1030311585","","","","","","","","","","75","K","2","","","148","main_expt",""
"","bandit","228","535192","0.0-190.0-0.0","13153349","wem/bandit_party_2","A3RM13YVEAFIU5","either","2","132","","","","","","","0","0","1","0.4676315778","","0.2","0.8","0.4","0.6","","","","","0.2606345315","0.4676315778","0.3284309668","0.123834606","","","","","","","","","","74","J","1","","","149","main_expt",""
"","bandit","229","536848","0.0-191.0-0.0","13153349","wem/bandit_party_2","A3RM13YVEAFIU5","either","2","128","","","","","","","0","0","1","0.3186890608","","0.2","0.8","0.4","0.6","","","","","0.260677327","0.4737351686","0.3186890608","0.06566206942","","","","","","","","","","75","K","2","","","150","main_expt",""
"","bandit","230","538610","0.0-192.0-0.0","13153349","wem/bandit_party_2","A3RM13YVEAFIU5","either","2","233","","","","","","","0","1","0","","0.2579624968","0.2","0.8","0.4","0.6","0.2579624968","0.5387476985","0.3331747037","0.06342121736","","","","","","","","","","","","","","72","H","0","img/none_selected.jpg","","151","main_expt",""
"","bandit","231","540397","0.0-193.0-0.0","13153349","wem/bandit_party_2","A3RM13YVEAFIU5","either","2","259","","","","","","","0","0","1","0.2536911072","","0.2","0.8","0.4","0.6","","","","","0.2536911072","0.5065138565","0.364096089","0.1162046696","","","","","","","","","","72","H","0","img/none_selected.jpg","","152","main_expt",""
"","bandit","232","542601","0.0-194.0-0.0","13153349","wem/bandit_party_2","A3RM13YVEAFIU5","either","2","670","","","","","","","0","0","1","","0.1427943183","0.2","0.8","0.4","0.6","0.1427943183","0.5190676077","0.3189440566","0.1388943584","","","","","","","","","","","","","","72","H","0","img/none_selected.jpg","","153","main_expt",""
"","bandit","233","544296","0.0-195.0-0.0","13153349","wem/bandit_party_2","A3RM13YVEAFIU5","either","2","165","","","","","","","0","0","1","","0.1188489222","0.2","0.8","0.4","0.6","0.08934943386","0.4944482457","0.486858514","0.1188489222","","","","","","","","","","","","","","76","L","3","","","154","main_expt",""
"","bandit","234","545961","0.0-196.0-0.0","13153349","wem/bandit_party_2","A3RM13YVEAFIU5","either","2","135","","","","","","","0","1","0","","0.398958755","0.2","0.8","0.4","0.6","0.1048919666","0.4987902374","0.398958755","0.1255079792","","","","","","","","","","","","","","75","K","2","","","155","main_expt",""
"","bandit","235","547710","0.0-197.0-0.0","13153349","wem/bandit_party_2","A3RM13YVEAFIU5","either","2","222","","","","","","","0","0","1","","0.3508932217","0.2","0.8","0.4","0.6","0.1348874752","0.4151199053","0.3508932217","0.1705129017","","","","","","","","","","","","","","75","K","2","","","156","main_expt",""
"","bandit","236","549513","0.0-198.0-0.0","13153349","wem/bandit_party_2","A3RM13YVEAFIU5","either","2","267","","","","","","","1","0","0","0.4215128153","","0.2","0.8","0.4","0.6","","","","","0.1197456909","0.4215128153","0.3736640956","0.1892203872","","","","","","","","","","74","J","1","","","157","main_expt",""
"","bandit","237","551371","0.0-199.0-0.0","13153349","wem/bandit_party_2","A3RM13YVEAFIU5","either","2","332","","","","","","","0","0","1","0.3666899102","","0.2","0.8","0.4","0.6","","","","","0.1343935597","0.3666899102","0.3215678611","0.1589595026","","","","","","","","","","74","J","1","","","158","main_expt",""
"","bandit","238","553150","0.0-200.0-0.0","13153349","wem/bandit_party_2","A3RM13YVEAFIU5","either","2","247","","","","","","","0","0","1","","0.04604274909","0.2","0.8","0.4","0.6","0.04604274909","0.3906786657","0.2732838962","0.1426383857","","","","","","","","","","","","","","72","H","0","img/none_selected.jpg","","159","main_expt",""
"","bandit","239","554870","0.0-201.0-0.0","13153349","wem/bandit_party_2","A3RM13YVEAFIU5","either","2","195","","","","","","","1","0","0","0.2747613825","","0.2","0.8","0.4","0.6","","","","","0.08927965808","0.4769972016","0.2323229575","0.2747613825","","","","","","","","","","76","L","3","","","160","main_expt",""
"","bandit","240","556658","0.0-202.0-0.0","13153349","wem/bandit_party_2","A3RM13YVEAFIU5","either","2","257","","","","","","","0","0","1","","0.2046882866","0.2","0.8","0.4","0.6","0.1038156196","0.4405879513","0.399022808","0.2046882866","","","","","","","","","","","","","","76","L","3","","","161","main_expt",""
"","bandit","241","558449","0.0-203.0-0.0","13153349","wem/bandit_party_2","A3RM13YVEAFIU5","either","2","260","","","","","","","0","1","0","","0.4967313539","0.2","0.8","0.4","0.6","0.1470739062","0.44055992","0.4967313539","0.1715152701","","","","","","","","","","","","","","75","K","2","","","162","main_expt",""
"","bandit","242","560241","0.0-204.0-0.0","13153349","wem/bandit_party_2","A3RM13YVEAFIU5","either","2","264","","","","","","","1","0","0","0.3434222481","","0.2","0.8","0.4","0.6","","","","","0.1214264794","0.3434222481","0.5245029489","0.2396687428","","","","","","","","","","74","J","1","","","163","main_expt",""
"","bandit","243","562022","0.0-205.0-0.0","13153349","wem/bandit_party_2","A3RM13YVEAFIU5","either","2","250","","","","","","","0","0","1","","0.1563758897","0.2","0.8","0.4","0.6","0.1563758897","0.3862652833","0.5808119749","0.3359744524","","","","","","","","","","","","","","72","H","0","img/none_selected.jpg","","164","main_expt",""
"","bandit","244","563678","0.0-206.0-0.0","13153349","wem/bandit_party_2","A3RM13YVEAFIU5","either","2","129","","","","","","","0","0","1","0.4940159592","","0.2","0.8","0.4","0.6","","","","","0.1311500467","0.4270444342","0.6473032069","0.4940159592","","","","","","","","","","76","L","3","","","165","main_expt",""
"","bandit","245","565397","0.0-207.0-0.0","13153349","wem/bandit_party_2","A3RM13YVEAFIU5","either","2","190","","","","","","","1","0","0","0.5073102058","","0.2","0.8","0.4","0.6","","","","","0.1419689761","0.5073102058","0.6790689848","0.5922229292","","","","","","","","","","74","J","1","","","166","main_expt",""
"","bandit","246","567129","0.0-208.0-0.0","13153349","wem/bandit_party_2","A3RM13YVEAFIU5","either","2","203","","","","","","","0","0","1","0.5417092253","","0.2","0.8","0.4","0.6","","","","","0.150246256","0.5417092253","0.5959653185","0.5562626425","","","","","","","","","","74","J","1","","","167","main_expt",""
"","bandit","247","568800","0.0-209.0-0.0","13153349","wem/bandit_party_2","A3RM13YVEAFIU5","either","2","142","","","","","","","0","0","1","0.361841396","","0.2","0.8","0.4","0.6","","","","","0.2070971521","0.6505471885","0.361841396","0.6489587791","","","","","","","","","","75","K","2","","","168","main_expt",""
"","bandit","248","570528","0.0-210.0-0.0","13153349","wem/bandit_party_2","A3RM13YVEAFIU5","either","2","198","","","","","","","0","0","1","","0.2564452127","0.2","0.8","0.4","0.6","0.2564452127","0.6226729341","0.2594844845","0.5652428614","","","","","","","","","","","","","","72","H","0","img/none_selected.jpg","","169","main_expt",""
"","bandit","249","573572","0.0-211.0-0.0","13153349","wem/bandit_party_2","A3RM13YVEAFIU5","either","2","1512","","","","","","","0","0","1","0.5344749526","","0.2","0.8","0.4","0.6","","","","","0.2845729388","0.7574543886","0.1987556041","0.5344749526","","","","","","","","","","76","L","3","","","170","main_expt",""
"","bandit","250","575117","0.0-212.0-0.0","13153349","wem/bandit_party_2","A3RM13YVEAFIU5","either","2","4","","","","","","","0","0","1","","0.2360657399","0.2","0.8","0.4","0.6","0.2360657399","0.774201251","0.1583585206","0.6364900983","","","","","","","","","","","","","","72","H","0","img/none_selected.jpg","","171","main_expt",""
"","bandit","251","576810","0.0-213.0-0.0","13153349","wem/bandit_party_2","A3RM13YVEAFIU5","either","2","154","","","","","","","1","0","0","0.7739789177","","0.2","0.8","0.4","0.6","","","","","0.3453554921","0.7739789177","0.1494938987","0.5516193693","","","","","","","","","","74","J","1","","","172","main_expt",""
"","bandit","252","578595","0.0-214.0-0.0","13153349","wem/bandit_party_2","A3RM13YVEAFIU5","either","2","254","","","","","","","0","1","0","","0.7146420849","0.2","0.8","0.4","0.6","0.2909261263","0.7146420849","0.1996494969","0.5081608063","","","","","","","","","","","","","","74","J","1","","","173","main_expt",""
"","bandit","253","580420","0.0-215.0-0.0","13153349","wem/bandit_party_2","A3RM13YVEAFIU5","either","2","292","","","","","","","1","0","0","0.683245412","","0.2","0.8","0.4","0.6","","","","","0.3807546558","0.683245412","0.2200767262","0.5247340446","","","","","","","","","","74","J","1","","","174","main_expt",""
"","bandit","254","582196","0.0-216.0-0.0","13153349","wem/bandit_party_2","A3RM13YVEAFIU5","either","2","245","","","","","","","1","0","0","0.7163731774","","0.2","0.8","0.4","0.6","","","","","0.3889518003","0.7163731774","0.1929710708","0.5823110366","","","","","","","","","","74","J","1","","","175","main_expt",""
"","bandit","255","583980","0.0-217.0-0.0","13153349","wem/bandit_party_2","A3RM13YVEAFIU5","either","2","256","","","","","","","1","0","0","0.6676116703","","0.2","0.8","0.4","0.6","","","","","0.3662842853","0.6676116703","0.1756556012","0.7693722391","","","","","","","","","","74","J","1","","","176","main_expt",""
"","bandit","256","585737","0.0-218.0-0.0","13153349","wem/bandit_party_2","A3RM13YVEAFIU5","either","2","222","","","","","","","1","0","0","0.711116056","","0.2","0.8","0.4","0.6","","","","","0.3102656016","0.711116056","0.2404611203","0.8048595062","","","","","","","","","","74","J","1","","","177","main_expt",""
"","bandit","257","587531","0.0-219.0-0.0","13153349","wem/bandit_party_2","A3RM13YVEAFIU5","either","2","262","","","","","","","0","0","1","0.6541247318","","0.2","0.8","0.4","0.6","","","","","0.3272385177","0.6541247318","0.1651874793","0.8147320782","","","","","","","","","","74","J","1","","","178","main_expt",""
"","bandit","258","589326","0.0-220.0-0.0","13153349","wem/bandit_party_2","A3RM13YVEAFIU5","either","2","259","","","","","","","0","0","1","0.600925469","","0.2","0.8","0.4","0.6","","","","","0.3185807274","0.600925469","0.1297692321","0.7755432213","","","","","","","","","","74","J","1","","","179","main_expt",""
"","bandit","259","590885","0.0-221.0-0.0","13153349","wem/bandit_party_2","A3RM13YVEAFIU5","either","2","24","","","","","","","0","1","0","","0.1311169289","0.2","0.8","0.4","0.6","0.3896265469","0.6321701674","0.1311169289","0.7309951384","","","","","","","","","","","","","","75","K","2","","","180","main_expt",""
"","bandit","260","592722","0.0-222.0-0.0","13153349","wem/bandit_party_2","A3RM13YVEAFIU5","either","2","305","","","","","","","0","0","1","","0.2184653543","0.2","0.8","0.4","0.6","0.4381139349","0.7040606398","0.2184653543","0.8068071681","","","","","","","","","","","","","","75","K","2","","","181","main_expt",""
"","bandit","261","594363","0.0-223.0-0.0","13153349","wem/bandit_party_2","A3RM13YVEAFIU5","either","2","110","","","","","","","1","0","0","0.8096694819","","0.2","0.8","0.4","0.6","","","","","0.4339703771","0.6551517927","0.156745214","0.8096694819","","","","","","","","","","76","L","3","","","182","main_expt",""
"","bandit","262","596089","0.0-224.0-0.0","13153349","wem/bandit_party_2","A3RM13YVEAFIU5","either","2","194","","","","","","","0","0","1","0.8522040983","","0.2","0.8","0.4","0.6","","","","","0.5270594011","0.7709035389","0.07710569088","0.8522040983","","","","","","","","","","76","L","3","","","183","main_expt",""
"","bandit","263","597622","0.0-225.0-0.0","13153349","wem/bandit_party_2","A3RM13YVEAFIU5","either","2","1","","","","","","","0","0","1","","0.4791569234","0.2","0.8","0.4","0.6","0.4791569234","0.7869666122","0.07901501252","0.8636776132","","","","","","","","","","","","","","72","H","0","img/none_selected.jpg","","184","main_expt",""
"","bandit","264","599360","0.0-226.0-0.0","13153349","wem/bandit_party_2","A3RM13YVEAFIU5","either","2","206","","","","","","","0","0","1","0.05695362571","","0.2","0.8","0.4","0.6","","","","","0.464074867","0.804571828","0.05695362571","0.8605951951","","","","","","","","","","75","K","2","","","185","main_expt",""
"","bandit","265","600907","0.0-227.0-0.0","13153349","wem/bandit_party_2","A3RM13YVEAFIU5","either","2","17","","","","","","","0","0","1","0.7866627628","","0.2","0.8","0.4","0.6","","","","","0.4654947356","0.7866627628","0.03796608352","0.8578427848","","","","","","","","","","74","J","1","","","186","main_expt",""
"","bandit","266","602657","0.0-228.0-0.0","13153349","wem/bandit_party_2","A3RM13YVEAFIU5","either","2","218","","","","","","","1","0","0","0.8253306036","","0.2","0.8","0.4","0.6","","","","","0.4338668179","0.8006736442","0.05986429342","0.8253306036","","","","","","","","","","76","L","3","","","187","main_expt",""
"","bandit","267","604402","0.0-229.0-0.0","13153349","wem/bandit_party_2","A3RM13YVEAFIU5","either","2","209","","","","","","","0","0","1","0.8118593573","","0.2","0.8","0.4","0.6","","","","","0.4679469354","0.7687627789","0.05827831728","0.8118593573","","","","","","","","","","76","L","3","","","188","main_expt",""
"","bandit","268","606091","0.0-230.0-0.0","13153349","wem/bandit_party_2","A3RM13YVEAFIU5","either","2","157","","","","","","","0","0","1","0.06499387038","","0.2","0.8","0.4","0.6","","","","","0.4645116859","0.7009429779","0.06499387038","0.8319104568","","","","","","","","","","75","K","2","","","189","main_expt",""
"","bandit","269","607791","0.0-231.0-0.0","13153349","wem/bandit_party_2","A3RM13YVEAFIU5","either","2","168","","","","","","","1","0","0","0.7531121838","","0.2","0.8","0.4","0.6","","","","","0.4260553166","0.7531121838","0.0878029059","0.8949986836","","","","","","","","","","74","J","1","","","190","main_expt",""
"","bandit","270","609590","0.0-232.0-0.0","13153349","wem/bandit_party_2","A3RM13YVEAFIU5","either","2","262","","","","","","","0","1","0","","0.6174616994","0.2","0.8","0.4","0.6","0.5323747461","0.6174616994","0.1101088583","0.9258368343","","","","","","","","","","","","","","74","J","1","","","191","main_expt",""
"","bandit","271","611320","0.0-233.0-0.0","13153349","wem/bandit_party_2","A3RM13YVEAFIU5","either","2","196","","","","","","","0","0","1","0.6331996982","","0.2","0.8","0.4","0.6","","","","","0.6013900654","0.6331996982","0.1559643099","0.9221438833","","","","","","","","","","74","J","1","","","192","main_expt",""
"","bandit","272","613497","0.0-234.0-0.0","13153349","wem/bandit_party_2","A3RM13YVEAFIU5","either","2","646","","","","","","","0","0","1","","0.5332063066","0.2","0.8","0.4","0.6","0.5332063066","0.5596167322","0.1348882638","0.878376231","","","","","","","","","","","","","","72","H","0","img/none_selected.jpg","","193","main_expt",""
"","bandit","273","615140","0.0-235.0-0.0","13153349","wem/bandit_party_2","A3RM13YVEAFIU5","either","2","114","","","","","","","0","0","1","0.5887018809","","0.2","0.8","0.4","0.6","","","","","0.5499496643","0.5887018809","0.243093686","0.7914694382","","","","","","","","","","74","J","1","","","194","main_expt",""
"","bandit","274","617132","0.0-236.0-0.0","13153349","wem/bandit_party_2","A3RM13YVEAFIU5","either","2","459","","","","","","","1","0","0","0.7843027812","","0.2","0.8","0.4","0.6","","","","","0.4170732774","0.561552955","0.2792315856","0.7843027812","","","","","","","","","","76","L","3","","","195","main_expt",""
"","bandit","275","619006","0.0-237.0-0.0","13153349","wem/bandit_party_2","A3RM13YVEAFIU5","either","2","340","","","","","","","0","0","1","","0.7888241066","0.2","0.8","0.4","0.6","0.4050854298","0.6199522587","0.2075419965","0.7888241066","","","","","","","","","","","","","","76","L","3","","","196","main_expt",""
"","bandit","276","620834","0.0-238.0-0.0","13153349","wem/bandit_party_2","A3RM13YVEAFIU5","either","2","295","","","","","","","0","0","1","","0.1899284635","0.2","0.8","0.4","0.6","0.4522405917","0.6886125155","0.1899284635","0.8145025162","","","","","","","","","","","","","","75","K","2","","","197","main_expt",""
"","bandit","277","622580","0.0-239.0-0.0","13153349","wem/bandit_party_2","A3RM13YVEAFIU5","either","2","217","","","","","","","1","0","0","0.6468609917","","0.2","0.8","0.4","0.6","","","","","0.4547961131","0.6468609917","0.1632143895","0.8795467387","","","","","","","","","","74","J","1","","","198","main_expt",""
"","bandit","278","624377","0.0-240.0-0.0","13153349","wem/bandit_party_2","A3RM13YVEAFIU5","either","2","264","","","","","","","1","0","0","0.7134983028","","0.2","0.8","0.4","0.6","","","","","0.456709553","0.7134983028","0.1580048483","0.8716255916","","","","","","","","","","74","J","1","","","199","main_expt",""
"","bandit","279","626131","0.0-241.0-0.0","13153349","wem/bandit_party_2","A3RM13YVEAFIU5","either","2","221","","","","","","","1","0","0","0.6545285445","","0.2","0.8","0.4","0.6","","","","","0.4197111003","0.6545285445","0.1815025648","0.8596876402","","","","","","","","","","74","J","1","","","200","main_expt",""
"","bandit","280","627978","0.0-242.0-0.0","13153349","wem/bandit_party_2","A3RM13YVEAFIU5","either","2","316","","","","","","","0","1","0","","0.6827561938","0.2","0.8","0.4","0.6","0.4468864226","0.6827561938","0.1453003075","0.8714244785","","","","","","","","","","","","","","74","J","1","","","201","main_expt",""
"","bandit","281","630244","0.0-243.0-0.0","13153349","wem/bandit_party_2","A3RM13YVEAFIU5","either","2","732","","","","","","","1","0","0","0.6590680519","","0.2","0.8","0.4","0.6","","","","","0.3852152277","0.6590680519","0.1061510446","0.8679491409","","","","","","","","","","74","J","1","","","202","main_expt",""
"","bandit","282","632066","0.0-244.0-0.0","13153349","wem/bandit_party_2","A3RM13YVEAFIU5","either","2","282","","","","","","","1","0","0","0.67998256","","0.2","0.8","0.4","0.6","","","","","0.3481501846","0.67998256","0.09667757311","0.8421855008","","","","","","","","","","74","J","1","","","203","main_expt",""
"","bandit","283","633995","0.0-245.0-0.0","13153349","wem/bandit_party_2","A3RM13YVEAFIU5","either","2","396","","","","","","","0","0","1","","0.7157802034","0.2","0.8","0.4","0.6","0.3688904748","0.7157802034","0.109576977","0.8741547355","","","","","","","","","","","","","","74","J","1","","","204","main_expt",""
"","bandit","284","635638","0.0-246.0-0.0","13153349","wem/bandit_party_2","A3RM13YVEAFIU5","either","2","107","","","","","","","0","0","1","","0.4196025605","0.2","0.8","0.4","0.6","0.4196025605","0.6750594522","0.1370524017","0.8589537271","","","","","","","","","","","","","","72","H","0","img/none_selected.jpg","","205","main_expt",""
"","bandit","285","637295","0.0-247.0-0.0","13153349","wem/bandit_party_2","A3RM13YVEAFIU5","either","2","122","","","","","","","0","0","1","","0.1005848846","0.2","0.8","0.4","0.6","0.3558717694","0.7170784861","0.1005848846","0.8009191088","","","","","","","","","","","","","","75","K","2","","","206","main_expt",""
"","bandit","286","639069","0.0-248.0-0.0","13153349","wem/bandit_party_2","A3RM13YVEAFIU5","either","2","240","","","","","","","1","0","0","0.8146279372","","0.2","0.8","0.4","0.6","","","","","0.3978287694","0.6886550294","0.1100528349","0.8146279372","","","","","","","","","","76","L","3","","","207","main_expt",""
"","bandit","287","640891","0.0-249.0-0.0","13153349","wem/bandit_party_2","A3RM13YVEAFIU5","either","2","281","","","","","","","1","0","0","0.7498886323","","0.2","0.8","0.4","0.6","","","","","0.3647175361","0.7340041914","0.1165568201","0.7498886323","","","","","","","","","","76","L","3","","","208","main_expt",""
"","bandit","288","642645","0.0-250.0-0.0","13153349","wem/bandit_party_2","A3RM13YVEAFIU5","either","2","213","","","","","","","0","0","1","","0.781298432","0.2","0.8","0.4","0.6","0.2942091963","0.7108339061","0.1607141963","0.781298432","","","","","","","","","","","","","","76","L","3","","","209","main_expt",""
"","bandit","289","644819","0.0-251.0-0.0","13153349","wem/bandit_party_2","A3RM13YVEAFIU5","either","2","636","","","","","","","1","0","0","0.7322658343","","0.2","0.8","0.4","0.6","","","","","0.3228874634","0.7322658343","0.2005879304","0.8374694261","","","","","","","","","","74","J","1","","","210","main_expt",""
"","bandit","290","646570","0.0-252.0-0.0","13153349","wem/bandit_party_2","A3RM13YVEAFIU5","either","2","222","","","","","","","1","0","0","0.6220956771","","0.2","0.8","0.4","0.6","","","","","0.3300931135","0.6220956771","0.1999716741","0.7461264045","","","","","","","","","","74","J","1","","","211","main_expt",""
"","bandit","291","648347","0.0-253.0-0.0","13153349","wem/bandit_party_2","A3RM13YVEAFIU5","either","2","241","","","","","","","0","0","1","","0.5400145011","0.2","0.8","0.4","0.6","0.4044608811","0.5400145011","0.2135957141","0.7267359419","","","","","","","","","","","","","","74","J","1","","","212","main_expt",""
"","bandit","292","649884","0.0-254.0-0.0","13153349","wem/bandit_party_2","A3RM13YVEAFIU5","either","2","2","","","","","","","1","0","0","0.6529835343","","0.2","0.8","0.4","0.6","","","","","0.4916994921","0.5419994818","0.2041793084","0.6529835343","","","","","","","","","","76","L","3","","","213","main_expt",""
"","bandit","293","651561","0.0-255.0-0.0","13153349","wem/bandit_party_2","A3RM13YVEAFIU5","either","2","139","","","","","","","0","0","1","0.6195319152","","0.2","0.8","0.4","0.6","","","","","0.5387088508","0.6195319152","0.2563089198","0.5734554779","","","","","","","","","","74","J","1","","","214","main_expt",""
"","bandit","294","653173","0.0-256.0-0.0","13153349","wem/bandit_party_2","A3RM13YVEAFIU5","either","2","76","","","","","","","0","1","0","","0.7056003711","0.2","0.8","0.4","0.6","0.567041903","0.7405966814","0.2870699064","0.7056003711","","","","","","","","","","","","","","76","L","3","","","215","main_expt",""
"","bandit","295","654962","0.0-257.0-0.0","13153349","wem/bandit_party_2","A3RM13YVEAFIU5","either","2","254","","","","","","","0","0","1","0.7717913507","","0.2","0.8","0.4","0.6","","","","","0.539749723","0.8005734678","0.2715554895","0.7717913507","","","","","","","","","","76","L","3","","","216","main_expt",""
"","bandit","296","656757","0.0-258.0-0.0","13153349","wem/bandit_party_2","A3RM13YVEAFIU5","either","2","260","","","","","","","0","0","1","0.8392159132","","0.2","0.8","0.4","0.6","","","","","0.3803352486","0.8392159132","0.2027777883","0.834894728","","","","","","","","","","74","J","1","","","217","main_expt",""
"","bandit","297","658291","0.0-259.0-0.0","13153349","wem/bandit_party_2","A3RM13YVEAFIU5","either","2","1","","","","","","","0","0","1","","0.2169787163","0.2","0.8","0.4","0.6","0.3236333655","0.7445585264","0.2169787163","0.868580258","","","","","","","","","","","","","","75","K","2","","","218","main_expt",""
"","bandit","298","660006","0.0-260.0-0.0","13153349","wem/bandit_party_2","A3RM13YVEAFIU5","either","2","177","","","","","","","0","0","1","","0.2612589469","0.2","0.8","0.4","0.6","0.2612589469","0.7174829008","0.2292932202","0.8236231074","","","","","","","","","","","","","","72","H","0","img/none_selected.jpg","","219","main_expt",""
"","bandit","299","661626","0.0-261.0-0.0","13153349","wem/bandit_party_2","A3RM13YVEAFIU5","either","2","80","","","","","","","1","0","0","0.7719294443","","0.2","0.8","0.4","0.6","","","","","0.2228319794","0.6601767392","0.2829053382","0.7719294443","","","","","","","","","","76","L","3","","","220","main_expt",""
"","bandit","300","663404","0.0-262.0-0.0","13153349","wem/bandit_party_2","A3RM13YVEAFIU5","either","2","242","","","","","","","0","1","0","","0.7609360252","0.2","0.8","0.4","0.6","0.2204856404","0.703996204","0.2691731019","0.7609360252","","","","","","","","","","","","","","76","L","3","","","221","main_expt",""
"","bandit","301","665193","0.0-263.0-0.0","13153349","wem/bandit_party_2","A3RM13YVEAFIU5","either","2","258","","","","","","","0","1","0","","0.7319851961","0.2","0.8","0.4","0.6","0.2269951902","0.6188024556","0.1974112065","0.7319851961","","","","","","","","","","","","","","76","L","3","","","222","main_expt",""
"","bandit","302","667093","0.0-264.0-0.0","13153349","wem/bandit_party_2","A3RM13YVEAFIU5","either","2","367","","","","","","","1","0","0","0.6994646324","","0.2","0.8","0.4","0.6","","","","","0.3417830843","0.5695888615","0.08486155027","0.6994646324","","","","","","","","","","76","L","3","","","223","main_expt",""
"","bandit","303","668920","0.0-265.0-0.0","13153349","wem/bandit_party_2","A3RM13YVEAFIU5","either","2","287","","","","","","","0","0","1","","0.6817307813","0.2","0.8","0.4","0.6","0.4057490183","0.6590173842","0.1930609847","0.6817307813","","","","","","","","","","","","","","76","L","3","","","224","main_expt",""
"","bandit","304","670837","0.0-266.0-0.0","13153349","wem/bandit_party_2","A3RM13YVEAFIU5","either","2","381","","","","","","","1","0","0","0.6779124893","","0.2","0.8","0.4","0.6","","","","","0.4266979185","0.6779124893","0.2026087193","0.67394888","","","","","","","","","","74","J","1","","","225","main_expt",""
"","bandit","305","672846","0.0-267.0-0.0","13153349","wem/bandit_party_2","A3RM13YVEAFIU5","either","2","473","","","","","","","1","0","0","0.6433757785","","0.2","0.8","0.4","0.6","","","","","0.4723095555","0.6433757785","0.1295559036","0.6520670614","","","","","","","","","","74","J","1","","","226","main_expt",""
"","bandit","306","674665","0.0-268.0-0.0","13153349","wem/bandit_party_2","A3RM13YVEAFIU5","either","2","283","","","","","","","0","1","0","","0.6050090536","0.2","0.8","0.4","0.6","0.4396274322","0.6050090536","0.1014701128","0.6598054912","","","","","","","","","","","","","","74","J","1","","","227","main_expt",""
"","bandit","307","676601","0.0-269.0-0.0","13153349","wem/bandit_party_2","A3RM13YVEAFIU5","either","2","403","","","","","","","1","0","0","0.5614220587","","0.2","0.8","0.4","0.6","","","","","0.4581465293","0.5614220587","0.1374428951","0.7313296172","","","","","","","","","","74","J","1","","","228","main_expt",""
"","bandit","308","678454","0.0-270.0-0.0","13153349","wem/bandit_party_2","A3RM13YVEAFIU5","either","2","317","","","","","","","0","0","1","","0.536938762","0.2","0.8","0.4","0.6","0.3635076811","0.536938762","0.2147377822","0.5771612872","","","","","","","","","","","","","","74","J","1","","","229","main_expt",""
"","bandit","309","680053","0.0-271.0-0.0","13153349","wem/bandit_party_2","A3RM13YVEAFIU5","either","2","65","","","","","","","0","1","0","","0.6474737632","0.2","0.8","0.4","0.6","0.4109812081","0.4691369301","0.2128984172","0.6474737632","","","","","","","","","","","","","","76","L","3","","","230","main_expt",""
"","bandit","310","681966","0.0-272.0-0.0","13153349","wem/bandit_party_2","A3RM13YVEAFIU5","either","2","381","","","","","","","1","0","0","0.77083729","","0.2","0.8","0.4","0.6","","","","","0.3769467169","0.3801843724","0.2566260117","0.77083729","","","","","","","","","","76","L","3","","","231","main_expt",""
"","bandit","311","683857","0.0-273.0-0.0","13153349","wem/bandit_party_2","A3RM13YVEAFIU5","either","2","356","","","","","","","0","0","1","0.7372448464","","0.2","0.8","0.4","0.6","","","","","0.4489681289","0.4401380948","0.307190163","0.7372448464","","","","","","","","","","76","L","3","","","232","main_expt",""
"","bandit","312","685593","0.0-274.0-0.0","13153349","wem/bandit_party_2","A3RM13YVEAFIU5","either","2","198","","","","","","","0","0","1","0.4589823784","","0.2","0.8","0.4","0.6","","","","","0.5191563331","0.4589823784","0.3235632008","0.8061851957","","","","","","","","","","74","J","1","","","233","main_expt",""
"","bandit","313","687240","0.0-275.0-0.0","13153349","wem/bandit_party_2","A3RM13YVEAFIU5","either","2","108","","","","","","","0","0","1","","0.5635532962","0.2","0.8","0.4","0.6","0.5635532962","0.412850409","0.2229472669","0.7628128465","","","","","","","","","","","","","","72","H","0","img/none_selected.jpg","","234","main_expt",""
"","bandit","314","689004","0.0-276.0-0.0","13153349","wem/bandit_party_2","A3RM13YVEAFIU5","either","2","232","","","","","","","0","1","0","","0.3245092944","0.2","0.8","0.4","0.6","0.6059211115","0.3071086281","0.3245092944","0.7139354314","","","","","","","","","","","","","","75","K","2","","","235","main_expt",""
"","bandit","315","690793","0.0-277.0-0.0","13153349","wem/bandit_party_2","A3RM13YVEAFIU5","either","2","251","","","","","","","0","1","0","","0.3817813951","0.2","0.8","0.4","0.6","0.5767319418","0.3088172556","0.3817813951","0.8459685894","","","","","","","","","","","","","","75","K","2","","","236","main_expt",""
"","bandit","316","692574","0.0-278.0-0.0","13153349","wem/bandit_party_2","A3RM13YVEAFIU5","either","2","246","","","","","","","0","0","1","0.5108794425","","0.2","0.8","0.4","0.6","","","","","0.6195352853","0.2725525041","0.5108794425","0.8258062243","","","","","","","","","","75","K","2","","","237","main_expt",""
