"consent","trial_type","trial_index","time_elapsed","internal_node_id","subjID","study","MID","cond","drift","rt","responses","button_pressed","key_press","like","value","connected","gems","bombs","no_reward","GemPrChosen","BombPrChosen","GainOverPainPr_0","GainOverPainPr_1","GainOverPainPr_2","GainOverPainPr_3","LosePr_0","LosePr_1","LosePr_2","LosePr_3","WinPr_0","WinPr_1","WinPr_2","WinPr_3","Q0","Q1","Q2","gender","age","ethnicity","label","expt_phase","target","respCharCode","respKey","respChoiceNum","respChoice","practice","trial_counter","trial_label","Q0_index","view_history"
"GDM/GDM_behavioral_consent_30min_online.html","consent","0","149453","0.0-0.0","13959309","wem/bandit_party_2","A1A46CKE3F5JAJ","either","7","","","","","","","","","","","","","","","","","","","","","","","","","","","","","","","","","","","","","","","","","",""
"","survey-text","1","155071","0.0-1.0","13959309","wem/bandit_party_2","A1A46CKE3F5JAJ","either","7","4603","{""Q0"":""A1A46CKE3F5JAJ""}","","","","","","","","","","","","","","","","","","","","","","","","","","","","","","","","","","","","","","","",""
"","button-response","2","158466","0.0-2.0","13959309","wem/bandit_party_2","A1A46CKE3F5JAJ","either","7","2385","","0","","","","","","","","","","","","","","","","","","","","","","","","","","","","","","","","","","","","","","",""
"","text-replacement","3","207160","0.0-3.0","13959309","wem/bandit_party_2","A1A46CKE3F5JAJ","either","7","47688","","","32","","","","","","","","","","","","","","","","","","","","","","","","","","","","","","","","","","","","","",""
"","text-replacement","4","213766","0.0-4.0","13959309","wem/bandit_party_2","A1A46CKE3F5JAJ","either","7","6603","","","32","","","","","","","","","","","","","","","","","","","","","","","","","","","","","","","","","","","","","",""
"","identification","5","222737","0.0-6.0-0.0","13959309","wem/bandit_party_2","A1A46CKE3F5JAJ","either","7","8934","","","","1","1","0","","","","","","","","","","","","","","","","","","","","","","","","pre","identification_pre","the Democratic Party","","","","","","","","",""
"","identification","6","228288","0.0-6.0-1.0","13959309","wem/bandit_party_2","A1A46CKE3F5JAJ","either","7","4516","","","","6","6","6","","","","","","","","","","","","","","","","","","","","","","","","pre","identification_pre","the Republican Party","","","","","","","","",""
"","text-replacement","7","237711","0.0-7.0","13959309","wem/bandit_party_2","A1A46CKE3F5JAJ","either","7","8419","","","32","","","","","","","","","","","","","","","","","","","","","","","","","","","","","","","","","","","","","",""
"","text-replacement","8","244346","0.0-8.0","13959309","wem/bandit_party_2","A1A46CKE3F5JAJ","either","7","6631","","","32","","","","","","","","","","","","","","","","","","","","","","","","","","","","","","","","","","","","","",""
"","text-replacement","9","247472","0.0-9.0","13959309","wem/bandit_party_2","A1A46CKE3F5JAJ","either","7","3120","","","32","","","","","","","","","","","","","","","","","","","","","","","","","","","","","","","","","","","","","",""
"","text-replacement","10","252008","0.0-10.0","13959309","wem/bandit_party_2","A1A46CKE3F5JAJ","either","7","4531","","","32","","","","","","","","","","","","","","","","","","","","","","","","","","","","","","","","","","","","","",""
"","text-replacement","11","254978","0.0-11.0","13959309","wem/bandit_party_2","A1A46CKE3F5JAJ","either","7","2967","","","32","","","","","","","","","","","","","","","","","","","","","","","","","","","","","","","","","","","","","",""
"","bandit","12","258647","0.0-12.0-0.0","13959309","wem/bandit_party_2","A1A46CKE3F5JAJ","either","7","2149","","","","","","","0","0","1","0","0","","","","","0","","","","0","","","","","","","","","","","","","74","J","0","img/none_selected_demo.jpg","true","0","","",""
"","bandit","13","261085","0.0-13.0-0.0","13959309","wem/bandit_party_2","A1A46CKE3F5JAJ","either","7","927","","","","","","","0","0","1","0","0","","","","","0","","","","0","","","","","","","","","","","","","75","K","0","img/none_selected_demo.jpg","true","0","","",""
"","text-replacement","14","262304","0.0-14.0","13959309","wem/bandit_party_2","A1A46CKE3F5JAJ","either","7","1215","","","32","","","","","","","","","","","","","","","","","","","","","","","","","","","","","","","","","","","","","",""
"","text-replacement","15","263370","0.0-15.0","13959309","wem/bandit_party_2","A1A46CKE3F5JAJ","either","7","1062","","","32","","","","","","","","","","","","","","","","","","","","","","","","","","","","","","","","","","","","","",""
"","text-replacement","16","263843","0.0-16.0","13959309","wem/bandit_party_2","A1A46CKE3F5JAJ","either","7","470","","","32","","","","","","","","","","","","","","","","","","","","","","","","","","","","","","","","","","","","","",""
"","text-replacement","17","264339","0.0-17.0","13959309","wem/bandit_party_2","A1A46CKE3F5JAJ","either","7","492","","","32","","","","","","","","","","","","","","","","","","","","","","","","","","","","","","","","","","","","","",""
"","bandit","18","266848","0.0-18.0-0.0","13959309","wem/bandit_party_2","A1A46CKE3F5JAJ","either","7","999","","","","","","","0","1","0","","0.8","0.5","0.5","","","0.8","0.2","","","","","","","","","","","","","","","","74","J","0","img/none_selected_demo.jpg","true","0","80_20_practice","",""
"","bandit","19","268744","0.0-18.0-1.0","13959309","wem/bandit_party_2","A1A46CKE3F5JAJ","either","7","384","","","","","","","0","0","1","0.2","","0.5","0.5","","","","","","","0.8","0.2","","","","","","","","","","","","75","K","1","","true","0","80_20_practice","",""
"","bandit","20","270607","0.0-18.0-2.0","13959309","wem/bandit_party_2","A1A46CKE3F5JAJ","either","7","352","","","","","","","0","0","1","","0.2","0.5","0.5","","","0.8","0.2","","","","","","","","","","","","","","","","75","K","1","","true","0","80_20_practice","",""
"","bandit","21","272567","0.0-18.0-3.0","13959309","wem/bandit_party_2","A1A46CKE3F5JAJ","either","7","449","","","","","","","1","0","0","0.8","","0.5","0.5","","","","","","","0.8","0.2","","","","","","","","","","","","74","J","0","img/none_selected_demo.jpg","true","0","80_20_practice","",""
"","bandit","22","275014","0.0-18.0-4.0","13959309","wem/bandit_party_2","A1A46CKE3F5JAJ","either","7","937","","","","","","","0","1","0","","0.2","0.5","0.5","","","0.8","0.2","","","","","","","","","","","","","","","","75","K","1","","true","0","80_20_practice","",""
"","bandit","23","277196","0.0-18.0-5.0","13959309","wem/bandit_party_2","A1A46CKE3F5JAJ","either","7","669","","","","","","","0","0","1","","0.8","0.5","0.5","","","0.8","0.2","","","","","","","","","","","","","","","","74","J","0","img/none_selected_demo.jpg","true","0","80_20_practice","",""
"","bandit","24","279090","0.0-18.0-6.0","13959309","wem/bandit_party_2","A1A46CKE3F5JAJ","either","7","384","","","","","","","0","1","0","","0.2","0.5","0.5","","","0.8","0.2","","","","","","","","","","","","","","","","75","K","1","","true","0","80_20_practice","",""
"","bandit","25","280972","0.0-18.0-7.0","13959309","wem/bandit_party_2","A1A46CKE3F5JAJ","either","7","373","","","","","","","1","0","0","0.8","","0.5","0.5","","","","","","","0.8","0.2","","","","","","","","","","","","74","J","0","img/none_selected_demo.jpg","true","0","80_20_practice","",""
"","bandit","26","284667","0.0-18.0-8.0","13959309","wem/bandit_party_2","A1A46CKE3F5JAJ","either","7","2184","","","","","","","1","0","0","0.8","","0.5","0.5","","","","","","","0.8","0.2","","","","","","","","","","","","74","J","0","img/none_selected_demo.jpg","true","0","80_20_practice","",""
"","bandit","27","286724","0.0-18.0-9.0","13959309","wem/bandit_party_2","A1A46CKE3F5JAJ","either","7","547","","","","","","","1","0","0","0.8","","0.5","0.5","","","","","","","0.8","0.2","","","","","","","","","","","","74","J","0","img/none_selected_demo.jpg","true","0","80_20_practice","",""
"","bandit","28","288627","0.0-18.0-10.0","13959309","wem/bandit_party_2","A1A46CKE3F5JAJ","either","7","394","","","","","","","1","0","0","0.8","","0.5","0.5","","","","","","","0.8","0.2","","","","","","","","","","","","74","J","0","img/none_selected_demo.jpg","true","0","80_20_practice","",""
"","bandit","29","290521","0.0-18.0-11.0","13959309","wem/bandit_party_2","A1A46CKE3F5JAJ","either","7","381","","","","","","","0","1","0","","0.8","0.5","0.5","","","0.8","0.2","","","","","","","","","","","","","","","","74","J","0","img/none_selected_demo.jpg","true","0","80_20_practice","",""
"","bandit","30","292469","0.0-18.0-12.0","13959309","wem/bandit_party_2","A1A46CKE3F5JAJ","either","7","437","","","","","","","0","0","1","0.2","","0.5","0.5","","","","","","","0.8","0.2","","","","","","","","","","","","75","K","1","","true","0","80_20_practice","",""
"","bandit","31","294382","0.0-18.0-13.0","13959309","wem/bandit_party_2","A1A46CKE3F5JAJ","either","7","401","","","","","","","0","0","1","0.8","","0.5","0.5","","","","","","","0.8","0.2","","","","","","","","","","","","74","J","0","img/none_selected_demo.jpg","true","0","80_20_practice","",""
"","bandit","32","298698","0.0-18.0-14.0","13959309","wem/bandit_party_2","A1A46CKE3F5JAJ","either","7","2804","","","","","","","0","0","1","","0.2","0.5","0.5","","","0.8","0.2","","","","","","","","","","","","","","","","75","K","1","","true","0","80_20_practice","",""
"","bandit","33","301016","0.0-18.0-15.0","13959309","wem/bandit_party_2","A1A46CKE3F5JAJ","either","7","807","","","","","","","0","1","0","","0.8","0.5","0.5","","","0.8","0.2","","","","","","","","","","","","","","","","74","J","0","img/none_selected_demo.jpg","true","0","80_20_practice","",""
"","bandit","34","303256","0.0-18.0-16.0","13959309","wem/bandit_party_2","A1A46CKE3F5JAJ","either","7","730","","","","","","","1","0","0","0.8","","0.5","0.5","","","","","","","0.8","0.2","","","","","","","","","","","","74","J","0","img/none_selected_demo.jpg","true","0","80_20_practice","",""
"","bandit","35","305325","0.0-18.0-17.0","13959309","wem/bandit_party_2","A1A46CKE3F5JAJ","either","7","558","","","","","","","0","1","0","","0.8","0.5","0.5","","","0.8","0.2","","","","","","","","","","","","","","","","74","J","0","img/none_selected_demo.jpg","true","0","80_20_practice","",""
"","bandit","36","307325","0.0-18.0-18.0","13959309","wem/bandit_party_2","A1A46CKE3F5JAJ","either","7","490","","","","","","","0","0","1","0.2","","0.5","0.5","","","","","","","0.8","0.2","","","","","","","","","","","","75","K","1","","true","0","80_20_practice","",""
"","bandit","37","309292","0.0-18.0-19.0","13959309","wem/bandit_party_2","A1A46CKE3F5JAJ","either","7","457","","","","","","","0","0","1","0.2","","0.5","0.5","","","","","","","0.8","0.2","","","","","","","","","","","","75","K","1","","true","0","80_20_practice","",""
"","text-replacement","38","313897","0.0-19.0","13959309","wem/bandit_party_2","A1A46CKE3F5JAJ","either","7","4600","","","32","","","","","","","","","","","","","","","","","","","","","","","","","","","","","","","","","","","","","",""
"","bandit","39","317466","0.0-20.0-0.0","13959309","wem/bandit_party_2","A1A46CKE3F5JAJ","either","7","2058","","","","","","","1","0","0","1","0","","","","","0","1","","","1","0","","","","","","","","","","","","74","J","0","img/none_selected_demo.jpg","true","0","","",""
"","text-replacement","40","320112","0.0-21.0","13959309","wem/bandit_party_2","A1A46CKE3F5JAJ","either","7","2640","","","32","","","","","","","","","","","","","","","","","","","","","","","","","","","","","","","","","","","","","",""
"","text-replacement","41","325689","0.0-22.0","13959309","wem/bandit_party_2","A1A46CKE3F5JAJ","either","7","5571","","","32","","","","","","","","","","","","","","","","","","","","","","","","","","","","","","","","","","","","","",""
"","text-replacement","42","328673","0.0-23.0","13959309","wem/bandit_party_2","A1A46CKE3F5JAJ","either","7","2980","","","32","","","","","","","","","","","","","","","","","","","","","","","","","","","","","","","","","","","","","",""
"","text-replacement","43","330797","0.0-24.0","13959309","wem/bandit_party_2","A1A46CKE3F5JAJ","either","7","2119","","","32","","","","","","","","","","","","","","","","","","","","","","","","","","","","","","","","","","","","","",""
"","text-replacement","44","331390","0.0-25.0","13959309","wem/bandit_party_2","A1A46CKE3F5JAJ","either","7","590","","","32","","","","","","","","","","","","","","","","","","","","","","","","","","","","","","","","","","","","","",""
"","text-replacement","45","331811","0.0-26.0","13959309","wem/bandit_party_2","A1A46CKE3F5JAJ","either","7","416","","","32","","","","","","","","","","","","","","","","","","","","","","","","","","","","","","","","","","","","","",""
"","text-replacement","46","332144","0.0-27.0","13959309","wem/bandit_party_2","A1A46CKE3F5JAJ","either","7","329","","","32","","","","","","","","","","","","","","","","","","","","","","","","","","","","","","","","","","","","","",""
"","text-replacement","47","332508","0.0-28.0","13959309","wem/bandit_party_2","A1A46CKE3F5JAJ","either","7","360","","","32","","","","","","","","","","","","","","","","","","","","","","","","","","","","","","","","","","","","","",""
"","text-replacement","48","332836","0.0-29.0","13959309","wem/bandit_party_2","A1A46CKE3F5JAJ","either","7","323","","","32","","","","","","","","","","","","","","","","","","","","","","","","","","","","","","","","","","","","","",""
"","text-replacement","49","333110","0.0-30.0","13959309","wem/bandit_party_2","A1A46CKE3F5JAJ","either","7","269","","","32","","","","","","","","","","","","","","","","","","","","","","","","","","","","","","","","","","","","","",""
"","text-replacement","50","333382","0.0-31.0","13959309","wem/bandit_party_2","A1A46CKE3F5JAJ","either","7","268","","","32","","","","","","","","","","","","","","","","","","","","","","","","","","","","","","","","","","","","","",""
"","bandit","51","336951","0.0-32.0-0.0","13959309","wem/bandit_party_2","A1A46CKE3F5JAJ","either","7","2057","","","","","","","1","0","0","0.8","","0.5","0.5","0.5","0.5","","","","","0.8","0.2","0.6","0.2","","","","","","","","","","72","H","0","img/none_selected.jpg","true","0","full_practice","",""
"","bandit","52","339720","0.0-32.0-1.0","13959309","wem/bandit_party_2","A1A46CKE3F5JAJ","either","7","1257","","","","","","","0","0","1","","0.6","0.5","0.5","0.5","0.5","0.8","0.2","0.6","0.2","","","","","","","","","","","","","","75","K","2","","true","0","full_practice","",""
"","bandit","53","341664","0.0-32.0-2.0","13959309","wem/bandit_party_2","A1A46CKE3F5JAJ","either","7","430","","","","","","","0","0","1","0.8","","0.5","0.5","0.5","0.5","","","","","0.8","0.2","0.6","0.2","","","","","","","","","","72","H","0","img/none_selected.jpg","true","0","full_practice","",""
"","bandit","54","343560","0.0-32.0-3.0","13959309","wem/bandit_party_2","A1A46CKE3F5JAJ","either","7","383","","","","","","","0","1","0","","0.2","0.5","0.5","0.5","0.5","0.8","0.2","0.6","0.2","","","","","","","","","","","","","","76","L","3","","true","0","full_practice","",""
"","bandit","55","345517","0.0-32.0-4.0","13959309","wem/bandit_party_2","A1A46CKE3F5JAJ","either","7","446","","","","","","","0","0","1","","0.2","0.5","0.5","0.5","0.5","0.8","0.2","0.6","0.2","","","","","","","","","","","","","","74","J","1","","true","0","full_practice","",""
"","bandit","56","347110","0.0-32.0-5.0","13959309","wem/bandit_party_2","A1A46CKE3F5JAJ","either","7","78","","","","","","","1","0","0","0.8","","0.5","0.5","0.5","0.5","","","","","0.8","0.2","0.6","0.2","","","","","","","","","","72","H","0","img/none_selected.jpg","true","0","full_practice","",""
"","bandit","57","349414","0.0-32.0-6.0","13959309","wem/bandit_party_2","A1A46CKE3F5JAJ","either","7","793","","","","","","","1","0","0","0.8","","0.5","0.5","0.5","0.5","","","","","0.8","0.2","0.6","0.2","","","","","","","","","","72","H","0","img/none_selected.jpg","true","0","full_practice","",""
"","bandit","58","351270","0.0-32.0-7.0","13959309","wem/bandit_party_2","A1A46CKE3F5JAJ","either","7","343","","","","","","","1","0","0","0.8","","0.5","0.5","0.5","0.5","","","","","0.8","0.2","0.6","0.2","","","","","","","","","","72","H","0","img/none_selected.jpg","true","0","full_practice","",""
"","bandit","59","353022","0.0-32.0-8.0","13959309","wem/bandit_party_2","A1A46CKE3F5JAJ","either","7","241","","","","","","","1","0","0","0.8","","0.5","0.5","0.5","0.5","","","","","0.8","0.2","0.6","0.2","","","","","","","","","","72","H","0","img/none_selected.jpg","true","0","full_practice","",""
"","bandit","60","354618","0.0-32.0-9.0","13959309","wem/bandit_party_2","A1A46CKE3F5JAJ","either","7","85","","","","","","","1","0","0","0.8","","0.5","0.5","0.5","0.5","","","","","0.8","0.2","0.6","0.2","","","","","","","","","","72","H","0","img/none_selected.jpg","true","0","full_practice","",""
"","bandit","61","356170","0.0-32.0-10.0","13959309","wem/bandit_party_2","A1A46CKE3F5JAJ","either","7","41","","","","","","","1","0","0","0.8","","0.5","0.5","0.5","0.5","","","","","0.8","0.2","0.6","0.2","","","","","","","","","","72","H","0","img/none_selected.jpg","true","0","full_practice","",""
"","bandit","62","357796","0.0-32.0-11.0","13959309","wem/bandit_party_2","A1A46CKE3F5JAJ","either","7","113","","","","","","","0","1","0","","0.8","0.5","0.5","0.5","0.5","0.8","0.2","0.6","0.2","","","","","","","","","","","","","","72","H","0","img/none_selected.jpg","true","0","full_practice","",""
"","bandit","63","359609","0.0-32.0-12.0","13959309","wem/bandit_party_2","A1A46CKE3F5JAJ","either","7","301","","","","","","","0","1","0","","0.8","0.5","0.5","0.5","0.5","0.8","0.2","0.6","0.2","","","","","","","","","","","","","","72","H","0","img/none_selected.jpg","true","0","full_practice","",""
"","bandit","64","361352","0.0-32.0-13.0","13959309","wem/bandit_party_2","A1A46CKE3F5JAJ","either","7","232","","","","","","","0","0","1","0.2","","0.5","0.5","0.5","0.5","","","","","0.8","0.2","0.6","0.2","","","","","","","","","","74","J","1","","true","0","full_practice","",""
"","bandit","65","362904","0.0-32.0-14.0","13959309","wem/bandit_party_2","A1A46CKE3F5JAJ","either","7","40","","","","","","","0","1","0","","0.6","0.5","0.5","0.5","0.5","0.8","0.2","0.6","0.2","","","","","","","","","","","","","","75","K","2","","true","0","full_practice","",""
"","bandit","66","364836","0.0-32.0-15.0","13959309","wem/bandit_party_2","A1A46CKE3F5JAJ","either","7","419","","","","","","","0","0","1","","0.2","0.5","0.5","0.5","0.5","0.8","0.2","0.6","0.2","","","","","","","","","","","","","","76","L","3","","true","0","full_practice","",""
"","bandit","67","366427","0.0-32.0-16.0","13959309","wem/bandit_party_2","A1A46CKE3F5JAJ","either","7","79","","","","","","","1","0","0","0.8","","0.5","0.5","0.5","0.5","","","","","0.8","0.2","0.6","0.2","","","","","","","","","","72","H","0","img/none_selected.jpg","true","0","full_practice","",""
"","bandit","68","368309","0.0-32.0-17.0","13959309","wem/bandit_party_2","A1A46CKE3F5JAJ","either","7","371","","","","","","","0","0","1","0.8","","0.5","0.5","0.5","0.5","","","","","0.8","0.2","0.6","0.2","","","","","","","","","","72","H","0","img/none_selected.jpg","true","0","full_practice","",""
"","bandit","69","370256","0.0-32.0-18.0","13959309","wem/bandit_party_2","A1A46CKE3F5JAJ","either","7","434","","","","","","","0","1","0","","0.8","0.5","0.5","0.5","0.5","0.8","0.2","0.6","0.2","","","","","","","","","","","","","","72","H","0","img/none_selected.jpg","true","0","full_practice","",""
"","bandit","70","372187","0.0-32.0-19.0","13959309","wem/bandit_party_2","A1A46CKE3F5JAJ","either","7","420","","","","","","","0","0","1","0.2","","0.5","0.5","0.5","0.5","","","","","0.8","0.2","0.6","0.2","","","","","","","","","","76","L","3","","true","0","full_practice","",""
"","text","71","377496","0.0-33.0","13959309","wem/bandit_party_2","A1A46CKE3F5JAJ","either","7","5288","","","32","","","","","","","","","","","","","","","","","","","","","","","","","","","","","","","","","","","","","",""
"","text-replacement","72","390960","0.0-34.0","13959309","wem/bandit_party_2","A1A46CKE3F5JAJ","either","7","12457","","","32","","","","","","","","","","","","","","","","","","","","","","","","","","","","","","","","","","","","","",""
"","text-replacement","73","392612","0.0-35.0","13959309","wem/bandit_party_2","A1A46CKE3F5JAJ","either","7","1646","","","32","","","","","","","","","","","","","","","","","","","","","","","","","","","","","","","","","","","","","",""
"","text-replacement","74","393398","0.0-36.0","13959309","wem/bandit_party_2","A1A46CKE3F5JAJ","either","7","780","","","32","","","","","","","","","","","","","","","","","","","","","","","","","","","","","","","","","","","","","",""
"","text-replacement","75","393808","0.0-37.0","13959309","wem/bandit_party_2","A1A46CKE3F5JAJ","either","7","403","","","32","","","","","","","","","","","","","","","","","","","","","","","","","","","","","","","","","","","","","",""
"","text-replacement","76","394133","0.0-38.0","13959309","wem/bandit_party_2","A1A46CKE3F5JAJ","either","7","320","","","32","","","","","","","","","","","","","","","","","","","","","","","","","","","","","","","","","","","","","",""
"","survey-multi-choice-replacement","77","400624","0.0-39.0-0.0","13959309","wem/bandit_party_2","A1A46CKE3F5JAJ","either","7","6471","","","","","","","","","","","","","","","","","","","","","","","","Money will be added to the pool for <span style='color:red;'>REPUBLICANS</span>","","","","","","","attn_check","","","","","","","","","0",""
"","survey-multi-choice-replacement","78","404989","0.0-40.0-0.0","13959309","wem/bandit_party_2","A1A46CKE3F5JAJ","either","7","3342","","","","","","","","","","","","","","","","","","","","","","","","Money will be subtracted from the pool for <span style='color:blue;'>DEMOCRATS</span>","","","","","","","attn_check","","","","","","","","","1",""
"","instructions","79","407909","0.0-40.0-1.0-0.0","13959309","wem/bandit_party_2","A1A46CKE3F5JAJ","either","7","1909","","","","","","","","","","","","","","","","","","","","","","","","","","","","","","","","","","","","","","","","","[{""page_index"":0,""viewing_time"":1908}]"
"","survey-multi-choice-replacement","80","413183","0.0-40.1-0.1","13959309","wem/bandit_party_2","A1A46CKE3F5JAJ","either","7","4255","","","","","","","","","","","","","","","","","","","","","","","","Equal amounts of money will be added to the pool for <span style='color:red;'>REPUBLICANS</span> and subtracted from the pool for <span style='color:blue;'>DEMOCRATS</span>","","","","","","","attn_check","","","","","","","","","2",""
"","survey-multi-choice-replacement","81","416936","0.0-41.0-0.0","13959309","wem/bandit_party_2","A1A46CKE3F5JAJ","either","7","2730","","","","","","","","","","","","","","","","","","","","","","","","No money will be added to either pool","","","","","","","attn_check","","","","","","","","","3",""
"","bandit","82","421020","0.0-42.0-0.0","13959309","wem/bandit_party_2","A1A46CKE3F5JAJ","either","7","1564","","","","","","","1","0","0","0.7088318221","","0.8","0.2","0.4","0.6","","","","","0.7088318221","0.1731741302","0.2888626749","0.5514722813","","","","","","","","","","72","H","0","img/none_selected.jpg","","1","main_expt","",""
"","bandit","83","423386","0.0-43.0-0.0","13959309","wem/bandit_party_2","A1A46CKE3F5JAJ","either","7","851","","","","","","","0","1","0","","0.6292935488","0.8","0.2","0.4","0.6","0.6292935488","0.2874485847","0.3999538902","0.5039303977","","","","","","","","","","","","","","72","H","0","img/none_selected.jpg","","2","main_expt","",""
"","bandit","84","425908","0.0-44.0-0.0","13959309","wem/bandit_party_2","A1A46CKE3F5JAJ","either","7","1010","","","","","","","0","0","1","0.5285482983","","0.8","0.2","0.4","0.6","","","","","0.5285482983","0.2683250969","0.4126831114","0.5527877924","","","","","","","","","","72","H","0","img/none_selected.jpg","","3","main_expt","",""
"","bandit","85","428977","0.0-45.0-0.0","13959309","wem/bandit_party_2","A1A46CKE3F5JAJ","either","7","1554","","","","","","","0","1","0","","0.3988631097","0.8","0.2","0.4","0.6","0.6744491701","0.3988631097","0.3923803367","0.6336700584","","","","","","","","","","","","","","74","J","1","","","4","main_expt","",""
"","bandit","86","432213","0.0-46.0-0.0","13959309","wem/bandit_party_2","A1A46CKE3F5JAJ","either","7","1725","","","","","","","0","1","0","","0.3803283439","0.8","0.2","0.4","0.6","0.7922285807","0.3568799457","0.3803283439","0.6340088104","","","","","","","","","","","","","","75","K","2","","","5","main_expt","",""
"","bandit","87","434293","0.0-47.0-0.0","13959309","wem/bandit_party_2","A1A46CKE3F5JAJ","either","7","566","","","","","","","1","0","0","0.7459441126","","0.8","0.2","0.4","0.6","","","","","0.7459441126","0.3188731731","0.4214296899","0.5784181907","","","","","","","","","","72","H","0","img/none_selected.jpg","","6","main_expt","",""
"","bandit","88","437434","0.0-48.0-0.0","13959309","wem/bandit_party_2","A1A46CKE3F5JAJ","either","7","1622","","","","","","","1","0","0","0.7681481668","","0.8","0.2","0.4","0.6","","","","","0.7681481668","0.4574196012","0.4755968838","0.6727083857","","","","","","","","","","72","H","0","img/none_selected.jpg","","7","main_expt","",""
"","bandit","89","441831","0.0-49.0-0.0","13959309","wem/bandit_party_2","A1A46CKE3F5JAJ","either","7","2884","","","","","","","0","0","1","0.7251609313","","0.8","0.2","0.4","0.6","","","","","0.7251609313","0.5037884951","0.5353568537","0.7574508858","","","","","","","","","","72","H","0","img/none_selected.jpg","","8","main_expt","",""
"","bandit","90","447283","0.0-50.0-0.0","13959309","wem/bandit_party_2","A1A46CKE3F5JAJ","either","7","3940","","","","","","","1","0","0","0.7403055102","","0.8","0.2","0.4","0.6","","","","","0.7403055102","0.5750013994","0.6246831942","0.8280759311","","","","","","","","","","72","H","0","img/none_selected.jpg","","9","main_expt","",""
"","bandit","91","460975","0.0-51.0-0.0","13959309","wem/bandit_party_2","A1A46CKE3F5JAJ","either","7","12178","","","","","","","0","0","1","0.722944265","","0.8","0.2","0.4","0.6","","","","","0.722944265","0.5399040382","0.4475954046","0.859726102","","","","","","","","","","72","H","0","img/none_selected.jpg","","10","main_expt","",""
"","bandit","92","465103","0.0-52.0-0.0","13959309","wem/bandit_party_2","A1A46CKE3F5JAJ","either","7","2614","","","","","","","1","0","0","0.6833847698","","0.8","0.2","0.4","0.6","","","","","0.6833847698","0.5181098662","0.4514702697","0.877956501","","","","","","","","","","72","H","0","img/none_selected.jpg","","11","main_expt","",""
"","bandit","93","468394","0.0-53.0-0.0","13959309","wem/bandit_party_2","A1A46CKE3F5JAJ","either","7","1777","","","","","","","0","0","1","0.689227163","","0.8","0.2","0.4","0.6","","","","","0.689227163","0.5489165229","0.4873058782","0.8883669707","","","","","","","","","","72","H","0","img/none_selected.jpg","","12","main_expt","",""
"","bandit","94","469931","0.0-54.0-0.0","13959309","wem/bandit_party_2","A1A46CKE3F5JAJ","either","7","23","","","","","","","0","1","0","","0.6186986429","0.8","0.2","0.4","0.6","0.5178623456","0.6186986429","0.4862469224","0.817149195","","","","","","","","","","","","","","74","J","1","","","13","main_expt","",""
"","bandit","95","471817","0.0-55.0-0.0","13959309","wem/bandit_party_2","A1A46CKE3F5JAJ","either","7","372","","","","","","","0","1","0","","0.360908092","0.8","0.2","0.4","0.6","0.4768489018","0.4944095791","0.360908092","0.8589139609","","","","","","","","","","","","","","75","K","2","","","14","main_expt","",""
"","bandit","96","473372","0.0-56.0-0.0","13959309","wem/bandit_party_2","A1A46CKE3F5JAJ","either","7","41","","","","","","","1","0","0","0.5201849276","","0.8","0.2","0.4","0.6","","","","","0.5201849276","0.4820951366","0.4126647893","0.7955781648","","","","","","","","","","72","H","0","img/none_selected.jpg","","15","main_expt","",""
"","bandit","97","476416","0.0-57.0-0.0","13959309","wem/bandit_party_2","A1A46CKE3F5JAJ","either","7","1527","","","","","","","1","0","0","0.6862231469","","0.8","0.2","0.4","0.6","","","","","0.6862231469","0.4888848296","0.4930686601","0.8864445785","","","","","","","","","","72","H","0","img/none_selected.jpg","","16","main_expt","",""
"","bandit","98","481300","0.0-58.0-0.0","13959309","wem/bandit_party_2","A1A46CKE3F5JAJ","either","7","3373","","","","","","","0","1","0","","0.7297328357","0.8","0.2","0.4","0.6","0.7297328357","0.381306026","0.5162343008","0.8746062981","","","","","","","","","","","","","","72","H","0","img/none_selected.jpg","","17","main_expt","",""
"","bandit","99","484206","0.0-59.0-0.0","13959309","wem/bandit_party_2","A1A46CKE3F5JAJ","either","7","1395","","","","","","","0","0","1","0.6686287009","","0.8","0.2","0.4","0.6","","","","","0.6686287009","0.3537135189","0.5627456494","0.8910236512","","","","","","","","","","72","H","0","img/none_selected.jpg","","18","main_expt","",""
"","bandit","100","485990","0.0-60.0-0.0","13959309","wem/bandit_party_2","A1A46CKE3F5JAJ","either","7","270","","","","","","","0","0","1","0.7885428456","","0.8","0.2","0.4","0.6","","","","","0.7885428456","0.4891458502","0.4478227807","0.8932054573","","","","","","","","","","72","H","0","img/none_selected.jpg","","19","main_expt","",""
"","bandit","101","489387","0.0-61.0-0.0","13959309","wem/bandit_party_2","A1A46CKE3F5JAJ","either","7","1883","","","","","","","1","0","0","0.5306796692","","0.8","0.2","0.4","0.6","","","","","0.7442236049","0.5440957398","0.5306796692","0.8900063933","","","","","","","","","","75","K","2","","","20","main_expt","",""
"","bandit","102","491688","0.0-62.0-0.0","13959309","wem/bandit_party_2","A1A46CKE3F5JAJ","either","7","786","","","","","","","0","1","0","","0.7908218503","0.8","0.2","0.4","0.6","0.7908218503","0.5621313733","0.5423611418","0.8748704397","","","","","","","","","","","","","","72","H","0","img/none_selected.jpg","","21","main_expt","",""
"","bandit","103","493645","0.0-63.0-0.0","13959309","wem/bandit_party_2","A1A46CKE3F5JAJ","either","7","443","","","","","","","0","0","1","0.4190568807","","0.8","0.2","0.4","0.6","","","","","0.7163236006","0.5296345876","0.4190568807","0.8498769136","","","","","","","","","","75","K","2","","","22","main_expt","",""
"","bandit","104","495652","0.0-64.0-0.0","13959309","wem/bandit_party_2","A1A46CKE3F5JAJ","either","7","494","","","","","","","1","0","0","0.7061190667","","0.8","0.2","0.4","0.6","","","","","0.7061190667","0.5187107172","0.4329937009","0.8357449374","","","","","","","","","","72","H","0","img/none_selected.jpg","","23","main_expt","",""
"","bandit","105","505020","0.0-65.0-0.0","13959309","wem/bandit_party_2","A1A46CKE3F5JAJ","either","7","7853","","","","","","","0","0","1","0.7470556917","","0.8","0.2","0.4","0.6","","","","","0.7470556917","0.6000521927","0.4298879426","0.8431908073","","","","","","","","","","72","H","0","img/none_selected.jpg","","24","main_expt","",""
"","bandit","106","513128","0.0-66.0-0.0","13959309","wem/bandit_party_2","A1A46CKE3F5JAJ","either","7","6595","","","","","","","1","0","0","0.8154180688","","0.8","0.2","0.4","0.6","","","","","0.8154180688","0.5443047256","0.2992323157","0.8741885854","","","","","","","","","","72","H","0","img/none_selected.jpg","","25","main_expt","",""
"","bandit","107","518054","0.0-67.0-0.0","13959309","wem/bandit_party_2","A1A46CKE3F5JAJ","either","7","3411","","","","","","","1","0","0","0.8395379789","","0.8","0.2","0.4","0.6","","","","","0.8395379789","0.592493964","0.3857263224","0.8940719671","","","","","","","","","","72","H","0","img/none_selected.jpg","","26","main_expt","",""
"","bandit","108","520875","0.0-68.0-0.0","13959309","wem/bandit_party_2","A1A46CKE3F5JAJ","either","7","1307","","","","","","","0","0","1","0.8023078409","","0.8","0.2","0.4","0.6","","","","","0.8023078409","0.5779569403","0.3715251318","0.8733378856","","","","","","","","","","72","H","0","img/none_selected.jpg","","27","main_expt","",""
"","bandit","109","529628","0.0-69.0-0.0","13959309","wem/bandit_party_2","A1A46CKE3F5JAJ","either","7","7239","","","","","","","1","0","0","0.8248968235","","0.8","0.2","0.4","0.6","","","","","0.8248968235","0.7077223562","0.3387808014","0.8695586723","","","","","","","","","","72","H","0","img/none_selected.jpg","","28","main_expt","",""
"","bandit","110","536877","0.0-70.0-0.0","13959309","wem/bandit_party_2","A1A46CKE3F5JAJ","either","7","5736","","","","","","","1","0","0","0.3737397218","","0.8","0.2","0.4","0.6","","","","","0.8621011303","0.7070353494","0.3737397218","0.7908290088","","","","","","","","","","75","K","2","","","29","main_expt","",""
"","bandit","111","540034","0.0-71.0-0.0","13959309","wem/bandit_party_2","A1A46CKE3F5JAJ","either","7","1644","","","","","","","1","0","0","0.8873668535","","0.8","0.2","0.4","0.6","","","","","0.8873668535","0.6585428656","0.3232047389","0.8518997755","","","","","","","","","","72","H","0","img/none_selected.jpg","","30","main_expt","",""
"","bandit","112","544260","0.0-72.0-0.0","13959309","wem/bandit_party_2","A1A46CKE3F5JAJ","either","7","2710","","","","","","","0","1","0","","0.9318975106","0.8","0.2","0.4","0.6","0.9318975106","0.6724088618","0.4130267239","0.8509842625","","","","","","","","","","","","","","72","H","0","img/none_selected.jpg","","31","main_expt","",""
"","bandit","113","548923","0.0-73.0-0.0","13959309","wem/bandit_party_2","A1A46CKE3F5JAJ","either","7","3149","","","","","","","0","1","0","","0.9013609786","0.8","0.2","0.4","0.6","0.9013609786","0.6416581209","0.4167758813","0.872996121","","","","","","","","","","","","","","72","H","0","img/none_selected.jpg","","32","main_expt","",""
"","bandit","114","551168","0.0-74.0-0.0","13959309","wem/bandit_party_2","A1A46CKE3F5JAJ","either","7","730","","","","","","","0","1","0","","0.4546052232","0.8","0.2","0.4","0.6","0.9041531295","0.7055802426","0.4546052232","0.8571046391","","","","","","","","","","","","","","75","K","2","","","33","main_expt","",""
"","bandit","115","555226","0.0-75.0-0.0","13959309","wem/bandit_party_2","A1A46CKE3F5JAJ","either","7","2543","","","","","","","1","0","0","0.7554114371","","0.8","0.2","0.4","0.6","","","","","0.9386104272","0.7554114371","0.5231803088","0.9175819521","","","","","","","","","","74","J","1","","","34","main_expt","",""
"","bandit","116","561678","0.0-76.0-0.0","13959309","wem/bandit_party_2","A1A46CKE3F5JAJ","either","7","4937","","","","","","","0","1","0","","0.9180645683","0.8","0.2","0.4","0.6","0.9180645683","0.8008095759","0.4661188593","0.9503165686","","","","","","","","","","","","","","72","H","0","img/none_selected.jpg","","35","main_expt","",""
"","bandit","117","565146","0.0-77.0-0.0","13959309","wem/bandit_party_2","A1A46CKE3F5JAJ","either","7","1954","","","","","","","0","1","0","","0.9095107155","0.8","0.2","0.4","0.6","0.9095107155","0.6925109639","0.4106027186","0.9327615424","","","","","","","","","","","","","","72","H","0","img/none_selected.jpg","","36","main_expt","",""
"","bandit","118","569926","0.0-78.0-0.0","13959309","wem/bandit_party_2","A1A46CKE3F5JAJ","either","7","3264","","","","","","","1","0","0","0.5021263718","","0.8","0.2","0.4","0.6","","","","","0.9405648028","0.7764255689","0.5021263718","0.9196494001","","","","","","","","","","75","K","2","","","37","main_expt","",""
"","bandit","119","578441","0.0-79.0-0.0","13959309","wem/bandit_party_2","A1A46CKE3F5JAJ","either","7","7001","","","","","","","0","1","0","","0.9058459248","0.8","0.2","0.4","0.6","0.9058459248","0.8392953971","0.5065313343","0.928530414","","","","","","","","","","","","","","72","H","0","img/none_selected.jpg","","38","main_expt","",""
"","bandit","120","581724","0.0-80.0-0.0","13959309","wem/bandit_party_2","A1A46CKE3F5JAJ","either","7","1767","","","","","","","0","0","1","","0.6098243774","0.8","0.2","0.4","0.6","0.8784462517","0.7614495855","0.6098243774","0.9001545702","","","","","","","","","","","","","","75","K","2","","","39","main_expt","",""
"","bandit","121","593080","0.0-81.0-0.0","13959309","wem/bandit_party_2","A1A46CKE3F5JAJ","either","7","9841","","","","","","","1","0","0","0.8408568766","","0.8","0.2","0.4","0.6","","","","","0.8408568766","0.8060705796","0.679699592","0.8432481254","","","","","","","","","","72","H","0","img/none_selected.jpg","","40","main_expt","",""
"","bandit","122","598819","0.0-82.0-0.0","13959309","wem/bandit_party_2","A1A46CKE3F5JAJ","either","7","4222","","","","","","","0","1","0","","0.616488607","0.8","0.2","0.4","0.6","0.811342849","0.7539991053","0.616488607","0.8326479564","","","","","","","","","","","","","","75","K","2","","","41","main_expt","",""
"","bandit","123","603901","0.0-83.0-0.0","13959309","wem/bandit_party_2","A1A46CKE3F5JAJ","either","7","3567","","","","","","","0","0","1","0.8058808774","","0.8","0.2","0.4","0.6","","","","","0.8058808774","0.7717369324","0.6307104111","0.8602810298","","","","","","","","","","72","H","0","img/none_selected.jpg","","42","main_expt","",""
"","bandit","124","606286","0.0-84.0-0.0","13959309","wem/bandit_party_2","A1A46CKE3F5JAJ","either","7","871","","","","","","","0","0","1","0.554567591","","0.8","0.2","0.4","0.6","","","","","0.7899844578","0.7625968551","0.554567591","0.894365654","","","","","","","","","","75","K","2","","","43","main_expt","",""
"","bandit","125","611621","0.0-85.0-0.0","13959309","wem/bandit_party_2","A1A46CKE3F5JAJ","either","7","3821","","","","","","","0","0","1","","0.7654486741","0.8","0.2","0.4","0.6","0.7654486741","0.8488621298","0.5281861223","0.9033664713","","","","","","","","","","","","","","72","H","0","img/none_selected.jpg","","44","main_expt","",""
"","bandit","126","613524","0.0-86.0-0.0","13959309","wem/bandit_party_2","A1A46CKE3F5JAJ","either","7","388","","","","","","","0","1","0","","0.7674111825","0.8","0.2","0.4","0.6","0.7674111825","0.8522077325","0.5043334007","0.8829964613","","","","","","","","","","","","","","72","H","0","img/none_selected.jpg","","45","main_expt","",""
"","bandit","127","615606","0.0-87.0-0.0","13959309","wem/bandit_party_2","A1A46CKE3F5JAJ","either","7","567","","","","","","","0","0","1","","0.5426256613","0.8","0.2","0.4","0.6","0.6301273516","0.8618589195","0.5426256613","0.8674694879","","","","","","","","","","","","","","75","K","2","","","46","main_expt","",""
"","bandit","128","617982","0.0-88.0-0.0","13959309","wem/bandit_party_2","A1A46CKE3F5JAJ","either","7","860","","","","","","","0","1","0","","0.5024796093","0.8","0.2","0.4","0.6","0.7885969413","0.905897833","0.5024796093","0.8886720039","","","","","","","","","","","","","","75","K","2","","","47","main_expt","",""
"","bandit","129","620207","0.0-89.0-0.0","13959309","wem/bandit_party_2","A1A46CKE3F5JAJ","either","7","711","","","","","","","1","0","0","0.7983786211","","0.8","0.2","0.4","0.6","","","","","0.7983786211","0.8929468812","0.4689138593","0.9229902905","","","","","","","","","","72","H","0","img/none_selected.jpg","","48","main_expt","",""
"","bandit","130","626639","0.0-90.0-0.0","13959309","wem/bandit_party_2","A1A46CKE3F5JAJ","either","7","4916","","","","","","","0","0","1","0.8249867574","","0.8","0.2","0.4","0.6","","","","","0.8249867574","0.854905512","0.4439560463","0.9141434128","","","","","","","","","","72","H","0","img/none_selected.jpg","","49","main_expt","",""
"","bandit","131","630876","0.0-91.0-0.0","13959309","wem/bandit_party_2","A1A46CKE3F5JAJ","either","7","2722","","","","","","","1","0","0","0.7532301684","","0.8","0.2","0.4","0.6","","","","","0.7532301684","0.8363103738","0.4079842927","0.9181160336","","","","","","","","","","72","H","0","img/none_selected.jpg","","50","main_expt","",""
"","bandit","132","636757","0.0-92.0-0.0","13959309","wem/bandit_party_2","A1A46CKE3F5JAJ","either","7","4364","","","","","","","0","0","1","0.6750909554","","0.8","0.2","0.4","0.6","","","","","0.6750909554","0.7168506975","0.4675199832","0.9266489825","","","","","","","","","","72","H","0","img/none_selected.jpg","","51","main_expt","",""
"","bandit","133","655749","0.0-93.0-0.0","13959309","wem/bandit_party_2","A1A46CKE3F5JAJ","either","7","17476","","","","","","","0","1","0","","0.6762079337","0.8","0.2","0.4","0.6","0.6762079337","0.6507986152","0.4368052975","0.9285581488","","","","","","","","","","","","","","72","H","0","img/none_selected.jpg","","52","main_expt","",""
"","bandit","134","660930","0.0-94.0-0.0","13959309","wem/bandit_party_2","A1A46CKE3F5JAJ","either","7","3664","","","","","","","1","0","0","0.4967902672","","0.8","0.2","0.4","0.6","","","","","0.7882030045","0.6531867096","0.4967902672","0.9171724481","","","","","","","","","","75","K","2","","","53","main_expt","",""
"","bandit","135","674863","0.0-95.0-0.0","13959309","wem/bandit_party_2","A1A46CKE3F5JAJ","either","7","12417","","","","","","","0","1","0","","0.8759533557","0.8","0.2","0.4","0.6","0.8759533557","0.6178049746","0.5321533453","0.8709862684","","","","","","","","","","","","","","72","H","0","img/none_selected.jpg","","54","main_expt","",""
"","bandit","136","680419","0.0-96.0-0.0","13959309","wem/bandit_party_2","A1A46CKE3F5JAJ","either","7","4038","","","","","","","1","0","0","0.593251847","","0.8","0.2","0.4","0.6","","","","","0.9307112091","0.5501477499","0.593251847","0.9016108676","","","","","","","","","","75","K","2","","","55","main_expt","",""
"","bandit","137","683445","0.0-97.0-0.0","13959309","wem/bandit_party_2","A1A46CKE3F5JAJ","either","7","1512","","","","","","","0","0","1","0.9486344027","","0.8","0.2","0.4","0.6","","","","","0.9486344027","0.5181914202","0.602347159","0.9123335035","","","","","","","","","","72","H","0","img/none_selected.jpg","","56","main_expt","",""
"","bandit","138","687002","0.0-98.0-0.0","13959309","wem/bandit_party_2","A1A46CKE3F5JAJ","either","7","2042","","","","","","","1","0","0","0.9450559811","","0.8","0.2","0.4","0.6","","","","","0.9450559811","0.5052283364","0.736851976","0.9338523698","","","","","","","","","","72","H","0","img/none_selected.jpg","","57","main_expt","",""
"","bandit","139","702263","0.0-99.0-0.0","13959309","wem/bandit_party_2","A1A46CKE3F5JAJ","either","7","13743","","","","","","","1","0","0","0.960587128","","0.8","0.2","0.4","0.6","","","","","0.960587128","0.4494585665","0.7112026436","0.9023069914","","","","","","","","","","72","H","0","img/none_selected.jpg","","58","main_expt","",""
"","bandit","140","703929","0.0-100.0-0.0","13959309","wem/bandit_party_2","A1A46CKE3F5JAJ","either","7","149","","","","","","","1","0","0","0.9272570312","","0.8","0.2","0.4","0.6","","","","","0.9272570312","0.4431029696","0.7605469626","0.903153386","","","","","","","","","","72","H","0","img/none_selected.jpg","","59","main_expt","",""
"","bandit","141","708306","0.0-101.0-0.0","13959309","wem/bandit_party_2","A1A46CKE3F5JAJ","either","7","2860","","","","","","","0","0","1","","0.6504737249","0.8","0.2","0.4","0.6","0.9075075979","0.4213069188","0.6504737249","0.8975643475","","","","","","","","","","","","","","75","K","2","","","60","main_expt","",""
"","bandit","142","713895","0.0-102.0-0.0","13959309","wem/bandit_party_2","A1A46CKE3F5JAJ","either","7","4074","","","","","","","1","0","0","0.9011961695","","0.8","0.2","0.4","0.6","","","","","0.9011961695","0.4735464544","0.7417300409","0.8455107238","","","","","","","","","","72","H","0","img/none_selected.jpg","","61","main_expt","",""
"","bandit","143","717796","0.0-103.0-0.0","13959309","wem/bandit_party_2","A1A46CKE3F5JAJ","either","7","2386","","","","","","","0","0","1","","0.6889655243","0.8","0.2","0.4","0.6","0.9025442902","0.4260239588","0.6889655243","0.8423106617","","","","","","","","","","","","","","75","K","2","","","62","main_expt","",""
"","bandit","144","720439","0.0-104.0-0.0","13959309","wem/bandit_party_2","A1A46CKE3F5JAJ","either","7","1129","","","","","","","1","0","0","0.900711875","","0.8","0.2","0.4","0.6","","","","","0.900711875","0.4048641732","0.7532165261","0.6997676278","","","","","","","","","","72","H","0","img/none_selected.jpg","","63","main_expt","",""
"","bandit","145","722868","0.0-105.0-0.0","13959309","wem/bandit_party_2","A1A46CKE3F5JAJ","either","7","914","","","","","","","1","0","0","0.8445511995","","0.8","0.2","0.4","0.6","","","","","0.8445511995","0.261135461","0.7614619666","0.8033841581","","","","","","","","","","72","H","0","img/none_selected.jpg","","64","main_expt","",""
"","bandit","146","725006","0.0-106.0-0.0","13959309","wem/bandit_party_2","A1A46CKE3F5JAJ","either","7","622","","","","","","","1","0","0","0.7838665633","","0.8","0.2","0.4","0.6","","","","","0.7838665633","0.4398785507","0.7474824059","0.8458775523","","","","","","","","","","72","H","0","img/none_selected.jpg","","65","main_expt","",""
"","bandit","147","733640","0.0-107.0-0.0","13959309","wem/bandit_party_2","A1A46CKE3F5JAJ","either","7","7116","","","","","","","1","0","0","0.8399866527","","0.8","0.2","0.4","0.6","","","","","0.8399866527","0.4549930047","0.7083026918","0.8612648572","","","","","","","","","","72","H","0","img/none_selected.jpg","","66","main_expt","",""
"","bandit","148","742467","0.0-108.0-0.0","13959309","wem/bandit_party_2","A1A46CKE3F5JAJ","either","7","7311","","","","","","","1","0","0","0.9109535201","","0.8","0.2","0.4","0.6","","","","","0.9109535201","0.5565794079","0.6535093674","0.8686018104","","","","","","","","","","72","H","0","img/none_selected.jpg","","67","main_expt","",""
"","bandit","149","749170","0.0-109.0-0.0","13959309","wem/bandit_party_2","A1A46CKE3F5JAJ","either","7","5186","","","","","","","1","0","0","0.9064065477","","0.8","0.2","0.4","0.6","","","","","0.9064065477","0.4211802827","0.4923739087","0.8693437115","","","","","","","","","","72","H","0","img/none_selected.jpg","","68","main_expt","",""
"","bandit","150","751418","0.0-110.0-0.0","13959309","wem/bandit_party_2","A1A46CKE3F5JAJ","either","7","731","","","","","","","1","0","0","0.9315833469","","0.8","0.2","0.4","0.6","","","","","0.9315833469","0.3687693293","0.4898097669","0.9168970181","","","","","","","","","","72","H","0","img/none_selected.jpg","","69","main_expt","",""
"","bandit","151","760923","0.0-111.0-0.0","13959309","wem/bandit_party_2","A1A46CKE3F5JAJ","either","7","7982","","","","","","","0","0","1","0.9393923483","","0.8","0.2","0.4","0.6","","","","","0.9393923483","0.3460903474","0.4369614599","0.9293527272","","","","","","","","","","72","H","0","img/none_selected.jpg","","70","main_expt","",""
"","bandit","152","763926","0.0-112.0-0.0","13959309","wem/bandit_party_2","A1A46CKE3F5JAJ","either","7","1485","","","","","","","1","0","0","0.9568343035","","0.8","0.2","0.4","0.6","","","","","0.9568343035","0.3278112836","0.5031037484","0.949087413","","","","","","","","","","72","H","0","img/none_selected.jpg","","71","main_expt","",""
"","bandit","153","766283","0.0-113.0-0.0","13959309","wem/bandit_party_2","A1A46CKE3F5JAJ","either","7","841","","","","","","","1","0","0","0.947758434","","0.8","0.2","0.4","0.6","","","","","0.947758434","0.2720469766","0.5397903688","0.906373323","","","","","","","","","","72","H","0","img/none_selected.jpg","","72","main_expt","",""
"","bandit","154","768675","0.0-114.0-0.0","13959309","wem/bandit_party_2","A1A46CKE3F5JAJ","either","7","874","","","","","","","1","0","0","0.9052010222","","0.8","0.2","0.4","0.6","","","","","0.9052010222","0.2451019773","0.5540652028","0.93965919","","","","","","","","","","72","H","0","img/none_selected.jpg","","73","main_expt","",""
"","bandit","155","770412","0.0-115.0-0.0","13959309","wem/bandit_party_2","A1A46CKE3F5JAJ","either","7","221","","","","","","","1","0","0","0.927704936","","0.8","0.2","0.4","0.6","","","","","0.927704936","0.2645862521","0.61733434","0.9416319858","","","","","","","","","","72","H","0","img/none_selected.jpg","","74","main_expt","",""
"","bandit","156","773711","0.0-116.0-0.0","13959309","wem/bandit_party_2","A1A46CKE3F5JAJ","either","7","1781","","","","","","","1","0","0","0.8769567517","","0.8","0.2","0.4","0.6","","","","","0.8769567517","0.2298582","0.6341908543","0.9535384208","","","","","","","","","","72","H","0","img/none_selected.jpg","","75","main_expt","",""
"","bandit","157","777682","0.0-117.0-0.0","13959309","wem/bandit_party_2","A1A46CKE3F5JAJ","either","7","2456","","","","","","","1","0","0","0.8456064169","","0.8","0.2","0.4","0.6","","","","","0.8456064169","0.3460043445","0.6355577018","0.9585479729","","","","","","","","","","72","H","0","img/none_selected.jpg","","76","main_expt","",""
"","bandit","158","779726","0.0-118.0-0.0","13959309","wem/bandit_party_2","A1A46CKE3F5JAJ","either","7","525","","","","","","","0","1","0","","0.8325595713","0.8","0.2","0.4","0.6","0.8325595713","0.2526488818","0.7055426269","0.9610253773","","","","","","","","","","","","","","72","H","0","img/none_selected.jpg","","77","main_expt","",""
"","bandit","159","781524","0.0-119.0-0.0","13959309","wem/bandit_party_2","A1A46CKE3F5JAJ","either","7","280","","","","","","","1","0","0","0.9128982172","","0.8","0.2","0.4","0.6","","","","","0.9128982172","0.2625396382","0.6137882531","0.9580320452","","","","","","","","","","72","H","0","img/none_selected.jpg","","78","main_expt","",""
"","bandit","160","783831","0.0-120.0-0.0","13959309","wem/bandit_party_2","A1A46CKE3F5JAJ","either","7","790","","","","","","","1","0","0","0.9213349282","","0.8","0.2","0.4","0.6","","","","","0.9213349282","0.2957535945","0.668392527","0.9403834825","","","","","","","","","","72","H","0","img/none_selected.jpg","","79","main_expt","",""
"","bandit","161","792826","0.0-121.0-0.0","13959309","wem/bandit_party_2","A1A46CKE3F5JAJ","either","7","7477","","","","","","","1","0","0","0.8935563746","","0.8","0.2","0.4","0.6","","","","","0.8935563746","0.1831261498","0.7457361895","0.946171157","","","","","","","","","","72","H","0","img/none_selected.jpg","","80","main_expt","",""
"","bandit","162","795481","0.0-122.0-0.0","13959309","wem/bandit_party_2","A1A46CKE3F5JAJ","either","7","1137","","","","","","","1","0","0","0.932831263","","0.8","0.2","0.4","0.6","","","","","0.932831263","0.1450659425","0.8028050151","0.9800092583","","","","","","","","","","72","H","0","img/none_selected.jpg","","81","main_expt","",""
"","bandit","163","798515","0.0-123.0-0.0","13959309","wem/bandit_party_2","A1A46CKE3F5JAJ","either","7","1517","","","","","","","1","0","0","0.9403650082","","0.8","0.2","0.4","0.6","","","","","0.9403650082","0.1486641529","0.8727424511","0.9666397243","","","","","","","","","","72","H","0","img/none_selected.jpg","","82","main_expt","",""
"","bandit","164","801993","0.0-124.0-0.0","13959309","wem/bandit_party_2","A1A46CKE3F5JAJ","either","7","1961","","","","","","","0","1","0","","0.9066396881","0.8","0.2","0.4","0.6","0.9066396881","0.1567811066","0.8283068274","0.9637330664","","","","","","","","","","","","","","72","H","0","img/none_selected.jpg","","83","main_expt","",""
"","bandit","165","807355","0.0-125.0-0.0","13959309","wem/bandit_party_2","A1A46CKE3F5JAJ","either","7","3843","","","","","","","0","1","0","","0.8962006295","0.8","0.2","0.4","0.6","0.8962006295","0.196091916","0.8030064341","0.9617949183","","","","","","","","","","","","","","72","H","0","img/none_selected.jpg","","84","main_expt","",""
"","bandit","166","873031","0.0-126.0-0.0","13959309","wem/bandit_party_2","A1A46CKE3F5JAJ","either","7","64160","","","","","","","0","1","0","","0.9093999993","0.8","0.2","0.4","0.6","0.9093999993","0.1512390112","0.8622567251","0.9561985801","","","","","","","","","","","","","","72","H","0","img/none_selected.jpg","","85","main_expt","",""
"","bandit","167","874647","0.0-127.0-0.0","13959309","wem/bandit_party_2","A1A46CKE3F5JAJ","either","7","96","","","","","","","1","0","0","0.9326862648","","0.8","0.2","0.4","0.6","","","","","0.9326862648","0.1486491559","0.896584634","0.9422505668","","","","","","","","","","72","H","0","img/none_selected.jpg","","86","main_expt","",""
"","bandit","168","877727","0.0-128.0-0.0","13959309","wem/bandit_party_2","A1A46CKE3F5JAJ","either","7","1563","","","","","","","1","0","0","0.9039434857","","0.8","0.2","0.4","0.6","","","","","0.9039434857","0.1047878604","0.9208758521","0.926711091","","","","","","","","","","72","H","0","img/none_selected.jpg","","87","main_expt","",""
"","bandit","169","879604","0.0-129.0-0.0","13959309","wem/bandit_party_2","A1A46CKE3F5JAJ","either","7","361","","","","","","","1","0","0","0.9195127861","","0.8","0.2","0.4","0.6","","","","","0.9195127861","0.07038149384","0.9266301883","0.9092576496","","","","","","","","","","72","H","0","img/none_selected.jpg","","88","main_expt","",""
"","bandit","170","882113","0.0-130.0-0.0","13959309","wem/bandit_party_2","A1A46CKE3F5JAJ","either","7","990","","","","","","","1","0","0","0.9225053559","","0.8","0.2","0.4","0.6","","","","","0.9225053559","0.1311535074","0.9259215542","0.8948591238","","","","","","","","","","72","H","0","img/none_selected.jpg","","89","main_expt","",""
"","bandit","171","883861","0.0-131.0-0.0","13959309","wem/bandit_party_2","A1A46CKE3F5JAJ","either","7","229","","","","","","","0","0","1","0.9014563988","","0.8","0.2","0.4","0.6","","","","","0.9014563988","0.1241310956","0.9400480964","0.8716727139","","","","","","","","","","72","H","0","img/none_selected.jpg","","90","main_expt","",""
"","bandit","172","887841","0.0-132.0-0.0","13959309","wem/bandit_party_2","A1A46CKE3F5JAJ","either","7","2465","","","","","","","1","0","0","0.9162570652","","0.8","0.2","0.4","0.6","","","","","0.9162570652","0.09664170694","0.8961855863","0.8969144331","","","","","","","","","","72","H","0","img/none_selected.jpg","","91","main_expt","",""
"","bandit","173","890951","0.0-133.0-0.0","13959309","wem/bandit_party_2","A1A46CKE3F5JAJ","either","7","1593","","","","","","","1","0","0","0.9171553871","","0.8","0.2","0.4","0.6","","","","","0.9171553871","0.09586364307","0.9211437923","0.9171199264","","","","","","","","","","72","H","0","img/none_selected.jpg","","92","main_expt","",""
"","bandit","174","892739","0.0-134.0-0.0","13959309","wem/bandit_party_2","A1A46CKE3F5JAJ","either","7","270","","","","","","","1","0","0","0.9463284029","","0.8","0.2","0.4","0.6","","","","","0.9463284029","0.08304118766","0.8947860396","0.9593171332","","","","","","","","","","72","H","0","img/none_selected.jpg","","93","main_expt","",""
"","bandit","175","894395","0.0-135.0-0.0","13959309","wem/bandit_party_2","A1A46CKE3F5JAJ","either","7","136","","","","","","","1","0","0","0.9477079066","","0.8","0.2","0.4","0.6","","","","","0.9477079066","0.1222865453","0.822540961","0.959226596","","","","","","","","","","72","H","0","img/none_selected.jpg","","94","main_expt","",""
"","bandit","176","895948","0.0-136.0-0.0","13959309","wem/bandit_party_2","A1A46CKE3F5JAJ","either","7","33","","","","","","","1","0","0","0.9474919074","","0.8","0.2","0.4","0.6","","","","","0.9474919074","0.211460517","0.8288041746","0.947105423","","","","","","","","","","72","H","0","img/none_selected.jpg","","95","main_expt","",""
"","bandit","177","897583","0.0-137.0-0.0","13959309","wem/bandit_party_2","A1A46CKE3F5JAJ","either","7","120","","","","","","","1","0","0","0.9722490369","","0.8","0.2","0.4","0.6","","","","","0.9722490369","0.2757920232","0.8217366877","0.937205139","","","","","","","","","","72","H","0","img/none_selected.jpg","","96","main_expt","",""
"","bandit","178","899120","0.0-138.0-0.0","13959309","wem/bandit_party_2","A1A46CKE3F5JAJ","either","7","20","","","","","","","0","1","0","","0.980822097","0.8","0.2","0.4","0.6","0.980822097","0.2646876298","0.725285089","0.9472767204","","","","","","","","","","","","","","72","H","0","img/none_selected.jpg","","97","main_expt","",""
"","bandit","179","900641","0.0-139.0-0.0","13959309","wem/bandit_party_2","A1A46CKE3F5JAJ","either","7","2","","","","","","","0","1","0","","0.9761591307","0.8","0.2","0.4","0.6","0.9761591307","0.3278454636","0.7958966199","0.962959595","","","","","","","","","","","","","","72","H","0","img/none_selected.jpg","","98","main_expt","",""
"","bandit","180","904070","0.0-140.0-0.0","13959309","wem/bandit_party_2","A1A46CKE3F5JAJ","either","7","1912","","","","","","","0","1","0","","0.9597391097","0.8","0.2","0.4","0.6","0.9597391097","0.4641870332","0.7741840332","0.9720903607","","","","","","","","","","","","","","72","H","0","img/none_selected.jpg","","99","main_expt","",""
"","bandit","181","905853","0.0-141.0-0.0","13959309","wem/bandit_party_2","A1A46CKE3F5JAJ","either","7","267","","","","","","","0","1","0","","0.9557148533","0.8","0.2","0.4","0.6","0.9557148533","0.3972344865","0.7934767162","0.9737169538","","","","","","","","","","","","","","72","H","0","img/none_selected.jpg","","100","main_expt","",""
"","bandit","182","907493","0.0-142.0-0.0","13959309","wem/bandit_party_2","A1A46CKE3F5JAJ","either","7","119","","","","","","","0","1","0","","0.8307638242","0.8","0.2","0.4","0.6","0.9687934467","0.4395304924","0.8307638242","0.986468331","","","","","","","","","","","","","","75","K","2","","","101","main_expt","",""
"","bandit","183","909173","0.0-143.0-0.0","13959309","wem/bandit_party_2","A1A46CKE3F5JAJ","either","7","163","","","","","","","1","0","0","0.9713318577","","0.8","0.2","0.4","0.6","","","","","0.9713318577","0.5248298482","0.7737236933","0.9859557102","","","","","","","","","","72","H","0","img/none_selected.jpg","","102","main_expt","",""
"","bandit","184","911099","0.0-144.0-0.0","13959309","wem/bandit_party_2","A1A46CKE3F5JAJ","either","7","407","","","","","","","1","0","0","0.9768128314","","0.8","0.2","0.4","0.6","","","","","0.9768128314","0.6218364577","0.8168427084","0.9828698412","","","","","","","","","","72","H","0","img/none_selected.jpg","","103","main_expt","",""
"","bandit","185","912710","0.0-145.0-0.0","13959309","wem/bandit_party_2","A1A46CKE3F5JAJ","either","7","94","","","","","","","1","0","0","0.9566706727","","0.8","0.2","0.4","0.6","","","","","0.9566706727","0.5528563194","0.7020104164","0.9655029871","","","","","","","","","","72","H","0","img/none_selected.jpg","","104","main_expt","",""
"","bandit","186","914286","0.0-146.0-0.0","13959309","wem/bandit_party_2","A1A46CKE3F5JAJ","either","7","59","","","","","","","0","1","0","","0.9352711559","0.8","0.2","0.4","0.6","0.9352711559","0.515821512","0.6750414237","0.9587067199","","","","","","","","","","","","","","72","H","0","img/none_selected.jpg","","105","main_expt","",""
"","bandit","187","985621","0.0-147.0-0.0","13959309","wem/bandit_party_2","A1A46CKE3F5JAJ","either","7","69815","","","","","","","1","0","0","0.8980036198","","0.8","0.2","0.4","0.6","","","","","0.8980036198","0.5380341879","0.5886413089","0.9358961366","","","","","","","","","","72","H","0","img/none_selected.jpg","","106","main_expt","",""
"","bandit","188","987238","0.0-148.0-0.0","13959309","wem/bandit_party_2","A1A46CKE3F5JAJ","either","7","98","","","","","","","1","0","0","0.9175797088","","0.8","0.2","0.4","0.6","","","","","0.9175797088","0.3291998873","0.5507707533","0.8829949032","","","","","","","","","","72","H","0","img/none_selected.jpg","","107","main_expt","",""
"","bandit","189","988765","0.0-149.0-0.0","13959309","wem/bandit_party_2","A1A46CKE3F5JAJ","either","7","11","","","","","","","1","0","0","0.8966825343","","0.8","0.2","0.4","0.6","","","","","0.8966825343","0.3608627265","0.4325904974","0.7668100276","","","","","","","","","","72","H","0","img/none_selected.jpg","","108","main_expt","",""
"","bandit","190","990338","0.0-150.0-0.0","13959309","wem/bandit_party_2","A1A46CKE3F5JAJ","either","7","57","","","","","","","1","0","0","0.8883819791","","0.8","0.2","0.4","0.6","","","","","0.8883819791","0.3837942066","0.3735159861","0.7652463225","","","","","","","","","","72","H","0","img/none_selected.jpg","","109","main_expt","",""
"","bandit","191","997969","0.0-151.0-0.0","13959309","wem/bandit_party_2","A1A46CKE3F5JAJ","either","7","6115","","","","","","","1","0","0","0.9087011364","","0.8","0.2","0.4","0.6","","","","","0.9087011364","0.3019365294","0.3704440872","0.7974745759","","","","","","","","","","72","H","0","img/none_selected.jpg","","110","main_expt","",""
"","bandit","192","999496","0.0-152.0-0.0","13959309","wem/bandit_party_2","A1A46CKE3F5JAJ","either","7","8","","","","","","","0","1","0","","0.9337026812","0.8","0.2","0.4","0.6","0.9337026812","0.3483008865","0.2749067499","0.812352323","","","","","","","","","","","","","","72","H","0","img/none_selected.jpg","","111","main_expt","",""
"","bandit","193","1001025","0.0-153.0-0.0","13959309","wem/bandit_party_2","A1A46CKE3F5JAJ","either","7","13","","","","","","","1","0","0","0.9113388615","","0.8","0.2","0.4","0.6","","","","","0.9113388615","0.4342302697","0.2734667401","0.7428975936","","","","","","","","","","72","H","0","img/none_selected.jpg","","112","main_expt","",""
"","bandit","194","1002574","0.0-154.0-0.0","13959309","wem/bandit_party_2","A1A46CKE3F5JAJ","either","7","32","","","","","","","1","0","0","0.8980528729","","0.8","0.2","0.4","0.6","","","","","0.8980528729","0.5187246657","0.2291946885","0.7139653514","","","","","","","","","","72","H","0","img/none_selected.jpg","","113","main_expt","",""
"","bandit","195","1004234","0.0-155.0-0.0","13959309","wem/bandit_party_2","A1A46CKE3F5JAJ","either","7","142","","","","","","","1","0","0","0.8036326458","","0.8","0.2","0.4","0.6","","","","","0.8036326458","0.5381742134","0.2413339081","0.7945657698","","","","","","","","","","72","H","0","img/none_selected.jpg","","114","main_expt","",""
"","bandit","196","1005900","0.0-156.0-0.0","13959309","wem/bandit_party_2","A1A46CKE3F5JAJ","either","7","116","","","","","","","1","0","0","0.8700945717","","0.8","0.2","0.4","0.6","","","","","0.8700945717","0.4785029821","0.3092826039","0.8405588069","","","","","","","","","","72","H","0","img/none_selected.jpg","","115","main_expt","",""
"","bandit","197","1007503","0.0-157.0-0.0","13959309","wem/bandit_party_2","A1A46CKE3F5JAJ","either","7","86","","","","","","","1","0","0","0.8895114993","","0.8","0.2","0.4","0.6","","","","","0.8895114993","0.4654757386","0.2361366225","0.8641798474","","","","","","","","","","72","H","0","img/none_selected.jpg","","116","main_expt","",""
"","bandit","198","1009026","0.0-158.0-0.0","13959309","wem/bandit_party_2","A1A46CKE3F5JAJ","either","7","1","","","","","","","1","0","0","0.8936856952","","0.8","0.2","0.4","0.6","","","","","0.8936856952","0.4578633225","0.218402711","0.8756768431","","","","","","","","","","72","H","0","img/none_selected.jpg","","117","main_expt","",""
"","bandit","199","1010933","0.0-159.0-0.0","13959309","wem/bandit_party_2","A1A46CKE3F5JAJ","either","7","389","","","","","","","1","0","0","0.8077127093","","0.8","0.2","0.4","0.6","","","","","0.8077127093","0.4773941538","0.2003641109","0.9015269718","","","","","","","","","","72","H","0","img/none_selected.jpg","","118","main_expt","",""
"","bandit","200","1012592","0.0-160.0-0.0","13959309","wem/bandit_party_2","A1A46CKE3F5JAJ","either","7","139","","","","","","","0","0","1","0.8901108642","","0.8","0.2","0.4","0.6","","","","","0.8901108642","0.508374463","0.1375137305","0.8709738884","","","","","","","","","","72","H","0","img/none_selected.jpg","","119","main_expt","",""
"","bandit","201","1077919","0.0-161.0-0.0","13959309","wem/bandit_party_2","A1A46CKE3F5JAJ","either","7","63808","","","","","","","1","0","0","0.8731124259","","0.8","0.2","0.4","0.6","","","","","0.8731124259","0.4294310012","0.08656631556","0.8268338002","","","","","","","","","","72","H","0","img/none_selected.jpg","","120","main_expt","",""
"","bandit","202","1079646","0.0-162.0-0.0","13959309","wem/bandit_party_2","A1A46CKE3F5JAJ","either","7","199","","","","","","","1","0","0","0.8509174952","","0.8","0.2","0.4","0.6","","","","","0.8509174952","0.3933985885","0.07812634859","0.8432616236","","","","","","","","","","72","H","0","img/none_selected.jpg","","121","main_expt","",""
"","bandit","203","1081244","0.0-163.0-0.0","13959309","wem/bandit_party_2","A1A46CKE3F5JAJ","either","7","78","","","","","","","1","0","0","0.8707856005","","0.8","0.2","0.4","0.6","","","","","0.8707856005","0.2641409089","0.09046411854","0.8128728295","","","","","","","","","","72","H","0","img/none_selected.jpg","","122","main_expt","",""
"","bandit","204","1082811","0.0-164.0-0.0","13959309","wem/bandit_party_2","A1A46CKE3F5JAJ","either","7","49","","","","","","","1","0","0","0.7592524618","","0.8","0.2","0.4","0.6","","","","","0.7592524618","0.2491349268","0.1132512529","0.752198112","","","","","","","","","","72","H","0","img/none_selected.jpg","","123","main_expt","",""
"","bandit","205","1084447","0.0-165.0-0.0","13959309","wem/bandit_party_2","A1A46CKE3F5JAJ","either","7","116","","","","","","","1","0","0","0.7330206325","","0.8","0.2","0.4","0.6","","","","","0.7330206325","0.2587226179","0.09419269712","0.7117781612","","","","","","","","","","72","H","0","img/none_selected.jpg","","124","main_expt","",""
"","bandit","206","1086111","0.0-166.0-0.0","13959309","wem/bandit_party_2","A1A46CKE3F5JAJ","either","7","143","","","","","","","1","0","0","0.6903693331","","0.8","0.2","0.4","0.6","","","","","0.6903693331","0.2925679814","0.110513045","0.7177409252","","","","","","","","","","72","H","0","img/none_selected.jpg","","125","main_expt","",""
"","bandit","207","1087645","0.0-167.0-0.0","13959309","wem/bandit_party_2","A1A46CKE3F5JAJ","either","7","15","","","","","","","0","0","1","","0.6370641568","0.8","0.2","0.4","0.6","0.6370641568","0.3997536411","0.07088043536","0.7240917845","","","","","","","","","","","","","","72","H","0","img/none_selected.jpg","","126","main_expt","",""
"","bandit","208","1089208","0.0-168.0-0.0","13959309","wem/bandit_party_2","A1A46CKE3F5JAJ","either","7","39","","","","","","","0","0","1","0.6192694325","","0.8","0.2","0.4","0.6","","","","","0.6192694325","0.4120812041","0.1041728595","0.6788578752","","","","","","","","","","72","H","0","img/none_selected.jpg","","127","main_expt","",""
"","bandit","209","1090812","0.0-169.0-0.0","13959309","wem/bandit_party_2","A1A46CKE3F5JAJ","either","7","86","","","","","","","0","1","0","","0.559348281","0.8","0.2","0.4","0.6","0.559348281","0.3731276689","0.1006708935","0.6257789885","","","","","","","","","","","","","","72","H","0","img/none_selected.jpg","","128","main_expt","",""
"","bandit","210","1092367","0.0-170.0-0.0","13959309","wem/bandit_party_2","A1A46CKE3F5JAJ","either","7","35","","","","","","","0","0","1","","0.610360397","0.8","0.2","0.4","0.6","0.610360397","0.3263017501","0.1336488566","0.4761868647","","","","","","","","","","","","","","72","H","0","img/none_selected.jpg","","129","main_expt","",""
"","bandit","211","1093951","0.0-171.0-0.0","13959309","wem/bandit_party_2","A1A46CKE3F5JAJ","either","7","66","","","","","","","1","0","0","0.5737783772","","0.8","0.2","0.4","0.6","","","","","0.5737783772","0.3226142564","0.1271550391","0.4745188583","","","","","","","","","","72","H","0","img/none_selected.jpg","","130","main_expt","",""
"","bandit","212","1095577","0.0-172.0-0.0","13959309","wem/bandit_party_2","A1A46CKE3F5JAJ","either","7","106","","","","","","","1","0","0","0.6252154127","","0.8","0.2","0.4","0.6","","","","","0.6252154127","0.3907136596","0.1594360192","0.4674409752","","","","","","","","","","72","H","0","img/none_selected.jpg","","131","main_expt","",""
"","bandit","213","1097328","0.0-173.0-0.0","13959309","wem/bandit_party_2","A1A46CKE3F5JAJ","either","7","231","","","","","","","1","0","0","0.6473056352","","0.8","0.2","0.4","0.6","","","","","0.6473056352","0.4983036492","0.1027658661","0.368649462","","","","","","","","","","72","H","0","img/none_selected.jpg","","132","main_expt","",""
"","bandit","214","1098988","0.0-174.0-0.0","13959309","wem/bandit_party_2","A1A46CKE3F5JAJ","either","7","137","","","","","","","1","0","0","0.4595123468","","0.8","0.2","0.4","0.6","","","","","0.4595123468","0.6347393695","0.1223548883","0.4313577514","","","","","","","","","","72","H","0","img/none_selected.jpg","","133","main_expt","",""
"","bandit","215","1100625","0.0-175.0-0.0","13959309","wem/bandit_party_2","A1A46CKE3F5JAJ","either","7","118","","","","","","","0","0","1","0.3043385566","","0.8","0.2","0.4","0.6","","","","","0.3043385566","0.6037412299","0.1063029331","0.3692150919","","","","","","","","","","72","H","0","img/none_selected.jpg","","134","main_expt","",""
"","bandit","216","1107150","0.0-176.0-0.0","13959309","wem/bandit_party_2","A1A46CKE3F5JAJ","either","7","5006","","","","","","","0","0","1","0.340857567","","0.8","0.2","0.4","0.6","","","","","0.340857567","0.5511090861","0.080644856","0.3077662431","","","","","","","","","","72","H","0","img/none_selected.jpg","","135","main_expt","",""
"","bandit","217","1109249","0.0-177.0-0.0","13959309","wem/bandit_party_2","A1A46CKE3F5JAJ","either","7","581","","","","","","","0","0","1","0.2655810755","","0.8","0.2","0.4","0.6","","","","","0.2655810755","0.585911414","0.1359867045","0.314969588","","","","","","","","","","72","H","0","img/none_selected.jpg","","136","main_expt","",""
"","bandit","218","1111569","0.0-178.0-0.0","13959309","wem/bandit_party_2","A1A46CKE3F5JAJ","either","7","799","","","","","","","1","0","0","0.3025530854","","0.8","0.2","0.4","0.6","","","","","0.3025530854","0.5805905743","0.168344283","0.3590847215","","","","","","","","","","72","H","0","img/none_selected.jpg","","137","main_expt","",""
"","bandit","219","1113216","0.0-179.0-0.0","13959309","wem/bandit_party_2","A1A46CKE3F5JAJ","either","7","127","","","","","","","1","0","0","0.2888348812","","0.8","0.2","0.4","0.6","","","","","0.2888348812","0.6357737786","0.1867455324","0.3588584756","","","","","","","","","","72","H","0","img/none_selected.jpg","","138","main_expt","",""
"","bandit","220","1114747","0.0-180.0-0.0","13959309","wem/bandit_party_2","A1A46CKE3F5JAJ","either","7","10","","","","","","","0","1","0","","0.2463208975","0.8","0.2","0.4","0.6","0.2463208975","0.66639317","0.2277874407","0.4289761638","","","","","","","","","","","","","","72","H","0","img/none_selected.jpg","","139","main_expt","",""
"","bandit","221","1116345","0.0-181.0-0.0","13959309","wem/bandit_party_2","A1A46CKE3F5JAJ","either","7","80","","","","","","","0","0","1","0.273109751","","0.8","0.2","0.4","0.6","","","","","0.273109751","0.6365789307","0.2577820179","0.3801639999","","","","","","","","","","72","H","0","img/none_selected.jpg","","140","main_expt","",""
"","bandit","222","1117903","0.0-182.0-0.0","13959309","wem/bandit_party_2","A1A46CKE3F5JAJ","either","7","37","","","","","","","0","0","1","0.3355442787","","0.8","0.2","0.4","0.6","","","","","0.3355442787","0.6045632144","0.3674069736","0.2445936549","","","","","","","","","","72","H","0","img/none_selected.jpg","","141","main_expt","",""
"","bandit","223","1119551","0.0-183.0-0.0","13959309","wem/bandit_party_2","A1A46CKE3F5JAJ","either","7","126","","","","","","","0","0","1","0.2781999234","","0.8","0.2","0.4","0.6","","","","","0.2781999234","0.5148607161","0.4345417514","0.3394066497","","","","","","","","","","72","H","0","img/none_selected.jpg","","142","main_expt","",""
"","bandit","224","1121200","0.0-184.0-0.0","13959309","wem/bandit_party_2","A1A46CKE3F5JAJ","either","7","128","","","","","","","1","0","0","0.2599467226","","0.8","0.2","0.4","0.6","","","","","0.2599467226","0.4754154836","0.3811672827","0.2899754881","","","","","","","","","","72","H","0","img/none_selected.jpg","","143","main_expt","",""
"","bandit","225","1122749","0.0-185.0-0.0","13959309","wem/bandit_party_2","A1A46CKE3F5JAJ","either","7","31","","","","","","","1","0","0","0.2353144144","","0.8","0.2","0.4","0.6","","","","","0.2353144144","0.516029258","0.2754059391","0.3701332444","","","","","","","","","","72","H","0","img/none_selected.jpg","","144","main_expt","",""
"","bandit","226","1124283","0.0-186.0-0.0","13959309","wem/bandit_party_2","A1A46CKE3F5JAJ","either","7","12","","","","","","","0","0","1","","0.2120114759","0.8","0.2","0.4","0.6","0.2120114759","0.6646605279","0.2773400324","0.3322753171","","","","","","","","","","","","","","72","H","0","img/none_selected.jpg","","145","main_expt","",""
"","bandit","227","1125913","0.0-187.0-0.0","13959309","wem/bandit_party_2","A1A46CKE3F5JAJ","either","7","110","","","","","","","0","0","1","0.176067728","","0.8","0.2","0.4","0.6","","","","","0.176067728","0.6331546467","0.2780426824","0.3203507811","","","","","","","","","","72","H","0","img/none_selected.jpg","","146","main_expt","",""
"","bandit","228","1127500","0.0-188.0-0.0","13959309","wem/bandit_party_2","A1A46CKE3F5JAJ","either","7","65","","","","","","","0","0","1","0.1329453439","","0.8","0.2","0.4","0.6","","","","","0.1329453439","0.6356747602","0.3373608721","0.304761248","","","","","","","","","","72","H","0","img/none_selected.jpg","","147","main_expt","",""
"","bandit","229","1129181","0.0-189.0-0.0","13959309","wem/bandit_party_2","A1A46CKE3F5JAJ","either","7","160","","","","","","","0","0","1","0.1465103875","","0.8","0.2","0.4","0.6","","","","","0.1465103875","0.6301772709","0.3529594122","0.3809280674","","","","","","","","","","72","H","0","img/none_selected.jpg","","148","main_expt","",""
"","bandit","230","1131576","0.0-190.0-0.0","13959309","wem/bandit_party_2","A1A46CKE3F5JAJ","either","7","876","","","","","","","0","1","0","","0.6640591829","0.8","0.2","0.4","0.6","0.1190451538","0.6640591829","0.3878328211","0.3997986218","","","","","","","","","","","","","","74","J","1","","","149","main_expt","",""
"","bandit","231","1133191","0.0-191.0-0.0","13959309","wem/bandit_party_2","A1A46CKE3F5JAJ","either","7","96","","","","","","","0","0","1","0.42943501","","0.8","0.2","0.4","0.6","","","","","0.1195570164","0.6592717552","0.42943501","0.3159341416","","","","","","","","","","75","K","2","","","150","main_expt","",""
"","bandit","232","1134731","0.0-192.0-0.0","13959309","wem/bandit_party_2","A1A46CKE3F5JAJ","either","7","18","","","","","","","1","0","0","0.5142681232","","0.8","0.2","0.4","0.6","","","","","0.100492686","0.5928743102","0.5142681232","0.3052853957","","","","","","","","","","75","K","2","","","151","main_expt","",""
"","bandit","233","1136292","0.0-193.0-0.0","13959309","wem/bandit_party_2","A1A46CKE3F5JAJ","either","7","41","","","","","","","0","0","1","","0.6321073962","0.8","0.2","0.4","0.6","0.1030367897","0.6822187145","0.6321073962","0.1896018403","","","","","","","","","","","","","","75","K","2","","","152","main_expt","",""
"","bandit","234","1137834","0.0-194.0-0.0","13959309","wem/bandit_party_2","A1A46CKE3F5JAJ","either","7","22","","","","","","","0","0","1","","0.6965670792","0.8","0.2","0.4","0.6","0.2059045691","0.6832005509","0.6965670792","0.2439656658","","","","","","","","","","","","","","75","K","2","","","153","main_expt","",""
"","bandit","235","1139455","0.0-195.0-0.0","13959309","wem/bandit_party_2","A1A46CKE3F5JAJ","either","7","101","","","","","","","0","0","1","0.6516005735","","0.8","0.2","0.4","0.6","","","","","0.2921647579","0.7109729062","0.6516005735","0.3068434149","","","","","","","","","","75","K","2","","","154","main_expt","",""
"","bandit","236","1144348","0.0-196.0-0.0","13959309","wem/bandit_party_2","A1A46CKE3F5JAJ","either","7","3372","","","","","","","1","0","0","0.1789694193","","0.8","0.2","0.4","0.6","","","","","0.1789694193","0.6975465092","0.7291318088","0.2314644909","","","","","","","","","","72","H","0","img/none_selected.jpg","","155","main_expt","",""
"","bandit","237","1145925","0.0-197.0-0.0","13959309","wem/bandit_party_2","A1A46CKE3F5JAJ","either","7","57","","","","","","","0","0","1","0.2187195075","","0.8","0.2","0.4","0.6","","","","","0.2187195075","0.6580608271","0.6273572288","0.2154001061","","","","","","","","","","72","H","0","img/none_selected.jpg","","156","main_expt","",""
"","bandit","238","1147627","0.0-198.0-0.0","13959309","wem/bandit_party_2","A1A46CKE3F5JAJ","either","7","181","","","","","","","0","0","1","0.2669834713","","0.8","0.2","0.4","0.6","","","","","0.2669834713","0.5695802138","0.566197257","0.1648135251","","","","","","","","","","72","H","0","img/none_selected.jpg","","157","main_expt","",""
"","bandit","239","1149342","0.0-199.0-0.0","13959309","wem/bandit_party_2","A1A46CKE3F5JAJ","either","7","194","","","","","","","0","0","1","","0.4240307821","0.8","0.2","0.4","0.6","0.4240307821","0.4733954301","0.4523642269","0.2215973425","","","","","","","","","","","","","","72","H","0","img/none_selected.jpg","","158","main_expt","",""
"","bandit","240","1150912","0.0-200.0-0.0","13959309","wem/bandit_party_2","A1A46CKE3F5JAJ","either","7","50","","","","","","","0","0","1","0.3840951437","","0.8","0.2","0.4","0.6","","","","","0.3840951437","0.5619817243","0.3991212054","0.2243274726","","","","","","","","","","72","H","0","img/none_selected.jpg","","159","main_expt","",""
"","bandit","241","1152452","0.0-201.0-0.0","13959309","wem/bandit_party_2","A1A46CKE3F5JAJ","either","7","17","","","","","","","0","1","0","","0.4098147986","0.8","0.2","0.4","0.6","0.4098147986","0.4701658979","0.3566558104","0.2061161075","","","","","","","","","","","","","","72","H","0","img/none_selected.jpg","","160","main_expt","",""
"","bandit","242","1154065","0.0-202.0-0.0","13959309","wem/bandit_party_2","A1A46CKE3F5JAJ","either","7","92","","","","","","","0","1","0","","0.4027252302","0.8","0.2","0.4","0.6","0.4027252302","0.5673671472","0.4430908041","0.209200141","","","","","","","","","","","","","","72","H","0","img/none_selected.jpg","","161","main_expt","",""
"","bandit","243","1155761","0.0-203.0-0.0","13959309","wem/bandit_party_2","A1A46CKE3F5JAJ","either","7","175","","","","","","","0","1","0","","0.3966098285","0.8","0.2","0.4","0.6","0.3824170733","0.4921809208","0.3966098285","0.1477343718","","","","","","","","","","","","","","75","K","2","","","162","main_expt","",""
"","bandit","244","1157338","0.0-204.0-0.0","13959309","wem/bandit_party_2","A1A46CKE3F5JAJ","either","7","54","","","","","","","0","0","1","0.3455868331","","0.8","0.2","0.4","0.6","","","","","0.3352280924","0.4204505308","0.3455868331","0.1525050104","","","","","","","","","","75","K","2","","","163","main_expt","",""
"","bandit","245","1158861","0.0-205.0-0.0","13959309","wem/bandit_party_2","A1A46CKE3F5JAJ","either","7","1","","","","","","","0","0","1","","0.3368969945","0.8","0.2","0.4","0.6","0.3379187571","0.534748173","0.3368969945","0.08831047354","","","","","","","","","","","","","","75","K","2","","","164","main_expt","",""
"","bandit","246","1160518","0.0-206.0-0.0","13959309","wem/bandit_party_2","A1A46CKE3F5JAJ","either","7","135","","","","","","","0","0","1","","0.3767562303","0.8","0.2","0.4","0.6","0.3160546663","0.4724966102","0.3767562303","0.1035482763","","","","","","","","","","","","","","75","K","2","","","165","main_expt","",""
"","bandit","247","1162208","0.0-207.0-0.0","13959309","wem/bandit_party_2","A1A46CKE3F5JAJ","either","7","167","","","","","","","0","1","0","","0.4727650462","0.8","0.2","0.4","0.6","0.3058359067","0.5280505203","0.4727650462","0.06888190676","","","","","","","","","","","","","","75","K","2","","","166","main_expt","",""
"","bandit","248","1163886","0.0-208.0-0.0","13959309","wem/bandit_party_2","A1A46CKE3F5JAJ","either","7","157","","","","","","","0","1","0","","0.6140635231","0.8","0.2","0.4","0.6","0.2561334246","0.589670135","0.6140635231","0.06051452263","","","","","","","","","","","","","","75","K","2","","","167","main_expt","",""
"","bandit","249","1165827","0.0-209.0-0.0","13959309","wem/bandit_party_2","A1A46CKE3F5JAJ","either","7","419","","","","","","","0","0","1","0.2459084815","","0.8","0.2","0.4","0.6","","","","","0.2459084815","0.5058201204","0.5629225295","0.07905307949","","","","","","","","","","72","H","0","img/none_selected.jpg","","168","main_expt","",""
"","bandit","250","1167441","0.0-210.0-0.0","13959309","wem/bandit_party_2","A1A46CKE3F5JAJ","either","7","92","","","","","","","0","0","1","","0.2138460752","0.8","0.2","0.4","0.6","0.2138460752","0.4102709571","0.6456076899","0.07051596905","","","","","","","","","","","","","","72","H","0","img/none_selected.jpg","","169","main_expt","",""
"","bandit","251","1168997","0.0-211.0-0.0","13959309","wem/bandit_party_2","A1A46CKE3F5JAJ","either","7","35","","","","","","","0","0","1","0.1642406351","","0.8","0.2","0.4","0.6","","","","","0.1642406351","0.5061826445","0.719827795","0.1056762318","","","","","","","","","","72","H","0","img/none_selected.jpg","","170","main_expt","",""
"","bandit","252","1170539","0.0-212.0-0.0","13959309","wem/bandit_party_2","A1A46CKE3F5JAJ","either","7","19","","","","","","","0","0","1","0.2337150112","","0.8","0.2","0.4","0.6","","","","","0.2337150112","0.6092158501","0.6716280274","0.1513980822","","","","","","","","","","72","H","0","img/none_selected.jpg","","171","main_expt","",""
"","bandit","253","1172062","0.0-213.0-0.0","13959309","wem/bandit_party_2","A1A46CKE3F5JAJ","either","7","2","","","","","","","0","0","1","","0.3128682212","0.8","0.2","0.4","0.6","0.3128682212","0.691496366","0.5683226388","0.1552293495","","","","","","","","","","","","","","72","H","0","img/none_selected.jpg","","172","main_expt","",""
"","bandit","254","1173769","0.0-214.0-0.0","13959309","wem/bandit_party_2","A1A46CKE3F5JAJ","either","7","184","","","","","","","0","1","0","","0.7402253768","0.8","0.2","0.4","0.6","0.2775517843","0.7402253768","0.4581357746","0.1325975083","","","","","","","","","","","","","","74","J","1","","","173","main_expt","",""
"","bandit","255","1175379","0.0-215.0-0.0","13959309","wem/bandit_party_2","A1A46CKE3F5JAJ","either","7","88","","","","","","","0","0","1","0.4159305855","","0.8","0.2","0.4","0.6","","","","","0.4159305855","0.6601004511","0.5903479164","0.09024892351","","","","","","","","","","72","H","0","img/none_selected.jpg","","174","main_expt","",""
"","bandit","256","1176946","0.0-216.0-0.0","13959309","wem/bandit_party_2","A1A46CKE3F5JAJ","either","7","44","","","","","","","1","0","0","0.4471770837","","0.8","0.2","0.4","0.6","","","","","0.4471770837","0.6781732273","0.5658285383","0.06963745108","","","","","","","","","","72","H","0","img/none_selected.jpg","","175","main_expt","",""
"","bandit","257","1178627","0.0-217.0-0.0","13959309","wem/bandit_party_2","A1A46CKE3F5JAJ","either","7","155","","","","","","","1","0","0","0.5162211083","","0.8","0.2","0.4","0.6","","","","","0.5162211083","0.6932650799","0.5313506173","0.07897043431","","","","","","","","","","72","H","0","img/none_selected.jpg","","176","main_expt","",""
"","bandit","258","1180329","0.0-218.0-0.0","13959309","wem/bandit_party_2","A1A46CKE3F5JAJ","either","7","176","","","","","","","1","0","0","0.6372676231","","0.8","0.2","0.4","0.6","","","","","0.6372676231","0.6803850572","0.4231289234","0.09469685393","","","","","","","","","","72","H","0","img/none_selected.jpg","","177","main_expt","",""
"","bandit","259","1181965","0.0-219.0-0.0","13959309","wem/bandit_party_2","A1A46CKE3F5JAJ","either","7","112","","","","","","","1","0","0","0.6295749113","","0.8","0.2","0.4","0.6","","","","","0.6295749113","0.5407017663","0.580807006","0.1486386852","","","","","","","","","","72","H","0","img/none_selected.jpg","","178","main_expt","",""
"","bandit","260","1183548","0.0-220.0-0.0","13959309","wem/bandit_party_2","A1A46CKE3F5JAJ","either","7","59","","","","","","","1","0","0","0.4126066341","","0.8","0.2","0.4","0.6","","","","","0.4126066341","0.5931576708","0.5499948007","0.1965095934","","","","","","","","","","72","H","0","img/none_selected.jpg","","179","main_expt","",""
"","bandit","261","1185112","0.0-221.0-0.0","13959309","wem/bandit_party_2","A1A46CKE3F5JAJ","either","7","40","","","","","","","0","0","1","0.516991344","","0.8","0.2","0.4","0.6","","","","","0.516991344","0.5390819372","0.4918200669","0.1749048096","","","","","","","","","","72","H","0","img/none_selected.jpg","","180","main_expt","",""
"","bandit","262","1265809","0.0-222.0-0.0","13959309","wem/bandit_party_2","A1A46CKE3F5JAJ","either","7","79167","","","","","","","0","0","1","0.4239603033","","0.8","0.2","0.4","0.6","","","","","0.4239603033","0.4929910299","0.5428702931","0.232896561","","","","","","","","","","72","H","0","img/none_selected.jpg","","181","main_expt","",""
"","bandit","263","1267344","0.0-223.0-0.0","13959309","wem/bandit_party_2","A1A46CKE3F5JAJ","either","7","1","","","","","","","0","0","1","0.3961891141","","0.8","0.2","0.4","0.6","","","","","0.3961891141","0.458433212","0.5870547156","0.2561822725","","","","","","","","","","72","H","0","img/none_selected.jpg","","182","main_expt","",""
"","bandit","264","1268997","0.0-224.0-0.0","13959309","wem/bandit_party_2","A1A46CKE3F5JAJ","either","7","129","","","","","","","0","0","1","","0.5725449786","0.8","0.2","0.4","0.6","0.4364601233","0.5725449786","0.5031908535","0.2713883962","","","","","","","","","","","","","","74","J","1","","","183","main_expt","",""
"","bandit","265","1270526","0.0-225.0-0.0","13959309","wem/bandit_party_2","A1A46CKE3F5JAJ","either","7","7","","","","","","","0","1","0","","0.4878383732","0.8","0.2","0.4","0.6","0.4826964198","0.4878383732","0.4239978994","0.3543557679","","","","","","","","","","","","","","74","J","1","","","184","main_expt","",""
"","bandit","266","1272165","0.0-226.0-0.0","13959309","wem/bandit_party_2","A1A46CKE3F5JAJ","either","7","116","","","","","","","0","0","1","0.3425545299","","0.8","0.2","0.4","0.6","","","","","0.4448789548","0.5189350158","0.3425545299","0.2974533566","","","","","","","","","","75","K","2","","","185","main_expt","",""
"","bandit","267","1273694","0.0-227.0-0.0","13959309","wem/bandit_party_2","A1A46CKE3F5JAJ","either","7","6","","","","","","","0","0","1","","0.2594221554","0.8","0.2","0.4","0.6","0.4585835861","0.4310300585","0.2594221554","0.3295130888","","","","","","","","","","","","","","75","K","2","","","186","main_expt","",""
"","bandit","268","1275339","0.0-228.0-0.0","13959309","wem/bandit_party_2","A1A46CKE3F5JAJ","either","7","119","","","","","","","0","1","0","","0.350747246","0.8","0.2","0.4","0.6","0.5470412386","0.4005994516","0.350747246","0.3440574025","","","","","","","","","","","","","","75","K","2","","","187","main_expt","",""
"","bandit","269","1277129","0.0-229.0-0.0","13959309","wem/bandit_party_2","A1A46CKE3F5JAJ","either","7","266","","","","","","","1","0","0","0.5485419855","","0.8","0.2","0.4","0.6","","","","","0.5485419855","0.5684333967","0.3667816541","0.3176863717","","","","","","","","","","72","H","0","img/none_selected.jpg","","188","main_expt","",""
"","bandit","270","1278943","0.0-230.0-0.0","13959309","wem/bandit_party_2","A1A46CKE3F5JAJ","either","7","211","","","","","","","1","0","0","0.6161015427","","0.8","0.2","0.4","0.6","","","","","0.6161015427","0.5768443477","0.3129240978","0.3194332301","","","","","","","","","","72","H","0","img/none_selected.jpg","","189","main_expt","",""
"","bandit","271","1280777","0.0-231.0-0.0","13959309","wem/bandit_party_2","A1A46CKE3F5JAJ","either","7","299","","","","","","","0","0","1","0.5145576236","","0.8","0.2","0.4","0.6","","","","","0.5145576236","0.6091254975","0.3681084497","0.3585260795","","","","","","","","","","72","H","0","img/none_selected.jpg","","190","main_expt","",""
"","bandit","272","1282557","0.0-232.0-0.0","13959309","wem/bandit_party_2","A1A46CKE3F5JAJ","either","7","252","","","","","","","1","0","0","0.4447609651","","0.8","0.2","0.4","0.6","","","","","0.4447609651","0.6355225437","0.3284994938","0.4438822556","","","","","","","","","","72","H","0","img/none_selected.jpg","","191","main_expt","",""
"","bandit","273","1284426","0.0-233.0-0.0","13959309","wem/bandit_party_2","A1A46CKE3F5JAJ","either","7","346","","","","","","","0","0","1","","0.4273979598","0.8","0.2","0.4","0.6","0.4273979598","0.7449996868","0.2913335268","0.6336907385","","","","","","","","","","","","","","72","H","0","img/none_selected.jpg","","192","main_expt","",""
"","bandit","274","1286032","0.0-234.0-0.0","13959309","wem/bandit_party_2","A1A46CKE3F5JAJ","either","7","82","","","","","","","0","1","0","","0.4382354048","0.8","0.2","0.4","0.6","0.4382354048","0.7645281636","0.3614904019","0.5871300795","","","","","","","","","","","","","","72","H","0","img/none_selected.jpg","","193","main_expt","",""
"","bandit","275","1287664","0.0-235.0-0.0","13959309","wem/bandit_party_2","A1A46CKE3F5JAJ","either","7","108","","","","","","","0","0","1","0.4367950698","","0.8","0.2","0.4","0.6","","","","","0.4367950698","0.7417458559","0.4180963095","0.5919999684","","","","","","","","","","72","H","0","img/none_selected.jpg","","194","main_expt","",""
"","bandit","276","1289258","0.0-236.0-0.0","13959309","wem/bandit_party_2","A1A46CKE3F5JAJ","either","7","70","","","","","","","0","0","1","0.4306922929","","0.8","0.2","0.4","0.6","","","","","0.4306922929","0.7102393491","0.4129416526","0.5599221581","","","","","","","","","","72","H","0","img/none_selected.jpg","","195","main_expt","",""
"","bandit","277","1290786","0.0-237.0-0.0","13959309","wem/bandit_party_2","A1A46CKE3F5JAJ","either","7","2","","","","","","","0","0","1","0.4436260943","","0.8","0.2","0.4","0.6","","","","","0.4436260943","0.6846894693","0.6027995291","0.4552797342","","","","","","","","","","72","H","0","img/none_selected.jpg","","196","main_expt","",""
"","bandit","278","1292347","0.0-238.0-0.0","13959309","wem/bandit_party_2","A1A46CKE3F5JAJ","either","7","37","","","","","","","0","0","1","0.4547077395","","0.8","0.2","0.4","0.6","","","","","0.4547077395","0.6573901597","0.6174547511","0.3045440077","","","","","","","","","","72","H","0","img/none_selected.jpg","","197","main_expt","",""
"","bandit","279","1293880","0.0-239.0-0.0","13959309","wem/bandit_party_2","A1A46CKE3F5JAJ","either","7","6","","","","","","","0","1","0","","0.545148617","0.8","0.2","0.4","0.6","0.545148617","0.7020762336","0.5727893511","0.4061180554","","","","","","","","","","","","","","72","H","0","img/none_selected.jpg","","198","main_expt","",""
"","bandit","280","1296883","0.0-240.0-0.0","13959309","wem/bandit_party_2","A1A46CKE3F5JAJ","either","7","1478","","","","","","","0","0","1","0.5838562778","","0.8","0.2","0.4","0.6","","","","","0.5838562778","0.7749867965","0.5803616598","0.3406873398","","","","","","","","","","72","H","0","img/none_selected.jpg","","199","main_expt","",""
"","bandit","281","1299088","0.0-241.0-0.0","13959309","wem/bandit_party_2","A1A46CKE3F5JAJ","either","7","678","","","","","","","0","0","1","0.6569131065","","0.8","0.2","0.4","0.6","","","","","0.6569131065","0.7971262248","0.5109940584","0.2810551981","","","","","","","","","","72","H","0","img/none_selected.jpg","","200","main_expt","",""
"","bandit","282","1300682","0.0-242.0-0.0","13959309","wem/bandit_party_2","A1A46CKE3F5JAJ","either","7","69","","","","","","","0","0","1","0.6559739125","","0.8","0.2","0.4","0.6","","","","","0.6559739125","0.6431063495","0.444158281","0.2295892347","","","","","","","","","","72","H","0","img/none_selected.jpg","","201","main_expt","",""
"","bandit","283","1302302","0.0-243.0-0.0","13959309","wem/bandit_party_2","A1A46CKE3F5JAJ","either","7","94","","","","","","","1","0","0","0.5940698896","","0.8","0.2","0.4","0.6","","","","","0.5940698896","0.6153479028","0.3774362348","0.2134833186","","","","","","","","","","72","H","0","img/none_selected.jpg","","202","main_expt","",""
"","bandit","284","1304359","0.0-244.0-0.0","13959309","wem/bandit_party_2","A1A46CKE3F5JAJ","either","7","532","","","","","","","1","0","0","0.6288005559","","0.8","0.2","0.4","0.6","","","","","0.6288005559","0.6107921693","0.2852638898","0.1538434825","","","","","","","","","","72","H","0","img/none_selected.jpg","","203","main_expt","",""
"","bandit","285","1306054","0.0-245.0-0.0","13959309","wem/bandit_party_2","A1A46CKE3F5JAJ","either","7","170","","","","","","","0","0","1","0.7483345684","","0.8","0.2","0.4","0.6","","","","","0.7483345684","0.6364312764","0.3900316507","0.08629221539","","","","","","","","","","72","H","0","img/none_selected.jpg","","204","main_expt","",""
"","bandit","286","1307635","0.0-246.0-0.0","13959309","wem/bandit_party_2","A1A46CKE3F5JAJ","either","7","56","","","","","","","1","0","0","0.7823609999","","0.8","0.2","0.4","0.6","","","","","0.7823609999","0.7098325313","0.3334674042","0.1303029892","","","","","","","","","","72","H","0","img/none_selected.jpg","","205","main_expt","",""
"","bandit","287","1309227","0.0-247.0-0.0","13959309","wem/bandit_party_2","A1A46CKE3F5JAJ","either","7","67","","","","","","","1","0","0","0.7053347691","","0.8","0.2","0.4","0.6","","","","","0.7053347691","0.6423198407","0.3997779834","0.1290793888","","","","","","","","","","72","H","0","img/none_selected.jpg","","206","main_expt","",""
"","bandit","288","1310866","0.0-248.0-0.0","13959309","wem/bandit_party_2","A1A46CKE3F5JAJ","either","7","114","","","","","","","1","0","0","0.692958529","","0.8","0.2","0.4","0.6","","","","","0.692958529","0.7196337679","0.2791746034","0.1471003053","","","","","","","","","","72","H","0","img/none_selected.jpg","","207","main_expt","",""
"","bandit","289","1312554","0.0-249.0-0.0","13959309","wem/bandit_party_2","A1A46CKE3F5JAJ","either","7","161","","","","","","","0","0","1","0.5726600787","","0.8","0.2","0.4","0.6","","","","","0.5726600787","0.7273253538","0.3447420344","0.1204476287","","","","","","","","","","72","H","0","img/none_selected.jpg","","208","main_expt","",""
"","bandit","290","1314081","0.0-250.0-0.0","13959309","wem/bandit_party_2","A1A46CKE3F5JAJ","either","7","1","","","","","","","1","0","0","0.7193759884","","0.8","0.2","0.4","0.6","","","","","0.7193759884","0.7701678217","0.2106944101","0.1752658923","","","","","","","","","","72","H","0","img/none_selected.jpg","","209","main_expt","",""
"","bandit","291","1315615","0.0-251.0-0.0","13959309","wem/bandit_party_2","A1A46CKE3F5JAJ","either","7","10","","","","","","","0","0","1","0.5469619257","","0.8","0.2","0.4","0.6","","","","","0.5469619257","0.7673062315","0.2609791638","0.2071456167","","","","","","","","","","72","H","0","img/none_selected.jpg","","210","main_expt","",""
"","bandit","292","1317216","0.0-252.0-0.0","13959309","wem/bandit_party_2","A1A46CKE3F5JAJ","either","7","75","","","","","","","0","0","1","0.5432746348","","0.8","0.2","0.4","0.6","","","","","0.5432746348","0.7733207599","0.3702243554","0.1982577311","","","","","","","","","","72","H","0","img/none_selected.jpg","","211","main_expt","",""
"","bandit","293","1318798","0.0-253.0-0.0","13959309","wem/bandit_party_2","A1A46CKE3F5JAJ","either","7","58","","","","","","","1","0","0","0.4857525371","","0.8","0.2","0.4","0.6","","","","","0.4857525371","0.7176010575","0.4070014152","0.2837026457","","","","","","","","","","72","H","0","img/none_selected.jpg","","212","main_expt","",""
"","bandit","294","1320409","0.0-254.0-0.0","13959309","wem/bandit_party_2","A1A46CKE3F5JAJ","either","7","87","","","","","","","0","0","1","0.4416723402","","0.8","0.2","0.4","0.6","","","","","0.4416723402","0.7241732444","0.5001351259","0.2192955177","","","","","","","","","","72","H","0","img/none_selected.jpg","","213","main_expt","",""
"","bandit","295","1321935","0.0-255.0-0.0","13959309","wem/bandit_party_2","A1A46CKE3F5JAJ","either","7","0","","","","","","","0","0","1","","0.4231083207","0.8","0.2","0.4","0.6","0.4231083207","0.6696022014","0.5667049056","0.2885853396","","","","","","","","","","","","","","72","H","0","img/none_selected.jpg","","214","main_expt","",""
"","bandit","296","1323462","0.0-256.0-0.0","13959309","wem/bandit_party_2","A1A46CKE3F5JAJ","either","7","1","","","","","","","0","0","1","0.329019478","","0.8","0.2","0.4","0.6","","","","","0.329019478","0.6255990046","0.5259574602","0.2451296471","","","","","","","","","","72","H","0","img/none_selected.jpg","","215","main_expt","",""
"","bandit","297","1324997","0.0-257.0-0.0","13959309","wem/bandit_party_2","A1A46CKE3F5JAJ","either","7","9","","","","","","","1","0","0","0.3469743373","","0.8","0.2","0.4","0.6","","","","","0.3469743373","0.6771362935","0.5468860011","0.1946790852","","","","","","","","","","72","H","0","img/none_selected.jpg","","216","main_expt","",""
"","bandit","298","1326523","0.0-258.0-0.0","13959309","wem/bandit_party_2","A1A46CKE3F5JAJ","either","7","2","","","","","","","0","0","1","","0.3618740044","0.8","0.2","0.4","0.6","0.3618740044","0.6918953154","0.6182745027","0.2497229096","","","","","","","","","","","","","","72","H","0","img/none_selected.jpg","","217","main_expt","",""
"","bandit","299","1328167","0.0-259.0-0.0","13959309","wem/bandit_party_2","A1A46CKE3F5JAJ","either","7","118","","","","","","","1","0","0","0.3574217595","","0.8","0.2","0.4","0.6","","","","","0.3574217595","0.5726390237","0.5979125128","0.3076421025","","","","","","","","","","72","H","0","img/none_selected.jpg","","218","main_expt","",""
"","bandit","300","1329695","0.0-260.0-0.0","13959309","wem/bandit_party_2","A1A46CKE3F5JAJ","either","7","1","","","","","","","0","1","0","","0.3862686792","0.8","0.2","0.4","0.6","0.3862686792","0.5179196303","0.5321687475","0.3488941347","","","","","","","","","","","","","","72","H","0","img/none_selected.jpg","","219","main_expt","",""
"","bandit","301","1331396","0.0-261.0-0.0","13959309","wem/bandit_party_2","A1A46CKE3F5JAJ","either","7","175","","","","","","","0","0","1","0.4432846828","","0.8","0.2","0.4","0.6","","","","","0.4432846828","0.5578222379","0.6053830099","0.306784001","","","","","","","","","","72","H","0","img/none_selected.jpg","","220","main_expt","",""
"","bandit","302","1333070","0.0-262.0-0.0","13959309","wem/bandit_party_2","A1A46CKE3F5JAJ","either","7","146","","","","","","","0","0","1","0.432499938","","0.8","0.2","0.4","0.6","","","","","0.432499938","0.6640911266","0.69383498","0.3786925452","","","","","","","","","","72","H","0","img/none_selected.jpg","","221","main_expt","",""
"","bandit","303","1334768","0.0-263.0-0.0","13959309","wem/bandit_party_2","A1A46CKE3F5JAJ","either","7","173","","","","","","","0","0","1","0.4050903391","","0.8","0.2","0.4","0.6","","","","","0.4050903391","0.7340686256","0.783375317","0.5014801557","","","","","","","","","","72","H","0","img/none_selected.jpg","","222","main_expt","",""
"","bandit","304","1336313","0.0-264.0-0.0","13959309","wem/bandit_party_2","A1A46CKE3F5JAJ","either","7","21","","","","","","","1","0","0","0.3282593462","","0.8","0.2","0.4","0.6","","","","","0.3282593462","0.852862777","0.8374489269","0.4081704387","","","","","","","","","","72","H","0","img/none_selected.jpg","","223","main_expt","",""
