"consent","trial_type","trial_index","time_elapsed","internal_node_id","subjID","study","MID","cond","drift","rt","responses","button_pressed","key_press","like","value","connected","gems","bombs","no_reward","GemPrChosen","BombPrChosen","GainOverPainPr_0","GainOverPainPr_1","GainOverPainPr_2","GainOverPainPr_3","LosePr_0","LosePr_1","LosePr_2","LosePr_3","WinPr_0","WinPr_1","WinPr_2","WinPr_3","Q0","Q1","Q2","gender","age","ethnicity","label","expt_phase","target","respCharCode","respKey","respChoiceNum","respChoice","practice","trial_counter","trial_label","Q0_index","view_history"
"GDM/GDM_behavioral_consent_30min_online.html","consent","0","10555","0.0-0.0","14202998","wem/bandit_party_2","AV581SCZZM1YE","either","6","","","","","","","","","","","","","","","","","","","","","","","","","","","","","","","","","","","","","","","","","",""
"","survey-text","1","16940","0.0-1.0","14202998","wem/bandit_party_2","AV581SCZZM1YE","either","6","5356","{""Q0"":""AV581SCZZM1YE""}","","","","","","","","","","","","","","","","","","","","","","","","","","","","","","","","","","","","","","","",""
"","button-response","2","20679","0.0-2.0","14202998","wem/bandit_party_2","AV581SCZZM1YE","either","6","2721","","2","","","","","","","","","","","","","","","","","","","","","","","","","","","","","","","","","","","","","","",""
"","text-replacement","3","40866","0.0-3.0","14202998","wem/bandit_party_2","AV581SCZZM1YE","either","6","19138","","","32","","","","","","","","","","","","","","","","","","","","","","","","","","","","","","","","","","","","","",""
"","text-replacement","4","50181","0.0-4.0","14202998","wem/bandit_party_2","AV581SCZZM1YE","either","6","9315","","","32","","","","","","","","","","","","","","","","","","","","","","","","","","","","","","","","","","","","","",""
"","text-replacement","5","58773","0.0-5.0-0.0","14202998","wem/bandit_party_2","AV581SCZZM1YE","either","6","8588","","","32","","","","","","","","","","","","","","","","","","","","","","","","","","","","","","","","","","","","","",""
"","identification","6","71038","0.0-6.0-0.0","14202998","wem/bandit_party_2","AV581SCZZM1YE","either","6","12233","","","","3","3","0","","","","","","","","","","","","","","","","","","","","","","","","pre","identification_pre","the Democratic Party","","","","","","","","",""
"","identification","7","76049","0.0-6.0-1.0","14202998","wem/bandit_party_2","AV581SCZZM1YE","either","6","3978","","","","3","3","4","","","","","","","","","","","","","","","","","","","","","","","","pre","identification_pre","the Republican Party","","","","","","","","",""
"","text-replacement","8","89255","0.0-7.0","14202998","wem/bandit_party_2","AV581SCZZM1YE","either","6","12198","","","32","","","","","","","","","","","","","","","","","","","","","","","","","","","","","","","","","","","","","",""
"","text-replacement","9","94801","0.0-8.0","14202998","wem/bandit_party_2","AV581SCZZM1YE","either","6","5542","","","32","","","","","","","","","","","","","","","","","","","","","","","","","","","","","","","","","","","","","",""
"","text-replacement","10","108756","0.0-9.0","14202998","wem/bandit_party_2","AV581SCZZM1YE","either","6","13949","","","32","","","","","","","","","","","","","","","","","","","","","","","","","","","","","","","","","","","","","",""
"","text-replacement","11","114621","0.0-10.0","14202998","wem/bandit_party_2","AV581SCZZM1YE","either","6","5863","","","32","","","","","","","","","","","","","","","","","","","","","","","","","","","","","","","","","","","","","",""
"","text-replacement","12","122198","0.0-11.0","14202998","wem/bandit_party_2","AV581SCZZM1YE","either","6","7569","","","32","","","","","","","","","","","","","","","","","","","","","","","","","","","","","","","","","","","","","",""
"","bandit","13","126221","0.0-12.0-0.0","14202998","wem/bandit_party_2","AV581SCZZM1YE","either","6","2498","","","","","","","0","0","1","0","0","","","","","0","","","","0","","","","","","","","","","","","","74","J","0","img/none_selected_demo.jpg","true","0","","",""
"","bandit","14","128640","0.0-13.0-0.0","14202998","wem/bandit_party_2","AV581SCZZM1YE","either","6","901","","","","","","","0","0","1","0","0","","","","","0","","","","0","","","","","","","","","","","","","75","K","0","img/none_selected_demo.jpg","true","0","","",""
"","text-replacement","15","137823","0.0-14.0","14202998","wem/bandit_party_2","AV581SCZZM1YE","either","6","9175","","","32","","","","","","","","","","","","","","","","","","","","","","","","","","","","","","","","","","","","","",""
"","text-replacement","16","151923","0.0-15.0","14202998","wem/bandit_party_2","AV581SCZZM1YE","either","6","14099","","","32","","","","","","","","","","","","","","","","","","","","","","","","","","","","","","","","","","","","","",""
"","text-replacement","17","178131","0.0-16.0","14202998","wem/bandit_party_2","AV581SCZZM1YE","either","6","26206","","","32","","","","","","","","","","","","","","","","","","","","","","","","","","","","","","","","","","","","","",""
"","text-replacement","18","184211","0.0-17.0","14202998","wem/bandit_party_2","AV581SCZZM1YE","either","6","6072","","","32","","","","","","","","","","","","","","","","","","","","","","","","","","","","","","","","","","","","","",""
"","bandit","19","187097","0.0-18.0-0.0","14202998","wem/bandit_party_2","AV581SCZZM1YE","either","6","1375","","","","","","","0","0","1","","0.2","0.5","0.5","","","0.8","0.2","","","","","","","","","","","","","","","","75","K","1","","true","0","80_20_practice","",""
"","bandit","20","188717","0.0-18.0-1.0","14202998","wem/bandit_party_2","AV581SCZZM1YE","either","6","107","","","","","","","1","0","0","0.8","","0.5","0.5","","","","","","","0.8","0.2","","","","","","","","","","","","74","J","0","img/none_selected_demo.jpg","true","0","80_20_practice","",""
"","bandit","21","191570","0.0-18.0-2.0","14202998","wem/bandit_party_2","AV581SCZZM1YE","either","6","1338","","","","","","","0","1","0","","0.8","0.5","0.5","","","0.8","0.2","","","","","","","","","","","","","","","","74","J","0","img/none_selected_demo.jpg","true","0","80_20_practice","",""
"","bandit","22","193266","0.0-18.0-3.0","14202998","wem/bandit_party_2","AV581SCZZM1YE","either","6","182","","","","","","","0","0","1","0.2","","0.5","0.5","","","","","","","0.8","0.2","","","","","","","","","","","","75","K","1","","true","0","80_20_practice","",""
"","bandit","23","195717","0.0-18.0-4.0","14202998","wem/bandit_party_2","AV581SCZZM1YE","either","6","932","","","","","","","0","0","1","","0.2","0.5","0.5","","","0.8","0.2","","","","","","","","","","","","","","","","75","K","1","","true","0","80_20_practice","",""
"","bandit","24","197528","0.0-18.0-5.0","14202998","wem/bandit_party_2","AV581SCZZM1YE","either","6","297","","","","","","","0","1","0","","0.8","0.5","0.5","","","0.8","0.2","","","","","","","","","","","","","","","","74","J","0","img/none_selected_demo.jpg","true","0","80_20_practice","",""
"","bandit","25","199439","0.0-18.0-6.0","14202998","wem/bandit_party_2","AV581SCZZM1YE","either","6","389","","","","","","","0","0","1","0.2","","0.5","0.5","","","","","","","0.8","0.2","","","","","","","","","","","","75","K","1","","true","0","80_20_practice","",""
"","bandit","26","201246","0.0-18.0-7.0","14202998","wem/bandit_party_2","AV581SCZZM1YE","either","6","296","","","","","","","0","0","1","","0.8","0.5","0.5","","","0.8","0.2","","","","","","","","","","","","","","","","74","J","0","img/none_selected_demo.jpg","true","0","80_20_practice","",""
"","bandit","27","203343","0.0-18.0-8.0","14202998","wem/bandit_party_2","AV581SCZZM1YE","either","6","587","","","","","","","0","0","1","0.2","","0.5","0.5","","","","","","","0.8","0.2","","","","","","","","","","","","75","K","1","","true","0","80_20_practice","",""
"","bandit","28","205346","0.0-18.0-9.0","14202998","wem/bandit_party_2","AV581SCZZM1YE","either","6","489","","","","","","","0","0","1","","0.2","0.5","0.5","","","0.8","0.2","","","","","","","","","","","","","","","","75","K","1","","true","0","80_20_practice","",""
"","bandit","29","207096","0.0-18.0-10.0","14202998","wem/bandit_party_2","AV581SCZZM1YE","either","6","237","","","","","","","1","0","0","0.8","","0.5","0.5","","","","","","","0.8","0.2","","","","","","","","","","","","74","J","0","img/none_selected_demo.jpg","true","0","80_20_practice","",""
"","bandit","30","209403","0.0-18.0-11.0","14202998","wem/bandit_party_2","AV581SCZZM1YE","either","6","798","","","","","","","0","1","0","","0.8","0.5","0.5","","","0.8","0.2","","","","","","","","","","","","","","","","74","J","0","img/none_selected_demo.jpg","true","0","80_20_practice","",""
"","bandit","31","211517","0.0-18.0-12.0","14202998","wem/bandit_party_2","AV581SCZZM1YE","either","6","596","","","","","","","0","0","1","0.2","","0.5","0.5","","","","","","","0.8","0.2","","","","","","","","","","","","75","K","1","","true","0","80_20_practice","",""
"","bandit","32","213409","0.0-18.0-13.0","14202998","wem/bandit_party_2","AV581SCZZM1YE","either","6","372","","","","","","","1","0","0","0.8","","0.5","0.5","","","","","","","0.8","0.2","","","","","","","","","","","","74","J","0","img/none_selected_demo.jpg","true","0","80_20_practice","",""
"","bandit","33","218393","0.0-18.0-14.0","14202998","wem/bandit_party_2","AV581SCZZM1YE","either","6","3472","","","","","","","0","0","1","","0.2","0.5","0.5","","","0.8","0.2","","","","","","","","","","","","","","","","75","K","1","","true","0","80_20_practice","",""
"","bandit","34","220474","0.0-18.0-15.0","14202998","wem/bandit_party_2","AV581SCZZM1YE","either","6","564","","","","","","","0","0","1","","0.8","0.5","0.5","","","0.8","0.2","","","","","","","","","","","","","","","","74","J","0","img/none_selected_demo.jpg","true","0","80_20_practice","",""
"","bandit","35","222088","0.0-18.0-16.0","14202998","wem/bandit_party_2","AV581SCZZM1YE","either","6","98","","","","","","","0","1","0","","0.8","0.5","0.5","","","0.8","0.2","","","","","","","","","","","","","","","","74","J","0","img/none_selected_demo.jpg","true","0","80_20_practice","",""
"","bandit","36","225531","0.0-18.0-17.0","14202998","wem/bandit_party_2","AV581SCZZM1YE","either","6","1926","","","","","","","0","0","1","","0.2","0.5","0.5","","","0.8","0.2","","","","","","","","","","","","","","","","75","K","1","","true","0","80_20_practice","",""
"","bandit","37","227197","0.0-18.0-18.0","14202998","wem/bandit_party_2","AV581SCZZM1YE","either","6","148","","","","","","","0","1","0","","0.8","0.5","0.5","","","0.8","0.2","","","","","","","","","","","","","","","","74","J","0","img/none_selected_demo.jpg","true","0","80_20_practice","",""
"","bandit","38","229236","0.0-18.0-19.0","14202998","wem/bandit_party_2","AV581SCZZM1YE","either","6","523","","","","","","","1","0","0","0.8","","0.5","0.5","","","","","","","0.8","0.2","","","","","","","","","","","","74","J","0","img/none_selected_demo.jpg","true","0","80_20_practice","",""
"","text-replacement","39","242858","0.0-19.0","14202998","wem/bandit_party_2","AV581SCZZM1YE","either","6","13618","","","32","","","","","","","","","","","","","","","","","","","","","","","","","","","","","","","","","","","","","",""
"","bandit","40","246581","0.0-20.0-0.0","14202998","wem/bandit_party_2","AV581SCZZM1YE","either","6","2209","","","","","","","0","1","0","0","1","","","","","0","1","","","1","0","","","","","","","","","","","","75","K","1","","true","0","","",""
"","text-replacement","41","246739","0.0-21.0","14202998","wem/bandit_party_2","AV581SCZZM1YE","either","6","150","","","74","","","","","","","","","","","","","","","","","","","","","","","","","","","","","","","","","","","","","",""
"","text-replacement","42","256428","0.0-22.0","14202998","wem/bandit_party_2","AV581SCZZM1YE","either","6","9689","","","32","","","","","","","","","","","","","","","","","","","","","","","","","","","","","","","","","","","","","",""
"","text-replacement","43","263839","0.0-23.0","14202998","wem/bandit_party_2","AV581SCZZM1YE","either","6","7402","","","32","","","","","","","","","","","","","","","","","","","","","","","","","","","","","","","","","","","","","",""
"","text-replacement","44","279511","0.0-24.0","14202998","wem/bandit_party_2","AV581SCZZM1YE","either","6","15664","","","32","","","","","","","","","","","","","","","","","","","","","","","","","","","","","","","","","","","","","",""
"","text-replacement","45","294297","0.0-25.0","14202998","wem/bandit_party_2","AV581SCZZM1YE","either","6","14782","","","32","","","","","","","","","","","","","","","","","","","","","","","","","","","","","","","","","","","","","",""
"","text-replacement","46","297629","0.0-26.0","14202998","wem/bandit_party_2","AV581SCZZM1YE","either","6","3324","","","32","","","","","","","","","","","","","","","","","","","","","","","","","","","","","","","","","","","","","",""
"","text-replacement","47","365145","0.0-27.0","14202998","wem/bandit_party_2","AV581SCZZM1YE","either","6","67516","","","32","","","","","","","","","","","","","","","","","","","","","","","","","","","","","","","","","","","","","",""
"","text-replacement","48","367911","0.0-28.0","14202998","wem/bandit_party_2","AV581SCZZM1YE","either","6","2760","","","32","","","","","","","","","","","","","","","","","","","","","","","","","","","","","","","","","","","","","",""
"","text-replacement","49","372231","0.0-29.0","14202998","wem/bandit_party_2","AV581SCZZM1YE","either","6","4313","","","32","","","","","","","","","","","","","","","","","","","","","","","","","","","","","","","","","","","","","",""
"","text-replacement","50","374368","0.0-30.0","14202998","wem/bandit_party_2","AV581SCZZM1YE","either","6","2133","","","32","","","","","","","","","","","","","","","","","","","","","","","","","","","","","","","","","","","","","",""
"","text-replacement","51","378660","0.0-31.0","14202998","wem/bandit_party_2","AV581SCZZM1YE","either","6","4284","","","32","","","","","","","","","","","","","","","","","","","","","","","","","","","","","","","","","","","","","",""
"","bandit","52","381397","0.0-32.0-0.0","14202998","wem/bandit_party_2","AV581SCZZM1YE","either","6","1222","","","","","","","0","1","0","","0.6","0.5","0.5","0.5","0.5","0.8","0.2","0.6","0.2","","","","","","","","","","","","","","75","K","2","","true","0","full_practice","",""
"","bandit","53","383196","0.0-32.0-1.0","14202998","wem/bandit_party_2","AV581SCZZM1YE","either","6","284","","","","","","","0","0","1","","0.2","0.5","0.5","0.5","0.5","0.8","0.2","0.6","0.2","","","","","","","","","","","","","","74","J","1","","true","0","full_practice","",""
"","bandit","54","385687","0.0-32.0-2.0","14202998","wem/bandit_party_2","AV581SCZZM1YE","either","6","976","","","","","","","1","0","0","0.8","","0.5","0.5","0.5","0.5","","","","","0.8","0.2","0.6","0.2","","","","","","","","","","72","H","0","img/none_selected.jpg","true","0","full_practice","",""
"","bandit","55","388675","0.0-32.0-3.0","14202998","wem/bandit_party_2","AV581SCZZM1YE","either","6","1475","","","","","","","0","0","1","","0.2","0.5","0.5","0.5","0.5","0.8","0.2","0.6","0.2","","","","","","","","","","","","","","76","L","3","","true","0","full_practice","",""
"","bandit","56","390847","0.0-32.0-4.0","14202998","wem/bandit_party_2","AV581SCZZM1YE","either","6","656","","","","","","","0","0","1","0.6","","0.5","0.5","0.5","0.5","","","","","0.8","0.2","0.6","0.2","","","","","","","","","","75","K","2","","true","0","full_practice","",""
"","bandit","57","392571","0.0-32.0-5.0","14202998","wem/bandit_party_2","AV581SCZZM1YE","either","6","205","","","","","","","0","0","1","","0.2","0.5","0.5","0.5","0.5","0.8","0.2","0.6","0.2","","","","","","","","","","","","","","74","J","1","","true","0","full_practice","",""
"","bandit","58","394636","0.0-32.0-6.0","14202998","wem/bandit_party_2","AV581SCZZM1YE","either","6","553","","","","","","","0","1","0","","0.8","0.5","0.5","0.5","0.5","0.8","0.2","0.6","0.2","","","","","","","","","","","","","","72","H","0","img/none_selected.jpg","true","0","full_practice","",""
"","bandit","59","396427","0.0-32.0-7.0","14202998","wem/bandit_party_2","AV581SCZZM1YE","either","6","279","","","","","","","1","0","0","0.8","","0.5","0.5","0.5","0.5","","","","","0.8","0.2","0.6","0.2","","","","","","","","","","72","H","0","img/none_selected.jpg","true","0","full_practice","",""
"","bandit","60","406226","0.0-32.0-8.0","14202998","wem/bandit_party_2","AV581SCZZM1YE","either","6","8284","","","","","","","0","0","1","","0.2","0.5","0.5","0.5","0.5","0.8","0.2","0.6","0.2","","","","","","","","","","","","","","74","J","1","","true","0","full_practice","",""
"","bandit","61","407939","0.0-32.0-9.0","14202998","wem/bandit_party_2","AV581SCZZM1YE","either","6","196","","","","","","","1","0","0","0.8","","0.5","0.5","0.5","0.5","","","","","0.8","0.2","0.6","0.2","","","","","","","","","","72","H","0","img/none_selected.jpg","true","0","full_practice","",""
"","bandit","62","410587","0.0-32.0-10.0","14202998","wem/bandit_party_2","AV581SCZZM1YE","either","6","1131","","","","","","","0","0","1","0.2","","0.5","0.5","0.5","0.5","","","","","0.8","0.2","0.6","0.2","","","","","","","","","","74","J","1","","true","0","full_practice","",""
"","bandit","63","412519","0.0-32.0-11.0","14202998","wem/bandit_party_2","AV581SCZZM1YE","either","6","413","","","","","","","0","0","1","0.6","","0.5","0.5","0.5","0.5","","","","","0.8","0.2","0.6","0.2","","","","","","","","","","75","K","2","","true","0","full_practice","",""
"","bandit","64","414357","0.0-32.0-12.0","14202998","wem/bandit_party_2","AV581SCZZM1YE","either","6","319","","","","","","","1","0","0","0.8","","0.5","0.5","0.5","0.5","","","","","0.8","0.2","0.6","0.2","","","","","","","","","","72","H","0","img/none_selected.jpg","true","0","full_practice","",""
"","bandit","65","417050","0.0-32.0-13.0","14202998","wem/bandit_party_2","AV581SCZZM1YE","either","6","1172","","","","","","","0","0","1","0.8","","0.5","0.5","0.5","0.5","","","","","0.8","0.2","0.6","0.2","","","","","","","","","","72","H","0","img/none_selected.jpg","true","0","full_practice","",""
"","bandit","66","419087","0.0-32.0-14.0","14202998","wem/bandit_party_2","AV581SCZZM1YE","either","6","525","","","","","","","0","1","0","","0.2","0.5","0.5","0.5","0.5","0.8","0.2","0.6","0.2","","","","","","","","","","","","","","76","L","3","","true","0","full_practice","",""
"","bandit","67","420738","0.0-32.0-15.0","14202998","wem/bandit_party_2","AV581SCZZM1YE","either","6","137","","","","","","","1","0","0","0.6","","0.5","0.5","0.5","0.5","","","","","0.8","0.2","0.6","0.2","","","","","","","","","","75","K","2","","true","0","full_practice","",""
"","bandit","68","423810","0.0-32.0-16.0","14202998","wem/bandit_party_2","AV581SCZZM1YE","either","6","1556","","","","","","","0","0","1","0.2","","0.5","0.5","0.5","0.5","","","","","0.8","0.2","0.6","0.2","","","","","","","","","","74","J","1","","true","0","full_practice","",""
"","bandit","69","425763","0.0-32.0-17.0","14202998","wem/bandit_party_2","AV581SCZZM1YE","either","6","442","","","","","","","0","0","1","0.6","","0.5","0.5","0.5","0.5","","","","","0.8","0.2","0.6","0.2","","","","","","","","","","75","K","2","","true","0","full_practice","",""
"","bandit","70","427639","0.0-32.0-18.0","14202998","wem/bandit_party_2","AV581SCZZM1YE","either","6","357","","","","","","","1","0","0","0.8","","0.5","0.5","0.5","0.5","","","","","0.8","0.2","0.6","0.2","","","","","","","","","","72","H","0","img/none_selected.jpg","true","0","full_practice","",""
"","bandit","71","432449","0.0-32.0-19.0","14202998","wem/bandit_party_2","AV581SCZZM1YE","either","6","3284","","","","","","","0","1","0","","0.8","0.5","0.5","0.5","0.5","0.8","0.2","0.6","0.2","","","","","","","","","","","","","","72","H","0","img/none_selected.jpg","true","0","full_practice","",""
"","text","72","435961","0.0-33.0","14202998","wem/bandit_party_2","AV581SCZZM1YE","either","6","3492","","","32","","","","","","","","","","","","","","","","","","","","","","","","","","","","","","","","","","","","","",""
"","text-replacement","73","468802","0.0-34.0","14202998","wem/bandit_party_2","AV581SCZZM1YE","either","6","31833","","","32","","","","","","","","","","","","","","","","","","","","","","","","","","","","","","","","","","","","","",""
"","text-replacement","74","470605","0.0-35.0","14202998","wem/bandit_party_2","AV581SCZZM1YE","either","6","1801","","","32","","","","","","","","","","","","","","","","","","","","","","","","","","","","","","","","","","","","","",""
"","text-replacement","75","533866","0.0-36.0","14202998","wem/bandit_party_2","AV581SCZZM1YE","either","6","63256","","","32","","","","","","","","","","","","","","","","","","","","","","","","","","","","","","","","","","","","","",""
"","text-replacement","76","539877","0.0-37.0","14202998","wem/bandit_party_2","AV581SCZZM1YE","either","6","6003","","","32","","","","","","","","","","","","","","","","","","","","","","","","","","","","","","","","","","","","","",""
"","text-replacement","77","547598","0.0-38.0","14202998","wem/bandit_party_2","AV581SCZZM1YE","either","6","7713","","","32","","","","","","","","","","","","","","","","","","","","","","","","","","","","","","","","","","","","","",""
"","survey-multi-choice-replacement","78","556010","0.0-39.0-0.0","14202998","wem/bandit_party_2","AV581SCZZM1YE","either","6","8392","","","","","","","","","","","","","","","","","","","","","","","","Equal amounts of money will be added to the pool for <span style='color:blue;'>DEMOCRATS</span> and subtracted from the pool for <span style='color:red;'>REPUBLICANS</span>","","","","","","","attn_check","","","","","","","","","2",""
"","instructions","79","558656","0.0-39.0-1.0-0.0","14202998","wem/bandit_party_2","AV581SCZZM1YE","either","6","1631","","","","","","","","","","","","","","","","","","","","","","","","","","","","","","","","","","","","","","","","","[{""page_index"":0,""viewing_time"":1631}]"
"","survey-multi-choice-replacement","80","562119","0.0-39.1-0.1","14202998","wem/bandit_party_2","AV581SCZZM1YE","either","6","2438","","","","","","","","","","","","","","","","","","","","","","","","Money will be added to the pool for <span style='color:blue;'>DEMOCRATS</span>","","","","","","","attn_check","","","","","","","","","0",""
"","survey-multi-choice-replacement","81","567299","0.0-40.0-0.0","14202998","wem/bandit_party_2","AV581SCZZM1YE","either","6","4151","","","","","","","","","","","","","","","","","","","","","","","","Money will be subtracted from the pool for <span style='color:red;'>REPUBLICANS</span>","","","","","","","attn_check","","","","","","","","","1",""
"","instructions","82","569825","0.0-40.0-1.0-0.0","14202998","wem/bandit_party_2","AV581SCZZM1YE","either","6","1512","","","","","","","","","","","","","","","","","","","","","","","","","","","","","","","","","","","","","","","","","[{""page_index"":0,""viewing_time"":1512}]"
"","survey-multi-choice-replacement","83","573440","0.0-40.1-0.1","14202998","wem/bandit_party_2","AV581SCZZM1YE","either","6","2595","","","","","","","","","","","","","","","","","","","","","","","","Equal amounts of money will be added to the pool for <span style='color:blue;'>DEMOCRATS</span> and subtracted from the pool for <span style='color:red;'>REPUBLICANS</span>","","","","","","","attn_check","","","","","","","","","2",""
"","survey-multi-choice-replacement","84","578061","0.0-41.0-0.0","14202998","wem/bandit_party_2","AV581SCZZM1YE","either","6","3599","","","","","","","","","","","","","","","","","","","","","","","","No money will be added to either pool","","","","","","","attn_check","","","","","","","","","3",""
"","bandit","85","585794","0.0-42.0-0.0","14202998","wem/bandit_party_2","AV581SCZZM1YE","either","6","5205","","","","","","","0","0","1","0.2309914537","","0.2","0.4","0.8","0.6","","","","","0.2309914537","0.7197236342","0.3049938501","0.1947351938","","","","","","","","","","72","H","0","img/none_selected.jpg","","1","main_expt","",""
"","bandit","86","587645","0.0-43.0-0.0","14202998","wem/bandit_party_2","AV581SCZZM1YE","either","6","326","","","","","","","0","0","1","","0.7453792406","0.2","0.4","0.8","0.6","0.2351366282","0.7453792406","0.3105507028","0.1865171684","","","","","","","","","","","","","","74","J","1","","","2","main_expt","",""
"","bandit","87","589813","0.0-44.0-0.0","14202998","wem/bandit_party_2","AV581SCZZM1YE","either","6","653","","","","","","","1","0","0","0.3338792953","","0.2","0.4","0.8","0.6","","","","","0.3338792953","0.7422746785","0.347932066","0.1578482069","","","","","","","","","","72","H","0","img/none_selected.jpg","","3","main_expt","",""
"","bandit","88","592024","0.0-45.0-0.0","14202998","wem/bandit_party_2","AV581SCZZM1YE","either","6","694","","","","","","","0","0","1","","0.2578124611","0.2","0.4","0.8","0.6","0.2578124611","0.8152876082","0.294099503","0.1733557992","","","","","","","","","","","","","","72","H","0","img/none_selected.jpg","","4","main_expt","",""
"","bandit","89","593779","0.0-46.0-0.0","14202998","wem/bandit_party_2","AV581SCZZM1YE","either","6","234","","","","","","","0","0","1","","0.256228135","0.2","0.4","0.8","0.6","0.152782507","0.8494846052","0.256228135","0.1275681293","","","","","","","","","","","","","","75","K","2","","","5","main_expt","",""
"","bandit","90","596447","0.0-47.0-0.0","14202998","wem/bandit_party_2","AV581SCZZM1YE","either","6","1150","","","","","","","0","0","1","0.200224935","","0.2","0.4","0.8","0.6","","","","","0.200224935","0.8036792828","0.3142053347","0.1776351543","","","","","","","","","","72","H","0","img/none_selected.jpg","","6","main_expt","",""
"","bandit","91","598035","0.0-48.0-0.0","14202998","wem/bandit_party_2","AV581SCZZM1YE","either","6","68","","","","","","","0","1","0","","0.8659664865","0.2","0.4","0.8","0.6","0.2200442108","0.8659664865","0.2382568898","0.1412615145","","","","","","","","","","","","","","74","J","1","","","7","main_expt","",""
"","bandit","92","600020","0.0-49.0-0.0","14202998","wem/bandit_party_2","AV581SCZZM1YE","either","6","472","","","","","","","0","0","1","","0.1508054742","0.2","0.4","0.8","0.6","0.1516915951","0.8475436228","0.220471749","0.1508054742","","","","","","","","","","","","","","76","L","3","","","8","main_expt","",""
"","bandit","93","603202","0.0-50.0-0.0","14202998","wem/bandit_party_2","AV581SCZZM1YE","either","6","1661","","","","","","","0","0","1","","0.1468829212","0.2","0.4","0.8","0.6","0.1468829212","0.8034999265","0.2842820234","0.1882404854","","","","","","","","","","","","","","72","H","0","img/none_selected.jpg","","9","main_expt","",""
"","bandit","94","605069","0.0-51.0-0.0","14202998","wem/bandit_party_2","AV581SCZZM1YE","either","6","351","","","","","","","1","0","0","0.7148412232","","0.2","0.4","0.8","0.6","","","","","0.1507643719","0.7148412232","0.3392415315","0.1731305678","","","","","","","","","","74","J","1","","","10","main_expt","",""
"","bandit","95","606950","0.0-52.0-0.0","14202998","wem/bandit_party_2","AV581SCZZM1YE","either","6","368","","","","","","","0","0","1","","0.18301","0.2","0.4","0.8","0.6","0.18301","0.7213030285","0.4470346709","0.2475279461","","","","","","","","","","","","","","72","H","0","img/none_selected.jpg","","11","main_expt","",""
"","bandit","96","608616","0.0-53.0-0.0","14202998","wem/bandit_party_2","AV581SCZZM1YE","either","6","143","","","","","","","0","1","0","","0.7396148754","0.2","0.4","0.8","0.6","0.209562337","0.7396148754","0.5143820195","0.2068792089","","","","","","","","","","","","","","74","J","1","","","12","main_expt","",""
"","bandit","97","610415","0.0-54.0-0.0","14202998","wem/bandit_party_2","AV581SCZZM1YE","either","6","285","","","","","","","0","1","0","","0.4934308908","0.2","0.4","0.8","0.6","0.2133897639","0.6870781676","0.4934308908","0.1594062408","","","","","","","","","","","","","","75","K","2","","","13","main_expt","",""
"","bandit","98","612652","0.0-55.0-0.0","14202998","wem/bandit_party_2","AV581SCZZM1YE","either","6","709","","","","","","","0","0","1","0.6561171826","","0.2","0.4","0.8","0.6","","","","","0.1865122749","0.6561171826","0.5884397519","0.1808320347","","","","","","","","","","74","J","1","","","14","main_expt","",""
"","bandit","99","614760","0.0-56.0-0.0","14202998","wem/bandit_party_2","AV581SCZZM1YE","either","6","587","","","","","","","0","0","1","","0.2401125286","0.2","0.4","0.8","0.6","0.3169691733","0.6255101569","0.425765204","0.2401125286","","","","","","","","","","","","","","76","L","3","","","15","main_expt","",""
"","bandit","100","616665","0.0-57.0-0.0","14202998","wem/bandit_party_2","AV581SCZZM1YE","either","6","387","","","","","","","0","0","1","","0.3927767979","0.2","0.4","0.8","0.6","0.3927767979","0.6101220295","0.4458974369","0.1823220599","","","","","","","","","","","","","","72","H","0","img/none_selected.jpg","","16","main_expt","",""
"","bandit","101","618446","0.0-58.0-0.0","14202998","wem/bandit_party_2","AV581SCZZM1YE","either","6","261","","","","","","","0","0","1","0.6233337625","","0.2","0.4","0.8","0.6","","","","","0.2882183284","0.6233337625","0.4907358526","0.2076179308","","","","","","","","","","74","J","1","","","17","main_expt","",""
"","bandit","102","620128","0.0-59.0-0.0","14202998","wem/bandit_party_2","AV581SCZZM1YE","either","6","164","","","","","","","0","0","1","0.4895096529","","0.2","0.4","0.8","0.6","","","","","0.3212622409","0.598865074","0.4895096529","0.2310064443","","","","","","","","","","75","K","2","","","18","main_expt","",""
"","bandit","103","621795","0.0-60.0-0.0","14202998","wem/bandit_party_2","AV581SCZZM1YE","either","6","149","","","","","","","0","0","1","0.3678238944","","0.2","0.4","0.8","0.6","","","","","0.3678238944","0.6318918302","0.5437378015","0.1919199612","","","","","","","","","","72","H","0","img/none_selected.jpg","","19","main_expt","",""
"","bandit","104","623639","0.0-61.0-0.0","14202998","wem/bandit_party_2","AV581SCZZM1YE","either","6","332","","","","","","","0","0","1","","0.4357360734","0.2","0.4","0.8","0.6","0.4357360734","0.5667690756","0.543071052","0.2150176637","","","","","","","","","","","","","","72","H","0","img/none_selected.jpg","","20","main_expt","",""
"","bandit","105","625321","0.0-62.0-0.0","14202998","wem/bandit_party_2","AV581SCZZM1YE","either","6","164","","","","","","","0","0","1","","0.6364396753","0.2","0.4","0.8","0.6","0.4486518506","0.6364396753","0.5457928974","0.2980309021","","","","","","","","","","","","","","74","J","1","","","21","main_expt","",""
"","bandit","106","627152","0.0-63.0-0.0","14202998","wem/bandit_party_2","AV581SCZZM1YE","either","6","316","","","","","","","0","0","1","0.4531799458","","0.2","0.4","0.8","0.6","","","","","0.5145372488","0.5563436533","0.4531799458","0.3238742104","","","","","","","","","","75","K","2","","","22","main_expt","",""
"","bandit","107","628776","0.0-64.0-0.0","14202998","wem/bandit_party_2","AV581SCZZM1YE","either","6","100","","","","","","","0","0","1","0.4158928209","","0.2","0.4","0.8","0.6","","","","","0.6324996067","0.4555064456","0.4321579995","0.4158928209","","","","","","","","","","76","L","3","","","23","main_expt","",""
"","bandit","108","630535","0.0-65.0-0.0","14202998","wem/bandit_party_2","AV581SCZZM1YE","either","6","238","","","","","","","0","1","0","","0.4398961724","0.2","0.4","0.8","0.6","0.6665025749","0.4398961724","0.3892872195","0.2798670784","","","","","","","","","","","","","","74","J","1","","","24","main_expt","",""
"","bandit","109","632420","0.0-66.0-0.0","14202998","wem/bandit_party_2","AV581SCZZM1YE","either","6","367","","","","","","","0","1","0","","0.5316582614","0.2","0.4","0.8","0.6","0.5316582614","0.3810464824","0.4322880781","0.3932164435","","","","","","","","","","","","","","72","H","0","img/none_selected.jpg","","25","main_expt","",""
"","bandit","110","634178","0.0-67.0-0.0","14202998","wem/bandit_party_2","AV581SCZZM1YE","either","6","237","","","","","","","0","1","0","","0.451695138","0.2","0.4","0.8","0.6","0.4282094451","0.451695138","0.4560392573","0.3243459504","","","","","","","","","","","","","","74","J","1","","","26","main_expt","",""
"","bandit","111","636056","0.0-68.0-0.0","14202998","wem/bandit_party_2","AV581SCZZM1YE","either","6","360","","","","","","","0","0","1","","0.4711380508","0.2","0.4","0.8","0.6","0.4711380508","0.4423729324","0.5372901799","0.4266302179","","","","","","","","","","","","","","72","H","0","img/none_selected.jpg","","27","main_expt","",""
"","bandit","112","637717","0.0-69.0-0.0","14202998","wem/bandit_party_2","AV581SCZZM1YE","either","6","140","","","","","","","1","0","0","0.4221124674","","0.2","0.4","0.8","0.6","","","","","0.4539290932","0.4221124674","0.6619872032","0.4206607535","","","","","","","","","","74","J","1","","","28","main_expt","",""
"","bandit","113","639514","0.0-70.0-0.0","14202998","wem/bandit_party_2","AV581SCZZM1YE","either","6","278","","","","","","","0","0","1","","0.4378511583","0.2","0.4","0.8","0.6","0.4378511583","0.489207998","0.5939885142","0.440099583","","","","","","","","","","","","","","72","H","0","img/none_selected.jpg","","29","main_expt","",""
"","bandit","114","641413","0.0-71.0-0.0","14202998","wem/bandit_party_2","AV581SCZZM1YE","either","6","378","","","","","","","0","0","1","0.5602145404","","0.2","0.4","0.8","0.6","","","","","0.3425428874","0.4406356357","0.5602145404","0.3982168329","","","","","","","","","","75","K","2","","","30","main_expt","",""
"","bandit","115","643253","0.0-72.0-0.0","14202998","wem/bandit_party_2","AV581SCZZM1YE","either","6","312","","","","","","","0","0","1","0.484130952","","0.2","0.4","0.8","0.6","","","","","0.2354865125","0.484130952","0.5376870091","0.3573437221","","","","","","","","","","74","J","1","","","31","main_expt","",""
"","bandit","116","645204","0.0-73.0-0.0","14202998","wem/bandit_party_2","AV581SCZZM1YE","either","6","432","","","","","","","1","0","0","0.3712986889","","0.2","0.4","0.8","0.6","","","","","0.2552437171","0.432294219","0.6346195819","0.3712986889","","","","","","","","","","76","L","3","","","32","main_expt","",""
"","bandit","117","647335","0.0-74.0-0.0","14202998","wem/bandit_party_2","AV581SCZZM1YE","either","6","613","","","","","","","0","0","1","","0.2470382599","0.2","0.4","0.8","0.6","0.2470382599","0.4821309474","0.7540961955","0.45096985","","","","","","","","","","","","","","72","H","0","img/none_selected.jpg","","33","main_expt","",""
"","bandit","118","649483","0.0-75.0-0.0","14202998","wem/bandit_party_2","AV581SCZZM1YE","either","6","629","","","","","","","0","1","0","","0.5559331637","0.2","0.4","0.8","0.6","0.2951894024","0.4702474349","0.699797925","0.5559331637","","","","","","","","","","","","","","76","L","3","","","34","main_expt","",""
"","bandit","119","651785","0.0-76.0-0.0","14202998","wem/bandit_party_2","AV581SCZZM1YE","either","6","780","","","","","","","0","1","0","","0.5363697359","0.2","0.4","0.8","0.6","0.2596626779","0.5363697359","0.7410295452","0.7354386419","","","","","","","","","","","","","","74","J","1","","","35","main_expt","",""
"","bandit","120","653566","0.0-77.0-0.0","14202998","wem/bandit_party_2","AV581SCZZM1YE","either","6","262","","","","","","","1","0","0","0.7332281969","","0.2","0.4","0.8","0.6","","","","","0.3164764808","0.602250539","0.7332281969","0.6934166837","","","","","","","","","","75","K","2","","","36","main_expt","",""
"","bandit","121","655424","0.0-78.0-0.0","14202998","wem/bandit_party_2","AV581SCZZM1YE","either","6","335","","","","","","","0","0","1","","0.3672962009","0.2","0.4","0.8","0.6","0.3672962009","0.5337433964","0.736713329","0.6311869688","","","","","","","","","","","","","","72","H","0","img/none_selected.jpg","","37","main_expt","",""
"","bandit","122","657916","0.0-79.0-0.0","14202998","wem/bandit_party_2","AV581SCZZM1YE","either","6","969","","","","","","","1","0","0","0.6860808007","","0.2","0.4","0.8","0.6","","","","","0.4056598401","0.5970413872","0.6860808007","0.6583504975","","","","","","","","","","75","K","2","","","38","main_expt","",""
"","bandit","123","659822","0.0-80.0-0.0","14202998","wem/bandit_party_2","AV581SCZZM1YE","either","6","388","","","","","","","1","0","0","0.7498761973","","0.2","0.4","0.8","0.6","","","","","0.4236995386","0.6529448079","0.7498761973","0.5861321806","","","","","","","","","","75","K","2","","","39","main_expt","",""
"","bandit","124","661433","0.0-81.0-0.0","14202998","wem/bandit_party_2","AV581SCZZM1YE","either","6","89","","","","","","","0","0","1","0.6612991154","","0.2","0.4","0.8","0.6","","","","","0.4365163158","0.6612991154","0.7043283504","0.4892836735","","","","","","","","","","74","J","1","","","40","main_expt","",""
"","bandit","125","663023","0.0-82.0-0.0","14202998","wem/bandit_party_2","AV581SCZZM1YE","either","6","71","","","","","","","0","0","1","","0.4854269132","0.2","0.4","0.8","0.6","0.4854269132","0.7390431107","0.6469690382","0.3479900608","","","","","","","","","","","","","","72","H","0","img/none_selected.jpg","","41","main_expt","",""
"","bandit","126","664632","0.0-83.0-0.0","14202998","wem/bandit_party_2","AV581SCZZM1YE","either","6","88","","","","","","","1","0","0","0.7609423287","","0.2","0.4","0.8","0.6","","","","","0.4753587859","0.7609423287","0.6388905256","0.376709287","","","","","","","","","","74","J","1","","","42","main_expt","",""
"","bandit","127","666543","0.0-84.0-0.0","14202998","wem/bandit_party_2","AV581SCZZM1YE","either","6","394","","","","","","","1","0","0","0.6383372244","","0.2","0.4","0.8","0.6","","","","","0.452202747","0.8039673949","0.6383372244","0.4319300722","","","","","","","","","","75","K","2","","","43","main_expt","",""
"","bandit","128","668926","0.0-85.0-0.0","14202998","wem/bandit_party_2","AV581SCZZM1YE","either","6","861","","","","","","","0","1","0","","0.5522191005","0.2","0.4","0.8","0.6","0.5522191005","0.8216753652","0.6247854939","0.4458636389","","","","","","","","","","","","","","72","H","0","img/none_selected.jpg","","44","main_expt","",""
"","bandit","129","670731","0.0-86.0-0.0","14202998","wem/bandit_party_2","AV581SCZZM1YE","either","6","287","","","","","","","0","1","0","","0.6341880498","0.2","0.4","0.8","0.6","0.4878962787","0.7636866317","0.6341880498","0.4323480181","","","","","","","","","","","","","","75","K","2","","","45","main_expt","",""
"","bandit","130","672522","0.0-87.0-0.0","14202998","wem/bandit_party_2","AV581SCZZM1YE","either","6","269","","","","","","","1","0","0","0.8203755575","","0.2","0.4","0.8","0.6","","","","","0.487595293","0.8203755575","0.5081310512","0.4348202433","","","","","","","","","","74","J","1","","","46","main_expt","",""
"","bandit","131","674362","0.0-88.0-0.0","14202998","wem/bandit_party_2","AV581SCZZM1YE","either","6","321","","","","","","","0","0","1","0.444754188","","0.2","0.4","0.8","0.6","","","","","0.444754188","0.8706375764","0.4202927251","0.3430847618","","","","","","","","","","72","H","0","img/none_selected.jpg","","47","main_expt","",""
"","bandit","132","675964","0.0-89.0-0.0","14202998","wem/bandit_party_2","AV581SCZZM1YE","either","6","76","","","","","","","1","0","0","0.8019506245","","0.2","0.4","0.8","0.6","","","","","0.5044276746","0.8019506245","0.4767868938","0.2601977795","","","","","","","","","","74","J","1","","","48","main_expt","",""
"","bandit","133","677900","0.0-90.0-0.0","14202998","wem/bandit_party_2","AV581SCZZM1YE","either","6","413","","","","","","","0","0","1","0.3749468019","","0.2","0.4","0.8","0.6","","","","","0.3766714482","0.7331224435","0.3749468019","0.2368144698","","","","","","","","","","75","K","2","","","49","main_expt","",""
"","bandit","134","681120","0.0-91.0-0.0","14202998","wem/bandit_party_2","AV581SCZZM1YE","either","6","1701","","","","","","","0","1","0","","0.7908344101","0.2","0.4","0.8","0.6","0.406992786","0.7908344101","0.3532902347","0.2484527115","","","","","","","","","","","","","","74","J","1","","","50","main_expt","",""
"","bandit","135","683208","0.0-92.0-0.0","14202998","wem/bandit_party_2","AV581SCZZM1YE","either","6","571","","","","","","","0","0","1","","0.3854505747","0.2","0.4","0.8","0.6","0.3854505747","0.7922828235","0.2413466802","0.230268934","","","","","","","","","","","","","","72","H","0","img/none_selected.jpg","","51","main_expt","",""
"","bandit","136","685199","0.0-93.0-0.0","14202998","wem/bandit_party_2","AV581SCZZM1YE","either","6","465","","","","","","","0","0","1","0.2673723166","","0.2","0.4","0.8","0.6","","","","","0.3956915145","0.7485378942","0.2673723166","0.3429002399","","","","","","","","","","75","K","2","","","52","main_expt","",""
"","bandit","137","687072","0.0-94.0-0.0","14202998","wem/bandit_party_2","AV581SCZZM1YE","either","6","355","","","","","","","0","0","1","0.2871029552","","0.2","0.4","0.8","0.6","","","","","0.3062348001","0.6603794952","0.2806035608","0.2871029552","","","","","","","","","","76","L","3","","","53","main_expt","",""
"","bandit","138","688888","0.0-95.0-0.0","14202998","wem/bandit_party_2","AV581SCZZM1YE","either","6","300","","","","","","","0","0","1","","0.2996500993","0.2","0.4","0.8","0.6","0.2996500993","0.6931449795","0.2544312064","0.2594444468","","","","","","","","","","","","","","72","H","0","img/none_selected.jpg","","54","main_expt","",""
"","bandit","139","690814","0.0-96.0-0.0","14202998","wem/bandit_party_2","AV581SCZZM1YE","either","6","408","","","","","","","0","1","0","","0.7553272845","0.2","0.4","0.8","0.6","0.2518247787","0.7553272845","0.3362815808","0.3333749245","","","","","","","","","","","","","","74","J","1","","","55","main_expt","",""
"","bandit","140","692711","0.0-97.0-0.0","14202998","wem/bandit_party_2","AV581SCZZM1YE","either","6","377","","","","","","","1","0","0","0.3798256012","","0.2","0.4","0.8","0.6","","","","","0.3014763065","0.7231548626","0.3798256012","0.3049104067","","","","","","","","","","75","K","2","","","56","main_expt","",""
"","bandit","141","697342","0.0-98.0-0.0","14202998","wem/bandit_party_2","AV581SCZZM1YE","either","6","3110","","","","","","","0","0","1","","0.2730843718","0.2","0.4","0.8","0.6","0.2730843718","0.7485901337","0.3989549393","0.3623273811","","","","","","","","","","","","","","72","H","0","img/none_selected.jpg","","57","main_expt","",""
"","bandit","142","699210","0.0-99.0-0.0","14202998","wem/bandit_party_2","AV581SCZZM1YE","either","6","348","","","","","","","1","0","0","0.797082508","","0.2","0.4","0.8","0.6","","","","","0.367239041","0.797082508","0.3373398956","0.3621169042","","","","","","","","","","74","J","1","","","58","main_expt","",""
"","bandit","143","701239","0.0-100.0-0.0","14202998","wem/bandit_party_2","AV581SCZZM1YE","either","6","515","","","","","","","0","1","0","","0.7466963627","0.2","0.4","0.8","0.6","0.4005220403","0.7466963627","0.3381045731","0.3672848169","","","","","","","","","","","","","","74","J","1","","","59","main_expt","",""
"","bandit","144","703015","0.0-101.0-0.0","14202998","wem/bandit_party_2","AV581SCZZM1YE","either","6","251","","","","","","","1","0","0","0.4838111383","","0.2","0.4","0.8","0.6","","","","","0.4863912708","0.6359615323","0.4838111383","0.5123874715","","","","","","","","","","75","K","2","","","60","main_expt","",""
"","bandit","145","704910","0.0-102.0-0.0","14202998","wem/bandit_party_2","AV581SCZZM1YE","either","6","369","","","","","","","0","1","0","","0.5220595343","0.2","0.4","0.8","0.6","0.5220595343","0.7125939799","0.4290776342","0.5218319631","","","","","","","","","","","","","","72","H","0","img/none_selected.jpg","","61","main_expt","",""
"","bandit","146","706932","0.0-103.0-0.0","14202998","wem/bandit_party_2","AV581SCZZM1YE","either","6","505","","","","","","","1","0","0","0.4387439774","","0.2","0.4","0.8","0.6","","","","","0.5447889898","0.5978650666","0.4387439774","0.6482151027","","","","","","","","","","75","K","2","","","62","main_expt","",""
"","bandit","147","709430","0.0-104.0-0.0","14202998","wem/bandit_party_2","AV581SCZZM1YE","either","6","976","","","","","","","0","1","0","","0.5166338879","0.2","0.4","0.8","0.6","0.5517390004","0.5166338879","0.3670418014","0.6966290852","","","","","","","","","","","","","","74","J","1","","","63","main_expt","",""
"","bandit","148","711327","0.0-105.0-0.0","14202998","wem/bandit_party_2","AV581SCZZM1YE","either","6","384","","","","","","","0","0","1","0.3470393933","","0.2","0.4","0.8","0.6","","","","","0.6576188384","0.4901650138","0.3470393933","0.6497033777","","","","","","","","","","75","K","2","","","64","main_expt","",""
"","bandit","149","713152","0.0-106.0-0.0","14202998","wem/bandit_party_2","AV581SCZZM1YE","either","6","308","","","","","","","0","1","0","","0.5156176703","0.2","0.4","0.8","0.6","0.5156176703","0.459365688","0.3361574661","0.6925184903","","","","","","","","","","","","","","72","H","0","img/none_selected.jpg","","65","main_expt","",""
"","bandit","150","715003","0.0-107.0-0.0","14202998","wem/bandit_party_2","AV581SCZZM1YE","either","6","330","","","","","","","0","0","1","0.8298767513","","0.2","0.4","0.8","0.6","","","","","0.3851410914","0.4666104807","0.34308242","0.8298767513","","","","","","","","","","76","L","3","","","66","main_expt","",""
"","bandit","151","716818","0.0-108.0-0.0","14202998","wem/bandit_party_2","AV581SCZZM1YE","either","6","290","","","","","","","0","0","1","0.3730603492","","0.2","0.4","0.8","0.6","","","","","0.3925250542","0.5547259005","0.3730603492","0.8506596021","","","","","","","","","","75","K","2","","","67","main_expt","",""
"","bandit","152","718721","0.0-109.0-0.0","14202998","wem/bandit_party_2","AV581SCZZM1YE","either","6","383","","","","","","","1","0","0","0.6038719492","","0.2","0.4","0.8","0.6","","","","","0.3884113518","0.6038719492","0.4089949532","0.8536910832","","","","","","","","","","74","J","1","","","68","main_expt","",""
"","bandit","153","721900","0.0-110.0-0.0","14202998","wem/bandit_party_2","AV581SCZZM1YE","either","6","1661","","","","","","","0","1","0","","0.6148283845","0.2","0.4","0.8","0.6","0.3434478979","0.6148283845","0.3749002533","0.8642538991","","","","","","","","","","","","","","74","J","1","","","69","main_expt","",""
"","bandit","154","725696","0.0-111.0-0.0","14202998","wem/bandit_party_2","AV581SCZZM1YE","either","6","2273","","","","","","","1","0","0","0.4426642051","","0.2","0.4","0.8","0.6","","","","","0.4426642051","0.6683283761","0.4133869845","0.8073802352","","","","","","","","","","72","H","0","img/none_selected.jpg","","70","main_expt","",""
"","bandit","155","728253","0.0-112.0-0.0","14202998","wem/bandit_party_2","AV581SCZZM1YE","either","6","1031","","","","","","","0","1","0","","0.4518046004","0.2","0.4","0.8","0.6","0.4518046004","0.738459761","0.3302164541","0.8059201048","","","","","","","","","","","","","","72","H","0","img/none_selected.jpg","","71","main_expt","",""
"","bandit","156","730303","0.0-113.0-0.0","14202998","wem/bandit_party_2","AV581SCZZM1YE","either","6","526","","","","","","","1","0","0","0.6525166508","","0.2","0.4","0.8","0.6","","","","","0.4903223245","0.6525166508","0.2570952275","0.8262275011","","","","","","","","","","74","J","1","","","72","main_expt","",""
"","bandit","157","737465","0.0-114.0-0.0","14202998","wem/bandit_party_2","AV581SCZZM1YE","either","6","5645","","","","","","","0","0","1","0.2042885023","","0.2","0.4","0.8","0.6","","","","","0.5296083002","0.5715134512","0.2042885023","0.7334390718","","","","","","","","","","75","K","2","","","73","main_expt","",""
"","bandit","158","739362","0.0-115.0-0.0","14202998","wem/bandit_party_2","AV581SCZZM1YE","either","6","376","","","","","","","0","0","1","0.6228045854","","0.2","0.4","0.8","0.6","","","","","0.4883026933","0.6228045854","0.2152837516","0.7490977197","","","","","","","","","","74","J","1","","","74","main_expt","",""
"","bandit","159","741403","0.0-116.0-0.0","14202998","wem/bandit_party_2","AV581SCZZM1YE","either","6","516","","","","","","","0","0","1","","0.4914171484","0.2","0.4","0.8","0.6","0.4914171484","0.613630376","0.2044775694","0.7554087461","","","","","","","","","","","","","","72","H","0","img/none_selected.jpg","","75","main_expt","",""
"","bandit","160","743082","0.0-117.0-0.0","14202998","wem/bandit_party_2","AV581SCZZM1YE","either","6","157","","","","","","","0","0","1","0.2247613499","","0.2","0.4","0.8","0.6","","","","","0.6059218973","0.7047266053","0.2247613499","0.804443878","","","","","","","","","","75","K","2","","","76","main_expt","",""
"","bandit","161","744990","0.0-118.0-0.0","14202998","wem/bandit_party_2","AV581SCZZM1YE","either","6","389","","","","","","","1","0","0","0.6910360943","","0.2","0.4","0.8","0.6","","","","","0.553792366","0.6910360943","0.2266335256","0.6656620098","","","","","","","","","","74","J","1","","","77","main_expt","",""
"","bandit","162","752014","0.0-119.0-0.0","14202998","wem/bandit_party_2","AV581SCZZM1YE","either","6","5502","","","","","","","0","0","1","","0.6884193839","0.2","0.4","0.8","0.6","0.6884193839","0.5515992215","0.1659731505","0.5898140708","","","","","","","","","","","","","","72","H","0","img/none_selected.jpg","","78","main_expt","",""
"","bandit","163","754003","0.0-120.0-0.0","14202998","wem/bandit_party_2","AV581SCZZM1YE","either","6","464","","","","","","","1","0","0","0.6448399581","","0.2","0.4","0.8","0.6","","","","","0.7214277645","0.6448399581","0.2343921172","0.613215191","","","","","","","","","","74","J","1","","","79","main_expt","",""
"","bandit","164","756950","0.0-121.0-0.0","14202998","wem/bandit_party_2","AV581SCZZM1YE","either","6","1422","","","","","","","0","0","1","0.2164054515","","0.2","0.4","0.8","0.6","","","","","0.7328142644","0.739479497","0.2164054515","0.4605925783","","","","","","","","","","75","K","2","","","80","main_expt","",""
"","bandit","165","760172","0.0-122.0-0.0","14202998","wem/bandit_party_2","AV581SCZZM1YE","either","6","1700","","","","","","","1","0","0","0.6956071838","","0.2","0.4","0.8","0.6","","","","","0.7101675561","0.6956071838","0.1361232007","0.5390789087","","","","","","","","","","74","J","1","","","81","main_expt","",""
"","bandit","166","763799","0.0-123.0-0.0","14202998","wem/bandit_party_2","AV581SCZZM1YE","either","6","2107","","","","","","","0","0","1","0.5886517937","","0.2","0.4","0.8","0.6","","","","","0.6984384541","0.5886517937","0.2275447725","0.621290364","","","","","","","","","","74","J","1","","","82","main_expt","",""
"","bandit","167","765822","0.0-124.0-0.0","14202998","wem/bandit_party_2","AV581SCZZM1YE","either","6","499","","","","","","","0","0","1","0.1900607051","","0.2","0.4","0.8","0.6","","","","","0.7447883659","0.4764182235","0.1900607051","0.6359424421","","","","","","","","","","75","K","2","","","83","main_expt","",""
"","bandit","168","768071","0.0-125.0-0.0","14202998","wem/bandit_party_2","AV581SCZZM1YE","either","6","729","","","","","","","0","0","1","","0.6900592863","0.2","0.4","0.8","0.6","0.6900592863","0.5149027494","0.1306868958","0.6133664729","","","","","","","","","","","","","","72","H","0","img/none_selected.jpg","","84","main_expt","",""
"","bandit","169","770062","0.0-126.0-0.0","14202998","wem/bandit_party_2","AV581SCZZM1YE","either","6","464","","","","","","","0","0","1","0.1683201849","","0.2","0.4","0.8","0.6","","","","","0.7010597455","0.4908067213","0.1683201849","0.7815463305","","","","","","","","","","75","K","2","","","85","main_expt","",""
"","bandit","170","771994","0.0-127.0-0.0","14202998","wem/bandit_party_2","AV581SCZZM1YE","either","6","409","","","","","","","0","1","0","","0.4139472458","0.2","0.4","0.8","0.6","0.6171062652","0.4139472458","0.1290314955","0.7355789231","","","","","","","","","","","","","","74","J","1","","","86","main_expt","",""
"","bandit","171","774174","0.0-128.0-0.0","14202998","wem/bandit_party_2","AV581SCZZM1YE","either","6","664","","","","","","","0","1","0","","0.7267399876","0.2","0.4","0.8","0.6","0.5629375242","0.4253818619","0.2297537383","0.7267399876","","","","","","","","","","","","","","76","L","3","","","87","main_expt","",""
"","bandit","172","781551","0.0-129.0-0.0","14202998","wem/bandit_party_2","AV581SCZZM1YE","either","6","5852","","","","","","","0","0","1","","0.6434443074","0.2","0.4","0.8","0.6","0.6434443074","0.4448862761","0.1878263516","0.7703195612","","","","","","","","","","","","","","72","H","0","img/none_selected.jpg","","88","main_expt","",""
"","bandit","173","783404","0.0-130.0-0.0","14202998","wem/bandit_party_2","AV581SCZZM1YE","either","6","321","","","","","","","0","1","0","","0.4295642349","0.2","0.4","0.8","0.6","0.7296698787","0.4295642349","0.1896964823","0.81872988","","","","","","","","","","","","","","74","J","1","","","89","main_expt","",""
"","bandit","174","785201","0.0-131.0-0.0","14202998","wem/bandit_party_2","AV581SCZZM1YE","either","6","274","","","","","","","0","0","1","0.1614970172","","0.2","0.4","0.8","0.6","","","","","0.7042864347","0.3655203192","0.1614970172","0.8032570632","","","","","","","","","","75","K","2","","","90","main_expt","",""
"","bandit","175","787470","0.0-132.0-0.0","14202998","wem/bandit_party_2","AV581SCZZM1YE","either","6","743","","","","","","","0","1","0","","0.7606559624","0.2","0.4","0.8","0.6","0.7606559624","0.402428746","0.2107705911","0.8257352781","","","","","","","","","","","","","","72","H","0","img/none_selected.jpg","","91","main_expt","",""
"","bandit","176","789800","0.0-133.0-0.0","14202998","wem/bandit_party_2","AV581SCZZM1YE","either","6","808","","","","","","","0","0","1","","0.8466818248","0.2","0.4","0.8","0.6","0.8466818248","0.452733603","0.1317951273","0.7762210657","","","","","","","","","","","","","","72","H","0","img/none_selected.jpg","","92","main_expt","",""
"","bandit","177","792233","0.0-134.0-0.0","14202998","wem/bandit_party_2","AV581SCZZM1YE","either","6","910","","","","","","","0","1","0","","0.8181600593","0.2","0.4","0.8","0.6","0.8181600593","0.5416456901","0.09268613222","0.8293629201","","","","","","","","","","","","","","72","H","0","img/none_selected.jpg","","93","main_expt","",""
"","bandit","178","794536","0.0-135.0-0.0","14202998","wem/bandit_party_2","AV581SCZZM1YE","either","6","776","","","","","","","0","0","1","0.5246039132","","0.2","0.4","0.8","0.6","","","","","0.7259749053","0.5246039132","0.06418168538","0.7849393417","","","","","","","","","","74","J","1","","","94","main_expt","",""
"","bandit","179","796174","0.0-136.0-0.0","14202998","wem/bandit_party_2","AV581SCZZM1YE","either","6","116","","","","","","","0","0","1","0.100072779","","0.2","0.4","0.8","0.6","","","","","0.6538641892","0.606801291","0.100072779","0.7850226125","","","","","","","","","","75","K","2","","","95","main_expt","",""
"","bandit","180","798529","0.0-137.0-0.0","14202998","wem/bandit_party_2","AV581SCZZM1YE","either","6","835","","","","","","","0","0","1","0.6384360591","","0.2","0.4","0.8","0.6","","","","","0.6384360591","0.7175242067","0.09628221604","0.8013150942","","","","","","","","","","72","H","0","img/none_selected.jpg","","96","main_expt","",""
"","bandit","181","800398","0.0-138.0-0.0","14202998","wem/bandit_party_2","AV581SCZZM1YE","either","6","345","","","","","","","1","0","0","0.7706560561","","0.2","0.4","0.8","0.6","","","","","0.6836118029","0.7706560561","0.1335622201","0.70340399","","","","","","","","","","74","J","1","","","97","main_expt","",""
"","bandit","182","803099","0.0-139.0-0.0","14202998","wem/bandit_party_2","AV581SCZZM1YE","either","6","1175","","","","","","","0","0","1","","0.167202632","0.2","0.4","0.8","0.6","0.659457158","0.7234704616","0.167202632","0.7562517051","","","","","","","","","","","","","","75","K","2","","","98","main_expt","",""
"","bandit","183","805751","0.0-140.0-0.0","14202998","wem/bandit_party_2","AV581SCZZM1YE","either","6","1128","","","","","","","0","1","0","","0.6582042781","0.2","0.4","0.8","0.6","0.7726162223","0.6582042781","0.1216125457","0.6514659141","","","","","","","","","","","","","","74","J","1","","","99","main_expt","",""
"","bandit","184","807873","0.0-141.0-0.0","14202998","wem/bandit_party_2","AV581SCZZM1YE","either","6","597","","","","","","","1","0","0","0.8446518706","","0.2","0.4","0.8","0.6","","","","","0.8446518706","0.6530973887","0.1163239148","0.7112237606","","","","","","","","","","72","H","0","img/none_selected.jpg","","100","main_expt","",""
"","bandit","185","810849","0.0-142.0-0.0","14202998","wem/bandit_party_2","AV581SCZZM1YE","either","6","1460","","","","","","","0","0","1","","0.1037928869","0.2","0.4","0.8","0.6","0.8784151442","0.6690961394","0.1037928869","0.6865981462","","","","","","","","","","","","","","75","K","2","","","101","main_expt","",""
"","bandit","186","812682","0.0-143.0-0.0","14202998","wem/bandit_party_2","AV581SCZZM1YE","either","6","308","","","","","","","0","0","1","","0.6268844929","0.2","0.4","0.8","0.6","0.8781202538","0.6268844929","0.0991068806","0.6663704066","","","","","","","","","","","","","","74","J","1","","","102","main_expt","",""
"","bandit","187","814783","0.0-144.0-0.0","14202998","wem/bandit_party_2","AV581SCZZM1YE","either","6","575","","","","","","","0","1","0","","0.8123732176","0.2","0.4","0.8","0.6","0.8123732176","0.6657789595","0.1226752409","0.6006744832","","","","","","","","","","","","","","72","H","0","img/none_selected.jpg","","103","main_expt","",""
"","bandit","188","816699","0.0-145.0-0.0","14202998","wem/bandit_party_2","AV581SCZZM1YE","either","6","392","","","","","","","1","0","0","0.518723913","","0.2","0.4","0.8","0.6","","","","","0.8461937008","0.6951589836","0.1552466415","0.518723913","","","","","","","","","","76","L","3","","","104","main_expt","",""
"","bandit","189","820419","0.0-146.0-0.0","14202998","wem/bandit_party_2","AV581SCZZM1YE","either","6","2195","","","","","","","0","0","1","","0.1702138509","0.2","0.4","0.8","0.6","0.8664825842","0.6382729445","0.1702138509","0.5343999165","","","","","","","","","","","","","","75","K","2","","","105","main_expt","",""
"","bandit","190","822341","0.0-147.0-0.0","14202998","wem/bandit_party_2","AV581SCZZM1YE","either","6","396","","","","","","","0","1","0","","0.7139624249","0.2","0.4","0.8","0.6","0.8703997655","0.7139624249","0.2021425125","0.4959998489","","","","","","","","","","","","","","74","J","1","","","106","main_expt","",""
"","bandit","191","824981","0.0-148.0-0.0","14202998","wem/bandit_party_2","AV581SCZZM1YE","either","6","1121","","","","","","","0","1","0","","0.8964314806","0.2","0.4","0.8","0.6","0.8964314806","0.7718136471","0.2196373816","0.5052663648","","","","","","","","","","","","","","72","H","0","img/none_selected.jpg","","107","main_expt","",""
"","bandit","192","827798","0.0-149.0-0.0","14202998","wem/bandit_party_2","AV581SCZZM1YE","either","6","1294","","","","","","","0","1","0","","0.9080126319","0.2","0.4","0.8","0.6","0.9080126319","0.8818715302","0.2393661099","0.4859582203","","","","","","","","","","","","","","72","H","0","img/none_selected.jpg","","108","main_expt","",""
"","bandit","193","832311","0.0-150.0-0.0","14202998","wem/bandit_party_2","AV581SCZZM1YE","either","6","2989","","","","","","","0","0","1","0.2516352594","","0.2","0.4","0.8","0.6","","","","","0.8880845243","0.8757741924","0.2516352594","0.523617738","","","","","","","","","","75","K","2","","","109","main_expt","",""
"","bandit","194","834150","0.0-151.0-0.0","14202998","wem/bandit_party_2","AV581SCZZM1YE","either","6","321","","","","","","","0","1","0","","0.8657151097","0.2","0.4","0.8","0.6","0.899251136","0.8657151097","0.2424291788","0.5492010791","","","","","","","","","","","","","","74","J","1","","","110","main_expt","",""
"","bandit","195","836062","0.0-152.0-0.0","14202998","wem/bandit_party_2","AV581SCZZM1YE","either","6","392","","","","","","","0","0","1","0.5467154696","","0.2","0.4","0.8","0.6","","","","","0.9019514556","0.8457624762","0.2033086481","0.5467154696","","","","","","","","","","76","L","3","","","111","main_expt","",""
"","bandit","196","837772","0.0-153.0-0.0","14202998","wem/bandit_party_2","AV581SCZZM1YE","either","6","186","","","","","","","0","0","1","0.208613213","","0.2","0.4","0.8","0.6","","","","","0.9315537639","0.8756116827","0.208613213","0.5396215981","","","","","","","","","","75","K","2","","","112","main_expt","",""
"","bandit","197","839960","0.0-154.0-0.0","14202998","wem/bandit_party_2","AV581SCZZM1YE","either","6","667","","","","","","","0","1","0","","0.9254394702","0.2","0.4","0.8","0.6","0.9254394702","0.8773181328","0.2743958833","0.5542875214","","","","","","","","","","","","","","72","H","0","img/none_selected.jpg","","113","main_expt","",""
"","bandit","198","841721","0.0-155.0-0.0","14202998","wem/bandit_party_2","AV581SCZZM1YE","either","6","239","","","","","","","0","1","0","","0.8842236373","0.2","0.4","0.8","0.6","0.9394904604","0.8842236373","0.2657329006","0.6411428718","","","","","","","","","","","","","","74","J","1","","","114","main_expt","",""
"","bandit","199","843628","0.0-156.0-0.0","14202998","wem/bandit_party_2","AV581SCZZM1YE","either","6","383","","","","","","","1","0","0","0.8499121835","","0.2","0.4","0.8","0.6","","","","","0.9533355239","0.8499121835","0.3234316928","0.7261400339","","","","","","","","","","74","J","1","","","115","main_expt","",""
"","bandit","200","845200","0.0-157.0-0.0","14202998","wem/bandit_party_2","AV581SCZZM1YE","either","6","47","","","","","","","0","1","0","","0.7890056153","0.2","0.4","0.8","0.6","0.960842596","0.7890056153","0.3625587123","0.7395407697","","","","","","","","","","","","","","74","J","1","","","116","main_expt","",""
"","bandit","201","846772","0.0-158.0-0.0","14202998","wem/bandit_party_2","AV581SCZZM1YE","either","6","50","","","","","","","0","1","0","","0.937733065","0.2","0.4","0.8","0.6","0.937733065","0.7709890197","0.4946904956","0.8231731708","","","","","","","","","","","","","","72","H","0","img/none_selected.jpg","","117","main_expt","",""
"","bandit","202","848301","0.0-159.0-0.0","14202998","wem/bandit_party_2","AV581SCZZM1YE","either","6","4","","","","","","","0","0","1","0.6246330079","","0.2","0.4","0.8","0.6","","","","","0.9561499645","0.7459937787","0.6246330079","0.8278750807","","","","","","","","","","75","K","2","","","118","main_expt","",""
"","bandit","203","849959","0.0-160.0-0.0","14202998","wem/bandit_party_2","AV581SCZZM1YE","either","6","125","","","","","","","0","1","0","","0.9595118281","0.2","0.4","0.8","0.6","0.9595118281","0.716881491","0.5818097722","0.8715827524","","","","","","","","","","","","","","72","H","0","img/none_selected.jpg","","119","main_expt","",""
"","bandit","204","851522","0.0-161.0-0.0","14202998","wem/bandit_party_2","AV581SCZZM1YE","either","6","40","","","","","","","1","0","0","0.9548463758","","0.2","0.4","0.8","0.6","","","","","0.9548463758","0.6595649419","0.5990025551","0.8522670476","","","","","","","","","","72","H","0","img/none_selected.jpg","","120","main_expt","",""
"","bandit","205","853109","0.0-162.0-0.0","14202998","wem/bandit_party_2","AV581SCZZM1YE","either","6","56","","","","","","","1","0","0","0.6534424477","","0.2","0.4","0.8","0.6","","","","","0.958085665","0.6576447048","0.6534424477","0.8266542562","","","","","","","","","","75","K","2","","","121","main_expt","",""
"","bandit","206","854680","0.0-163.0-0.0","14202998","wem/bandit_party_2","AV581SCZZM1YE","either","6","48","","","","","","","0","1","0","","0.9630601427","0.2","0.4","0.8","0.6","0.9630601427","0.6391957719","0.5952731017","0.81688531","","","","","","","","","","","","","","72","H","0","img/none_selected.jpg","","122","main_expt","",""
"","bandit","207","856201","0.0-164.0-0.0","14202998","wem/bandit_party_2","AV581SCZZM1YE","either","6","0","","","","","","","1","0","0","0.9790283764","","0.2","0.4","0.8","0.6","","","","","0.9790283764","0.5873908865","0.6469086187","0.8307363081","","","","","","","","","","72","H","0","img/none_selected.jpg","","123","main_expt","",""
"","bandit","208","857751","0.0-165.0-0.0","14202998","wem/bandit_party_2","AV581SCZZM1YE","either","6","28","","","","","","","0","1","0","","0.9718765302","0.2","0.4","0.8","0.6","0.9718765302","0.6592760984","0.6911454426","0.6943824695","","","","","","","","","","","","","","72","H","0","img/none_selected.jpg","","124","main_expt","",""
"","bandit","209","859351","0.0-166.0-0.0","14202998","wem/bandit_party_2","AV581SCZZM1YE","either","6","72","","","","","","","0","1","0","","0.9845173964","0.2","0.4","0.8","0.6","0.9845173964","0.6012083746","0.750572215","0.7137568944","","","","","","","","","","","","","","72","H","0","img/none_selected.jpg","","125","main_expt","",""
"","bandit","210","860982","0.0-167.0-0.0","14202998","wem/bandit_party_2","AV581SCZZM1YE","either","6","105","","","","","","","0","1","0","","0.9804670004","0.2","0.4","0.8","0.6","0.9804670004","0.6043440275","0.8108432581","0.6878742658","","","","","","","","","","","","","","72","H","0","img/none_selected.jpg","","126","main_expt","",""
"","bandit","211","862628","0.0-168.0-0.0","14202998","wem/bandit_party_2","AV581SCZZM1YE","either","6","121","","","","","","","0","1","0","","0.9792667249","0.2","0.4","0.8","0.6","0.9792667249","0.5043142332","0.8338196277","0.6175454059","","","","","","","","","","","","","","72","H","0","img/none_selected.jpg","","127","main_expt","",""
"","bandit","212","864259","0.0-169.0-0.0","14202998","wem/bandit_party_2","AV581SCZZM1YE","either","6","108","","","","","","","0","1","0","","0.9853815399","0.2","0.4","0.8","0.6","0.9853815399","0.5778209799","0.8624128669","0.5556505876","","","","","","","","","","","","","","72","H","0","img/none_selected.jpg","","128","main_expt","",""
"","bandit","213","865818","0.0-170.0-0.0","14202998","wem/bandit_party_2","AV581SCZZM1YE","either","6","32","","","","","","","0","1","0","","0.9838319732","0.2","0.4","0.8","0.6","0.9838319732","0.5806273004","0.9026068167","0.5948532478","","","","","","","","","","","","","","72","H","0","img/none_selected.jpg","","129","main_expt","",""
"","bandit","214","867528","0.0-171.0-0.0","14202998","wem/bandit_party_2","AV581SCZZM1YE","either","6","189","","","","","","","1","0","0","0.8983636673","","0.2","0.4","0.8","0.6","","","","","0.9798768453","0.4152233618","0.8983636673","0.6646968067","","","","","","","","","","75","K","2","","","130","main_expt","",""
"","bandit","215","869138","0.0-172.0-0.0","14202998","wem/bandit_party_2","AV581SCZZM1YE","either","6","84","","","","","","","1","0","0","0.888478962","","0.2","0.4","0.8","0.6","","","","","0.9628017066","0.4527057242","0.888478962","0.6676177377","","","","","","","","","","75","K","2","","","131","main_expt","",""
"","bandit","216","870778","0.0-173.0-0.0","14202998","wem/bandit_party_2","AV581SCZZM1YE","either","6","121","","","","","","","0","1","0","","0.9723970119","0.2","0.4","0.8","0.6","0.9723970119","0.5185753891","0.8470567254","0.7638630926","","","","","","","","","","","","","","72","H","0","img/none_selected.jpg","","132","main_expt","",""
"","bandit","217","872451","0.0-174.0-0.0","14202998","wem/bandit_party_2","AV581SCZZM1YE","either","6","148","","","","","","","0","1","0","","0.9754432393","0.2","0.4","0.8","0.6","0.9754432393","0.4567386081","0.8852081265","0.726350598","","","","","","","","","","","","","","72","H","0","img/none_selected.jpg","","133","main_expt","",""
"","bandit","218","874083","0.0-175.0-0.0","14202998","wem/bandit_party_2","AV581SCZZM1YE","either","6","109","","","","","","","0","1","0","","0.4494056808","0.2","0.4","0.8","0.6","0.9635376407","0.4494056808","0.8317422298","0.7638059904","","","","","","","","","","","","","","74","J","1","","","134","main_expt","",""
"","bandit","219","875675","0.0-176.0-0.0","14202998","wem/bandit_party_2","AV581SCZZM1YE","either","6","66","","","","","","","0","0","1","","0.9304273523","0.2","0.4","0.8","0.6","0.9304273523","0.4608562393","0.8121858422","0.7337835984","","","","","","","","","","","","","","72","H","0","img/none_selected.jpg","","135","main_expt","",""
"","bandit","220","877350","0.0-177.0-0.0","14202998","wem/bandit_party_2","AV581SCZZM1YE","either","6","152","","","","","","","0","1","0","","0.9295592062","0.2","0.4","0.8","0.6","0.9295592062","0.6684020244","0.8473276522","0.7869055623","","","","","","","","","","","","","","72","H","0","img/none_selected.jpg","","136","main_expt","",""
"","bandit","221","878908","0.0-178.0-0.0","14202998","wem/bandit_party_2","AV581SCZZM1YE","either","6","39","","","","","","","1","0","0","0.614137061","","0.2","0.4","0.8","0.6","","","","","0.9343332129","0.614137061","0.8251243182","0.8033651193","","","","","","","","","","74","J","1","","","137","main_expt","",""
"","bandit","222","880534","0.0-179.0-0.0","14202998","wem/bandit_party_2","AV581SCZZM1YE","either","6","104","","","","","","","0","1","0","","0.9325781127","0.2","0.4","0.8","0.6","0.9325781127","0.711021659","0.7892590299","0.7620089345","","","","","","","","","","","","","","72","H","0","img/none_selected.jpg","","138","main_expt","",""
"","bandit","223","882087","0.0-180.0-0.0","14202998","wem/bandit_party_2","AV581SCZZM1YE","either","6","28","","","","","","","0","1","0","","0.9687763229","0.2","0.4","0.8","0.6","0.9687763229","0.5731932267","0.753698647","0.8098853196","","","","","","","","","","","","","","72","H","0","img/none_selected.jpg","","139","main_expt","",""
"","bandit","224","883614","0.0-181.0-0.0","14202998","wem/bandit_party_2","AV581SCZZM1YE","either","6","0","","","","","","","0","0","1","","0.9520204639","0.2","0.4","0.8","0.6","0.9520204639","0.6553783698","0.7281837229","0.8737133651","","","","","","","","","","","","","","72","H","0","img/none_selected.jpg","","140","main_expt","",""
"","bandit","225","885137","0.0-182.0-0.0","14202998","wem/bandit_party_2","AV581SCZZM1YE","either","6","0","","","","","","","0","1","0","","0.9615613541","0.2","0.4","0.8","0.6","0.9615613541","0.5665224918","0.7913145473","0.8464817719","","","","","","","","","","","","","","72","H","0","img/none_selected.jpg","","141","main_expt","",""
"","bandit","226","886663","0.0-183.0-0.0","14202998","wem/bandit_party_2","AV581SCZZM1YE","either","6","4","","","","","","","1","0","0","0.9438722422","","0.2","0.4","0.8","0.6","","","","","0.9438722422","0.5230460729","0.7498898283","0.8457688645","","","","","","","","","","72","H","0","img/none_selected.jpg","","142","main_expt","",""
"","bandit","227","888224","0.0-184.0-0.0","14202998","wem/bandit_party_2","AV581SCZZM1YE","either","6","35","","","","","","","0","1","0","","0.9419241064","0.2","0.4","0.8","0.6","0.9419241064","0.5401897842","0.723110339","0.8801682128","","","","","","","","","","","","","","72","H","0","img/none_selected.jpg","","143","main_expt","",""
"","bandit","228","889816","0.0-185.0-0.0","14202998","wem/bandit_party_2","AV581SCZZM1YE","either","6","68","","","","","","","0","1","0","","0.9383966058","0.2","0.4","0.8","0.6","0.9383966058","0.5495292383","0.7697142539","0.7806105972","","","","","","","","","","","","","","72","H","0","img/none_selected.jpg","","144","main_expt","",""
"","bandit","229","891346","0.0-186.0-0.0","14202998","wem/bandit_party_2","AV581SCZZM1YE","either","6","4","","","","","","","0","1","0","","0.4718854897","0.2","0.4","0.8","0.6","0.9442204223","0.4718854897","0.8279494337","0.7384744451","","","","","","","","","","","","","","74","J","1","","","145","main_expt","",""
"","bandit","230","892868","0.0-187.0-0.0","14202998","wem/bandit_party_2","AV581SCZZM1YE","either","6","4","","","","","","","0","0","1","0.3790577705","","0.2","0.4","0.8","0.6","","","","","0.9461270134","0.3790577705","0.747104877","0.7078417075","","","","","","","","","","74","J","1","","","146","main_expt","",""
"","bandit","231","894433","0.0-188.0-0.0","14202998","wem/bandit_party_2","AV581SCZZM1YE","either","6","44","","","","","","","1","0","0","0.7635883185","","0.2","0.4","0.8","0.6","","","","","0.9677113618","0.3671333747","0.7635883185","0.7671729372","","","","","","","","","","75","K","2","","","147","main_expt","",""
"","bandit","232","896052","0.0-189.0-0.0","14202998","wem/bandit_party_2","AV581SCZZM1YE","either","6","99","","","","","","","1","0","0","0.9603287673","","0.2","0.4","0.8","0.6","","","","","0.9603287673","0.4462771912","0.6650729927","0.7515071201","","","","","","","","","","72","H","0","img/none_selected.jpg","","148","main_expt","",""
"","bandit","233","897589","0.0-190.0-0.0","14202998","wem/bandit_party_2","AV581SCZZM1YE","either","6","12","","","","","","","1","0","0","0.594527628","","0.2","0.4","0.8","0.6","","","","","0.9256305183","0.3929125452","0.594527628","0.7582160768","","","","","","","","","","75","K","2","","","149","main_expt","",""
"","bandit","234","899144","0.0-191.0-0.0","14202998","wem/bandit_party_2","AV581SCZZM1YE","either","6","33","","","","","","","0","0","1","","0.3825194633","0.2","0.4","0.8","0.6","0.9222609783","0.3825194633","0.5101412162","0.6843302658","","","","","","","","","","","","","","74","J","1","","","150","main_expt","",""
"","bandit","235","900690","0.0-192.0-0.0","14202998","wem/bandit_party_2","AV581SCZZM1YE","either","6","20","","","","","","","0","1","0","","0.9522131909","0.2","0.4","0.8","0.6","0.9522131909","0.3889652011","0.5755011036","0.4980827124","","","","","","","","","","","","","","72","H","0","img/none_selected.jpg","","151","main_expt","",""
"","bandit","236","902219","0.0-193.0-0.0","14202998","wem/bandit_party_2","AV581SCZZM1YE","either","6","0","","","","","","","0","1","0","","0.9351777179","0.2","0.4","0.8","0.6","0.9351777179","0.372169082","0.5415628766","0.5418861514","","","","","","","","","","","","","","72","H","0","img/none_selected.jpg","","152","main_expt","",""
"","bandit","237","903817","0.0-194.0-0.0","14202998","wem/bandit_party_2","AV581SCZZM1YE","either","6","71","","","","","","","0","1","0","","0.9526549669","0.2","0.4","0.8","0.6","0.9526549669","0.4275919172","0.6392888902","0.6424708626","","","","","","","","","","","","","","72","H","0","img/none_selected.jpg","","153","main_expt","",""
"","bandit","238","905344","0.0-195.0-0.0","14202998","wem/bandit_party_2","AV581SCZZM1YE","either","6","2","","","","","","","0","1","0","","0.944677936","0.2","0.4","0.8","0.6","0.944677936","0.3978897223","0.6798835142","0.6200403258","","","","","","","","","","","","","","72","H","0","img/none_selected.jpg","","154","main_expt","",""
"","bandit","239","906900","0.0-196.0-0.0","14202998","wem/bandit_party_2","AV581SCZZM1YE","either","6","32","","","","","","","0","1","0","","0.9443948233","0.2","0.4","0.8","0.6","0.9443948233","0.4922143253","0.7376683638","0.5087788092","","","","","","","","","","","","","","72","H","0","img/none_selected.jpg","","155","main_expt","",""
"","bandit","240","908584","0.0-197.0-0.0","14202998","wem/bandit_party_2","AV581SCZZM1YE","either","6","162","","","","","","","0","1","0","","0.9312029685","0.2","0.4","0.8","0.6","0.9312029685","0.5060601407","0.7740838489","0.4397360723","","","","","","","","","","","","","","72","H","0","img/none_selected.jpg","","156","main_expt","",""
"","bandit","241","910290","0.0-198.0-0.0","14202998","wem/bandit_party_2","AV581SCZZM1YE","either","6","177","","","","","","","0","1","0","","0.9009413449","0.2","0.4","0.8","0.6","0.9009413449","0.56460533","0.7526352547","0.4529934193","","","","","","","","","","","","","","72","H","0","img/none_selected.jpg","","157","main_expt","",""
"","bandit","242","911951","0.0-199.0-0.0","14202998","wem/bandit_party_2","AV581SCZZM1YE","either","6","140","","","","","","","0","0","1","0.522014142","","0.2","0.4","0.8","0.6","","","","","0.8799225656","0.5551408743","0.807066173","0.522014142","","","","","","","","","","76","L","3","","","158","main_expt","",""
"","bandit","243","913556","0.0-200.0-0.0","14202998","wem/bandit_party_2","AV581SCZZM1YE","either","6","81","","","","","","","0","0","1","","0.6362487126","0.2","0.4","0.8","0.6","0.9103166083","0.6362487126","0.8348587906","0.447178695","","","","","","","","","","","","","","74","J","1","","","159","main_expt","",""
"","bandit","244","915134","0.0-201.0-0.0","14202998","wem/bandit_party_2","AV581SCZZM1YE","either","6","48","","","","","","","1","0","0","0.5818198138","","0.2","0.4","0.8","0.6","","","","","0.9575168601","0.5818198138","0.8054329593","0.4293784973","","","","","","","","","","74","J","1","","","160","main_expt","",""
"","bandit","245","916796","0.0-202.0-0.0","14202998","wem/bandit_party_2","AV581SCZZM1YE","either","6","135","","","","","","","0","1","0","","0.9323430526","0.2","0.4","0.8","0.6","0.9323430526","0.5079421761","0.8263011938","0.4263694152","","","","","","","","","","","","","","72","H","0","img/none_selected.jpg","","161","main_expt","",""
"","bandit","246","918344","0.0-203.0-0.0","14202998","wem/bandit_party_2","AV581SCZZM1YE","either","6","24","","","","","","","1","0","0","0.8468561623","","0.2","0.4","0.8","0.6","","","","","0.8731035433","0.3944353318","0.8468561623","0.4394756583","","","","","","","","","","75","K","2","","","162","main_expt","",""
"","bandit","247","920025","0.0-204.0-0.0","14202998","wem/bandit_party_2","AV581SCZZM1YE","either","6","160","","","","","","","1","0","0","0.866861138","","0.2","0.4","0.8","0.6","","","","","0.860239847","0.4560534757","0.866861138","0.4632532181","","","","","","","","","","75","K","2","","","163","main_expt","",""
"","bandit","248","921670","0.0-205.0-0.0","14202998","wem/bandit_party_2","AV581SCZZM1YE","either","6","123","","","","","","","1","0","0","0.8621839131","","0.2","0.4","0.8","0.6","","","","","0.8327160304","0.4338988853","0.8621839131","0.469091439","","","","","","","","","","75","K","2","","","164","main_expt","",""
"","bandit","249","923252","0.0-206.0-0.0","14202998","wem/bandit_party_2","AV581SCZZM1YE","either","6","56","","","","","","","1","0","0","0.3640020004","","0.2","0.4","0.8","0.6","","","","","0.8780399083","0.3640020004","0.8368369455","0.4691854483","","","","","","","","","","74","J","1","","","165","main_expt","",""
"","bandit","250","924910","0.0-207.0-0.0","14202998","wem/bandit_party_2","AV581SCZZM1YE","either","6","120","","","","","","","1","0","0","0.8543831227","","0.2","0.4","0.8","0.6","","","","","0.8659509199","0.4433911144","0.8543831227","0.424594696","","","","","","","","","","75","K","2","","","166","main_expt","",""
"","bandit","251","926467","0.0-208.0-0.0","14202998","wem/bandit_party_2","AV581SCZZM1YE","either","6","32","","","","","","","0","0","1","","0.4852122499","0.2","0.4","0.8","0.6","0.8458676595","0.4852122499","0.8444257961","0.4691217736","","","","","","","","","","","","","","74","J","1","","","167","main_expt","",""
"","bandit","252","928076","0.0-209.0-0.0","14202998","wem/bandit_party_2","AV581SCZZM1YE","either","6","86","","","","","","","0","0","1","","0.7368025647","0.2","0.4","0.8","0.6","0.7368025647","0.4829488348","0.8895061166","0.4605946041","","","","","","","","","","","","","","72","H","0","img/none_selected.jpg","","168","main_expt","",""
"","bandit","253","929606","0.0-210.0-0.0","14202998","wem/bandit_party_2","AV581SCZZM1YE","either","6","12","","","","","","","0","0","1","","0.6811301937","0.2","0.4","0.8","0.6","0.6811301937","0.467087579","0.8980662015","0.4302520818","","","","","","","","","","","","","","72","H","0","img/none_selected.jpg","","169","main_expt","",""
"","bandit","254","931229","0.0-211.0-0.0","14202998","wem/bandit_party_2","AV581SCZZM1YE","either","6","95","","","","","","","1","0","0","0.6781719117","","0.2","0.4","0.8","0.6","","","","","0.6781719117","0.3575164989","0.9399190154","0.3846086554","","","","","","","","","","72","H","0","img/none_selected.jpg","","170","main_expt","",""
"","bandit","255","932816","0.0-212.0-0.0","14202998","wem/bandit_party_2","AV581SCZZM1YE","either","6","52","","","","","","","0","0","1","","0.5779776893","0.2","0.4","0.8","0.6","0.5779776893","0.3433755155","0.9199626721","0.4938912128","","","","","","","","","","","","","","72","H","0","img/none_selected.jpg","","171","main_expt","",""
"","bandit","256","934497","0.0-213.0-0.0","14202998","wem/bandit_party_2","AV581SCZZM1YE","either","6","158","","","","","","","0","0","1","","0.2921203137","0.2","0.4","0.8","0.6","0.5461867433","0.2921203137","0.8885959212","0.5409242696","","","","","","","","","","","","","","74","J","1","","","172","main_expt","",""
"","bandit","257","936104","0.0-214.0-0.0","14202998","wem/bandit_party_2","AV581SCZZM1YE","either","6","72","","","","","","","0","0","1","","0.3237382503","0.2","0.4","0.8","0.6","0.5898781272","0.3237382503","0.8502068985","0.4899310385","","","","","","","","","","","","","","74","J","1","","","173","main_expt","",""
"","bandit","258","937633","0.0-215.0-0.0","14202998","wem/bandit_party_2","AV581SCZZM1YE","either","6","0","","","","","","","1","0","0","0.9054067092","","0.2","0.4","0.8","0.6","","","","","0.5990225055","0.2935635685","0.9054067092","0.4464532747","","","","","","","","","","75","K","2","","","174","main_expt","",""
"","bandit","259","939165","0.0-216.0-0.0","14202998","wem/bandit_party_2","AV581SCZZM1YE","either","6","4","","","","","","","0","1","0","","0.6129624105","0.2","0.4","0.8","0.6","0.6129624105","0.2797951809","0.9096893241","0.4363040476","","","","","","","","","","","","","","72","H","0","img/none_selected.jpg","","175","main_expt","",""
"","bandit","260","940696","0.0-217.0-0.0","14202998","wem/bandit_party_2","AV581SCZZM1YE","either","6","0","","","","","","","0","0","1","","0.5434192492","0.2","0.4","0.8","0.6","0.5434192492","0.2067270565","0.9081003197","0.4198776974","","","","","","","","","","","","","","72","H","0","img/none_selected.jpg","","176","main_expt","",""
"","bandit","261","942249","0.0-218.0-0.0","14202998","wem/bandit_party_2","AV581SCZZM1YE","either","6","32","","","","","","","0","1","0","","0.5893108522","0.2","0.4","0.8","0.6","0.5893108522","0.19266164","0.8417535431","0.4001478854","","","","","","","","","","","","","","72","H","0","img/none_selected.jpg","","177","main_expt","",""
"","bandit","262","943847","0.0-219.0-0.0","14202998","wem/bandit_party_2","AV581SCZZM1YE","either","6","59","","","","","","","0","0","1","0.4862463398","","0.2","0.4","0.8","0.6","","","","","0.4862463398","0.1393448617","0.8045518304","0.3015477047","","","","","","","","","","72","H","0","img/none_selected.jpg","","178","main_expt","",""
"","bandit","263","945406","0.0-220.0-0.0","14202998","wem/bandit_party_2","AV581SCZZM1YE","either","6","33","","","","","","","0","0","1","","0.4227787996","0.2","0.4","0.8","0.6","0.4227787996","0.1149816072","0.8250115846","0.2700131006","","","","","","","","","","","","","","72","H","0","img/none_selected.jpg","","179","main_expt","",""
"","bandit","264","947121","0.0-221.0-0.0","14202998","wem/bandit_party_2","AV581SCZZM1YE","either","6","196","","","","","","","0","0","1","","0.3583368423","0.2","0.4","0.8","0.6","0.3583368423","0.1231561222","0.7418096358","0.3473069","","","","","","","","","","","","","","72","H","0","img/none_selected.jpg","","180","main_expt","",""
"","bandit","265","948650","0.0-222.0-0.0","14202998","wem/bandit_party_2","AV581SCZZM1YE","either","6","4","","","","","","","0","1","0","","0.3820052134","0.2","0.4","0.8","0.6","0.3820052134","0.1134989143","0.7180260456","0.3478804011","","","","","","","","","","","","","","72","H","0","img/none_selected.jpg","","181","main_expt","",""
"","bandit","266","950234","0.0-223.0-0.0","14202998","wem/bandit_party_2","AV581SCZZM1YE","either","6","60","","","","","","","0","0","1","","0.437769555","0.2","0.4","0.8","0.6","0.437769555","0.07317944644","0.6777378447","0.3304981007","","","","","","","","","","","","","","72","H","0","img/none_selected.jpg","","182","main_expt","",""
"","bandit","267","951836","0.0-224.0-0.0","14202998","wem/bandit_party_2","AV581SCZZM1YE","either","6","67","","","","","","","0","0","1","","0.05085611098","0.2","0.4","0.8","0.6","0.3951330089","0.05085611098","0.6331465848","0.2578466268","","","","","","","","","","","","","","74","J","1","","","183","main_expt","",""
"","bandit","268","953446","0.0-225.0-0.0","14202998","wem/bandit_party_2","AV581SCZZM1YE","either","6","84","","","","","","","0","1","0","","0.4062376343","0.2","0.4","0.8","0.6","0.4062376343","0.07152820202","0.6578519513","0.3550464129","","","","","","","","","","","","","","72","H","0","img/none_selected.jpg","","184","main_expt","",""
"","bandit","269","955377","0.0-226.0-0.0","14202998","wem/bandit_party_2","AV581SCZZM1YE","either","6","402","","","","","","","0","0","1","0.08814522307","","0.2","0.4","0.8","0.6","","","","","0.4035727276","0.08814522307","0.7160298793","0.2993299556","","","","","","","","","","74","J","1","","","185","main_expt","",""
"","bandit","270","957039","0.0-227.0-0.0","14202998","wem/bandit_party_2","AV581SCZZM1YE","either","6","142","","","","","","","0","0","1","0.4595565904","","0.2","0.4","0.8","0.6","","","","","0.4595565904","0.0931487442","0.7081703269","0.3985972224","","","","","","","","","","72","H","0","img/none_selected.jpg","","186","main_expt","",""
"","bandit","271","958689","0.0-228.0-0.0","14202998","wem/bandit_party_2","AV581SCZZM1YE","either","6","120","","","","","","","0","0","1","0.05847154344","","0.2","0.4","0.8","0.6","","","","","0.4956959756","0.05847154344","0.7670757258","0.4563810555","","","","","","","","","","74","J","1","","","187","main_expt","",""
"","bandit","272","960362","0.0-229.0-0.0","14202998","wem/bandit_party_2","AV581SCZZM1YE","either","6","143","","","","","","","0","0","1","","0.05005107021","0.2","0.4","0.8","0.6","0.4295585103","0.05005107021","0.7986884496","0.4621092719","","","","","","","","","","","","","","74","J","1","","","188","main_expt","",""
"","bandit","273","962180","0.0-230.0-0.0","14202998","wem/bandit_party_2","AV581SCZZM1YE","either","6","286","","","","","","","0","0","1","0.05158958255","","0.2","0.4","0.8","0.6","","","","","0.4121259827","0.05158958255","0.8113194514","0.4214675273","","","","","","","","","","74","J","1","","","189","main_expt","",""
"","bandit","274","963718","0.0-231.0-0.0","14202998","wem/bandit_party_2","AV581SCZZM1YE","either","6","16","","","","","","","0","0","1","","0.0530996007","0.2","0.4","0.8","0.6","0.40505342","0.0530996007","0.8311477635","0.4445162903","","","","","","","","","","","","","","74","J","1","","","190","main_expt","",""
"","bandit","275","965356","0.0-232.0-0.0","14202998","wem/bandit_party_2","AV581SCZZM1YE","either","6","111","","","","","","","0","0","1","0.4077799102","","0.2","0.4","0.8","0.6","","","","","0.3671493273","0.05342003941","0.7941336253","0.4077799102","","","","","","","","","","76","L","3","","","191","main_expt","",""
"","bandit","276","966889","0.0-233.0-0.0","14202998","wem/bandit_party_2","AV581SCZZM1YE","either","6","0","","","","","","","0","0","1","0.05264216412","","0.2","0.4","0.8","0.6","","","","","0.3367263454","0.05264216412","0.841847859","0.413117206","","","","","","","","","","74","J","1","","","192","main_expt","",""
"","bandit","277","968521","0.0-234.0-0.0","14202998","wem/bandit_party_2","AV581SCZZM1YE","either","6","106","","","","","","","0","0","1","","0.2587514209","0.2","0.4","0.8","0.6","0.2587514209","0.07418965368","0.865127625","0.374663265","","","","","","","","","","","","","","72","H","0","img/none_selected.jpg","","193","main_expt","",""
"","bandit","278","970059","0.0-235.0-0.0","14202998","wem/bandit_party_2","AV581SCZZM1YE","either","6","9","","","","","","","1","0","0","0.8369883383","","0.2","0.4","0.8","0.6","","","","","0.2123696513","0.1148515542","0.8369883383","0.2792309937","","","","","","","","","","75","K","2","","","194","main_expt","",""
"","bandit","279","971656","0.0-236.0-0.0","14202998","wem/bandit_party_2","AV581SCZZM1YE","either","6","69","","","","","","","1","0","0","0.1102075851","","0.2","0.4","0.8","0.6","","","","","0.2551117677","0.1102075851","0.8226177272","0.3090424304","","","","","","","","","","74","J","1","","","195","main_expt","",""
"","bandit","280","973408","0.0-237.0-0.0","14202998","wem/bandit_party_2","AV581SCZZM1YE","either","6","224","","","","","","","0","0","1","","0.2948177706","0.2","0.4","0.8","0.6","0.2948177706","0.09307195637","0.8759919892","0.2254203465","","","","","","","","","","","","","","72","H","0","img/none_selected.jpg","","196","main_expt","",""
"","bandit","281","974942","0.0-238.0-0.0","14202998","wem/bandit_party_2","AV581SCZZM1YE","either","6","0","","","","","","","0","1","0","","0.2864074111","0.2","0.4","0.8","0.6","0.2864074111","0.08341332984","0.9413038234","0.2104085952","","","","","","","","","","","","","","72","H","0","img/none_selected.jpg","","197","main_expt","",""
"","bandit","282","976626","0.0-239.0-0.0","14202998","wem/bandit_party_2","AV581SCZZM1YE","either","6","153","","","","","","","0","0","1","0.06206278739","","0.2","0.4","0.8","0.6","","","","","0.3044962429","0.06206278739","0.9384937307","0.1686499416","","","","","","","","","","74","J","1","","","198","main_expt","",""
"","bandit","283","978230","0.0-240.0-0.0","14202998","wem/bandit_party_2","AV581SCZZM1YE","either","6","57","","","","","","","0","0","1","0.2804127106","","0.2","0.4","0.8","0.6","","","","","0.2804127106","0.1015706687","0.927250614","0.1696058054","","","","","","","","","","72","H","0","img/none_selected.jpg","","199","main_expt","",""
"","bandit","284","979810","0.0-241.0-0.0","14202998","wem/bandit_party_2","AV581SCZZM1YE","either","6","41","","","","","","","0","0","1","0.07348353789","","0.2","0.4","0.8","0.6","","","","","0.3151112274","0.07348353789","0.8840406778","0.1940139532","","","","","","","","","","74","J","1","","","200","main_expt","",""
"","bandit","285","981447","0.0-242.0-0.0","14202998","wem/bandit_party_2","AV581SCZZM1YE","either","6","109","","","","","","","0","1","0","","0.3124471347","0.2","0.4","0.8","0.6","0.3124471347","0.09218994405","0.8866639954","0.2384341862","","","","","","","","","","","","","","72","H","0","img/none_selected.jpg","","201","main_expt","",""
"","bandit","286","983017","0.0-243.0-0.0","14202998","wem/bandit_party_2","AV581SCZZM1YE","either","6","41","","","","","","","0","0","1","0.2069173963","","0.2","0.4","0.8","0.6","","","","","0.3418115628","0.1662378481","0.8188103646","0.2069173963","","","","","","","","","","76","L","3","","","202","main_expt","",""
"","bandit","287","984549","0.0-244.0-0.0","14202998","wem/bandit_party_2","AV581SCZZM1YE","either","6","4","","","","","","","0","0","1","","0.1808123801","0.2","0.4","0.8","0.6","0.2676578736","0.1808123801","0.8026106274","0.2502389624","","","","","","","","","","","","","","74","J","1","","","203","main_expt","",""
"","bandit","288","986439","0.0-245.0-0.0","14202998","wem/bandit_party_2","AV581SCZZM1YE","either","6","357","","","","","","","0","0","1","","0.2011980288","0.2","0.4","0.8","0.6","0.2513587973","0.2011980288","0.6613987003","0.2226806","","","","","","","","","","","","","","74","J","1","","","204","main_expt","",""
"","bandit","289","988117","0.0-246.0-0.0","14202998","wem/bandit_party_2","AV581SCZZM1YE","either","6","148","","","","","","","1","0","0","0.7402115251","","0.2","0.4","0.8","0.6","","","","","0.2733703365","0.1877492959","0.7402115251","0.2327973494","","","","","","","","","","75","K","2","","","205","main_expt","",""
"","bandit","290","989720","0.0-247.0-0.0","14202998","wem/bandit_party_2","AV581SCZZM1YE","either","6","77","","","","","","","1","0","0","0.6792505986","","0.2","0.4","0.8","0.6","","","","","0.3212331514","0.1891298069","0.6792505986","0.3134624789","","","","","","","","","","75","K","2","","","206","main_expt","",""
"","bandit","291","991289","0.0-248.0-0.0","14202998","wem/bandit_party_2","AV581SCZZM1YE","either","6","40","","","","","","","0","0","1","","0.3381772831","0.2","0.4","0.8","0.6","0.3381772831","0.2092890992","0.6510378203","0.3808856429","","","","","","","","","","","","","","72","H","0","img/none_selected.jpg","","207","main_expt","",""
"","bandit","292","992911","0.0-249.0-0.0","14202998","wem/bandit_party_2","AV581SCZZM1YE","either","6","96","","","","","","","0","0","1","","0.2370260631","0.2","0.4","0.8","0.6","0.2370260631","0.2563161799","0.5971377862","0.318509643","","","","","","","","","","","","","","72","H","0","img/none_selected.jpg","","208","main_expt","",""
"","bandit","293","994548","0.0-250.0-0.0","14202998","wem/bandit_party_2","AV581SCZZM1YE","either","6","108","","","","","","","0","0","1","0.6040603887","","0.2","0.4","0.8","0.6","","","","","0.2157004535","0.2643940457","0.6040603887","0.2932847295","","","","","","","","","","75","K","2","","","209","main_expt","",""
"","bandit","294","996074","0.0-251.0-0.0","14202998","wem/bandit_party_2","AV581SCZZM1YE","either","6","0","","","","","","","0","0","1","","0.2710870001","0.2","0.4","0.8","0.6","0.2655169153","0.2710870001","0.7794442159","0.2230023122","","","","","","","","","","","","","","74","J","1","","","210","main_expt","",""
"","bandit","295","997607","0.0-252.0-0.0","14202998","wem/bandit_party_2","AV581SCZZM1YE","either","6","0","","","","","","","0","1","0","","0.2359505063","0.2","0.4","0.8","0.6","0.2359505063","0.2056380183","0.8397026392","0.1899351836","","","","","","","","","","","","","","72","H","0","img/none_selected.jpg","","211","main_expt","",""
"","bandit","296","999209","0.0-253.0-0.0","14202998","wem/bandit_party_2","AV581SCZZM1YE","either","6","72","","","","","","","1","0","0","0.7883870126","","0.2","0.4","0.8","0.6","","","","","0.2431981852","0.2487045614","0.7883870126","0.2593929449","","","","","","","","","","75","K","2","","","212","main_expt","",""
"","bandit","297","1000818","0.0-254.0-0.0","14202998","wem/bandit_party_2","AV581SCZZM1YE","either","6","80","","","","","","","0","0","1","0.2304425673","","0.2","0.4","0.8","0.6","","","","","0.3385658967","0.3520378668","0.7160446845","0.2304425673","","","","","","","","","","76","L","3","","","213","main_expt","",""
"","bandit","298","1002467","0.0-255.0-0.0","14202998","wem/bandit_party_2","AV581SCZZM1YE","either","6","119","","","","","","","1","0","0","0.7501162241","","0.2","0.4","0.8","0.6","","","","","0.445002088","0.3455661114","0.7501162241","0.2849244028","","","","","","","","","","75","K","2","","","214","main_expt","",""
"","bandit","299","1004110","0.0-256.0-0.0","14202998","wem/bandit_party_2","AV581SCZZM1YE","either","6","111","","","","","","","0","0","1","","0.4340580748","0.2","0.4","0.8","0.6","0.4340580748","0.3290646698","0.7574589115","0.3184819088","","","","","","","","","","","","","","72","H","0","img/none_selected.jpg","","215","main_expt","",""
"","bandit","300","1005743","0.0-257.0-0.0","14202998","wem/bandit_party_2","AV581SCZZM1YE","either","6","106","","","","","","","1","0","0","0.7376674805","","0.2","0.4","0.8","0.6","","","","","0.3996931216","0.2737258078","0.7376674805","0.2989728513","","","","","","","","","","75","K","2","","","216","main_expt","",""
"","bandit","301","1007530","0.0-258.0-0.0","14202998","wem/bandit_party_2","AV581SCZZM1YE","either","6","258","","","","","","","0","0","1","0.453570069","","0.2","0.4","0.8","0.6","","","","","0.453570069","0.2401291484","0.67262171","0.5538830624","","","","","","","","","","72","H","0","img/none_selected.jpg","","217","main_expt","",""
"","bandit","302","1009098","0.0-259.0-0.0","14202998","wem/bandit_party_2","AV581SCZZM1YE","either","6","38","","","","","","","0","0","1","0.6309662891","","0.2","0.4","0.8","0.6","","","","","0.3566620654","0.2395298113","0.6309662891","0.5331458927","","","","","","","","","","75","K","2","","","218","main_expt","",""
"","bandit","303","1010641","0.0-260.0-0.0","14202998","wem/bandit_party_2","AV581SCZZM1YE","either","6","16","","","","","","","0","0","1","0.3114207129","","0.2","0.4","0.8","0.6","","","","","0.3114207129","0.2333127667","0.610488243","0.409279481","","","","","","","","","","72","H","0","img/none_selected.jpg","","219","main_expt","",""
"","bandit","304","1012226","0.0-261.0-0.0","14202998","wem/bandit_party_2","AV581SCZZM1YE","either","6","51","","","","","","","1","0","0","0.6741838821","","0.2","0.4","0.8","0.6","","","","","0.348491043","0.2097963002","0.6741838821","0.3910907299","","","","","","","","","","75","K","2","","","220","main_expt","",""
"","bandit","305","1013856","0.0-262.0-0.0","14202998","wem/bandit_party_2","AV581SCZZM1YE","either","6","101","","","","","","","1","0","0","0.6938787555","","0.2","0.4","0.8","0.6","","","","","0.325682353","0.1761429423","0.6938787555","0.37386253","","","","","","","","","","75","K","2","","","221","main_expt","",""
"","bandit","306","1015407","0.0-263.0-0.0","14202998","wem/bandit_party_2","AV581SCZZM1YE","either","6","24","","","","","","","0","0","1","","0.1770547834","0.2","0.4","0.8","0.6","0.3582518194","0.1770547834","0.622086605","0.5460784034","","","","","","","","","","","","","","74","J","1","","","222","main_expt","",""
"","bandit","307","1017065","0.0-264.0-0.0","14202998","wem/bandit_party_2","AV581SCZZM1YE","either","6","135","","","","","","","1","0","0","0.3596631187","","0.2","0.4","0.8","0.6","","","","","0.3596631187","0.1494166006","0.6190419158","0.5484594206","","","","","","","","","","72","H","0","img/none_selected.jpg","","223","main_expt","",""
"","bandit","308","1018655","0.0-265.0-0.0","14202998","wem/bandit_party_2","AV581SCZZM1YE","either","6","60","","","","","","","0","0","1","","0.1444184755","0.2","0.4","0.8","0.6","0.4757784632","0.1444184755","0.6525227655","0.5156266917","","","","","","","","","","","","","","74","J","1","","","224","main_expt","",""
"","bandit","309","1020214","0.0-266.0-0.0","14202998","wem/bandit_party_2","AV581SCZZM1YE","either","6","32","","","","","","","0","1","0","","0.5384710229","0.2","0.4","0.8","0.6","0.5384710229","0.2381889698","0.5739960468","0.5120039273","","","","","","","","","","","","","","72","H","0","img/none_selected.jpg","","225","main_expt","",""
"","bandit","310","1021902","0.0-267.0-0.0","14202998","wem/bandit_party_2","AV581SCZZM1YE","either","6","158","","","","","","","0","0","1","0.5568413113","","0.2","0.4","0.8","0.6","","","","","0.5308581489","0.1429230379","0.6038380469","0.5568413113","","","","","","","","","","76","L","3","","","226","main_expt","",""
"","bandit","311","1023450","0.0-268.0-0.0","14202998","wem/bandit_party_2","AV581SCZZM1YE","either","6","19","","","","","","","0","0","1","0.488482713","","0.2","0.4","0.8","0.6","","","","","0.488482713","0.124100867","0.5203417309","0.5277183188","","","","","","","","","","72","H","0","img/none_selected.jpg","","227","main_expt","",""
"","bandit","312","1025117","0.0-269.0-0.0","14202998","wem/bandit_party_2","AV581SCZZM1YE","either","6","139","","","","","","","1","0","0","0.4263922038","","0.2","0.4","0.8","0.6","","","","","0.4406219513","0.1762219884","0.4263922038","0.5041270258","","","","","","","","","","75","K","2","","","228","main_expt","",""
