"consent","trial_type","trial_index","time_elapsed","internal_node_id","subjID","study","MID","cond","drift","rt","responses","button_pressed","key_press","like","value","connected","gems","bombs","no_reward","GemPrChosen","BombPrChosen","GainOverPainPr_0","GainOverPainPr_1","GainOverPainPr_2","GainOverPainPr_3","LosePr_0","LosePr_1","LosePr_2","LosePr_3","WinPr_0","WinPr_1","WinPr_2","WinPr_3","Q0","Q1","Q2","gender","age","ethnicity","label","expt_phase","target","respCharCode","respKey","respChoiceNum","respChoice","practice","trial_counter","trial_label","Q0_index","view_history"
"GDM/GDM_behavioral_consent_30min_online.html","consent","0","16350","0.0-0.0","14717766","wem/bandit_party_2","A1WKF2VH7TV0H2","either","5","","","","","","","","","","","","","","","","","","","","","","","","","","","","","","","","","","","","","","","","","",""
"","survey-text","1","19413","0.0-1.0","14717766","wem/bandit_party_2","A1WKF2VH7TV0H2","either","5","2039","{""Q0"":""A1WKF2VH7TV0H2""}","","","","","","","","","","","","","","","","","","","","","","","","","","","","","","","","","","","","","","","",""
"","button-response","2","21917","0.0-2.0","14717766","wem/bandit_party_2","A1WKF2VH7TV0H2","either","5","1491","","1","","","","","","","","","","","","","","","","","","","","","","","","","","","","","","","","","","","","","","",""
"","text-replacement","3","31582","0.0-3.0","14717766","wem/bandit_party_2","A1WKF2VH7TV0H2","either","5","8658","","","32","","","","","","","","","","","","","","","","","","","","","","","","","","","","","","","","","","","","","",""
"","text-replacement","4","34042","0.0-4.0","14717766","wem/bandit_party_2","A1WKF2VH7TV0H2","either","5","2456","","","32","","","","","","","","","","","","","","","","","","","","","","","","","","","","","","","","","","","","","",""
"","identification","5","38268","0.0-6.0-0.0","14717766","wem/bandit_party_2","A1WKF2VH7TV0H2","either","5","4193","","","","1","2","1","","","","","","","","","","","","","","","","","","","","","","","","pre","identification_pre","the Republican Party","","","","","","","","",""
"","identification","6","40986","0.0-6.0-1.0","14717766","wem/bandit_party_2","A1WKF2VH7TV0H2","either","5","1689","","","","4","5","4","","","","","","","","","","","","","","","","","","","","","","","","pre","identification_pre","the Democratic Party","","","","","","","","",""
"","text-replacement","7","46087","0.0-7.0","14717766","wem/bandit_party_2","A1WKF2VH7TV0H2","either","5","4097","","","32","","","","","","","","","","","","","","","","","","","","","","","","","","","","","","","","","","","","","",""
"","text-replacement","8","50578","0.0-8.0","14717766","wem/bandit_party_2","A1WKF2VH7TV0H2","either","5","4487","","","32","","","","","","","","","","","","","","","","","","","","","","","","","","","","","","","","","","","","","",""
"","text-replacement","9","51624","0.0-9.0","14717766","wem/bandit_party_2","A1WKF2VH7TV0H2","either","5","1042","","","32","","","","","","","","","","","","","","","","","","","","","","","","","","","","","","","","","","","","","",""
"","text-replacement","10","53888","0.0-10.0","14717766","wem/bandit_party_2","A1WKF2VH7TV0H2","either","5","2259","","","32","","","","","","","","","","","","","","","","","","","","","","","","","","","","","","","","","","","","","",""
"","text-replacement","11","56805","0.0-11.0","14717766","wem/bandit_party_2","A1WKF2VH7TV0H2","either","5","2913","","","32","","","","","","","","","","","","","","","","","","","","","","","","","","","","","","","","","","","","","",""
"","bandit","12","60997","0.0-12.0-0.0","14717766","wem/bandit_party_2","A1WKF2VH7TV0H2","either","5","2679","","","","","","","0","0","1","0","0","","","","","0","","","","0","","","","","","","","","","","","","74","J","0","img/none_selected_demo.jpg","true","0","","",""
"","bandit","13","63173","0.0-13.0-0.0","14717766","wem/bandit_party_2","A1WKF2VH7TV0H2","either","5","667","","","","","","","0","0","1","0","0","","","","","0","","","","0","","","","","","","","","","","","","75","K","0","img/none_selected_demo.jpg","true","0","","",""
"","text-replacement","14","64186","0.0-14.0","14717766","wem/bandit_party_2","A1WKF2VH7TV0H2","either","5","1008","","","32","","","","","","","","","","","","","","","","","","","","","","","","","","","","","","","","","","","","","",""
"","text-replacement","15","64623","0.0-15.0","14717766","wem/bandit_party_2","A1WKF2VH7TV0H2","either","5","435","","","32","","","","","","","","","","","","","","","","","","","","","","","","","","","","","","","","","","","","","",""
"","text-replacement","16","64996","0.0-16.0","14717766","wem/bandit_party_2","A1WKF2VH7TV0H2","either","5","368","","","32","","","","","","","","","","","","","","","","","","","","","","","","","","","","","","","","","","","","","",""
"","text-replacement","17","65550","0.0-17.0","14717766","wem/bandit_party_2","A1WKF2VH7TV0H2","either","5","552","","","32","","","","","","","","","","","","","","","","","","","","","","","","","","","","","","","","","","","","","",""
"","bandit","18","67685","0.0-18.0-0.0","14717766","wem/bandit_party_2","A1WKF2VH7TV0H2","either","5","624","","","","","","","0","1","0","","0.8","0.5","0.5","","","0.8","0.2","","","","","","","","","","","","","","","","74","J","0","img/none_selected_demo.jpg","true","0","80_20_practice","",""
"","bandit","19","69471","0.0-18.0-1.0","14717766","wem/bandit_party_2","A1WKF2VH7TV0H2","either","5","276","","","","","","","0","0","1","0.2","","0.5","0.5","","","","","","","0.8","0.2","","","","","","","","","","","","75","K","1","","true","0","80_20_practice","",""
"","bandit","20","71278","0.0-18.0-2.0","14717766","wem/bandit_party_2","A1WKF2VH7TV0H2","either","5","297","","","","","","","0","0","1","","0.2","0.5","0.5","","","0.8","0.2","","","","","","","","","","","","","","","","75","K","1","","true","0","80_20_practice","",""
"","bandit","21","72866","0.0-18.0-3.0","14717766","wem/bandit_party_2","A1WKF2VH7TV0H2","either","5","77","","","","","","","0","1","0","","0.8","0.5","0.5","","","0.8","0.2","","","","","","","","","","","","","","","","74","J","0","img/none_selected_demo.jpg","true","0","80_20_practice","",""
"","bandit","22","74501","0.0-18.0-4.0","14717766","wem/bandit_party_2","A1WKF2VH7TV0H2","either","5","125","","","","","","","0","0","1","0.8","","0.5","0.5","","","","","","","0.8","0.2","","","","","","","","","","","","74","J","0","img/none_selected_demo.jpg","true","0","80_20_practice","",""
"","bandit","23","76136","0.0-18.0-5.0","14717766","wem/bandit_party_2","A1WKF2VH7TV0H2","either","5","126","","","","","","","0","0","1","","0.2","0.5","0.5","","","0.8","0.2","","","","","","","","","","","","","","","","75","K","1","","true","0","80_20_practice","",""
"","bandit","24","77702","0.0-18.0-6.0","14717766","wem/bandit_party_2","A1WKF2VH7TV0H2","either","5","59","","","","","","","0","0","1","","0.2","0.5","0.5","","","0.8","0.2","","","","","","","","","","","","","","","","75","K","1","","true","0","80_20_practice","",""
"","bandit","25","79566","0.0-18.0-7.0","14717766","wem/bandit_party_2","A1WKF2VH7TV0H2","either","5","354","","","","","","","0","0","1","","0.2","0.5","0.5","","","0.8","0.2","","","","","","","","","","","","","","","","75","K","1","","true","0","80_20_practice","",""
"","bandit","26","81166","0.0-18.0-8.0","14717766","wem/bandit_party_2","A1WKF2VH7TV0H2","either","5","90","","","","","","","1","0","0","0.8","","0.5","0.5","","","","","","","0.8","0.2","","","","","","","","","","","","74","J","0","img/none_selected_demo.jpg","true","0","80_20_practice","",""
"","bandit","27","83130","0.0-18.0-9.0","14717766","wem/bandit_party_2","A1WKF2VH7TV0H2","either","5","453","","","","","","","1","0","0","0.8","","0.5","0.5","","","","","","","0.8","0.2","","","","","","","","","","","","74","J","0","img/none_selected_demo.jpg","true","0","80_20_practice","",""
"","bandit","28","84742","0.0-18.0-10.0","14717766","wem/bandit_party_2","A1WKF2VH7TV0H2","either","5","103","","","","","","","1","0","0","0.8","","0.5","0.5","","","","","","","0.8","0.2","","","","","","","","","","","","74","J","0","img/none_selected_demo.jpg","true","0","80_20_practice","",""
"","bandit","29","86445","0.0-18.0-11.0","14717766","wem/bandit_party_2","A1WKF2VH7TV0H2","either","5","192","","","","","","","1","0","0","0.8","","0.5","0.5","","","","","","","0.8","0.2","","","","","","","","","","","","74","J","0","img/none_selected_demo.jpg","true","0","80_20_practice","",""
"","bandit","30","88153","0.0-18.0-12.0","14717766","wem/bandit_party_2","A1WKF2VH7TV0H2","either","5","197","","","","","","","0","1","0","","0.8","0.5","0.5","","","0.8","0.2","","","","","","","","","","","","","","","","74","J","0","img/none_selected_demo.jpg","true","0","80_20_practice","",""
"","bandit","31","89705","0.0-18.0-13.0","14717766","wem/bandit_party_2","A1WKF2VH7TV0H2","either","5","42","","","","","","","0","1","0","","0.8","0.5","0.5","","","0.8","0.2","","","","","","","","","","","","","","","","74","J","0","img/none_selected_demo.jpg","true","0","80_20_practice","",""
"","bandit","32","91329","0.0-18.0-14.0","14717766","wem/bandit_party_2","A1WKF2VH7TV0H2","either","5","114","","","","","","","0","0","1","0.2","","0.5","0.5","","","","","","","0.8","0.2","","","","","","","","","","","","75","K","1","","true","0","80_20_practice","",""
"","bandit","33","93114","0.0-18.0-15.0","14717766","wem/bandit_party_2","A1WKF2VH7TV0H2","either","5","276","","","","","","","0","0","1","","0.8","0.5","0.5","","","0.8","0.2","","","","","","","","","","","","","","","","74","J","0","img/none_selected_demo.jpg","true","0","80_20_practice","",""
"","bandit","34","94676","0.0-18.0-16.0","14717766","wem/bandit_party_2","A1WKF2VH7TV0H2","either","5","53","","","","","","","0","0","1","","0.2","0.5","0.5","","","0.8","0.2","","","","","","","","","","","","","","","","75","K","1","","true","0","80_20_practice","",""
"","bandit","35","96379","0.0-18.0-17.0","14717766","wem/bandit_party_2","A1WKF2VH7TV0H2","either","5","193","","","","","","","0","0","1","","0.8","0.5","0.5","","","0.8","0.2","","","","","","","","","","","","","","","","74","J","0","img/none_selected_demo.jpg","true","0","80_20_practice","",""
"","bandit","36","97907","0.0-18.0-18.0","14717766","wem/bandit_party_2","A1WKF2VH7TV0H2","either","5","17","","","","","","","0","0","1","0.2","","0.5","0.5","","","","","","","0.8","0.2","","","","","","","","","","","","75","K","1","","true","0","80_20_practice","",""
"","bandit","37","99432","0.0-18.0-19.0","14717766","wem/bandit_party_2","A1WKF2VH7TV0H2","either","5","16","","","","","","","0","1","0","","0.8","0.5","0.5","","","0.8","0.2","","","","","","","","","","","","","","","","74","J","0","img/none_selected_demo.jpg","true","0","80_20_practice","",""
"","text-replacement","38","102109","0.0-19.0","14717766","wem/bandit_party_2","A1WKF2VH7TV0H2","either","5","2673","","","32","","","","","","","","","","","","","","","","","","","","","","","","","","","","","","","","","","","","","",""
"","bandit","39","104164","0.0-20.0-0.0","14717766","wem/bandit_party_2","A1WKF2VH7TV0H2","either","5","545","","","","","","","1","0","0","1","0","","","","","0","1","","","1","0","","","","","","","","","","","","74","J","0","img/none_selected_demo.jpg","true","0","","",""
"","text-replacement","40","107551","0.0-21.0","14717766","wem/bandit_party_2","A1WKF2VH7TV0H2","either","5","3382","","","32","","","","","","","","","","","","","","","","","","","","","","","","","","","","","","","","","","","","","",""
"","text-replacement","41","111002","0.0-22.0","14717766","wem/bandit_party_2","A1WKF2VH7TV0H2","either","5","3445","","","32","","","","","","","","","","","","","","","","","","","","","","","","","","","","","","","","","","","","","",""
"","text-replacement","42","112654","0.0-23.0","14717766","wem/bandit_party_2","A1WKF2VH7TV0H2","either","5","1649","","","32","","","","","","","","","","","","","","","","","","","","","","","","","","","","","","","","","","","","","",""
"","text-replacement","43","115435","0.0-24.0","14717766","wem/bandit_party_2","A1WKF2VH7TV0H2","either","5","2777","","","32","","","","","","","","","","","","","","","","","","","","","","","","","","","","","","","","","","","","","",""
"","text-replacement","44","115785","0.0-25.0","14717766","wem/bandit_party_2","A1WKF2VH7TV0H2","either","5","346","","","32","","","","","","","","","","","","","","","","","","","","","","","","","","","","","","","","","","","","","",""
"","text-replacement","45","116043","0.0-26.0","14717766","wem/bandit_party_2","A1WKF2VH7TV0H2","either","5","254","","","32","","","","","","","","","","","","","","","","","","","","","","","","","","","","","","","","","","","","","",""
"","text-replacement","46","116271","0.0-27.0","14717766","wem/bandit_party_2","A1WKF2VH7TV0H2","either","5","223","","","32","","","","","","","","","","","","","","","","","","","","","","","","","","","","","","","","","","","","","",""
"","text-replacement","47","116527","0.0-28.0","14717766","wem/bandit_party_2","A1WKF2VH7TV0H2","either","5","252","","","32","","","","","","","","","","","","","","","","","","","","","","","","","","","","","","","","","","","","","",""
"","text-replacement","48","116755","0.0-29.0","14717766","wem/bandit_party_2","A1WKF2VH7TV0H2","either","5","223","","","32","","","","","","","","","","","","","","","","","","","","","","","","","","","","","","","","","","","","","",""
"","text-replacement","49","116967","0.0-30.0","14717766","wem/bandit_party_2","A1WKF2VH7TV0H2","either","5","207","","","32","","","","","","","","","","","","","","","","","","","","","","","","","","","","","","","","","","","","","",""
"","text-replacement","50","117162","0.0-31.0","14717766","wem/bandit_party_2","A1WKF2VH7TV0H2","either","5","191","","","32","","","","","","","","","","","","","","","","","","","","","","","","","","","","","","","","","","","","","",""
"","bandit","51","119978","0.0-32.0-0.0","14717766","wem/bandit_party_2","A1WKF2VH7TV0H2","either","5","1305","","","","","","","0","0","1","0.8","","0.5","0.5","0.5","0.5","","","","","0.8","0.2","0.6","0.2","","","","","","","","","","72","H","0","img/none_selected.jpg","true","0","full_practice","",""
"","bandit","52","121563","0.0-32.0-1.0","14717766","wem/bandit_party_2","A1WKF2VH7TV0H2","either","5","74","","","","","","","0","1","0","","0.6","0.5","0.5","0.5","0.5","0.8","0.2","0.6","0.2","","","","","","","","","","","","","","75","K","2","","true","0","full_practice","",""
"","bandit","53","123183","0.0-32.0-2.0","14717766","wem/bandit_party_2","A1WKF2VH7TV0H2","either","5","108","","","","","","","0","0","1","0.2","","0.5","0.5","0.5","0.5","","","","","0.8","0.2","0.6","0.2","","","","","","","","","","74","J","1","","true","0","full_practice","",""
"","bandit","54","124795","0.0-32.0-3.0","14717766","wem/bandit_party_2","A1WKF2VH7TV0H2","either","5","102","","","","","","","0","0","1","0.2","","0.5","0.5","0.5","0.5","","","","","0.8","0.2","0.6","0.2","","","","","","","","","","76","L","3","","true","0","full_practice","",""
"","bandit","55","126373","0.0-32.0-4.0","14717766","wem/bandit_party_2","A1WKF2VH7TV0H2","either","5","68","","","","","","","0","0","1","","0.2","0.5","0.5","0.5","0.5","0.8","0.2","0.6","0.2","","","","","","","","","","","","","","76","L","3","","true","0","full_practice","",""
"","bandit","56","128020","0.0-32.0-5.0","14717766","wem/bandit_party_2","A1WKF2VH7TV0H2","either","5","137","","","","","","","0","0","1","0.2","","0.5","0.5","0.5","0.5","","","","","0.8","0.2","0.6","0.2","","","","","","","","","","74","J","1","","true","0","full_practice","",""
"","bandit","57","129648","0.0-32.0-6.0","14717766","wem/bandit_party_2","A1WKF2VH7TV0H2","either","5","116","","","","","","","0","0","1","","0.6","0.5","0.5","0.5","0.5","0.8","0.2","0.6","0.2","","","","","","","","","","","","","","75","K","2","","true","0","full_practice","",""
"","bandit","58","131250","0.0-32.0-7.0","14717766","wem/bandit_party_2","A1WKF2VH7TV0H2","either","5","90","","","","","","","1","0","0","0.2","","0.5","0.5","0.5","0.5","","","","","0.8","0.2","0.6","0.2","","","","","","","","","","74","J","1","","true","0","full_practice","",""
"","bandit","59","132867","0.0-32.0-8.0","14717766","wem/bandit_party_2","A1WKF2VH7TV0H2","either","5","106","","","","","","","0","0","1","0.8","","0.5","0.5","0.5","0.5","","","","","0.8","0.2","0.6","0.2","","","","","","","","","","72","H","0","img/none_selected.jpg","true","0","full_practice","",""
"","bandit","60","134548","0.0-32.0-9.0","14717766","wem/bandit_party_2","A1WKF2VH7TV0H2","either","5","171","","","","","","","0","0","1","0.2","","0.5","0.5","0.5","0.5","","","","","0.8","0.2","0.6","0.2","","","","","","","","","","74","J","1","","true","0","full_practice","",""
"","bandit","61","136141","0.0-32.0-10.0","14717766","wem/bandit_party_2","A1WKF2VH7TV0H2","either","5","82","","","","","","","0","0","1","0.2","","0.5","0.5","0.5","0.5","","","","","0.8","0.2","0.6","0.2","","","","","","","","","","74","J","1","","true","0","full_practice","",""
"","bandit","62","137683","0.0-32.0-11.0","14717766","wem/bandit_party_2","A1WKF2VH7TV0H2","either","5","31","","","","","","","0","0","1","","0.2","0.5","0.5","0.5","0.5","0.8","0.2","0.6","0.2","","","","","","","","","","","","","","74","J","1","","true","0","full_practice","",""
"","bandit","63","139196","0.0-32.0-12.0","14717766","wem/bandit_party_2","A1WKF2VH7TV0H2","either","5","1","","","","","","","1","0","0","0.2","","0.5","0.5","0.5","0.5","","","","","0.8","0.2","0.6","0.2","","","","","","","","","","74","J","1","","true","0","full_practice","",""
"","bandit","64","140792","0.0-32.0-13.0","14717766","wem/bandit_party_2","A1WKF2VH7TV0H2","either","5","85","","","","","","","0","1","0","","0.6","0.5","0.5","0.5","0.5","0.8","0.2","0.6","0.2","","","","","","","","","","","","","","75","K","2","","true","0","full_practice","",""
"","bandit","65","142372","0.0-32.0-14.0","14717766","wem/bandit_party_2","A1WKF2VH7TV0H2","either","5","70","","","","","","","1","0","0","0.6","","0.5","0.5","0.5","0.5","","","","","0.8","0.2","0.6","0.2","","","","","","","","","","75","K","2","","true","0","full_practice","",""
"","bandit","66","143895","0.0-32.0-15.0","14717766","wem/bandit_party_2","A1WKF2VH7TV0H2","either","5","11","","","","","","","0","1","0","","0.2","0.5","0.5","0.5","0.5","0.8","0.2","0.6","0.2","","","","","","","","","","","","","","76","L","3","","true","0","full_practice","",""
"","bandit","67","145572","0.0-32.0-16.0","14717766","wem/bandit_party_2","A1WKF2VH7TV0H2","either","5","165","","","","","","","0","0","1","0.2","","0.5","0.5","0.5","0.5","","","","","0.8","0.2","0.6","0.2","","","","","","","","","","74","J","1","","true","0","full_practice","",""
"","bandit","68","147177","0.0-32.0-17.0","14717766","wem/bandit_party_2","A1WKF2VH7TV0H2","either","5","94","","","","","","","1","0","0","0.6","","0.5","0.5","0.5","0.5","","","","","0.8","0.2","0.6","0.2","","","","","","","","","","75","K","2","","true","0","full_practice","",""
"","bandit","69","148752","0.0-32.0-18.0","14717766","wem/bandit_party_2","A1WKF2VH7TV0H2","either","5","63","","","","","","","0","0","1","0.6","","0.5","0.5","0.5","0.5","","","","","0.8","0.2","0.6","0.2","","","","","","","","","","75","K","2","","true","0","full_practice","",""
"","bandit","70","150355","0.0-32.0-19.0","14717766","wem/bandit_party_2","A1WKF2VH7TV0H2","either","5","91","","","","","","","0","1","0","","0.6","0.5","0.5","0.5","0.5","0.8","0.2","0.6","0.2","","","","","","","","","","","","","","75","K","2","","true","0","full_practice","",""
"","text","71","152895","0.0-33.0","14717766","wem/bandit_party_2","A1WKF2VH7TV0H2","either","5","2523","","","32","","","","","","","","","","","","","","","","","","","","","","","","","","","","","","","","","","","","","",""
"","text-replacement","72","160777","0.0-34.0","14717766","wem/bandit_party_2","A1WKF2VH7TV0H2","either","5","6873","","","32","","","","","","","","","","","","","","","","","","","","","","","","","","","","","","","","","","","","","",""
"","text-replacement","73","161846","0.0-35.0","14717766","wem/bandit_party_2","A1WKF2VH7TV0H2","either","5","1064","","","32","","","","","","","","","","","","","","","","","","","","","","","","","","","","","","","","","","","","","",""
"","text-replacement","74","162267","0.0-36.0","14717766","wem/bandit_party_2","A1WKF2VH7TV0H2","either","5","416","","","32","","","","","","","","","","","","","","","","","","","","","","","","","","","","","","","","","","","","","",""
"","text-replacement","75","162612","0.0-37.0","14717766","wem/bandit_party_2","A1WKF2VH7TV0H2","either","5","340","","","32","","","","","","","","","","","","","","","","","","","","","","","","","","","","","","","","","","","","","",""
"","text-replacement","76","162931","0.0-38.0","14717766","wem/bandit_party_2","A1WKF2VH7TV0H2","either","5","312","","","32","","","","","","","","","","","","","","","","","","","","","","","","","","","","","","","","","","","","","",""
"","survey-multi-choice-replacement","77","165920","0.0-39.0-0.0","14717766","wem/bandit_party_2","A1WKF2VH7TV0H2","either","5","2972","","","","","","","","","","","","","","","","","","","","","","","","Money will be added to the pool for <span style='color:blue;'>DEMOCRATS</span>","","","","","","","attn_check","","","","","","","","","0",""
"","survey-multi-choice-replacement","78","173657","0.0-40.0-0.0","14717766","wem/bandit_party_2","A1WKF2VH7TV0H2","either","5","6715","","","","","","","","","","","","","","","","","","","","","","","","Money will be subtracted from the pool for <span style='color:red;'>REPUBLICANS</span>","","","","","","","attn_check","","","","","","","","","1",""
"","instructions","79","176057","0.0-40.0-1.0-0.0","14717766","wem/bandit_party_2","A1WKF2VH7TV0H2","either","5","1391","","","","","","","","","","","","","","","","","","","","","","","","","","","","","","","","","","","","","","","","","[{""page_index"":0,""viewing_time"":1390}]"
"","survey-multi-choice-replacement","80","178409","0.0-40.1-0.1","14717766","wem/bandit_party_2","A1WKF2VH7TV0H2","either","5","1334","","","","","","","","","","","","","","","","","","","","","","","","Equal amounts of money will be added to the pool for <span style='color:blue;'>DEMOCRATS</span> and subtracted from the pool for <span style='color:red;'>REPUBLICANS</span>","","","","","","","attn_check","","","","","","","","","2",""
"","survey-multi-choice-replacement","81","181462","0.0-41.0-0.0","14717766","wem/bandit_party_2","A1WKF2VH7TV0H2","either","5","2035","","","","","","","","","","","","","","","","","","","","","","","","No money will be added to either pool","","","","","","","attn_check","","","","","","","","","3",""
"","bandit","82","185828","0.0-42.0-0.0","14717766","wem/bandit_party_2","A1WKF2VH7TV0H2","either","5","1849","","","","","","","0","1","0","","0.6131215568","0.6","0.2","0.4","0.8","0.6131215568","0.4909711759","0.32692793","0.4253928501","","","","","","","","","","","","","","72","H","0","img/none_selected.jpg","","1","main_expt","",""
"","bandit","83","187577","0.0-43.0-0.0","14717766","wem/bandit_party_2","A1WKF2VH7TV0H2","either","5","238","","","","","","","0","1","0","","0.5514346198","0.6","0.2","0.4","0.8","0.6783759564","0.5514346198","0.3068321923","0.5447097682","","","","","","","","","","","","","","74","J","1","","","2","main_expt","",""
"","bandit","84","189244","0.0-44.0-0.0","14717766","wem/bandit_party_2","A1WKF2VH7TV0H2","either","5","156","","","","","","","0","0","1","","0.2871808385","0.6","0.2","0.4","0.8","0.6535049038","0.5966913043","0.2871808385","0.5631376832","","","","","","","","","","","","","","75","K","2","","","3","main_expt","",""
"","bandit","85","190968","0.0-45.0-0.0","14717766","wem/bandit_party_2","A1WKF2VH7TV0H2","either","5","213","","","","","","","0","0","1","","0.3062311279","0.6","0.2","0.4","0.8","0.5433476707","0.6236804691","0.3062311279","0.5889355808","","","","","","","","","","","","","","75","K","2","","","4","main_expt","",""
"","bandit","86","192568","0.0-46.0-0.0","14717766","wem/bandit_party_2","A1WKF2VH7TV0H2","either","5","89","","","","","","","0","1","0","","0.2453374439","0.6","0.2","0.4","0.8","0.4256320799","0.5844938386","0.2453374439","0.6125363118","","","","","","","","","","","","","","75","K","2","","","5","main_expt","",""
"","bandit","87","194204","0.0-47.0-0.0","14717766","wem/bandit_party_2","A1WKF2VH7TV0H2","either","5","124","","","","","","","0","0","1","","0.5204159956","0.6","0.2","0.4","0.8","0.4097031487","0.4929788692","0.2258644136","0.5204159956","","","","","","","","","","","","","","76","L","3","","","6","main_expt","",""
"","bandit","88","195723","0.0-48.0-0.0","14717766","wem/bandit_party_2","A1WKF2VH7TV0H2","either","5","2","","","","","","","0","1","0","","0.3978044106","0.6","0.2","0.4","0.8","0.4614862243","0.3978044106","0.2251512132","0.5949894572","","","","","","","","","","","","","","74","J","1","","","7","main_expt","",""
"","bandit","89","197292","0.0-49.0-0.0","14717766","wem/bandit_party_2","A1WKF2VH7TV0H2","either","5","57","","","","","","","1","0","0","0.4305419438","","0.6","0.2","0.4","0.8","","","","","0.4305419438","0.5080346622","0.1597376121","0.7043393759","","","","","","","","","","72","H","0","img/none_selected.jpg","","8","main_expt","",""
"","bandit","90","198822","0.0-50.0-0.0","14717766","wem/bandit_party_2","A1WKF2VH7TV0H2","either","5","18","","","","","","","0","1","0","","0.6000641755","0.6","0.2","0.4","0.8","0.6000641755","0.440708512","0.1395884133","0.6866437556","","","","","","","","","","","","","","72","H","0","img/none_selected.jpg","","9","main_expt","",""
"","bandit","91","200514","0.0-51.0-0.0","14717766","wem/bandit_party_2","A1WKF2VH7TV0H2","either","5","179","","","","","","","0","1","0","","0.66675231","0.6","0.2","0.4","0.8","0.66675231","0.4862198985","0.1529628815","0.6743415364","","","","","","","","","","","","","","72","H","0","img/none_selected.jpg","","10","main_expt","",""
"","bandit","92","202149","0.0-52.0-0.0","14717766","wem/bandit_party_2","A1WKF2VH7TV0H2","either","5","124","","","","","","","1","0","0","0.538431352","","0.6","0.2","0.4","0.8","","","","","0.538431352","0.4942886423","0.1918890603","0.6907290289","","","","","","","","","","72","H","0","img/none_selected.jpg","","11","main_expt","",""
"","bandit","93","203954","0.0-53.0-0.0","14717766","wem/bandit_party_2","A1WKF2VH7TV0H2","either","5","293","","","","","","","0","1","0","","0.5683478731","0.6","0.2","0.4","0.8","0.5683478731","0.4999864232","0.1412308375","0.7254617755","","","","","","","","","","","","","","72","H","0","img/none_selected.jpg","","12","main_expt","",""
"","bandit","94","205722","0.0-54.0-0.0","14717766","wem/bandit_party_2","A1WKF2VH7TV0H2","either","5","257","","","","","","","0","1","0","","0.3945724157","0.6","0.2","0.4","0.8","0.5870071372","0.3945724157","0.1854965676","0.7533793381","","","","","","","","","","","","","","74","J","1","","","13","main_expt","",""
"","bandit","95","207251","0.0-55.0-0.0","14717766","wem/bandit_party_2","A1WKF2VH7TV0H2","either","5","17","","","","","","","0","1","0","","0.458684297","0.6","0.2","0.4","0.8","0.3389967741","0.458684297","0.2200151947","0.6909187676","","","","","","","","","","","","","","74","J","1","","","14","main_expt","",""
"","bandit","96","208830","0.0-56.0-0.0","14717766","wem/bandit_party_2","A1WKF2VH7TV0H2","either","5","67","","","","","","","1","0","0","0.1497743902","","0.6","0.2","0.4","0.8","","","","","0.2927381815","0.5338449271","0.1497743902","0.7916820586","","","","","","","","","","75","K","2","","","15","main_expt","",""
"","bandit","97","210518","0.0-57.0-0.0","14717766","wem/bandit_party_2","A1WKF2VH7TV0H2","either","5","175","","","","","","","0","1","0","","0.6821016448","0.6","0.2","0.4","0.8","0.2268478953","0.6821016448","0.1767244745","0.7991661796","","","","","","","","","","","","","","74","J","1","","","16","main_expt","",""
"","bandit","98","212031","0.0-58.0-0.0","14717766","wem/bandit_party_2","A1WKF2VH7TV0H2","either","5","2","","","","","","","1","0","0","0.6963612506","","0.6","0.2","0.4","0.8","","","","","0.2364877179","0.6963612506","0.1953364786","0.7352739439","","","","","","","","","","74","J","1","","","17","main_expt","",""
"","bandit","99","213932","0.0-59.0-0.0","14717766","wem/bandit_party_2","A1WKF2VH7TV0H2","either","5","390","","","","","","","0","0","1","0.280777314","","0.6","0.2","0.4","0.8","","","","","0.280777314","0.7035779666","0.139355503","0.6911569498","","","","","","","","","","72","H","0","img/none_selected.jpg","","18","main_expt","",""
"","bandit","100","215453","0.0-60.0-0.0","14717766","wem/bandit_party_2","A1WKF2VH7TV0H2","either","5","8","","","","","","","1","0","0","0.6372159304","","0.6","0.2","0.4","0.8","","","","","0.3280428268","0.677086514","0.129677489","0.6372159304","","","","","","","","","","76","L","3","","","19","main_expt","",""
"","bandit","101","216970","0.0-61.0-0.0","14717766","wem/bandit_party_2","A1WKF2VH7TV0H2","either","5","5","","","","","","","0","0","1","0.1584506979","","0.6","0.2","0.4","0.8","","","","","0.213865824","0.5211019236","0.1584506979","0.5917564331","","","","","","","","","","75","K","2","","","20","main_expt","",""
"","bandit","102","218778","0.0-62.0-0.0","14717766","wem/bandit_party_2","A1WKF2VH7TV0H2","either","5","294","","","","","","","0","0","1","0.6040081297","","0.6","0.2","0.4","0.8","","","","","0.2755747612","0.6040081297","0.1934985877","0.6351733259","","","","","","","","","","74","J","1","","","21","main_expt","",""
"","bandit","103","220417","0.0-63.0-0.0","14717766","wem/bandit_party_2","A1WKF2VH7TV0H2","either","5","128","","","","","","","0","1","0","","0.5276460007","0.6","0.2","0.4","0.8","0.3096891892","0.5276460007","0.1184813826","0.57448168","","","","","","","","","","","","","","74","J","1","","","22","main_expt","",""
"","bandit","104","222088","0.0-64.0-0.0","14717766","wem/bandit_party_2","A1WKF2VH7TV0H2","either","5","158","","","","","","","0","0","1","","0.1387482349","0.6","0.2","0.4","0.8","0.1855444332","0.4373756081","0.1387482349","0.532235281","","","","","","","","","","","","","","75","K","2","","","23","main_expt","",""
"","bandit","105","223630","0.0-65.0-0.0","14717766","wem/bandit_party_2","A1WKF2VH7TV0H2","either","5","29","","","","","","","1","0","0","0.4695599312","","0.6","0.2","0.4","0.8","","","","","0.2026045625","0.4051577966","0.1275075135","0.4695599312","","","","","","","","","","76","L","3","","","24","main_expt","",""
"","bandit","106","225312","0.0-66.0-0.0","14717766","wem/bandit_party_2","A1WKF2VH7TV0H2","either","5","170","","","","","","","1","0","0","0.2610081957","","0.6","0.2","0.4","0.8","","","","","0.2610081957","0.3583026632","0.1324238285","0.3710761786","","","","","","","","","","72","H","0","img/none_selected.jpg","","25","main_expt","",""
"","bandit","107","226973","0.0-67.0-0.0","14717766","wem/bandit_party_2","A1WKF2VH7TV0H2","either","5","150","","","","","","","0","0","1","","0.2068764453","0.6","0.2","0.4","0.8","0.2068764453","0.4070676783","0.2222282692","0.3104834237","","","","","","","","","","","","","","72","H","0","img/none_selected.jpg","","26","main_expt","",""
"","bandit","108","228699","0.0-68.0-0.0","14717766","wem/bandit_party_2","A1WKF2VH7TV0H2","either","5","213","","","","","","","0","1","0","","0.3962805628","0.6","0.2","0.4","0.8","0.1387354037","0.3962805628","0.2367528544","0.4250638914","","","","","","","","","","","","","","74","J","1","","","27","main_expt","",""
"","bandit","109","231375","0.0-69.0-0.0","14717766","wem/bandit_party_2","A1WKF2VH7TV0H2","either","5","1165","","","","","","","0","0","1","0.1581712713","","0.6","0.2","0.4","0.8","","","","","0.2065421522","0.3381264529","0.1581712713","0.3738912408","","","","","","","","","","75","K","2","","","28","main_expt","",""
"","bandit","110","233012","0.0-70.0-0.0","14717766","wem/bandit_party_2","A1WKF2VH7TV0H2","either","5","124","","","","","","","0","0","1","","0.2361440946","0.6","0.2","0.4","0.8","0.2452437498","0.3405446746","0.2361440946","0.411092256","","","","","","","","","","","","","","75","K","2","","","29","main_expt","",""
"","bandit","111","234665","0.0-71.0-0.0","14717766","wem/bandit_party_2","A1WKF2VH7TV0H2","either","5","141","","","","","","","0","0","1","","0.3051502752","0.6","0.2","0.4","0.8","0.3076129501","0.3536414415","0.3051502752","0.306262239","","","","","","","","","","","","","","75","K","2","","","30","main_expt","",""
"","bandit","112","236209","0.0-72.0-0.0","14717766","wem/bandit_party_2","A1WKF2VH7TV0H2","either","5","30","","","","","","","0","0","1","0.2846857217","","0.6","0.2","0.4","0.8","","","","","0.275744379","0.3201297868","0.3588845582","0.2846857217","","","","","","","","","","76","L","3","","","31","main_expt","",""
"","bandit","113","237994","0.0-73.0-0.0","14717766","wem/bandit_party_2","A1WKF2VH7TV0H2","either","5","271","","","","","","","0","0","1","0.260797537","","0.6","0.2","0.4","0.8","","","","","0.1582224348","0.414050106","0.3351264969","0.260797537","","","","","","","","","","76","L","3","","","32","main_expt","",""
"","bandit","114","239713","0.0-74.0-0.0","14717766","wem/bandit_party_2","A1WKF2VH7TV0H2","either","5","206","","","","","","","0","1","0","","0.4846208784","0.6","0.2","0.4","0.8","0.07234251762","0.4846208784","0.3369799553","0.3108282978","","","","","","","","","","","","","","74","J","1","","","33","main_expt","",""
"","bandit","115","241384","0.0-75.0-0.0","14717766","wem/bandit_party_2","A1WKF2VH7TV0H2","either","5","158","","","","","","","0","0","1","","0.4250330595","0.6","0.2","0.4","0.8","0.07244310326","0.4250330595","0.3040676539","0.3996464291","","","","","","","","","","","","","","74","J","1","","","34","main_expt","",""
"","bandit","116","243052","0.0-76.0-0.0","14717766","wem/bandit_party_2","A1WKF2VH7TV0H2","either","5","156","","","","","","","0","1","0","","0.2974236485","0.6","0.2","0.4","0.8","0.07140094546","0.499329675","0.2974236485","0.4368131495","","","","","","","","","","","","","","75","K","2","","","35","main_expt","",""
"","bandit","117","244734","0.0-77.0-0.0","14717766","wem/bandit_party_2","A1WKF2VH7TV0H2","either","5","167","","","","","","","0","1","0","","0.310238309","0.6","0.2","0.4","0.8","0.08624361683","0.3892953339","0.310238309","0.3396719642","","","","","","","","","","","","","","75","K","2","","","36","main_expt","",""
"","bandit","118","246435","0.0-78.0-0.0","14717766","wem/bandit_party_2","A1WKF2VH7TV0H2","either","5","189","","","","","","","0","0","1","","0.07543251018","0.6","0.2","0.4","0.8","0.07543251018","0.3680424748","0.2818719109","0.4409026667","","","","","","","","","","","","","","72","H","0","img/none_selected.jpg","","37","main_expt","",""
"","bandit","119","248144","0.0-79.0-0.0","14717766","wem/bandit_party_2","A1WKF2VH7TV0H2","either","5","194","","","","","","","0","0","1","0.1324785543","","0.6","0.2","0.4","0.8","","","","","0.1324785543","0.4909804269","0.2925765749","0.489392614","","","","","","","","","","72","H","0","img/none_selected.jpg","","38","main_expt","",""
"","bandit","120","249707","0.0-80.0-0.0","14717766","wem/bandit_party_2","A1WKF2VH7TV0H2","either","5","51","","","","","","","0","0","1","0.1824024676","","0.6","0.2","0.4","0.8","","","","","0.1824024676","0.5165168671","0.3033582507","0.4403114744","","","","","","","","","","72","H","0","img/none_selected.jpg","","39","main_expt","",""
"","bandit","121","251259","0.0-81.0-0.0","14717766","wem/bandit_party_2","A1WKF2VH7TV0H2","either","5","39","","","","","","","0","0","1","0.09861269436","","0.6","0.2","0.4","0.8","","","","","0.09861269436","0.6036007873","0.2371445562","0.343221944","","","","","","","","","","72","H","0","img/none_selected.jpg","","40","main_expt","",""
"","bandit","122","252797","0.0-82.0-0.0","14717766","wem/bandit_party_2","A1WKF2VH7TV0H2","either","5","25","","","","","","","0","0","1","0.1028082326","","0.6","0.2","0.4","0.8","","","","","0.1028082326","0.6078828369","0.2072661203","0.450343793","","","","","","","","","","72","H","0","img/none_selected.jpg","","41","main_expt","",""
"","bandit","123","254331","0.0-83.0-0.0","14717766","wem/bandit_party_2","A1WKF2VH7TV0H2","either","5","20","","","","","","","0","1","0","","0.1326350751","0.6","0.2","0.4","0.8","0.1326350751","0.5757077757","0.1850700716","0.4422822993","","","","","","","","","","","","","","72","H","0","img/none_selected.jpg","","42","main_expt","",""
"","bandit","124","256025","0.0-84.0-0.0","14717766","wem/bandit_party_2","A1WKF2VH7TV0H2","either","5","181","","","","","","","1","0","0","0.504524575","","0.6","0.2","0.4","0.8","","","","","0.1591685393","0.504524575","0.1700345657","0.4755437476","","","","","","","","","","74","J","1","","","43","main_expt","",""
"","bandit","125","258763","0.0-85.0-0.0","14717766","wem/bandit_party_2","A1WKF2VH7TV0H2","either","5","1227","","","","","","","0","0","1","0.150922449","","0.6","0.2","0.4","0.8","","","","","0.1558361793","0.3354744533","0.150922449","0.6211160782","","","","","","","","","","75","K","2","","","44","main_expt","",""
"","bandit","126","260514","0.0-86.0-0.0","14717766","wem/bandit_party_2","A1WKF2VH7TV0H2","either","5","237","","","","","","","1","0","0","0.5950963145","","0.6","0.2","0.4","0.8","","","","","0.08224127908","0.2259933845","0.08792573626","0.5950963145","","","","","","","","","","76","L","3","","","45","main_expt","",""
"","bandit","127","262386","0.0-87.0-0.0","14717766","wem/bandit_party_2","A1WKF2VH7TV0H2","either","5","360","","","","","","","0","0","1","","0.1991815266","0.6","0.2","0.4","0.8","0.05681632526","0.1991815266","0.05210962111","0.600883672","","","","","","","","","","","","","","74","J","1","","","46","main_expt","",""
"","bandit","128","263977","0.0-88.0-0.0","14717766","wem/bandit_party_2","A1WKF2VH7TV0H2","either","5","76","","","","","","","0","0","1","0.6018426621","","0.6","0.2","0.4","0.8","","","","","0.02046531905","0.1821259253","0.1658512007","0.6018426621","","","","","","","","","","76","L","3","","","47","main_expt","",""
"","bandit","129","265564","0.0-89.0-0.0","14717766","wem/bandit_party_2","A1WKF2VH7TV0H2","either","5","73","","","","","","","0","0","1","","0.1850219792","0.6","0.2","0.4","0.8","0.02793369594","0.1850219792","0.2171730843","0.6719149388","","","","","","","","","","","","","","74","J","1","","","48","main_expt","",""
"","bandit","130","267443","0.0-90.0-0.0","14717766","wem/bandit_party_2","A1WKF2VH7TV0H2","either","5","367","","","","","","","1","0","0","0.5824093935","","0.6","0.2","0.4","0.8","","","","","0.01520235592","0.2843491098","0.2545874694","0.5824093935","","","","","","","","","","76","L","3","","","49","main_expt","",""
"","bandit","131","270038","0.0-91.0-0.0","14717766","wem/bandit_party_2","A1WKF2VH7TV0H2","either","5","1080","","","","","","","1","0","0","0.5697547833","","0.6","0.2","0.4","0.8","","","","","0.008868670712","0.2385085868","0.1971443839","0.5697547833","","","","","","","","","","76","L","3","","","50","main_expt","",""
"","bandit","132","272480","0.0-92.0-0.0","14717766","wem/bandit_party_2","A1WKF2VH7TV0H2","either","5","929","","","","","","","0","0","1","","0.1743954459","0.6","0.2","0.4","0.8","0.004668439046","0.2762119933","0.1743954459","0.5875551098","","","","","","","","","","","","","","75","K","2","","","51","main_expt","",""
"","bandit","133","274190","0.0-93.0-0.0","14717766","wem/bandit_party_2","A1WKF2VH7TV0H2","either","5","195","","","","","","","0","0","1","","0.1007451992","0.6","0.2","0.4","0.8","0.003090075005","0.2350807626","0.1007451992","0.691822337","","","","","","","","","","","","","","75","K","2","","","52","main_expt","",""
"","bandit","134","275706","0.0-94.0-0.0","14717766","wem/bandit_party_2","A1WKF2VH7TV0H2","either","5","1","","","","","","","0","1","0","","0.2301492847","0.6","0.2","0.4","0.8","0.003474758773","0.2301492847","0.1648918076","0.7363191169","","","","","","","","","","","","","","74","J","1","","","53","main_expt","",""
"","bandit","135","277404","0.0-95.0-0.0","14717766","wem/bandit_party_2","A1WKF2VH7TV0H2","either","5","185","","","","","","","0","0","1","0.003279238457","","0.6","0.2","0.4","0.8","","","","","0.003279238457","0.2779325162","0.1761014763","0.7639548597","","","","","","","","","","72","H","0","img/none_selected.jpg","","54","main_expt","",""
"","bandit","136","279042","0.0-96.0-0.0","14717766","wem/bandit_party_2","A1WKF2VH7TV0H2","either","5","125","","","","","","","1","0","0","0.7264154962","","0.6","0.2","0.4","0.8","","","","","0.001847339967","0.2882189161","0.1460392243","0.7264154962","","","","","","","","","","76","L","3","","","55","main_expt","",""
"","bandit","137","280766","0.0-97.0-0.0","14717766","wem/bandit_party_2","A1WKF2VH7TV0H2","either","5","210","","","","","","","1","0","0","0.7511403137","","0.6","0.2","0.4","0.8","","","","","0.001186331615","0.2646822794","0.1882527018","0.7511403137","","","","","","","","","","76","L","3","","","56","main_expt","",""
"","bandit","138","282402","0.0-98.0-0.0","14717766","wem/bandit_party_2","A1WKF2VH7TV0H2","either","5","122","","","","","","","0","0","1","0.1836596221","","0.6","0.2","0.4","0.8","","","","","0.001917609755","0.3080117871","0.1836596221","0.6292194553","","","","","","","","","","75","K","2","","","57","main_expt","",""
"","bandit","139","283971","0.0-99.0-0.0","14717766","wem/bandit_party_2","A1WKF2VH7TV0H2","either","5","54","","","","","","","0","0","1","0.2259562874","","0.6","0.2","0.4","0.8","","","","","0.004115025419","0.2609020091","0.2259562874","0.5622591622","","","","","","","","","","75","K","2","","","58","main_expt","",""
"","bandit","140","285849","0.0-100.0-0.0","14717766","wem/bandit_party_2","A1WKF2VH7TV0H2","either","5","363","","","","","","","1","0","0","0.1673227733","","0.6","0.2","0.4","0.8","","","","","0.007083433589","0.3014652953","0.1673227733","0.6394190939","","","","","","","","","","75","K","2","","","59","main_expt","",""
"","bandit","141","287526","0.0-101.0-0.0","14717766","wem/bandit_party_2","A1WKF2VH7TV0H2","either","5","163","","","","","","","0","0","1","","0.2872544729","0.6","0.2","0.4","0.8","0.0100473459","0.2872544729","0.1404143731","0.502148976","","","","","","","","","","","","","","74","J","1","","","60","main_expt","",""
"","bandit","142","289057","0.0-102.0-0.0","14717766","wem/bandit_party_2","A1WKF2VH7TV0H2","either","5","17","","","","","","","0","0","1","0.5541662771","","0.6","0.2","0.4","0.8","","","","","0.02288810402","0.2347068593","0.1087230511","0.5541662771","","","","","","","","","","76","L","3","","","61","main_expt","",""
"","bandit","143","290635","0.0-103.0-0.0","14717766","wem/bandit_party_2","A1WKF2VH7TV0H2","either","5","64","","","","","","","0","0","1","","0.04890713094","0.6","0.2","0.4","0.8","0.04890713094","0.1786743828","0.1173770395","0.6016144889","","","","","","","","","","","","","","72","H","0","img/none_selected.jpg","","62","main_expt","",""
"","bandit","144","292160","0.0-104.0-0.0","14717766","wem/bandit_party_2","A1WKF2VH7TV0H2","either","5","9","","","","","","","0","0","1","","0.06015841579","0.6","0.2","0.4","0.8","0.06015841579","0.1627017484","0.1173961002","0.6306423252","","","","","","","","","","","","","","72","H","0","img/none_selected.jpg","","63","main_expt","",""
"","bandit","145","293770","0.0-105.0-0.0","14717766","wem/bandit_party_2","A1WKF2VH7TV0H2","either","5","96","","","","","","","0","0","1","","0.1093057248","0.6","0.2","0.4","0.8","0.0697324588","0.2220220934","0.1093057248","0.5963496952","","","","","","","","","","","","","","75","K","2","","","64","main_expt","",""
"","bandit","146","295538","0.0-106.0-0.0","14717766","wem/bandit_party_2","A1WKF2VH7TV0H2","either","5","254","","","","","","","0","0","1","","0.1437581537","0.6","0.2","0.4","0.8","0.03955641554","0.1387290973","0.1437581537","0.5835424673","","","","","","","","","","","","","","75","K","2","","","65","main_expt","",""
"","bandit","147","297279","0.0-107.0-0.0","14717766","wem/bandit_party_2","A1WKF2VH7TV0H2","either","5","228","","","","","","","0","1","0","","0.5789137396","0.6","0.2","0.4","0.8","0.04104317144","0.1481952943","0.1321246006","0.5789137396","","","","","","","","","","","","","","76","L","3","","","66","main_expt","",""
"","bandit","148","299191","0.0-108.0-0.0","14717766","wem/bandit_party_2","A1WKF2VH7TV0H2","either","5","398","","","","","","","0","0","1","0.1441415222","","0.6","0.2","0.4","0.8","","","","","0.07749417123","0.1354395346","0.1441415222","0.6503196648","","","","","","","","","","75","K","2","","","67","main_expt","",""
"","bandit","149","300850","0.0-109.0-0.0","14717766","wem/bandit_party_2","A1WKF2VH7TV0H2","either","5","144","","","","","","","0","0","1","","0.09431815687","0.6","0.2","0.4","0.8","0.1606162296","0.09431815687","0.1794787892","0.7295955131","","","","","","","","","","","","","","74","J","1","","","68","main_expt","",""
"","bandit","150","302384","0.0-110.0-0.0","14717766","wem/bandit_party_2","A1WKF2VH7TV0H2","either","5","21","","","","","","","0","0","1","0.2467892919","","0.6","0.2","0.4","0.8","","","","","0.1458723802","0.09491494314","0.2467892919","0.7924649224","","","","","","","","","","75","K","2","","","69","main_expt","",""
"","bandit","151","304128","0.0-111.0-0.0","14717766","wem/bandit_party_2","A1WKF2VH7TV0H2","either","5","229","","","","","","","0","0","1","0.7104550926","","0.6","0.2","0.4","0.8","","","","","0.09936082334","0.144379617","0.2683381141","0.7104550926","","","","","","","","","","76","L","3","","","70","main_expt","",""
"","bandit","152","305882","0.0-112.0-0.0","14717766","wem/bandit_party_2","A1WKF2VH7TV0H2","either","5","241","","","","","","","0","1","0","","0.6350436987","0.6","0.2","0.4","0.8","0.08487306657","0.1522740794","0.3513633517","0.6350436987","","","","","","","","","","","","","","76","L","3","","","71","main_expt","",""
"","bandit","153","307633","0.0-113.0-0.0","14717766","wem/bandit_party_2","A1WKF2VH7TV0H2","either","5","236","","","","","","","0","0","1","","0.1668466162","0.6","0.2","0.4","0.8","0.08819471669","0.1668466162","0.2914052368","0.5987872161","","","","","","","","","","","","","","74","J","1","","","72","main_expt","",""
"","bandit","154","309177","0.0-114.0-0.0","14717766","wem/bandit_party_2","A1WKF2VH7TV0H2","either","5","30","","","","","","","0","0","1","0.5985066563","","0.6","0.2","0.4","0.8","","","","","0.1283432424","0.1896474075","0.2877488323","0.5985066563","","","","","","","","","","76","L","3","","","73","main_expt","",""
"","bandit","155","310727","0.0-115.0-0.0","14717766","wem/bandit_party_2","A1WKF2VH7TV0H2","either","5","36","","","","","","","0","0","1","0.2562899571","","0.6","0.2","0.4","0.8","","","","","0.09379917772","0.2374421278","0.2562899571","0.6384302553","","","","","","","","","","75","K","2","","","74","main_expt","",""
"","bandit","156","312483","0.0-116.0-0.0","14717766","wem/bandit_party_2","A1WKF2VH7TV0H2","either","5","240","","","","","","","0","0","1","0.2733605005","","0.6","0.2","0.4","0.8","","","","","0.09049970266","0.2083661751","0.2733605005","0.5658832615","","","","","","","","","","75","K","2","","","75","main_expt","",""
"","bandit","157","314048","0.0-117.0-0.0","14717766","wem/bandit_party_2","A1WKF2VH7TV0H2","either","5","49","","","","","","","0","1","0","","0.6242699585","0.6","0.2","0.4","0.8","0.08721668036","0.2438220339","0.3937912108","0.6242699585","","","","","","","","","","","","","","76","L","3","","","76","main_expt","",""
"","bandit","158","315620","0.0-118.0-0.0","14717766","wem/bandit_party_2","A1WKF2VH7TV0H2","either","5","58","","","","","","","0","1","0","","0.2688374605","0.6","0.2","0.4","0.8","0.06435523183","0.2688374605","0.2317864895","0.5744400186","","","","","","","","","","","","","","74","J","1","","","77","main_expt","",""
"","bandit","159","317383","0.0-119.0-0.0","14717766","wem/bandit_party_2","A1WKF2VH7TV0H2","either","5","248","","","","","","","0","0","1","","0.1809738678","0.6","0.2","0.4","0.8","0.0482567949","0.354885782","0.1809738678","0.5888420407","","","","","","","","","","","","","","75","K","2","","","78","main_expt","",""
"","bandit","160","319206","0.0-120.0-0.0","14717766","wem/bandit_party_2","A1WKF2VH7TV0H2","either","5","308","","","","","","","0","1","0","","0.6367332082","0.6","0.2","0.4","0.8","0.0437210955","0.3618930149","0.1139783564","0.6367332082","","","","","","","","","","","","","","76","L","3","","","79","main_expt","",""
"","bandit","161","320855","0.0-121.0-0.0","14717766","wem/bandit_party_2","A1WKF2VH7TV0H2","either","5","133","","","","","","","1","0","0","0.6870764151","","0.6","0.2","0.4","0.8","","","","","0.02877808334","0.2656346555","0.08785846653","0.6870764151","","","","","","","","","","76","L","3","","","80","main_expt","",""
"","bandit","162","322422","0.0-122.0-0.0","14717766","wem/bandit_party_2","A1WKF2VH7TV0H2","either","5","52","","","","","","","0","1","0","","0.4245431589","0.6","0.2","0.4","0.8","0.01921293631","0.4245431589","0.09113866108","0.594282643","","","","","","","","","","","","","","74","J","1","","","81","main_expt","",""
"","bandit","163","324192","0.0-123.0-0.0","14717766","wem/bandit_party_2","A1WKF2VH7TV0H2","either","5","255","","","","","","","0","1","0","","0.4469352605","0.6","0.2","0.4","0.8","0.04933803159","0.4469352605","0.1055231707","0.6134463007","","","","","","","","","","","","","","74","J","1","","","82","main_expt","",""
"","bandit","164","326166","0.0-124.0-0.0","14717766","wem/bandit_party_2","A1WKF2VH7TV0H2","either","5","459","","","","","","","1","0","0","0.573719985","","0.6","0.2","0.4","0.8","","","","","0.03134335394","0.4492602846","0.09865920741","0.573719985","","","","","","","","","","76","L","3","","","83","main_expt","",""
"","bandit","165","327684","0.0-125.0-0.0","14717766","wem/bandit_party_2","A1WKF2VH7TV0H2","either","5","2","","","","","","","0","0","1","","0.06745845416","0.6","0.2","0.4","0.8","0.08181594064","0.4800113203","0.06745845416","0.5666188995","","","","","","","","","","","","","","75","K","2","","","84","main_expt","",""
"","bandit","166","329216","0.0-126.0-0.0","14717766","wem/bandit_party_2","A1WKF2VH7TV0H2","either","5","18","","","","","","","0","0","1","0.5161506384","","0.6","0.2","0.4","0.8","","","","","0.09326949564","0.53417275","0.05723787215","0.5161506384","","","","","","","","","","76","L","3","","","85","main_expt","",""
"","bandit","167","331212","0.0-127.0-0.0","14717766","wem/bandit_party_2","A1WKF2VH7TV0H2","either","5","477","","","","","","","0","0","1","0.4408304524","","0.6","0.2","0.4","0.8","","","","","0.1365856799","0.4431594274","0.04283717318","0.4408304524","","","","","","","","","","76","L","3","","","86","main_expt","",""
"","bandit","168","332867","0.0-128.0-0.0","14717766","wem/bandit_party_2","A1WKF2VH7TV0H2","either","5","138","","","","","","","0","0","1","0.4135642243","","0.6","0.2","0.4","0.8","","","","","0.1845868617","0.4135642243","0.04801612347","0.4926691315","","","","","","","","","","74","J","1","","","87","main_expt","",""
"","bandit","169","334534","0.0-129.0-0.0","14717766","wem/bandit_party_2","A1WKF2VH7TV0H2","either","5","153","","","","","","","0","0","1","","0.4785462387","0.6","0.2","0.4","0.8","0.2304222619","0.4785462387","0.1154775412","0.6047228172","","","","","","","","","","","","","","74","J","1","","","88","main_expt","",""
"","bandit","170","336540","0.0-130.0-0.0","14717766","wem/bandit_party_2","A1WKF2VH7TV0H2","either","5","490","","","","","","","1","0","0","0.1308375778","","0.6","0.2","0.4","0.8","","","","","0.1408060154","0.6395163219","0.1308375778","0.5311406509","","","","","","","","","","75","K","2","","","89","main_expt","",""
"","bandit","171","338220","0.0-131.0-0.0","14717766","wem/bandit_party_2","A1WKF2VH7TV0H2","either","5","163","","","","","","","0","0","1","","0.07282967421","0.6","0.2","0.4","0.8","0.1870966622","0.6143207643","0.07282967421","0.6262376813","","","","","","","","","","","","","","75","K","2","","","90","main_expt","",""
"","bandit","172","340025","0.0-132.0-0.0","14717766","wem/bandit_party_2","A1WKF2VH7TV0H2","either","5","287","","","","","","","0","0","1","","0.192698437","0.6","0.2","0.4","0.8","0.192698437","0.446485487","0.07599207753","0.690423555","","","","","","","","","","","","","","72","H","0","img/none_selected.jpg","","91","main_expt","",""
"","bandit","173","341612","0.0-133.0-0.0","14717766","wem/bandit_party_2","A1WKF2VH7TV0H2","either","5","71","","","","","","","0","1","0","","0.5169677416","0.6","0.2","0.4","0.8","0.1683480261","0.5169677416","0.04323911508","0.6517149298","","","","","","","","","","","","","","74","J","1","","","92","main_expt","",""
"","bandit","174","343238","0.0-134.0-0.0","14717766","wem/bandit_party_2","A1WKF2VH7TV0H2","either","5","111","","","","","","","0","0","1","0.04253576945","","0.6","0.2","0.4","0.8","","","","","0.1330499919","0.4242737166","0.04253576945","0.5656193004","","","","","","","","","","75","K","2","","","93","main_expt","",""
"","bandit","175","344878","0.0-135.0-0.0","14717766","wem/bandit_party_2","A1WKF2VH7TV0H2","either","5","125","","","","","","","0","0","1","","0.4344563295","0.6","0.2","0.4","0.8","0.1880917327","0.3479993201","0.04534385772","0.4344563295","","","","","","","","","","","","","","76","L","3","","","94","main_expt","",""
"","bandit","176","346521","0.0-136.0-0.0","14717766","wem/bandit_party_2","A1WKF2VH7TV0H2","either","5","124","","","","","","","0","0","1","0.03318992591","","0.6","0.2","0.4","0.8","","","","","0.1867575465","0.3701135783","0.03318992591","0.5651083109","","","","","","","","","","75","K","2","","","95","main_expt","",""
"","bandit","177","348064","0.0-137.0-0.0","14717766","wem/bandit_party_2","A1WKF2VH7TV0H2","either","5","28","","","","","","","0","1","0","","0.5348041914","0.6","0.2","0.4","0.8","0.2231999883","0.3430407586","0.03408771876","0.5348041914","","","","","","","","","","","","","","76","L","3","","","96","main_expt","",""
"","bandit","178","349581","0.0-138.0-0.0","14717766","wem/bandit_party_2","A1WKF2VH7TV0H2","either","5","3","","","","","","","0","0","1","","0.2876443713","0.6","0.2","0.4","0.8","0.2149045243","0.2876443713","0.05013144164","0.5627844697","","","","","","","","","","","","","","74","J","1","","","97","main_expt","",""
"","bandit","179","351245","0.0-139.0-0.0","14717766","wem/bandit_party_2","A1WKF2VH7TV0H2","either","5","146","","","","","","","0","0","1","","0.03739082544","0.6","0.2","0.4","0.8","0.1963416079","0.3310412313","0.03739082544","0.6177525637","","","","","","","","","","","","","","75","K","2","","","98","main_expt","",""
"","bandit","180","352801","0.0-140.0-0.0","14717766","wem/bandit_party_2","A1WKF2VH7TV0H2","either","5","40","","","","","","","1","0","0","0.7429557604","","0.6","0.2","0.4","0.8","","","","","0.1659387142","0.3893078888","0.1018336486","0.7429557604","","","","","","","","","","76","L","3","","","99","main_expt","",""
"","bandit","181","354370","0.0-141.0-0.0","14717766","wem/bandit_party_2","A1WKF2VH7TV0H2","either","5","52","","","","","","","1","0","0","0.6717563967","","0.6","0.2","0.4","0.8","","","","","0.145948344","0.4049224607","0.1398961818","0.6717563967","","","","","","","","","","76","L","3","","","100","main_expt","",""
"","bandit","182","355996","0.0-142.0-0.0","14717766","wem/bandit_party_2","A1WKF2VH7TV0H2","either","5","109","","","","","","","0","0","1","0.6929666651","","0.6","0.2","0.4","0.8","","","","","0.1366695263","0.3259939159","0.1830356504","0.6929666651","","","","","","","","","","76","L","3","","","101","main_expt","",""
"","bandit","183","357572","0.0-143.0-0.0","14717766","wem/bandit_party_2","A1WKF2VH7TV0H2","either","5","61","","","","","","","0","1","0","","0.3598161211","0.6","0.2","0.4","0.8","0.1543059156","0.3598161211","0.1396005595","0.6827494989","","","","","","","","","","","","","","74","J","1","","","102","main_expt","",""
"","bandit","184","359252","0.0-144.0-0.0","14717766","wem/bandit_party_2","A1WKF2VH7TV0H2","either","5","164","","","","","","","1","0","0","0.7315485361","","0.6","0.2","0.4","0.8","","","","","0.1484193465","0.3385951472","0.0853830874","0.7315485361","","","","","","","","","","76","L","3","","","103","main_expt","",""
"","bandit","185","360967","0.0-145.0-0.0","14717766","wem/bandit_party_2","A1WKF2VH7TV0H2","either","5","198","","","","","","","1","0","0","0.6852971926","","0.6","0.2","0.4","0.8","","","","","0.1516288854","0.4881545817","0.09317924201","0.6852971926","","","","","","","","","","76","L","3","","","104","main_expt","",""
"","bandit","186","362484","0.0-146.0-0.0","14717766","wem/bandit_party_2","A1WKF2VH7TV0H2","either","5","1","","","","","","","1","0","0","0.693594393","","0.6","0.2","0.4","0.8","","","","","0.1283123627","0.4790883063","0.08203708102","0.693594393","","","","","","","","","","76","L","3","","","105","main_expt","",""
"","bandit","187","364119","0.0-147.0-0.0","14717766","wem/bandit_party_2","A1WKF2VH7TV0H2","either","5","114","","","","","","","1","0","0","0.6101065231","","0.6","0.2","0.4","0.8","","","","","0.2016068708","0.4354998123","0.07160056992","0.6101065231","","","","","","","","","","76","L","3","","","106","main_expt","",""
"","bandit","188","365775","0.0-148.0-0.0","14717766","wem/bandit_party_2","A1WKF2VH7TV0H2","either","5","140","","","","","","","1","0","0","0.5549317608","","0.6","0.2","0.4","0.8","","","","","0.2344181992","0.4789065637","0.09799112372","0.5549317608","","","","","","","","","","76","L","3","","","107","main_expt","",""
"","bandit","189","367440","0.0-149.0-0.0","14717766","wem/bandit_party_2","A1WKF2VH7TV0H2","either","5","148","","","","","","","0","1","0","","0.5753690117","0.6","0.2","0.4","0.8","0.2234564856","0.2921896665","0.1101799882","0.5753690117","","","","","","","","","","","","","","76","L","3","","","108","main_expt","",""
"","bandit","190","369052","0.0-150.0-0.0","14717766","wem/bandit_party_2","A1WKF2VH7TV0H2","either","5","97","","","","","","","0","1","0","","0.5748544728","0.6","0.2","0.4","0.8","0.2494485671","0.3545905428","0.07189968831","0.5748544728","","","","","","","","","","","","","","76","L","3","","","109","main_expt","",""
"","bandit","191","370707","0.0-151.0-0.0","14717766","wem/bandit_party_2","A1WKF2VH7TV0H2","either","5","140","","","","","","","1","0","0","0.6473038793","","0.6","0.2","0.4","0.8","","","","","0.2804015825","0.3110769573","0.06101418375","0.6473038793","","","","","","","","","","76","L","3","","","110","main_expt","",""
"","bandit","192","372262","0.0-152.0-0.0","14717766","wem/bandit_party_2","A1WKF2VH7TV0H2","either","5","40","","","","","","","1","0","0","0.6296147118","","0.6","0.2","0.4","0.8","","","","","0.254644275","0.3673577619","0.1032726654","0.6296147118","","","","","","","","","","76","L","3","","","111","main_expt","",""
"","bandit","193","373788","0.0-153.0-0.0","14717766","wem/bandit_party_2","A1WKF2VH7TV0H2","either","5","10","","","","","","","1","0","0","0.6174722021","","0.6","0.2","0.4","0.8","","","","","0.2686709136","0.3439961468","0.1061240248","0.6174722021","","","","","","","","","","76","L","3","","","112","main_expt","",""
"","bandit","194","375410","0.0-154.0-0.0","14717766","wem/bandit_party_2","A1WKF2VH7TV0H2","either","5","106","","","","","","","1","0","0","0.7467975424","","0.6","0.2","0.4","0.8","","","","","0.3211503982","0.3389202036","0.1150632514","0.7467975424","","","","","","","","","","76","L","3","","","113","main_expt","",""
"","bandit","195","377134","0.0-155.0-0.0","14717766","wem/bandit_party_2","A1WKF2VH7TV0H2","either","5","210","","","","","","","1","0","0","0.7797220863","","0.6","0.2","0.4","0.8","","","","","0.3067152309","0.3122185675","0.1491479201","0.7797220863","","","","","","","","","","76","L","3","","","114","main_expt","",""
"","bandit","196","378752","0.0-156.0-0.0","14717766","wem/bandit_party_2","A1WKF2VH7TV0H2","either","5","100","","","","","","","1","0","0","0.8152411921","","0.6","0.2","0.4","0.8","","","","","0.3274584286","0.2431064996","0.08304421353","0.8152411921","","","","","","","","","","76","L","3","","","115","main_expt","",""
"","bandit","197","380347","0.0-157.0-0.0","14717766","wem/bandit_party_2","A1WKF2VH7TV0H2","either","5","78","","","","","","","1","0","0","0.7362727539","","0.6","0.2","0.4","0.8","","","","","0.2491959293","0.2225404561","0.1391191417","0.7362727539","","","","","","","","","","76","L","3","","","116","main_expt","",""
"","bandit","198","381928","0.0-158.0-0.0","14717766","wem/bandit_party_2","A1WKF2VH7TV0H2","either","5","61","","","","","","","0","1","0","","0.7051771602","0.6","0.2","0.4","0.8","0.1425156065","0.2891792411","0.1689833708","0.7051771602","","","","","","","","","","","","","","76","L","3","","","117","main_expt","",""
"","bandit","199","383587","0.0-159.0-0.0","14717766","wem/bandit_party_2","A1WKF2VH7TV0H2","either","5","143","","","","","","","0","0","1","","0.7099604309","0.6","0.2","0.4","0.8","0.1550025764","0.3147139712","0.1341186766","0.7099604309","","","","","","","","","","","","","","76","L","3","","","118","main_expt","",""
"","bandit","200","385278","0.0-160.0-0.0","14717766","wem/bandit_party_2","A1WKF2VH7TV0H2","either","5","176","","","","","","","1","0","0","0.6633752461","","0.6","0.2","0.4","0.8","","","","","0.1733664784","0.4890071061","0.1211065448","0.6633752461","","","","","","","","","","76","L","3","","","119","main_expt","",""
"","bandit","201","386840","0.0-161.0-0.0","14717766","wem/bandit_party_2","A1WKF2VH7TV0H2","either","5","44","","","","","","","1","0","0","0.6748815414","","0.6","0.2","0.4","0.8","","","","","0.2091577514","0.5238994176","0.1317257861","0.6748815414","","","","","","","","","","76","L","3","","","120","main_expt","",""
"","bandit","202","388429","0.0-162.0-0.0","14717766","wem/bandit_party_2","A1WKF2VH7TV0H2","either","5","70","","","","","","","1","0","0","0.694041989","","0.6","0.2","0.4","0.8","","","","","0.2038206067","0.4821854017","0.08851148741","0.694041989","","","","","","","","","","76","L","3","","","121","main_expt","",""
"","bandit","203","390046","0.0-163.0-0.0","14717766","wem/bandit_party_2","A1WKF2VH7TV0H2","either","5","101","","","","","","","1","0","0","0.7808088803","","0.6","0.2","0.4","0.8","","","","","0.1646827865","0.5695824443","0.1313095228","0.7808088803","","","","","","","","","","76","L","3","","","122","main_expt","",""
"","bandit","204","391642","0.0-164.0-0.0","14717766","wem/bandit_party_2","A1WKF2VH7TV0H2","either","5","78","","","","","","","0","1","0","","0.7513243775","0.6","0.2","0.4","0.8","0.08951947698","0.5884468641","0.1990721176","0.7513243775","","","","","","","","","","","","","","76","L","3","","","123","main_expt","",""
"","bandit","205","393208","0.0-165.0-0.0","14717766","wem/bandit_party_2","A1WKF2VH7TV0H2","either","5","50","","","","","","","1","0","0","0.7095593687","","0.6","0.2","0.4","0.8","","","","","0.09676311751","0.6578864121","0.3510587203","0.7095593687","","","","","","","","","","76","L","3","","","124","main_expt","",""
"","bandit","206","394847","0.0-166.0-0.0","14717766","wem/bandit_party_2","A1WKF2VH7TV0H2","either","5","122","","","","","","","0","0","1","","0.6464373278","0.6","0.2","0.4","0.8","0.08914634913","0.6610648035","0.2829787335","0.6464373278","","","","","","","","","","","","","","76","L","3","","","125","main_expt","",""
"","bandit","207","396542","0.0-167.0-0.0","14717766","wem/bandit_party_2","A1WKF2VH7TV0H2","either","5","178","","","","","","","1","0","0","0.69855693","","0.6","0.2","0.4","0.8","","","","","0.1104844084","0.6745370829","0.3253732313","0.69855693","","","","","","","","","","76","L","3","","","126","main_expt","",""
"","bandit","208","398060","0.0-168.0-0.0","14717766","wem/bandit_party_2","A1WKF2VH7TV0H2","either","5","1","","","","","","","0","1","0","","0.6357656308","0.6","0.2","0.4","0.8","0.1302598269","0.6357656308","0.2969307539","0.6394960802","","","","","","","","","","","","","","74","J","1","","","127","main_expt","",""
"","bandit","209","399578","0.0-169.0-0.0","14717766","wem/bandit_party_2","A1WKF2VH7TV0H2","either","5","1","","","","","","","0","1","0","","0.3862322559","0.6","0.2","0.4","0.8","0.1739983423","0.6746479632","0.3862322559","0.5912569563","","","","","","","","","","","","","","75","K","2","","","128","main_expt","",""
"","bandit","210","401129","0.0-170.0-0.0","14717766","wem/bandit_party_2","A1WKF2VH7TV0H2","either","5","31","","","","","","","0","0","1","0.6408154383","","0.6","0.2","0.4","0.8","","","","","0.2144078185","0.609360971","0.3399993615","0.6408154383","","","","","","","","","","76","L","3","","","129","main_expt","",""
"","bandit","211","402694","0.0-171.0-0.0","14717766","wem/bandit_party_2","A1WKF2VH7TV0H2","either","5","49","","","","","","","1","0","0","0.6160079471","","0.6","0.2","0.4","0.8","","","","","0.2133227205","0.5791775941","0.4343217783","0.6160079471","","","","","","","","","","76","L","3","","","130","main_expt","",""
"","bandit","212","404290","0.0-172.0-0.0","14717766","wem/bandit_party_2","A1WKF2VH7TV0H2","either","5","78","","","","","","","0","1","0","","0.6639311205","0.6","0.2","0.4","0.8","0.3009586135","0.6039133906","0.4116870082","0.6639311205","","","","","","","","","","","","","","76","L","3","","","131","main_expt","",""
"","bandit","213","405819","0.0-173.0-0.0","14717766","wem/bandit_party_2","A1WKF2VH7TV0H2","either","5","12","","","","","","","0","1","0","","0.7314418876","0.6","0.2","0.4","0.8","0.3257006372","0.5564977279","0.3235444519","0.7314418876","","","","","","","","","","","","","","76","L","3","","","132","main_expt","",""
"","bandit","214","407370","0.0-174.0-0.0","14717766","wem/bandit_party_2","A1WKF2VH7TV0H2","either","5","33","","","","","","","1","0","0","0.7343064015","","0.6","0.2","0.4","0.8","","","","","0.3286432436","0.5453182718","0.4204005917","0.7343064015","","","","","","","","","","76","L","3","","","133","main_expt","",""
"","bandit","215","408944","0.0-175.0-0.0","14717766","wem/bandit_party_2","A1WKF2VH7TV0H2","either","5","58","","","","","","","0","0","1","0.3343575241","","0.6","0.2","0.4","0.8","","","","","0.3343575241","0.5557967555","0.5326734174","0.6345074403","","","","","","","","","","72","H","0","img/none_selected.jpg","","134","main_expt","",""
"","bandit","216","410462","0.0-176.0-0.0","14717766","wem/bandit_party_2","A1WKF2VH7TV0H2","either","5","1","","","","","","","1","0","0","0.752921597","","0.6","0.2","0.4","0.8","","","","","0.2917270645","0.5719827955","0.6096825818","0.752921597","","","","","","","","","","76","L","3","","","135","main_expt","",""
"","bandit","217","412208","0.0-177.0-0.0","14717766","wem/bandit_party_2","A1WKF2VH7TV0H2","either","5","228","","","","","","","1","0","0","0.7642539739","","0.6","0.2","0.4","0.8","","","","","0.3972485531","0.4756276611","0.6827328332","0.7642539739","","","","","","","","","","76","L","3","","","136","main_expt","",""
"","bandit","218","413766","0.0-178.0-0.0","14717766","wem/bandit_party_2","A1WKF2VH7TV0H2","either","5","39","","","","","","","1","0","0","0.7166238274","","0.6","0.2","0.4","0.8","","","","","0.4294090248","0.5078949877","0.6604068036","0.7166238274","","","","","","","","","","76","L","3","","","137","main_expt","",""
"","bandit","219","415402","0.0-179.0-0.0","14717766","wem/bandit_party_2","A1WKF2VH7TV0H2","either","5","119","","","","","","","1","0","0","0.713549589","","0.6","0.2","0.4","0.8","","","","","0.5009988565","0.4938131475","0.653661868","0.713549589","","","","","","","","","","76","L","3","","","138","main_expt","",""
"","bandit","220","417165","0.0-180.0-0.0","14717766","wem/bandit_party_2","A1WKF2VH7TV0H2","either","5","245","","","","","","","0","0","1","0.6905374229","","0.6","0.2","0.4","0.8","","","","","0.4993746949","0.654612375","0.6169918179","0.6905374229","","","","","","","","","","76","L","3","","","139","main_expt","",""
"","bandit","221","418959","0.0-181.0-0.0","14717766","wem/bandit_party_2","A1WKF2VH7TV0H2","either","5","277","","","","","","","0","1","0","","0.6614813372","0.6","0.2","0.4","0.8","0.5448973659","0.52663091","0.6657435074","0.6614813372","","","","","","","","","","","","","","76","L","3","","","140","main_expt","",""
"","bandit","222","420751","0.0-182.0-0.0","14717766","wem/bandit_party_2","A1WKF2VH7TV0H2","either","5","274","","","","","","","0","1","0","","0.7024355817","0.6","0.2","0.4","0.8","0.4829720837","0.5976356642","0.6349341703","0.7024355817","","","","","","","","","","","","","","76","L","3","","","141","main_expt","",""
"","bandit","223","422502","0.0-183.0-0.0","14717766","wem/bandit_party_2","A1WKF2VH7TV0H2","either","5","236","","","","","","","0","0","1","0.7185929435","","0.6","0.2","0.4","0.8","","","","","0.5402580016","0.5956183516","0.6379356982","0.7185929435","","","","","","","","","","76","L","3","","","142","main_expt","",""
"","bandit","224","424251","0.0-184.0-0.0","14717766","wem/bandit_party_2","A1WKF2VH7TV0H2","either","5","231","","","","","","","1","0","0","0.6240660549","","0.6","0.2","0.4","0.8","","","","","0.5478015274","0.6432894639","0.6022688156","0.6240660549","","","","","","","","","","76","L","3","","","143","main_expt","",""
"","bandit","225","426314","0.0-185.0-0.0","14717766","wem/bandit_party_2","A1WKF2VH7TV0H2","either","5","545","","","","","","","1","0","0","0.5797935966","","0.6","0.2","0.4","0.8","","","","","0.5189832842","0.6691106198","0.5806731621","0.5797935966","","","","","","","","","","76","L","3","","","144","main_expt","",""
"","bandit","226","428830","0.0-186.0-0.0","14717766","wem/bandit_party_2","A1WKF2VH7TV0H2","either","5","998","","","","","","","0","1","0","","0.520403766","0.6","0.2","0.4","0.8","0.4556604905","0.677031803","0.5512406412","0.520403766","","","","","","","","","","","","","","76","L","3","","","145","main_expt","",""
"","bandit","227","430489","0.0-187.0-0.0","14717766","wem/bandit_party_2","A1WKF2VH7TV0H2","either","5","143","","","","","","","0","0","1","0.5330345992","","0.6","0.2","0.4","0.8","","","","","0.48011385","0.6697886415","0.6055708535","0.5330345992","","","","","","","","","","76","L","3","","","146","main_expt","",""
"","bandit","228","432009","0.0-188.0-0.0","14717766","wem/bandit_party_2","A1WKF2VH7TV0H2","either","5","2","","","","","","","1","0","0","0.5711328773","","0.6","0.2","0.4","0.8","","","","","0.5363471167","0.7101623398","0.5711328773","0.5692896821","","","","","","","","","","75","K","2","","","147","main_expt","",""
"","bandit","229","433716","0.0-189.0-0.0","14717766","wem/bandit_party_2","A1WKF2VH7TV0H2","either","5","190","","","","","","","0","1","0","","0.4258462921","0.6","0.2","0.4","0.8","0.4929714004","0.733230793","0.4258462921","0.4877368026","","","","","","","","","","","","","","75","K","2","","","148","main_expt","",""
"","bandit","230","435524","0.0-190.0-0.0","14717766","wem/bandit_party_2","A1WKF2VH7TV0H2","either","5","290","","","","","","","0","1","0","","0.327967402","0.6","0.2","0.4","0.8","0.4356177925","0.7010449773","0.327967402","0.5936336812","","","","","","","","","","","","","","75","K","2","","","149","main_expt","",""
"","bandit","231","437477","0.0-191.0-0.0","14717766","wem/bandit_party_2","A1WKF2VH7TV0H2","either","5","436","","","","","","","0","1","0","","0.4343474627","0.6","0.2","0.4","0.8","0.4054894896","0.6668672445","0.4343474627","0.7027445866","","","","","","","","","","","","","","75","K","2","","","150","main_expt","",""
"","bandit","232","438998","0.0-192.0-0.0","14717766","wem/bandit_party_2","A1WKF2VH7TV0H2","either","5","1","","","","","","","1","0","0","0.5382828223","","0.6","0.2","0.4","0.8","","","","","0.5283130311","0.5612636021","0.5382828223","0.7690633033","","","","","","","","","","75","K","2","","","151","main_expt","",""
"","bandit","233","440583","0.0-193.0-0.0","14717766","wem/bandit_party_2","A1WKF2VH7TV0H2","either","5","68","","","","","","","0","1","0","","0.6572277468","0.6","0.2","0.4","0.8","0.6323123958","0.7032448324","0.6572277468","0.5989969619","","","","","","","","","","","","","","75","K","2","","","152","main_expt","",""
"","bandit","234","442312","0.0-194.0-0.0","14717766","wem/bandit_party_2","A1WKF2VH7TV0H2","either","5","210","","","","","","","1","0","0","0.6126787421","","0.6","0.2","0.4","0.8","","","","","0.5847243132","0.6918543646","0.668560183","0.6126787421","","","","","","","","","","76","L","3","","","153","main_expt","",""
"","bandit","235","444070","0.0-195.0-0.0","14717766","wem/bandit_party_2","A1WKF2VH7TV0H2","either","5","241","","","","","","","0","1","0","","0.5461115941","0.6","0.2","0.4","0.8","0.4285456013","0.647195156","0.6954524596","0.5461115941","","","","","","","","","","","","","","76","L","3","","","154","main_expt","",""
"","bandit","236","445621","0.0-196.0-0.0","14717766","wem/bandit_party_2","A1WKF2VH7TV0H2","either","5","33","","","","","","","0","0","1","0.5684527538","","0.6","0.2","0.4","0.8","","","","","0.4772645207","0.6135998722","0.5684527538","0.5456348337","","","","","","","","","","75","K","2","","","155","main_expt","",""
"","bandit","237","447196","0.0-197.0-0.0","14717766","wem/bandit_party_2","A1WKF2VH7TV0H2","either","5","57","","","","","","","1","0","0","0.5591033916","","0.6","0.2","0.4","0.8","","","","","0.4982711843","0.5591033916","0.6034375159","0.4782917504","","","","","","","","","","74","J","1","","","156","main_expt","",""
"","bandit","238","448900","0.0-198.0-0.0","14717766","wem/bandit_party_2","A1WKF2VH7TV0H2","either","5","185","","","","","","","0","1","0","","0.5835723018","0.6","0.2","0.4","0.8","0.5275183668","0.5090787948","0.5835723018","0.4868537485","","","","","","","","","","","","","","75","K","2","","","157","main_expt","",""
"","bandit","239","450513","0.0-199.0-0.0","14717766","wem/bandit_party_2","A1WKF2VH7TV0H2","either","5","95","","","","","","","0","1","0","","0.6087372924","0.6","0.2","0.4","0.8","0.4489423754","0.6087372924","0.5234712835","0.5361642224","","","","","","","","","","","","","","74","J","1","","","158","main_expt","",""
"","bandit","240","452242","0.0-200.0-0.0","14717766","wem/bandit_party_2","A1WKF2VH7TV0H2","either","5","211","","","","","","","0","1","0","","0.4947944436","0.6","0.2","0.4","0.8","0.4933275403","0.6064578463","0.5636881177","0.4947944436","","","","","","","","","","","","","","76","L","3","","","159","main_expt","",""
"","bandit","241","453840","0.0-201.0-0.0","14717766","wem/bandit_party_2","A1WKF2VH7TV0H2","either","5","80","","","","","","","1","0","0","0.5106889885","","0.6","0.2","0.4","0.8","","","","","0.4521998099","0.6951258233","0.4785340868","0.5106889885","","","","","","","","","","76","L","3","","","160","main_expt","",""
"","bandit","242","455680","0.0-202.0-0.0","14717766","wem/bandit_party_2","A1WKF2VH7TV0H2","either","5","321","","","","","","","0","1","0","","0.5038962889","0.6","0.2","0.4","0.8","0.5114636712","0.7129510734","0.5038962889","0.4566704777","","","","","","","","","","","","","","75","K","2","","","161","main_expt","",""
"","bandit","243","457704","0.0-203.0-0.0","14717766","wem/bandit_party_2","A1WKF2VH7TV0H2","either","5","505","","","","","","","0","0","1","0.3259271754","","0.6","0.2","0.4","0.8","","","","","0.5242674757","0.7028034005","0.4448395692","0.3259271754","","","","","","","","","","76","L","3","","","162","main_expt","",""
"","bandit","244","459560","0.0-204.0-0.0","14717766","wem/bandit_party_2","A1WKF2VH7TV0H2","either","5","331","","","","","","","0","0","1","0.2806734392","","0.6","0.2","0.4","0.8","","","","","0.5687322637","0.6293758899","0.471982621","0.2806734392","","","","","","","","","","76","L","3","","","163","main_expt","",""
"","bandit","245","461290","0.0-205.0-0.0","14717766","wem/bandit_party_2","A1WKF2VH7TV0H2","either","5","209","","","","","","","1","0","0","0.2973163189","","0.6","0.2","0.4","0.8","","","","","0.5635146256","0.6813427096","0.6517066897","0.2973163189","","","","","","","","","","76","L","3","","","164","main_expt","",""
"","bandit","246","462943","0.0-206.0-0.0","14717766","wem/bandit_party_2","A1WKF2VH7TV0H2","either","5","134","","","","","","","0","0","1","0.2872552927","","0.6","0.2","0.4","0.8","","","","","0.6588968294","0.7231406025","0.6339143586","0.2872552927","","","","","","","","","","76","L","3","","","165","main_expt","",""
"","bandit","247","464626","0.0-207.0-0.0","14717766","wem/bandit_party_2","A1WKF2VH7TV0H2","either","5","164","","","","","","","0","0","1","","0.325395791","0.6","0.2","0.4","0.8","0.74872254","0.6274448994","0.6507743373","0.325395791","","","","","","","","","","","","","","76","L","3","","","166","main_expt","",""
"","bandit","248","466479","0.0-208.0-0.0","14717766","wem/bandit_party_2","A1WKF2VH7TV0H2","either","5","335","","","","","","","0","0","1","","0.3307719744","0.6","0.2","0.4","0.8","0.7741304825","0.6778384319","0.6753437353","0.3307719744","","","","","","","","","","","","","","76","L","3","","","167","main_expt","",""
"","bandit","249","468098","0.0-209.0-0.0","14717766","wem/bandit_party_2","A1WKF2VH7TV0H2","either","5","102","","","","","","","0","0","1","0.4033689778","","0.6","0.2","0.4","0.8","","","","","0.8873722237","0.6928942004","0.6308788189","0.4033689778","","","","","","","","","","76","L","3","","","168","main_expt","",""
"","bandit","250","469845","0.0-210.0-0.0","14717766","wem/bandit_party_2","A1WKF2VH7TV0H2","either","5","228","","","","","","","0","1","0","","0.4089274666","0.6","0.2","0.4","0.8","0.8649989169","0.6181376835","0.6289357746","0.4089274666","","","","","","","","","","","","","","76","L","3","","","169","main_expt","",""
"","bandit","251","471609","0.0-211.0-0.0","14717766","wem/bandit_party_2","A1WKF2VH7TV0H2","either","5","246","","","","","","","0","0","1","0.4033631647","","0.6","0.2","0.4","0.8","","","","","0.8634323334","0.6539136718","0.6308829817","0.4033631647","","","","","","","","","","76","L","3","","","170","main_expt","",""
"","bandit","252","473387","0.0-212.0-0.0","14717766","wem/bandit_party_2","A1WKF2VH7TV0H2","either","5","260","","","","","","","1","0","0","0.3743415885","","0.6","0.2","0.4","0.8","","","","","0.8050812792","0.7935188527","0.6008061885","0.3743415885","","","","","","","","","","76","L","3","","","171","main_expt","",""
"","bandit","253","475149","0.0-213.0-0.0","14717766","wem/bandit_party_2","A1WKF2VH7TV0H2","either","5","242","","","","","","","0","0","1","0.4145867416","","0.6","0.2","0.4","0.8","","","","","0.7635000848","0.7959482017","0.6498855282","0.4145867416","","","","","","","","","","76","L","3","","","172","main_expt","",""
"","bandit","254","476967","0.0-214.0-0.0","14717766","wem/bandit_party_2","A1WKF2VH7TV0H2","either","5","299","","","","","","","0","1","0","","0.4421490518","0.6","0.2","0.4","0.8","0.7793560846","0.7720377381","0.6361658802","0.4421490518","","","","","","","","","","","","","","76","L","3","","","173","main_expt","",""
"","bandit","255","478773","0.0-215.0-0.0","14717766","wem/bandit_party_2","A1WKF2VH7TV0H2","either","5","287","","","","","","","0","0","1","0.373112653","","0.6","0.2","0.4","0.8","","","","","0.7290013271","0.7751150559","0.5494915933","0.373112653","","","","","","","","","","76","L","3","","","174","main_expt","",""
"","bandit","256","480390","0.0-216.0-0.0","14717766","wem/bandit_party_2","A1WKF2VH7TV0H2","either","5","97","","","","","","","1","0","0","0.372221374","","0.6","0.2","0.4","0.8","","","","","0.8353873757","0.7699246652","0.6292002022","0.372221374","","","","","","","","","","76","L","3","","","175","main_expt","",""
"","bandit","257","482304","0.0-217.0-0.0","14717766","wem/bandit_party_2","A1WKF2VH7TV0H2","either","5","394","","","","","","","1","0","0","0.3594456443","","0.6","0.2","0.4","0.8","","","","","0.8589437223","0.8092821718","0.4999600136","0.3594456443","","","","","","","","","","76","L","3","","","176","main_expt","",""
"","bandit","258","484199","0.0-218.0-0.0","14717766","wem/bandit_party_2","A1WKF2VH7TV0H2","either","5","375","","","","","","","0","0","1","0.3705823864","","0.6","0.2","0.4","0.8","","","","","0.8824379228","0.7728258073","0.4500304274","0.3705823864","","","","","","","","","","76","L","3","","","177","main_expt","",""
"","bandit","259","485851","0.0-219.0-0.0","14717766","wem/bandit_party_2","A1WKF2VH7TV0H2","either","5","133","","","","","","","0","0","1","0.3042584581","","0.6","0.2","0.4","0.8","","","","","0.8862787626","0.8128952128","0.4626099748","0.3042584581","","","","","","","","","","76","L","3","","","178","main_expt","",""
"","bandit","260","487799","0.0-220.0-0.0","14717766","wem/bandit_party_2","A1WKF2VH7TV0H2","either","5","426","","","","","","","0","0","1","0.3056645996","","0.6","0.2","0.4","0.8","","","","","0.8851661012","0.7878088044","0.3074659707","0.3056645996","","","","","","","","","","76","L","3","","","179","main_expt","",""
"","bandit","261","490961","0.0-221.0-0.0","14717766","wem/bandit_party_2","A1WKF2VH7TV0H2","either","5","1642","","","","","","","0","0","1","0.3124458775","","0.6","0.2","0.4","0.8","","","","","0.8623840347","0.7626215198","0.2445312817","0.3124458775","","","","","","","","","","76","L","3","","","180","main_expt","",""
"","bandit","262","492588","0.0-222.0-0.0","14717766","wem/bandit_party_2","A1WKF2VH7TV0H2","either","5","107","","","","","","","0","0","1","","0.2284870313","0.6","0.2","0.4","0.8","0.8815853427","0.7059637017","0.2284870313","0.2597333415","","","","","","","","","","","","","","75","K","2","","","181","main_expt","",""
"","bandit","263","494170","0.0-223.0-0.0","14717766","wem/bandit_party_2","A1WKF2VH7TV0H2","either","5","61","","","","","","","0","1","0","","0.6691747745","0.6","0.2","0.4","0.8","0.8955826305","0.6691747745","0.2195648065","0.2117009826","","","","","","","","","","","","","","74","J","1","","","182","main_expt","",""
"","bandit","264","496195","0.0-224.0-0.0","14717766","wem/bandit_party_2","A1WKF2VH7TV0H2","either","5","503","","","","","","","0","0","1","","0.5523838876","0.6","0.2","0.4","0.8","0.9362873759","0.5523838876","0.2327716204","0.2327762041","","","","","","","","","","","","","","74","J","1","","","183","main_expt","",""
"","bandit","265","498117","0.0-225.0-0.0","14717766","wem/bandit_party_2","A1WKF2VH7TV0H2","either","5","401","","","","","","","1","0","0","0.9484326647","","0.6","0.2","0.4","0.8","","","","","0.9484326647","0.5451875246","0.3207903029","0.2750618684","","","","","","","","","","72","H","0","img/none_selected.jpg","","184","main_expt","",""
"","bandit","266","499850","0.0-226.0-0.0","14717766","wem/bandit_party_2","A1WKF2VH7TV0H2","either","5","212","","","","","","","0","1","0","","0.9660783121","0.6","0.2","0.4","0.8","0.9660783121","0.6090771744","0.3609723674","0.2305846964","","","","","","","","","","","","","","72","H","0","img/none_selected.jpg","","185","main_expt","",""
"","bandit","267","502037","0.0-227.0-0.0","14717766","wem/bandit_party_2","A1WKF2VH7TV0H2","either","5","666","","","","","","","1","0","0","0.9665376101","","0.6","0.2","0.4","0.8","","","","","0.9665376101","0.5810996076","0.4442397518","0.2597669424","","","","","","","","","","72","H","0","img/none_selected.jpg","","186","main_expt","",""
"","bandit","268","504035","0.0-228.0-0.0","14717766","wem/bandit_party_2","A1WKF2VH7TV0H2","either","5","478","","","","","","","0","1","0","","0.9644184371","0.6","0.2","0.4","0.8","0.9644184371","0.4445572548","0.4478442549","0.2143742246","","","","","","","","","","","","","","72","H","0","img/none_selected.jpg","","187","main_expt","",""
"","bandit","269","505759","0.0-229.0-0.0","14717766","wem/bandit_party_2","A1WKF2VH7TV0H2","either","5","205","","","","","","","0","0","1","","0.4113554433","0.6","0.2","0.4","0.8","0.9731237162","0.4113554433","0.4026396634","0.2294707647","","","","","","","","","","","","","","74","J","1","","","188","main_expt","",""
"","bandit","270","507291","0.0-230.0-0.0","14717766","wem/bandit_party_2","A1WKF2VH7TV0H2","either","5","11","","","","","","","0","0","1","","0.5072589837","0.6","0.2","0.4","0.8","0.9787475226","0.4053553249","0.5072589837","0.2469430613","","","","","","","","","","","","","","75","K","2","","","189","main_expt","",""
"","bandit","271","508852","0.0-231.0-0.0","14717766","wem/bandit_party_2","A1WKF2VH7TV0H2","either","5","40","","","","","","","1","0","0","0.2437728268","","0.6","0.2","0.4","0.8","","","","","0.9847816181","0.4927633492","0.5234843415","0.2437728268","","","","","","","","","","76","L","3","","","190","main_expt","",""
"","bandit","272","510905","0.0-232.0-0.0","14717766","wem/bandit_party_2","A1WKF2VH7TV0H2","either","5","532","","","","","","","1","0","0","0.1655579887","","0.6","0.2","0.4","0.8","","","","","0.9713064587","0.428678546","0.5054414672","0.1655579887","","","","","","","","","","76","L","3","","","191","main_expt","",""
"","bandit","273","512440","0.0-233.0-0.0","14717766","wem/bandit_party_2","A1WKF2VH7TV0H2","either","5","14","","","","","","","0","1","0","","0.1501427492","0.6","0.2","0.4","0.8","0.9558555722","0.3358015867","0.7037613703","0.1501427492","","","","","","","","","","","","","","76","L","3","","","192","main_expt","",""
"","bandit","274","514029","0.0-234.0-0.0","14717766","wem/bandit_party_2","A1WKF2VH7TV0H2","either","5","69","","","","","","","0","0","1","0.2062706367","","0.6","0.2","0.4","0.8","","","","","0.9443800135","0.2816430679","0.5980286963","0.2062706367","","","","","","","","","","76","L","3","","","193","main_expt","",""
"","bandit","275","515689","0.0-235.0-0.0","14717766","wem/bandit_party_2","A1WKF2VH7TV0H2","either","5","139","","","","","","","0","0","1","0.2782937815","","0.6","0.2","0.4","0.8","","","","","0.947825408","0.2951519504","0.5607231578","0.2782937815","","","","","","","","","","76","L","3","","","194","main_expt","",""
"","bandit","276","517215","0.0-236.0-0.0","14717766","wem/bandit_party_2","A1WKF2VH7TV0H2","either","5","3","","","","","","","0","1","0","","0.2393938873","0.6","0.2","0.4","0.8","0.9531013361","0.2482291913","0.6222063369","0.2393938873","","","","","","","","","","","","","","76","L","3","","","195","main_expt","",""
"","bandit","277","518766","0.0-237.0-0.0","14717766","wem/bandit_party_2","A1WKF2VH7TV0H2","either","5","30","","","","","","","0","0","1","0.3385483064","","0.6","0.2","0.4","0.8","","","","","0.9653581558","0.2548661126","0.7092042058","0.3385483064","","","","","","","","","","76","L","3","","","196","main_expt","",""
"","bandit","278","520339","0.0-238.0-0.0","14717766","wem/bandit_party_2","A1WKF2VH7TV0H2","either","5","50","","","","","","","0","0","1","0.3474357388","","0.6","0.2","0.4","0.8","","","","","0.9774234012","0.2789697966","0.7397780251","0.3474357388","","","","","","","","","","76","L","3","","","197","main_expt","",""
"","bandit","279","522092","0.0-239.0-0.0","14717766","wem/bandit_party_2","A1WKF2VH7TV0H2","either","5","230","","","","","","","0","1","0","","0.4511600961","0.6","0.2","0.4","0.8","0.9866112083","0.2893473624","0.6977166648","0.4511600961","","","","","","","","","","","","","","76","L","3","","","198","main_expt","",""
"","bandit","280","523783","0.0-240.0-0.0","14717766","wem/bandit_party_2","A1WKF2VH7TV0H2","either","5","170","","","","","","","1","0","0","0.4387406867","","0.6","0.2","0.4","0.8","","","","","0.9889390623","0.2499124536","0.591703898","0.4387406867","","","","","","","","","","76","L","3","","","199","main_expt","",""
"","bandit","281","525498","0.0-241.0-0.0","14717766","wem/bandit_party_2","A1WKF2VH7TV0H2","either","5","193","","","","","","","1","0","0","0.4368135332","","0.6","0.2","0.4","0.8","","","","","0.9894921125","0.2643429758","0.5107967375","0.4368135332","","","","","","","","","","76","L","3","","","200","main_expt","",""
"","bandit","282","527208","0.0-242.0-0.0","14717766","wem/bandit_party_2","A1WKF2VH7TV0H2","either","5","185","","","","","","","1","0","0","0.3070084091","","0.6","0.2","0.4","0.8","","","","","0.989248002","0.2382870841","0.6528148869","0.3070084091","","","","","","","","","","76","L","3","","","201","main_expt","",""
"","bandit","283","528891","0.0-243.0-0.0","14717766","wem/bandit_party_2","A1WKF2VH7TV0H2","either","5","160","","","","","","","0","0","1","0.3603585946","","0.6","0.2","0.4","0.8","","","","","0.9957983392","0.1604624283","0.6892998309","0.3603585946","","","","","","","","","","76","L","3","","","202","main_expt","",""
"","bandit","284","530605","0.0-244.0-0.0","14717766","wem/bandit_party_2","A1WKF2VH7TV0H2","either","5","191","","","","","","","0","0","1","0.260320329","","0.6","0.2","0.4","0.8","","","","","0.9958893","0.1407610566","0.6989476798","0.260320329","","","","","","","","","","76","L","3","","","203","main_expt","",""
"","bandit","285","532291","0.0-245.0-0.0","14717766","wem/bandit_party_2","A1WKF2VH7TV0H2","either","5","164","","","","","","","0","0","1","0.2003029851","","0.6","0.2","0.4","0.8","","","","","0.9955962674","0.1343245238","0.772264117","0.2003029851","","","","","","","","","","76","L","3","","","204","main_expt","",""
"","bandit","286","534132","0.0-246.0-0.0","14717766","wem/bandit_party_2","A1WKF2VH7TV0H2","either","5","319","","","","","","","0","0","1","0.1922312923","","0.6","0.2","0.4","0.8","","","","","0.9943432705","0.1715400642","0.7366863645","0.1922312923","","","","","","","","","","76","L","3","","","205","main_expt","",""
"","bandit","287","536735","0.0-247.0-0.0","14717766","wem/bandit_party_2","A1WKF2VH7TV0H2","either","5","1082","","","","","","","1","0","0","0.1936085521","","0.6","0.2","0.4","0.8","","","","","0.9982320458","0.117617648","0.7477287432","0.1936085521","","","","","","","","","","76","L","3","","","206","main_expt","",""
"","bandit","288","538848","0.0-248.0-0.0","14717766","wem/bandit_party_2","A1WKF2VH7TV0H2","either","5","589","","","","","","","0","0","1","0.1821705986","","0.6","0.2","0.4","0.8","","","","","0.9976530308","0.1182717864","0.8185776196","0.1821705986","","","","","","","","","","76","L","3","","","207","main_expt","",""
"","bandit","289","540487","0.0-249.0-0.0","14717766","wem/bandit_party_2","A1WKF2VH7TV0H2","either","5","116","","","","","","","0","0","1","","0.1445047472","0.6","0.2","0.4","0.8","0.9961811318","0.1445047472","0.8161769506","0.1145050302","","","","","","","","","","","","","","74","J","1","","","208","main_expt","",""
"","bandit","290","542045","0.0-250.0-0.0","14717766","wem/bandit_party_2","A1WKF2VH7TV0H2","either","5","33","","","","","","","0","0","1","0.1206637037","","0.6","0.2","0.4","0.8","","","","","0.9977639941","0.1264159314","0.8224464957","0.1206637037","","","","","","","","","","76","L","3","","","209","main_expt","",""
"","bandit","291","543647","0.0-251.0-0.0","14717766","wem/bandit_party_2","A1WKF2VH7TV0H2","either","5","78","","","","","","","0","1","0","","0.9953783407","0.6","0.2","0.4","0.8","0.9953783407","0.1208777168","0.7392866018","0.1422927172","","","","","","","","","","","","","","72","H","0","img/none_selected.jpg","","210","main_expt","",""
"","bandit","292","545187","0.0-252.0-0.0","14717766","wem/bandit_party_2","A1WKF2VH7TV0H2","either","5","17","","","","","","","1","0","0","0.7125411919","","0.6","0.2","0.4","0.8","","","","","0.9976351195","0.1733448518","0.7125411919","0.1811219169","","","","","","","","","","75","K","2","","","211","main_expt","",""
"","bandit","293","546883","0.0-253.0-0.0","14717766","wem/bandit_party_2","A1WKF2VH7TV0H2","either","5","171","","","","","","","0","1","0","","0.7191881067","0.6","0.2","0.4","0.8","0.9983589292","0.1085262221","0.7191881067","0.1982527665","","","","","","","","","","","","","","75","K","2","","","212","main_expt","",""
"","bandit","294","548453","0.0-254.0-0.0","14717766","wem/bandit_party_2","A1WKF2VH7TV0H2","either","5","49","","","","","","","0","1","0","","0.9960427138","0.6","0.2","0.4","0.8","0.9960427138","0.08145678985","0.7523845147","0.124448309","","","","","","","","","","","","","","72","H","0","img/none_selected.jpg","","213","main_expt","",""
"","bandit","295","550223","0.0-255.0-0.0","14717766","wem/bandit_party_2","A1WKF2VH7TV0H2","either","5","249","","","","","","","1","0","0","0.9924650588","","0.6","0.2","0.4","0.8","","","","","0.9924650588","0.05725631888","0.7193420906","0.1036015692","","","","","","","","","","72","H","0","img/none_selected.jpg","","214","main_expt","",""
"","bandit","296","552087","0.0-256.0-0.0","14717766","wem/bandit_party_2","A1WKF2VH7TV0H2","either","5","342","","","","","","","1","0","0","0.9858211903","","0.6","0.2","0.4","0.8","","","","","0.9858211903","0.04356988172","0.6784461291","0.14458031","","","","","","","","","","72","H","0","img/none_selected.jpg","","215","main_expt","",""
"","bandit","297","553753","0.0-257.0-0.0","14717766","wem/bandit_party_2","A1WKF2VH7TV0H2","either","5","142","","","","","","","1","0","0","0.9915289077","","0.6","0.2","0.4","0.8","","","","","0.9915289077","0.04316154837","0.5658185063","0.2094876981","","","","","","","","","","72","H","0","img/none_selected.jpg","","216","main_expt","",""
"","bandit","298","555450","0.0-258.0-0.0","14717766","wem/bandit_party_2","A1WKF2VH7TV0H2","either","5","174","","","","","","","0","1","0","","0.9929544916","0.6","0.2","0.4","0.8","0.9929544916","0.03453558383","0.4886301847","0.24936904","","","","","","","","","","","","","","72","H","0","img/none_selected.jpg","","217","main_expt","",""
"","bandit","299","556991","0.0-259.0-0.0","14717766","wem/bandit_party_2","A1WKF2VH7TV0H2","either","5","18","","","","","","","0","1","0","","0.9741721496","0.6","0.2","0.4","0.8","0.9741721496","0.03800932399","0.5674985979","0.2006789107","","","","","","","","","","","","","","72","H","0","img/none_selected.jpg","","218","main_expt","",""
"","bandit","300","558838","0.0-260.0-0.0","14717766","wem/bandit_party_2","A1WKF2VH7TV0H2","either","5","325","","","","","","","1","0","0","0.9413517393","","0.6","0.2","0.4","0.8","","","","","0.9413517393","0.07914639327","0.6088772151","0.2118480588","","","","","","","","","","72","H","0","img/none_selected.jpg","","219","main_expt","",""
"","bandit","301","560566","0.0-261.0-0.0","14717766","wem/bandit_party_2","A1WKF2VH7TV0H2","either","5","203","","","","","","","1","0","0","0.9230346446","","0.6","0.2","0.4","0.8","","","","","0.9230346446","0.07044987786","0.5856238885","0.2159213458","","","","","","","","","","72","H","0","img/none_selected.jpg","","220","main_expt","",""
"","bandit","302","562097","0.0-262.0-0.0","14717766","wem/bandit_party_2","A1WKF2VH7TV0H2","either","5","9","","","","","","","0","0","1","","0.1351506501","0.6","0.2","0.4","0.8","0.9216350241","0.1351506501","0.6601978635","0.2097338805","","","","","","","","","","","","","","74","J","1","","","221","main_expt","",""
"","bandit","303","563816","0.0-263.0-0.0","14717766","wem/bandit_party_2","A1WKF2VH7TV0H2","either","5","196","","","","","","","0","0","1","","0.6540659739","0.6","0.2","0.4","0.8","0.9093406134","0.2099108548","0.6540659739","0.1468233299","","","","","","","","","","","","","","75","K","2","","","222","main_expt","",""
"","bandit","304","565429","0.0-264.0-0.0","14717766","wem/bandit_party_2","A1WKF2VH7TV0H2","either","5","90","","","","","","","1","0","0","0.8361447498","","0.6","0.2","0.4","0.8","","","","","0.8361447498","0.2971693323","0.7010542315","0.1379540926","","","","","","","","","","72","H","0","img/none_selected.jpg","","223","main_expt","",""
"","bandit","305","567139","0.0-265.0-0.0","14717766","wem/bandit_party_2","A1WKF2VH7TV0H2","either","5","186","","","","","","","0","1","0","","0.7972730751","0.6","0.2","0.4","0.8","0.8626161161","0.2754671199","0.7972730751","0.1943723139","","","","","","","","","","","","","","75","K","2","","","224","main_expt","",""
"","bandit","306","568665","0.0-266.0-0.0","14717766","wem/bandit_party_2","A1WKF2VH7TV0H2","either","5","3","","","","","","","0","0","1","","0.2483133052","0.6","0.2","0.4","0.8","0.9176165053","0.2483133052","0.8726314772","0.2949344278","","","","","","","","","","","","","","74","J","1","","","225","main_expt","",""
"","bandit","307","570199","0.0-267.0-0.0","14717766","wem/bandit_party_2","A1WKF2VH7TV0H2","either","5","10","","","","","","","0","1","0","","0.9516545376","0.6","0.2","0.4","0.8","0.9516545376","0.2945032007","0.8569150835","0.4040967375","","","","","","","","","","","","","","72","H","0","img/none_selected.jpg","","226","main_expt","",""
"","bandit","308","572276","0.0-268.0-0.0","14717766","wem/bandit_party_2","A1WKF2VH7TV0H2","either","5","554","","","","","","","1","0","0","0.9448551655","","0.6","0.2","0.4","0.8","","","","","0.9448551655","0.2544933329","0.8773762417","0.4369809926","","","","","","","","","","72","H","0","img/none_selected.jpg","","227","main_expt","",""
"","bandit","309","573802","0.0-269.0-0.0","14717766","wem/bandit_party_2","A1WKF2VH7TV0H2","either","5","2","","","","","","","1","0","0","0.9298030406","","0.6","0.2","0.4","0.8","","","","","0.9298030406","0.22227057","0.8514828757","0.4228749262","","","","","","","","","","72","H","0","img/none_selected.jpg","","228","main_expt","",""
"","bandit","310","575398","0.0-270.0-0.0","14717766","wem/bandit_party_2","A1WKF2VH7TV0H2","either","5","72","","","","","","","1","0","0","0.9022116856","","0.6","0.2","0.4","0.8","","","","","0.9022116856","0.2319557967","0.893786405","0.4953143479","","","","","","","","","","72","H","0","img/none_selected.jpg","","229","main_expt","",""
"","bandit","311","578452","0.0-271.0-0.0","14717766","wem/bandit_party_2","A1WKF2VH7TV0H2","either","5","1528","","","","","","","1","0","0","0.8934587516","","0.6","0.2","0.4","0.8","","","","","0.8934587516","0.3107577299","0.9350514117","0.4752889979","","","","","","","","","","72","H","0","img/none_selected.jpg","","230","main_expt","",""
"","bandit","312","580036","0.0-272.0-0.0","14717766","wem/bandit_party_2","A1WKF2VH7TV0H2","either","5","61","","","","","","","1","0","0","0.8403693225","","0.6","0.2","0.4","0.8","","","","","0.8403693225","0.3046703461","0.9139197991","0.4887049862","","","","","","","","","","72","H","0","img/none_selected.jpg","","231","main_expt","",""
"","bandit","313","584155","0.0-273.0-0.0","14717766","wem/bandit_party_2","A1WKF2VH7TV0H2","either","5","2597","","","","","","","1","0","0","0.7373772703","","0.6","0.2","0.4","0.8","","","","","0.7373772703","0.4259459217","0.8753904063","0.6065944358","","","","","","","","","","72","H","0","img/none_selected.jpg","","232","main_expt","",""
"","bandit","314","585806","0.0-274.0-0.0","14717766","wem/bandit_party_2","A1WKF2VH7TV0H2","either","5","128","","","","","","","0","0","1","0.7275490615","","0.6","0.2","0.4","0.8","","","","","0.7275490615","0.3391655585","0.807664976","0.5320380184","","","","","","","","","","72","H","0","img/none_selected.jpg","","233","main_expt","",""
"","bandit","315","587360","0.0-275.0-0.0","14717766","wem/bandit_party_2","A1WKF2VH7TV0H2","either","5","32","","","","","","","0","0","1","","0.6910989812","0.6","0.2","0.4","0.8","0.6910989812","0.3380141995","0.817303243","0.5845689413","","","","","","","","","","","","","","72","H","0","img/none_selected.jpg","","234","main_expt","",""
