"consent","trial_type","trial_index","time_elapsed","internal_node_id","subjID","study","MID","cond","drift","rt","responses","button_pressed","key_press","like","value","connected","gems","bombs","no_reward","GemPrChosen","BombPrChosen","GainOverPainPr_0","GainOverPainPr_1","GainOverPainPr_2","GainOverPainPr_3","LosePr_0","LosePr_1","LosePr_2","LosePr_3","WinPr_0","WinPr_1","WinPr_2","WinPr_3","Q0","Q1","Q2","gender","age","ethnicity","label","expt_phase","target","respCharCode","respKey","respChoiceNum","respChoice","practice","trial_counter","trial_label","Q0_index"
"GDM/GDM_behavioral_consent_30min_online.html","consent","0","25086","0.0-0.0","15022946","wem/bandit_party_2","A1VP12LE0ZWG24","either","3","","","","","","","","","","","","","","","","","","","","","","","","","","","","","","","","","","","","","","","","",""
"","survey-text","1","36586","0.0-1.0","15022946","wem/bandit_party_2","A1VP12LE0ZWG24","either","3","10458","{""Q0"":""A1VP12LE0ZWG24""}","","","","","","","","","","","","","","","","","","","","","","","","","","","","","","","","","","","","","","",""
"","button-response","2","39744","0.0-2.0","15022946","wem/bandit_party_2","A1VP12LE0ZWG24","either","3","2130","","1","","","","","","","","","","","","","","","","","","","","","","","","","","","","","","","","","","","","","",""
"","text-replacement","3","54606","0.0-3.0","15022946","wem/bandit_party_2","A1VP12LE0ZWG24","either","3","13845","","","32","","","","","","","","","","","","","","","","","","","","","","","","","","","","","","","","","","","","",""
"","text-replacement","4","61497","0.0-4.0","15022946","wem/bandit_party_2","A1VP12LE0ZWG24","either","3","6885","","","32","","","","","","","","","","","","","","","","","","","","","","","","","","","","","","","","","","","","",""
"","identification","5","75487","0.0-6.0-0.0","15022946","wem/bandit_party_2","A1VP12LE0ZWG24","either","3","13943","","","","5","6","6","","","","","","","","","","","","","","","","","","","","","","","","pre","identification_pre","the Democratic Party","","","","","","","",""
"","identification","6","82174","0.0-6.0-1.0","15022946","wem/bandit_party_2","A1VP12LE0ZWG24","either","3","5629","","","","0","0","0","","","","","","","","","","","","","","","","","","","","","","","","pre","identification_pre","the Republican Party","","","","","","","",""
"","text-replacement","7","88648","0.0-7.0","15022946","wem/bandit_party_2","A1VP12LE0ZWG24","either","3","5446","","","32","","","","","","","","","","","","","","","","","","","","","","","","","","","","","","","","","","","","",""
"","text-replacement","8","96825","0.0-8.0","15022946","wem/bandit_party_2","A1VP12LE0ZWG24","either","3","8160","","","32","","","","","","","","","","","","","","","","","","","","","","","","","","","","","","","","","","","","",""
"","text-replacement","9","104340","0.0-9.0","15022946","wem/bandit_party_2","A1VP12LE0ZWG24","either","3","7498","","","32","","","","","","","","","","","","","","","","","","","","","","","","","","","","","","","","","","","","",""
"","text-replacement","10","108002","0.0-10.0","15022946","wem/bandit_party_2","A1VP12LE0ZWG24","either","3","3647","","","32","","","","","","","","","","","","","","","","","","","","","","","","","","","","","","","","","","","","",""
"","text-replacement","11","114395","0.0-11.0","15022946","wem/bandit_party_2","A1VP12LE0ZWG24","either","3","6379","","","32","","","","","","","","","","","","","","","","","","","","","","","","","","","","","","","","","","","","",""
"","bandit","12","117938","0.0-12.0-0.0","15022946","wem/bandit_party_2","A1VP12LE0ZWG24","either","3","1944","","","","","","","0","0","1","0","0","","","","","0","","","","0","","","","","","","","","","","","","74","J","0","img/none_selected_demo.jpg","true","0","",""
"","bandit","13","120347","0.0-13.0-0.0","15022946","wem/bandit_party_2","A1VP12LE0ZWG24","either","3","858","","","","","","","0","0","1","0","0","","","","","0","","","","0","","","","","","","","","","","","","75","K","0","img/none_selected_demo.jpg","true","0","",""
"","text-replacement","14","124528","0.0-14.0","15022946","wem/bandit_party_2","A1VP12LE0ZWG24","either","3","4173","","","32","","","","","","","","","","","","","","","","","","","","","","","","","","","","","","","","","","","","",""
"","text-replacement","15","130661","0.0-15.0","15022946","wem/bandit_party_2","A1VP12LE0ZWG24","either","3","6119","","","32","","","","","","","","","","","","","","","","","","","","","","","","","","","","","","","","","","","","",""
"","text-replacement","16","136378","0.0-16.0","15022946","wem/bandit_party_2","A1VP12LE0ZWG24","either","3","5705","","","32","","","","","","","","","","","","","","","","","","","","","","","","","","","","","","","","","","","","",""
"","text-replacement","17","139594","0.0-17.0","15022946","wem/bandit_party_2","A1VP12LE0ZWG24","either","3","3210","","","32","","","","","","","","","","","","","","","","","","","","","","","","","","","","","","","","","","","","",""
"","bandit","18","141815","0.0-18.0-0.0","15022946","wem/bandit_party_2","A1VP12LE0ZWG24","either","3","680","","","","","","","1","0","0","0.2","","0.5","0.5","","","","","","","0.8","0.2","","","","","","","","","","","","75","K","1","","true","0","80_20_practice",""
"","bandit","19","143566","0.0-18.0-1.0","15022946","wem/bandit_party_2","A1VP12LE0ZWG24","either","3","208","","","","","","","0","0","1","","0.2","0.5","0.5","","","0.8","0.2","","","","","","","","","","","","","","","","75","K","1","","true","0","80_20_practice",""
"","bandit","20","147014","0.0-18.0-2.0","15022946","wem/bandit_party_2","A1VP12LE0ZWG24","either","3","1867","","","","","","","0","0","1","0.2","","0.5","0.5","","","","","","","0.8","0.2","","","","","","","","","","","","75","K","1","","true","0","80_20_practice",""
"","bandit","21","148931","0.0-18.0-3.0","15022946","wem/bandit_party_2","A1VP12LE0ZWG24","either","3","377","","","","","","","0","0","1","","0.2","0.5","0.5","","","0.8","0.2","","","","","","","","","","","","","","","","75","K","1","","true","0","80_20_practice",""
"","bandit","22","150849","0.0-18.0-4.0","15022946","wem/bandit_party_2","A1VP12LE0ZWG24","either","3","388","","","","","","","0","1","0","","0.8","0.5","0.5","","","0.8","0.2","","","","","","","","","","","","","","","","74","J","0","img/none_selected_demo.jpg","true","0","80_20_practice",""
"","bandit","23","152876","0.0-18.0-5.0","15022946","wem/bandit_party_2","A1VP12LE0ZWG24","either","3","480","","","","","","","0","1","0","","0.8","0.5","0.5","","","0.8","0.2","","","","","","","","","","","","","","","","74","J","0","img/none_selected_demo.jpg","true","0","80_20_practice",""
"","bandit","24","154869","0.0-18.0-6.0","15022946","wem/bandit_party_2","A1VP12LE0ZWG24","either","3","440","","","","","","","0","0","1","0.8","","0.5","0.5","","","","","","","0.8","0.2","","","","","","","","","","","","74","J","0","img/none_selected_demo.jpg","true","0","80_20_practice",""
"","bandit","25","156738","0.0-18.0-7.0","15022946","wem/bandit_party_2","A1VP12LE0ZWG24","either","3","312","","","","","","","0","1","0","","0.8","0.5","0.5","","","0.8","0.2","","","","","","","","","","","","","","","","74","J","0","img/none_selected_demo.jpg","true","0","80_20_practice",""
"","bandit","26","158624","0.0-18.0-8.0","15022946","wem/bandit_party_2","A1VP12LE0ZWG24","either","3","340","","","","","","","0","0","1","","0.8","0.5","0.5","","","0.8","0.2","","","","","","","","","","","","","","","","74","J","0","img/none_selected_demo.jpg","true","0","80_20_practice",""
"","bandit","27","160462","0.0-18.0-9.0","15022946","wem/bandit_party_2","A1VP12LE0ZWG24","either","3","284","","","","","","","1","0","0","0.8","","0.5","0.5","","","","","","","0.8","0.2","","","","","","","","","","","","74","J","0","img/none_selected_demo.jpg","true","0","80_20_practice",""
"","bandit","28","162457","0.0-18.0-10.0","15022946","wem/bandit_party_2","A1VP12LE0ZWG24","either","3","452","","","","","","","1","0","0","0.2","","0.5","0.5","","","","","","","0.8","0.2","","","","","","","","","","","","75","K","1","","true","0","80_20_practice",""
"","bandit","29","164253","0.0-18.0-11.0","15022946","wem/bandit_party_2","A1VP12LE0ZWG24","either","3","243","","","","","","","0","0","1","0.2","","0.5","0.5","","","","","","","0.8","0.2","","","","","","","","","","","","75","K","1","","true","0","80_20_practice",""
"","bandit","30","166526","0.0-18.0-12.0","15022946","wem/bandit_party_2","A1VP12LE0ZWG24","either","3","714","","","","","","","0","0","1","0.2","","0.5","0.5","","","","","","","0.8","0.2","","","","","","","","","","","","75","K","1","","true","0","80_20_practice",""
"","bandit","31","168614","0.0-18.0-13.0","15022946","wem/bandit_party_2","A1VP12LE0ZWG24","either","3","534","","","","","","","0","0","1","","0.2","0.5","0.5","","","0.8","0.2","","","","","","","","","","","","","","","","75","K","1","","true","0","80_20_practice",""
"","bandit","32","170511","0.0-18.0-14.0","15022946","wem/bandit_party_2","A1VP12LE0ZWG24","either","3","347","","","","","","","0","0","1","","0.2","0.5","0.5","","","0.8","0.2","","","","","","","","","","","","","","","","75","K","1","","true","0","80_20_practice",""
"","bandit","33","174024","0.0-18.0-15.0","15022946","wem/bandit_party_2","A1VP12LE0ZWG24","either","3","1971","","","","","","","0","0","1","","0.2","0.5","0.5","","","0.8","0.2","","","","","","","","","","","","","","","","75","K","1","","true","0","80_20_practice",""
"","bandit","34","177217","0.0-18.0-16.0","15022946","wem/bandit_party_2","A1VP12LE0ZWG24","either","3","1634","","","","","","","0","0","1","0.2","","0.5","0.5","","","","","","","0.8","0.2","","","","","","","","","","","","75","K","1","","true","0","80_20_practice",""
"","bandit","35","179136","0.0-18.0-17.0","15022946","wem/bandit_party_2","A1VP12LE0ZWG24","either","3","365","","","","","","","0","1","0","","0.2","0.5","0.5","","","0.8","0.2","","","","","","","","","","","","","","","","75","K","1","","true","0","80_20_practice",""
"","bandit","36","181382","0.0-18.0-18.0","15022946","wem/bandit_party_2","A1VP12LE0ZWG24","either","3","707","","","","","","","0","0","1","0.8","","0.5","0.5","","","","","","","0.8","0.2","","","","","","","","","","","","74","J","0","img/none_selected_demo.jpg","true","0","80_20_practice",""
"","bandit","37","183576","0.0-18.0-19.0","15022946","wem/bandit_party_2","A1VP12LE0ZWG24","either","3","649","","","","","","","1","0","0","0.8","","0.5","0.5","","","","","","","0.8","0.2","","","","","","","","","","","","74","J","0","img/none_selected_demo.jpg","true","0","80_20_practice",""
"","text-replacement","38","186368","0.0-19.0","15022946","wem/bandit_party_2","A1VP12LE0ZWG24","either","3","2787","","","32","","","","","","","","","","","","","","","","","","","","","","","","","","","","","","","","","","","","",""
"","bandit","39","189118","0.0-20.0-0.0","15022946","wem/bandit_party_2","A1VP12LE0ZWG24","either","3","1212","","","","","","","1","0","0","1","0","","","","","0","1","","","1","0","","","","","","","","","","","","74","J","0","img/none_selected_demo.jpg","true","0","",""
"","text-replacement","40","194034","0.0-21.0","15022946","wem/bandit_party_2","A1VP12LE0ZWG24","either","3","4908","","","32","","","","","","","","","","","","","","","","","","","","","","","","","","","","","","","","","","","","",""
"","text-replacement","41","196461","0.0-22.0","15022946","wem/bandit_party_2","A1VP12LE0ZWG24","either","3","2418","","","32","","","","","","","","","","","","","","","","","","","","","","","","","","","","","","","","","","","","",""
"","text-replacement","42","199323","0.0-23.0","15022946","wem/bandit_party_2","A1VP12LE0ZWG24","either","3","2850","","","32","","","","","","","","","","","","","","","","","","","","","","","","","","","","","","","","","","","","",""
"","text-replacement","43","201076","0.0-24.0","15022946","wem/bandit_party_2","A1VP12LE0ZWG24","either","3","1745","","","32","","","","","","","","","","","","","","","","","","","","","","","","","","","","","","","","","","","","",""
"","text-replacement","44","202118","0.0-25.0","15022946","wem/bandit_party_2","A1VP12LE0ZWG24","either","3","1033","","","32","","","","","","","","","","","","","","","","","","","","","","","","","","","","","","","","","","","","",""
"","text-replacement","45","205946","0.0-26.0","15022946","wem/bandit_party_2","A1VP12LE0ZWG24","either","3","3820","","","32","","","","","","","","","","","","","","","","","","","","","","","","","","","","","","","","","","","","",""
"","text-replacement","46","207458","0.0-27.0","15022946","wem/bandit_party_2","A1VP12LE0ZWG24","either","3","1502","","","32","","","","","","","","","","","","","","","","","","","","","","","","","","","","","","","","","","","","",""
"","text-replacement","47","208311","0.0-28.0","15022946","wem/bandit_party_2","A1VP12LE0ZWG24","either","3","845","","","32","","","","","","","","","","","","","","","","","","","","","","","","","","","","","","","","","","","","",""
"","text-replacement","48","209207","0.0-29.0","15022946","wem/bandit_party_2","A1VP12LE0ZWG24","either","3","888","","","32","","","","","","","","","","","","","","","","","","","","","","","","","","","","","","","","","","","","",""
"","text-replacement","49","210204","0.0-30.0","15022946","wem/bandit_party_2","A1VP12LE0ZWG24","either","3","979","","","32","","","","","","","","","","","","","","","","","","","","","","","","","","","","","","","","","","","","",""
"","text-replacement","50","212920","0.0-31.0","15022946","wem/bandit_party_2","A1VP12LE0ZWG24","either","3","2706","","","32","","","","","","","","","","","","","","","","","","","","","","","","","","","","","","","","","","","","",""
"","bandit","51","215214","0.0-32.0-0.0","15022946","wem/bandit_party_2","A1VP12LE0ZWG24","either","3","738","","","","","","","0","0","1","","0.2","0.5","0.5","0.5","0.5","0.8","0.2","0.6","0.2","","","","","","","","","","","","","","74","J","1","","true","0","full_practice",""
"","bandit","52","217644","0.0-32.0-1.0","15022946","wem/bandit_party_2","A1VP12LE0ZWG24","either","3","862","","","","","","","0","0","1","0.8","","0.5","0.5","0.5","0.5","","","","","0.8","0.2","0.6","0.2","","","","","","","","","","72","H","0","img/none_selected.jpg","true","0","full_practice",""
"","bandit","53","219796","0.0-32.0-2.0","15022946","wem/bandit_party_2","A1VP12LE0ZWG24","either","3","608","","","","","","","0","1","0","","0.6","0.5","0.5","0.5","0.5","0.8","0.2","0.6","0.2","","","","","","","","","","","","","","75","K","2","","true","0","full_practice",""
"","bandit","54","221803","0.0-32.0-3.0","15022946","wem/bandit_party_2","A1VP12LE0ZWG24","either","3","455","","","","","","","0","0","1","0.2","","0.5","0.5","0.5","0.5","","","","","0.8","0.2","0.6","0.2","","","","","","","","","","76","L","3","","true","0","full_practice",""
"","bandit","55","223707","0.0-32.0-4.0","15022946","wem/bandit_party_2","A1VP12LE0ZWG24","either","3","359","","","","","","","0","0","1","0.2","","0.5","0.5","0.5","0.5","","","","","0.8","0.2","0.6","0.2","","","","","","","","","","76","L","3","","true","0","full_practice",""
"","bandit","56","225566","0.0-32.0-5.0","15022946","wem/bandit_party_2","A1VP12LE0ZWG24","either","3","327","","","","","","","0","0","1","0.2","","0.5","0.5","0.5","0.5","","","","","0.8","0.2","0.6","0.2","","","","","","","","","","76","L","3","","true","0","full_practice",""
"","bandit","57","227447","0.0-32.0-6.0","15022946","wem/bandit_party_2","A1VP12LE0ZWG24","either","3","340","","","","","","","0","1","0","","0.2","0.5","0.5","0.5","0.5","0.8","0.2","0.6","0.2","","","","","","","","","","","","","","76","L","3","","true","0","full_practice",""
"","bandit","58","229343","0.0-32.0-7.0","15022946","wem/bandit_party_2","A1VP12LE0ZWG24","either","3","355","","","","","","","0","0","1","","0.2","0.5","0.5","0.5","0.5","0.8","0.2","0.6","0.2","","","","","","","","","","","","","","76","L","3","","true","0","full_practice",""
"","bandit","59","231250","0.0-32.0-8.0","15022946","wem/bandit_party_2","A1VP12LE0ZWG24","either","3","360","","","","","","","0","1","0","","0.6","0.5","0.5","0.5","0.5","0.8","0.2","0.6","0.2","","","","","","","","","","","","","","75","K","2","","true","0","full_practice",""
"","bandit","60","232937","0.0-32.0-9.0","15022946","wem/bandit_party_2","A1VP12LE0ZWG24","either","3","150","","","","","","","1","0","0","0.6","","0.5","0.5","0.5","0.5","","","","","0.8","0.2","0.6","0.2","","","","","","","","","","75","K","2","","true","0","full_practice",""
"","bandit","61","234779","0.0-32.0-10.0","15022946","wem/bandit_party_2","A1VP12LE0ZWG24","either","3","303","","","","","","","0","1","0","","0.6","0.5","0.5","0.5","0.5","0.8","0.2","0.6","0.2","","","","","","","","","","","","","","75","K","2","","true","0","full_practice",""
"","bandit","62","236571","0.0-32.0-11.0","15022946","wem/bandit_party_2","A1VP12LE0ZWG24","either","3","261","","","","","","","1","0","0","0.6","","0.5","0.5","0.5","0.5","","","","","0.8","0.2","0.6","0.2","","","","","","","","","","75","K","2","","true","0","full_practice",""
"","bandit","63","238378","0.0-32.0-12.0","15022946","wem/bandit_party_2","A1VP12LE0ZWG24","either","3","219","","","","","","","0","1","0","","0.2","0.5","0.5","0.5","0.5","0.8","0.2","0.6","0.2","","","","","","","","","","","","","","74","J","1","","true","0","full_practice",""
"","bandit","64","240042","0.0-32.0-13.0","15022946","wem/bandit_party_2","A1VP12LE0ZWG24","either","3","116","","","","","","","0","1","0","","0.2","0.5","0.5","0.5","0.5","0.8","0.2","0.6","0.2","","","","","","","","","","","","","","74","J","1","","true","0","full_practice",""
"","bandit","65","241988","0.0-32.0-14.0","15022946","wem/bandit_party_2","A1VP12LE0ZWG24","either","3","398","","","","","","","0","0","1","0.2","","0.5","0.5","0.5","0.5","","","","","0.8","0.2","0.6","0.2","","","","","","","","","","74","J","1","","true","0","full_practice",""
"","bandit","66","243779","0.0-32.0-15.0","15022946","wem/bandit_party_2","A1VP12LE0ZWG24","either","3","245","","","","","","","0","0","1","0.2","","0.5","0.5","0.5","0.5","","","","","0.8","0.2","0.6","0.2","","","","","","","","","","74","J","1","","true","0","full_practice",""
"","bandit","67","245714","0.0-32.0-16.0","15022946","wem/bandit_party_2","A1VP12LE0ZWG24","either","3","398","","","","","","","0","0","1","0.2","","0.5","0.5","0.5","0.5","","","","","0.8","0.2","0.6","0.2","","","","","","","","","","74","J","1","","true","0","full_practice",""
"","bandit","68","247369","0.0-32.0-17.0","15022946","wem/bandit_party_2","A1VP12LE0ZWG24","either","3","97","","","","","","","1","0","0","0.8","","0.5","0.5","0.5","0.5","","","","","0.8","0.2","0.6","0.2","","","","","","","","","","72","H","0","img/none_selected.jpg","true","0","full_practice",""
"","bandit","69","249102","0.0-32.0-18.0","15022946","wem/bandit_party_2","A1VP12LE0ZWG24","either","3","183","","","","","","","1","0","0","0.8","","0.5","0.5","0.5","0.5","","","","","0.8","0.2","0.6","0.2","","","","","","","","","","72","H","0","img/none_selected.jpg","true","0","full_practice",""
"","bandit","70","250971","0.0-32.0-19.0","15022946","wem/bandit_party_2","A1VP12LE0ZWG24","either","3","300","","","","","","","1","0","0","0.8","","0.5","0.5","0.5","0.5","","","","","0.8","0.2","0.6","0.2","","","","","","","","","","72","H","0","img/none_selected.jpg","true","0","full_practice",""
"","text","71","254984","0.0-33.0","15022946","wem/bandit_party_2","A1VP12LE0ZWG24","either","3","3986","","","32","","","","","","","","","","","","","","","","","","","","","","","","","","","","","","","","","","","","",""
"","text-replacement","72","262493","0.0-34.0","15022946","wem/bandit_party_2","A1VP12LE0ZWG24","either","3","6491","","","32","","","","","","","","","","","","","","","","","","","","","","","","","","","","","","","","","","","","",""
"","text-replacement","73","272215","0.0-35.0","15022946","wem/bandit_party_2","A1VP12LE0ZWG24","either","3","9709","","","32","","","","","","","","","","","","","","","","","","","","","","","","","","","","","","","","","","","","",""
"","text-replacement","74","278842","0.0-36.0","15022946","wem/bandit_party_2","A1VP12LE0ZWG24","either","3","6616","","","32","","","","","","","","","","","","","","","","","","","","","","","","","","","","","","","","","","","","",""
"","text-replacement","75","282104","0.0-37.0","15022946","wem/bandit_party_2","A1VP12LE0ZWG24","either","3","3257","","","32","","","","","","","","","","","","","","","","","","","","","","","","","","","","","","","","","","","","",""
"","text-replacement","76","286632","0.0-38.0","15022946","wem/bandit_party_2","A1VP12LE0ZWG24","either","3","4518","","","32","","","","","","","","","","","","","","","","","","","","","","","","","","","","","","","","","","","","",""
"","survey-multi-choice-replacement","77","296645","0.0-39.0-0.0","15022946","wem/bandit_party_2","A1VP12LE0ZWG24","either","3","9975","","","","","","","","","","","","","","","","","","","","","","","","Money will be added to the pool for <span style='color:blue;'>DEMOCRATS</span>","","","","","","","attn_check","","","","","","","","","0"
"","survey-multi-choice-replacement","78","302728","0.0-40.0-0.0","15022946","wem/bandit_party_2","A1VP12LE0ZWG24","either","3","5032","","","","","","","","","","","","","","","","","","","","","","","","Equal amounts of money will be added to the pool for <span style='color:blue;'>DEMOCRATS</span> and subtracted from the pool for <span style='color:red;'>REPUBLICANS</span>","","","","","","","attn_check","","","","","","","","","2"
"","survey-multi-choice-replacement","79","306721","0.0-41.0-0.0","15022946","wem/bandit_party_2","A1VP12LE0ZWG24","either","3","2967","","","","","","","","","","","","","","","","","","","","","","","","No money will be added to either pool","","","","","","","attn_check","","","","","","","","","3"
"","bandit","80","312766","0.0-42.0-0.0","15022946","wem/bandit_party_2","A1VP12LE0ZWG24","either","3","3473","","","","","","","0","0","1","0.1387034319","","0.8","0.6","0.2","0.4","","","","","0.6473934842","0.4261870849","0.1387034319","0.6494041588","","","","","","","","","","75","K","2","","","1","main_expt",""
"","bandit","81","315167","0.0-43.0-0.0","15022946","wem/bandit_party_2","A1VP12LE0ZWG24","either","3","843","","","","","","","0","1","0","","0.3223101542","0.8","0.6","0.2","0.4","0.5221866694","0.3223101542","0.2166337036","0.7608835745","","","","","","","","","","","","","","74","J","1","","","2","main_expt",""
"","bandit","82","316991","0.0-44.0-0.0","15022946","wem/bandit_party_2","A1VP12LE0ZWG24","either","3","262","","","","","","","0","0","1","0.2541217019","","0.8","0.6","0.2","0.4","","","","","0.5356292978","0.2541217019","0.3253899216","0.7745567172","","","","","","","","","","74","J","1","","","3","main_expt",""
"","bandit","83","318933","0.0-45.0-0.0","15022946","wem/bandit_party_2","A1VP12LE0ZWG24","either","3","376","","","","","","","1","0","0","0.2272043942","","0.8","0.6","0.2","0.4","","","","","0.5154592071","0.2272043942","0.3003293127","0.8315703218","","","","","","","","","","74","J","1","","","4","main_expt",""
"","bandit","84","320764","0.0-46.0-0.0","15022946","wem/bandit_party_2","A1VP12LE0ZWG24","either","3","283","","","","","","","0","0","1","","0.2967729676","0.8","0.6","0.2","0.4","0.4578896037","0.2967729676","0.3839660868","0.8380789219","","","","","","","","","","","","","","74","J","1","","","5","main_expt",""
"","bandit","85","322542","0.0-47.0-0.0","15022946","wem/bandit_party_2","A1VP12LE0ZWG24","either","3","221","","","","","","","0","1","0","","0.3211998527","0.8","0.6","0.2","0.4","0.4825789634","0.3211998527","0.3833463511","0.8233568153","","","","","","","","","","","","","","74","J","1","","","6","main_expt",""
"","bandit","86","324395","0.0-48.0-0.0","15022946","wem/bandit_party_2","A1VP12LE0ZWG24","either","3","291","","","","","","","1","0","0","0.4190649117","","0.8","0.6","0.2","0.4","","","","","0.4013658759","0.4190649117","0.3173395401","0.8672840292","","","","","","","","","","74","J","1","","","7","main_expt",""
"","bandit","87","326841","0.0-49.0-0.0","15022946","wem/bandit_party_2","A1VP12LE0ZWG24","either","3","923","","","","","","","1","0","0","0.5253498774","","0.8","0.6","0.2","0.4","","","","","0.3721769634","0.5253498774","0.3265190876","0.7921451217","","","","","","","","","","74","J","1","","","8","main_expt",""
"","bandit","88","328649","0.0-50.0-0.0","15022946","wem/bandit_party_2","A1VP12LE0ZWG24","either","3","257","","","","","","","0","1","0","","0.5552176016","0.8","0.6","0.2","0.4","0.3934089605","0.5552176016","0.4229840653","0.7826569337","","","","","","","","","","","","","","74","J","1","","","9","main_expt",""
"","bandit","89","330462","0.0-51.0-0.0","15022946","wem/bandit_party_2","A1VP12LE0ZWG24","either","3","258","","","","","","","0","0","1","","0.654745146","0.8","0.6","0.2","0.4","0.3360942297","0.654745146","0.5107168356","0.7150392401","","","","","","","","","","","","","","74","J","1","","","10","main_expt",""
"","bandit","90","332112","0.0-52.0-0.0","15022946","wem/bandit_party_2","A1VP12LE0ZWG24","either","3","104","","","","","","","1","0","0","0.6089063278","","0.8","0.6","0.2","0.4","","","","","0.4969537907","0.6089063278","0.4383577931","0.6906605055","","","","","","","","","","74","J","1","","","11","main_expt",""
"","bandit","91","334019","0.0-53.0-0.0","15022946","wem/bandit_party_2","A1VP12LE0ZWG24","either","3","359","","","","","","","0","0","1","","0.559155858","0.8","0.6","0.2","0.4","0.4760264401","0.559155858","0.5487148549","0.6725575113","","","","","","","","","","","","","","74","J","1","","","12","main_expt",""
"","bandit","92","335876","0.0-54.0-0.0","15022946","wem/bandit_party_2","A1VP12LE0ZWG24","either","3","312","","","","","","","1","0","0","0.6464491645","","0.8","0.6","0.2","0.4","","","","","0.4008761295","0.6464491645","0.7407599438","0.7404599176","","","","","","","","","","74","J","1","","","13","main_expt",""
"","bandit","93","337639","0.0-55.0-0.0","15022946","wem/bandit_party_2","A1VP12LE0ZWG24","either","3","207","","","","","","","0","0","1","0.6936958995","","0.8","0.6","0.2","0.4","","","","","0.358486362","0.6936958995","0.8307131687","0.6751607758","","","","","","","","","","74","J","1","","","14","main_expt",""
"","bandit","94","339480","0.0-56.0-0.0","15022946","wem/bandit_party_2","A1VP12LE0ZWG24","either","3","287","","","","","","","0","0","1","0.731471075","","0.8","0.6","0.2","0.4","","","","","0.395258373","0.731471075","0.8114394421","0.6115440925","","","","","","","","","","74","J","1","","","15","main_expt",""
"","bandit","95","341320","0.0-57.0-0.0","15022946","wem/bandit_party_2","A1VP12LE0ZWG24","either","3","286","","","","","","","0","1","0","","0.6487541525","0.8","0.6","0.2","0.4","0.4197334966","0.6487541525","0.8242397169","0.7019001419","","","","","","","","","","","","","","74","J","1","","","16","main_expt",""
"","bandit","96","343143","0.0-58.0-0.0","15022946","wem/bandit_party_2","A1VP12LE0ZWG24","either","3","276","","","","","","","1","0","0","0.7654634758","","0.8","0.6","0.2","0.4","","","","","0.2160816064","0.7654634758","0.8317633157","0.7017998","","","","","","","","","","74","J","1","","","17","main_expt",""
"","bandit","97","344812","0.0-59.0-0.0","15022946","wem/bandit_party_2","A1VP12LE0ZWG24","either","3","133","","","","","","","1","0","0","0.7160830043","","0.8","0.6","0.2","0.4","","","","","0.2058632209","0.7160830043","0.8158638682","0.7672473748","","","","","","","","","","74","J","1","","","18","main_expt",""
"","bandit","98","347398","0.0-60.0-0.0","15022946","wem/bandit_party_2","A1VP12LE0ZWG24","either","3","1047","","","","","","","0","0","1","","0.6856656502","0.8","0.6","0.2","0.4","0.2314559036","0.6856656502","0.8291878069","0.7950219121","","","","","","","","","","","","","","74","J","1","","","19","main_expt",""
"","bandit","99","349235","0.0-61.0-0.0","15022946","wem/bandit_party_2","A1VP12LE0ZWG24","either","3","284","","","","","","","1","0","0","0.6829400921","","0.8","0.6","0.2","0.4","","","","","0.1762066147","0.6829400921","0.8665153398","0.8460513568","","","","","","","","","","74","J","1","","","20","main_expt",""
"","bandit","100","351011","0.0-62.0-0.0","15022946","wem/bandit_party_2","A1VP12LE0ZWG24","either","3","213","","","","","","","0","0","1","0.6849203215","","0.8","0.6","0.2","0.4","","","","","0.150477598","0.6849203215","0.8181415858","0.8571228725","","","","","","","","","","74","J","1","","","21","main_expt",""
"","bandit","101","352838","0.0-63.0-0.0","15022946","wem/bandit_party_2","A1VP12LE0ZWG24","either","3","267","","","","","","","1","0","0","0.6832197831","","0.8","0.6","0.2","0.4","","","","","0.1957635407","0.6832197831","0.7731960963","0.8498483749","","","","","","","","","","74","J","1","","","22","main_expt",""
"","bandit","102","354720","0.0-64.0-0.0","15022946","wem/bandit_party_2","A1VP12LE0ZWG24","either","3","307","","","","","","","0","0","1","0.2193187944","","0.8","0.6","0.2","0.4","","","","","0.2193187944","0.6103957523","0.8004626553","0.887495535","","","","","","","","","","72","H","0","img/none_selected.jpg","","23","main_expt",""
"","bandit","103","356343","0.0-65.0-0.0","15022946","wem/bandit_party_2","A1VP12LE0ZWG24","either","3","74","","","","","","","1","0","0","0.1836328706","","0.8","0.6","0.2","0.4","","","","","0.1836328706","0.5485819736","0.7941911222","0.918231735","","","","","","","","","","72","H","0","img/none_selected.jpg","","24","main_expt",""
"","bandit","104","358138","0.0-66.0-0.0","15022946","wem/bandit_party_2","A1VP12LE0ZWG24","either","3","250","","","","","","","0","0","1","0.1410441375","","0.8","0.6","0.2","0.4","","","","","0.1410441375","0.5852935809","0.7100633829","0.9111146318","","","","","","","","","","72","H","0","img/none_selected.jpg","","25","main_expt",""
"","bandit","105","359963","0.0-67.0-0.0","15022946","wem/bandit_party_2","A1VP12LE0ZWG24","either","3","273","","","","","","","0","0","1","0.1082593399","","0.8","0.6","0.2","0.4","","","","","0.1082593399","0.6097892937","0.6872129375","0.9190640316","","","","","","","","","","72","H","0","img/none_selected.jpg","","26","main_expt",""
"","bandit","106","362112","0.0-68.0-0.0","15022946","wem/bandit_party_2","A1VP12LE0ZWG24","either","3","605","","","","","","","0","1","0","","0.6798864795","0.8","0.6","0.2","0.4","0.1042047793","0.6653335402","0.6798864795","0.9372614837","","","","","","","","","","","","","","75","K","2","","","27","main_expt",""
"","bandit","107","363968","0.0-69.0-0.0","15022946","wem/bandit_party_2","A1VP12LE0ZWG24","either","3","296","","","","","","","0","1","0","","0.6812343762","0.8","0.6","0.2","0.4","0.1153509117","0.6850825106","0.6812343762","0.9269484959","","","","","","","","","","","","","","75","K","2","","","28","main_expt",""
"","bandit","108","365782","0.0-70.0-0.0","15022946","wem/bandit_party_2","A1VP12LE0ZWG24","either","3","259","","","","","","","0","0","1","","0.5305157647","0.8","0.6","0.2","0.4","0.1601566248","0.7309016742","0.5305157647","0.9376772981","","","","","","","","","","","","","","75","K","2","","","29","main_expt",""
"","bandit","109","367589","0.0-71.0-0.0","15022946","wem/bandit_party_2","A1VP12LE0ZWG24","either","3","249","","","","","","","0","1","0","","0.4713174284","0.8","0.6","0.2","0.4","0.09548927903","0.8141980113","0.4713174284","0.8795505253","","","","","","","","","","","","","","75","K","2","","","30","main_expt",""
"","bandit","110","369371","0.0-72.0-0.0","15022946","wem/bandit_party_2","A1VP12LE0ZWG24","either","3","238","","","","","","","0","0","1","","0.2938490869","0.8","0.6","0.2","0.4","0.09272353297","0.8926711601","0.2938490869","0.8605863748","","","","","","","","","","","","","","75","K","2","","","31","main_expt",""
"","bandit","111","371363","0.0-73.0-0.0","15022946","wem/bandit_party_2","A1VP12LE0ZWG24","either","3","431","","","","","","","0","0","1","0.757600507","","0.8","0.6","0.2","0.4","","","","","0.09547929832","0.8397563013","0.3005160425","0.757600507","","","","","","","","","","76","L","3","","","32","main_expt",""
"","bandit","112","373144","0.0-74.0-0.0","15022946","wem/bandit_party_2","A1VP12LE0ZWG24","either","3","227","","","","","","","0","1","0","","0.7257103923","0.8","0.6","0.2","0.4","0.08683876107","0.8251988787","0.3661211491","0.7257103923","","","","","","","","","","","","","","76","L","3","","","33","main_expt",""
"","bandit","113","375371","0.0-75.0-0.0","15022946","wem/bandit_party_2","A1VP12LE0ZWG24","either","3","673","","","","","","","1","0","0","0.5786815464","","0.8","0.6","0.2","0.4","","","","","0.08117088791","0.7303528712","0.4614725573","0.5786815464","","","","","","","","","","76","L","3","","","34","main_expt",""
"","bandit","114","377199","0.0-76.0-0.0","15022946","wem/bandit_party_2","A1VP12LE0ZWG24","either","3","287","","","","","","","0","1","0","","0.4812266686","0.8","0.6","0.2","0.4","0.09593582107","0.8093673003","0.4597324626","0.4812266686","","","","","","","","","","","","","","76","L","3","","","35","main_expt",""
"","bandit","115","379026","0.0-77.0-0.0","15022946","wem/bandit_party_2","A1VP12LE0ZWG24","either","3","265","","","","","","","0","0","1","","0.4459447539","0.8","0.6","0.2","0.4","0.1392988708","0.79718131","0.4294742096","0.4459447539","","","","","","","","","","","","","","76","L","3","","","36","main_expt",""
"","bandit","116","380850","0.0-78.0-0.0","15022946","wem/bandit_party_2","A1VP12LE0ZWG24","either","3","262","","","","","","","0","0","1","","0.5737218407","0.8","0.6","0.2","0.4","0.07673209605","0.8157762275","0.5301274199","0.5737218407","","","","","","","","","","","","","","76","L","3","","","37","main_expt",""
"","bandit","117","382498","0.0-79.0-0.0","15022946","wem/bandit_party_2","A1VP12LE0ZWG24","either","3","96","","","","","","","0","0","1","0.6008421093","","0.8","0.6","0.2","0.4","","","","","0.1078843958","0.7941499978","0.5746889943","0.6008421093","","","","","","","","","","76","L","3","","","38","main_expt",""
"","bandit","118","384139","0.0-80.0-0.0","15022946","wem/bandit_party_2","A1VP12LE0ZWG24","either","3","86","","","","","","","0","1","0","","0.7352357368","0.8","0.6","0.2","0.4","0.09731722171","0.7352357368","0.6621100331","0.6076920036","","","","","","","","","","","","","","74","J","1","","","39","main_expt",""
"","bandit","119","385870","0.0-81.0-0.0","15022946","wem/bandit_party_2","A1VP12LE0ZWG24","either","3","185","","","","","","","0","1","0","","0.7920886563","0.8","0.6","0.2","0.4","0.2123509389","0.7920886563","0.6794361822","0.6616622706","","","","","","","","","","","","","","74","J","1","","","40","main_expt",""
"","bandit","120","387650","0.0-82.0-0.0","15022946","wem/bandit_party_2","A1VP12LE0ZWG24","either","3","239","","","","","","","0","1","0","","0.8780543775","0.8","0.6","0.2","0.4","0.1265365425","0.8780543775","0.7140523024","0.6945341382","","","","","","","","","","","","","","74","J","1","","","41","main_expt",""
"","bandit","121","389444","0.0-83.0-0.0","15022946","wem/bandit_party_2","A1VP12LE0ZWG24","either","3","259","","","","","","","0","1","0","","0.9167256642","0.8","0.6","0.2","0.4","0.166138795","0.9167256642","0.6669732994","0.6833149102","","","","","","","","","","","","","","74","J","1","","","42","main_expt",""
"","bandit","122","391113","0.0-84.0-0.0","15022946","wem/bandit_party_2","A1VP12LE0ZWG24","either","3","120","","","","","","","1","0","0","0.9407985187","","0.8","0.6","0.2","0.4","","","","","0.1782339186","0.9407985187","0.5435093165","0.7094953576","","","","","","","","","","74","J","1","","","43","main_expt",""
"","bandit","123","392706","0.0-85.0-0.0","15022946","wem/bandit_party_2","A1VP12LE0ZWG24","either","3","37","","","","","","","1","0","0","0.9000978766","","0.8","0.6","0.2","0.4","","","","","0.1342945815","0.9000978766","0.6002661395","0.7519468023","","","","","","","","","","74","J","1","","","44","main_expt",""
"","bandit","124","394533","0.0-86.0-0.0","15022946","wem/bandit_party_2","A1VP12LE0ZWG24","either","3","280","","","","","","","0","1","0","","0.9190036262","0.8","0.6","0.2","0.4","0.09086288848","0.9190036262","0.5948203474","0.7673203249","","","","","","","","","","","","","","74","J","1","","","45","main_expt",""
"","bandit","125","396125","0.0-87.0-0.0","15022946","wem/bandit_party_2","A1VP12LE0ZWG24","either","3","51","","","","","","","1","0","0","0.8865788656","","0.8","0.6","0.2","0.4","","","","","0.06420934006","0.8865788656","0.6230250108","0.722836051","","","","","","","","","","74","J","1","","","46","main_expt",""
"","bandit","126","398155","0.0-88.0-0.0","15022946","wem/bandit_party_2","A1VP12LE0ZWG24","either","3","475","","","","","","","0","0","1","0.8207935484","","0.8","0.6","0.2","0.4","","","","","0.02332738683","0.8207935484","0.7239235909","0.7392487755","","","","","","","","","","74","J","1","","","47","main_expt",""
"","bandit","127","399900","0.0-89.0-0.0","15022946","wem/bandit_party_2","A1VP12LE0ZWG24","either","3","192","","","","","","","1","0","0","0.8170742187","","0.8","0.6","0.2","0.4","","","","","0.03517565614","0.8170742187","0.7715310514","0.7551111279","","","","","","","","","","74","J","1","","","48","main_expt",""
"","bandit","128","401744","0.0-90.0-0.0","15022946","wem/bandit_party_2","A1VP12LE0ZWG24","either","3","305","","","","","","","0","1","0","","0.7874830355","0.8","0.6","0.2","0.4","0.04466115719","0.7874830355","0.822179592","0.6917772817","","","","","","","","","","","","","","74","J","1","","","49","main_expt",""
"","bandit","129","403599","0.0-91.0-0.0","15022946","wem/bandit_party_2","A1VP12LE0ZWG24","either","3","306","","","","","","","0","1","0","","0.8279472521","0.8","0.6","0.2","0.4","0.05053383529","0.8279472521","0.8108951243","0.6689959301","","","","","","","","","","","","","","74","J","1","","","50","main_expt",""
"","bandit","130","405361","0.0-92.0-0.0","15022946","wem/bandit_party_2","A1VP12LE0ZWG24","either","3","204","","","","","","","1","0","0","0.8426817256","","0.8","0.6","0.2","0.4","","","","","0.04681033125","0.8426817256","0.7649170446","0.6020608281","","","","","","","","","","74","J","1","","","51","main_expt",""
"","bandit","131","407670","0.0-93.0-0.0","15022946","wem/bandit_party_2","A1VP12LE0ZWG24","either","3","768","","","","","","","1","0","0","0.8377647656","","0.8","0.6","0.2","0.4","","","","","0.09308222201","0.8377647656","0.8169848275","0.6583182673","","","","","","","","","","74","J","1","","","52","main_expt",""
"","bandit","132","409524","0.0-94.0-0.0","15022946","wem/bandit_party_2","A1VP12LE0ZWG24","either","3","310","","","","","","","0","1","0","","0.8241398149","0.8","0.6","0.2","0.4","0.1397702629","0.8241398149","0.8843577791","0.5419436754","","","","","","","","","","","","","","74","J","1","","","53","main_expt",""
"","bandit","133","411363","0.0-95.0-0.0","15022946","wem/bandit_party_2","A1VP12LE0ZWG24","either","3","280","","","","","","","0","0","1","0.7289352116","","0.8","0.6","0.2","0.4","","","","","0.110287685","0.7289352116","0.8854515068","0.5717614462","","","","","","","","","","74","J","1","","","54","main_expt",""
"","bandit","134","413242","0.0-96.0-0.0","15022946","wem/bandit_party_2","A1VP12LE0ZWG24","either","3","332","","","","","","","0","0","1","","0.5895019519","0.8","0.6","0.2","0.4","0.1843384007","0.5895019519","0.8884574585","0.5497935615","","","","","","","","","","","","","","74","J","1","","","55","main_expt",""
"","bandit","135","415131","0.0-97.0-0.0","15022946","wem/bandit_party_2","A1VP12LE0ZWG24","either","3","329","","","","","","","1","0","0","0.8840911236","","0.8","0.6","0.2","0.4","","","","","0.2056752237","0.4622464331","0.8840911236","0.4902645195","","","","","","","","","","75","K","2","","","56","main_expt",""
"","bandit","136","416956","0.0-98.0-0.0","15022946","wem/bandit_party_2","A1VP12LE0ZWG24","either","3","281","","","","","","","0","1","0","","0.864283103","0.8","0.6","0.2","0.4","0.3410726922","0.490024734","0.864283103","0.5258365243","","","","","","","","","","","","","","75","K","2","","","57","main_expt",""
"","bandit","137","418842","0.0-99.0-0.0","15022946","wem/bandit_party_2","A1VP12LE0ZWG24","either","3","334","","","","","","","0","0","1","","0.7377821737","0.8","0.6","0.2","0.4","0.3873695161","0.6182628796","0.7377821737","0.6097664349","","","","","","","","","","","","","","75","K","2","","","58","main_expt",""
"","bandit","138","420653","0.0-100.0-0.0","15022946","wem/bandit_party_2","A1VP12LE0ZWG24","either","3","275","","","","","","","0","1","0","","0.7469541206","0.8","0.6","0.2","0.4","0.3281321534","0.6976829826","0.7469541206","0.6016711108","","","","","","","","","","","","","","75","K","2","","","59","main_expt",""
"","bandit","139","422956","0.0-101.0-0.0","15022946","wem/bandit_party_2","A1VP12LE0ZWG24","either","3","744","","","","","","","0","1","0","","0.8019510571","0.8","0.6","0.2","0.4","0.2380439254","0.675433977","0.8019510571","0.5544917648","","","","","","","","","","","","","","75","K","2","","","60","main_expt",""
"","bandit","140","424814","0.0-102.0-0.0","15022946","wem/bandit_party_2","A1VP12LE0ZWG24","either","3","312","","","","","","","1","0","0","0.8943887388","","0.8","0.6","0.2","0.4","","","","","0.2228222105","0.7206550838","0.8943887388","0.6842720067","","","","","","","","","","75","K","2","","","61","main_expt",""
"","bandit","141","426499","0.0-103.0-0.0","15022946","wem/bandit_party_2","A1VP12LE0ZWG24","either","3","125","","","","","","","1","0","0","0.8942973556","","0.8","0.6","0.2","0.4","","","","","0.2489253665","0.7184677658","0.8942973556","0.6824345281","","","","","","","","","","75","K","2","","","62","main_expt",""
"","bandit","142","428308","0.0-104.0-0.0","15022946","wem/bandit_party_2","A1VP12LE0ZWG24","either","3","264","","","","","","","0","1","0","","0.8829609874","0.8","0.6","0.2","0.4","0.2298237489","0.6785259816","0.8829609874","0.7321168219","","","","","","","","","","","","","","75","K","2","","","63","main_expt",""
"","bandit","143","430103","0.0-105.0-0.0","15022946","wem/bandit_party_2","A1VP12LE0ZWG24","either","3","259","","","","","","","1","0","0","0.8175344892","","0.8","0.6","0.2","0.4","","","","","0.1849055857","0.6349383059","0.8175344892","0.8123013145","","","","","","","","","","75","K","2","","","64","main_expt",""
"","bandit","144","431980","0.0-106.0-0.0","15022946","wem/bandit_party_2","A1VP12LE0ZWG24","either","3","320","","","","","","","0","1","0","","0.7812905168","0.8","0.6","0.2","0.4","0.2285715909","0.629769122","0.7812905168","0.8236121316","","","","","","","","","","","","","","75","K","2","","","65","main_expt",""
"","bandit","145","433590","0.0-107.0-0.0","15022946","wem/bandit_party_2","A1VP12LE0ZWG24","either","3","59","","","","","","","0","0","1","","0.7848445355","0.8","0.6","0.2","0.4","0.2477643906","0.7158950816","0.7848445355","0.8270077233","","","","","","","","","","","","","","75","K","2","","","66","main_expt",""
"","bandit","146","435260","0.0-108.0-0.0","15022946","wem/bandit_party_2","A1VP12LE0ZWG24","either","3","108","","","","","","","0","1","0","","0.763143195","0.8","0.6","0.2","0.4","0.1801078726","0.6309271871","0.763143195","0.7601471472","","","","","","","","","","","","","","75","K","2","","","67","main_expt",""
"","bandit","147","437080","0.0-109.0-0.0","15022946","wem/bandit_party_2","A1VP12LE0ZWG24","either","3","265","","","","","","","0","0","1","","0.7966751536","0.8","0.6","0.2","0.4","0.08479184886","0.617221228","0.7966751536","0.7567750057","","","","","","","","","","","","","","75","K","2","","","68","main_expt",""
"","bandit","148","438845","0.0-110.0-0.0","15022946","wem/bandit_party_2","A1VP12LE0ZWG24","either","3","215","","","","","","","1","0","0","0.6235929763","","0.8","0.6","0.2","0.4","","","","","0.06982522498","0.6235929763","0.8534335227","0.6871277649","","","","","","","","","","74","J","1","","","69","main_expt",""
"","bandit","149","440531","0.0-111.0-0.0","15022946","wem/bandit_party_2","A1VP12LE0ZWG24","either","3","129","","","","","","","0","1","0","","0.5543620559","0.8","0.6","0.2","0.4","0.05029268469","0.5543620559","0.8915498471","0.773099018","","","","","","","","","","","","","","74","J","1","","","70","main_expt",""
"","bandit","150","442327","0.0-112.0-0.0","15022946","wem/bandit_party_2","A1VP12LE0ZWG24","either","3","245","","","","","","","1","0","0","0.5333999135","","0.8","0.6","0.2","0.4","","","","","0.06413839938","0.5333999135","0.8736989015","0.7412476729","","","","","","","","","","74","J","1","","","71","main_expt",""
"","bandit","151","444308","0.0-113.0-0.0","15022946","wem/bandit_party_2","A1VP12LE0ZWG24","either","3","427","","","","","","","1","0","0","0.5905126671","","0.8","0.6","0.2","0.4","","","","","0.05155778705","0.5905126671","0.8837551658","0.8080704968","","","","","","","","","","74","J","1","","","72","main_expt",""
"","bandit","152","446166","0.0-114.0-0.0","15022946","wem/bandit_party_2","A1VP12LE0ZWG24","either","3","300","","","","","","","0","0","1","0.0232747386","","0.8","0.6","0.2","0.4","","","","","0.0232747386","0.6925119087","0.8495494246","0.8270016227","","","","","","","","","","72","H","0","img/none_selected.jpg","","73","main_expt",""
"","bandit","153","448318","0.0-115.0-0.0","15022946","wem/bandit_party_2","A1VP12LE0ZWG24","either","3","606","","","","","","","0","0","1","0.7134745341","","0.8","0.6","0.2","0.4","","","","","0.04751547773","0.7134745341","0.9127472651","0.7872017979","","","","","","","","","","74","J","1","","","74","main_expt",""
"","bandit","154","451753","0.0-116.0-0.0","15022946","wem/bandit_party_2","A1VP12LE0ZWG24","either","3","1877","","","","","","","1","0","0","0.6167225576","","0.8","0.6","0.2","0.4","","","","","0.05282531612","0.8065440948","0.9199060817","0.6167225576","","","","","","","","","","76","L","3","","","75","main_expt",""
"","bandit","155","453736","0.0-117.0-0.0","15022946","wem/bandit_party_2","A1VP12LE0ZWG24","either","3","431","","","","","","","1","0","0","0.637182095","","0.8","0.6","0.2","0.4","","","","","0.08738729654","0.7849172319","0.8691294168","0.637182095","","","","","","","","","","76","L","3","","","76","main_expt",""
"","bandit","156","455930","0.0-118.0-0.0","15022946","wem/bandit_party_2","A1VP12LE0ZWG24","either","3","656","","","","","","","0","0","1","","0.7169911294","0.8","0.6","0.2","0.4","0.08851312664","0.7818962729","0.9111329321","0.7169911294","","","","","","","","","","","","","","76","L","3","","","77","main_expt",""
"","bandit","157","457785","0.0-119.0-0.0","15022946","wem/bandit_party_2","A1VP12LE0ZWG24","either","3","299","","","","","","","0","1","0","","0.9286966754","0.8","0.6","0.2","0.4","0.145228539","0.7002933386","0.9286966754","0.7446448061","","","","","","","","","","","","","","75","K","2","","","78","main_expt",""
"","bandit","158","459670","0.0-120.0-0.0","15022946","wem/bandit_party_2","A1VP12LE0ZWG24","either","3","326","","","","","","","0","1","0","","0.9616021792","0.8","0.6","0.2","0.4","0.1669860915","0.6510109529","0.9616021792","0.8152221547","","","","","","","","","","","","","","75","K","2","","","79","main_expt",""
"","bandit","159","461479","0.0-121.0-0.0","15022946","wem/bandit_party_2","A1VP12LE0ZWG24","either","3","254","","","","","","","0","1","0","","0.950571795","0.8","0.6","0.2","0.4","0.1922913003","0.6765614865","0.950571795","0.810351938","","","","","","","","","","","","","","75","K","2","","","80","main_expt",""
"","bandit","160","463215","0.0-122.0-0.0","15022946","wem/bandit_party_2","A1VP12LE0ZWG24","either","3","184","","","","","","","0","1","0","","0.9331160128","0.8","0.6","0.2","0.4","0.2407870914","0.5908869344","0.9331160128","0.8895110989","","","","","","","","","","","","","","75","K","2","","","81","main_expt",""
"","bandit","161","464926","0.0-123.0-0.0","15022946","wem/bandit_party_2","A1VP12LE0ZWG24","either","3","147","","","","","","","0","1","0","","0.9465986336","0.8","0.6","0.2","0.4","0.3077898034","0.5267531711","0.9465986336","0.9046816681","","","","","","","","","","","","","","75","K","2","","","82","main_expt",""
"","bandit","162","466735","0.0-124.0-0.0","15022946","wem/bandit_party_2","A1VP12LE0ZWG24","either","3","252","","","","","","","1","0","0","0.9371159138","","0.8","0.6","0.2","0.4","","","","","0.2337579628","0.6168373964","0.9371159138","0.8465278631","","","","","","","","","","75","K","2","","","83","main_expt",""
"","bandit","163","468548","0.0-125.0-0.0","15022946","wem/bandit_party_2","A1VP12LE0ZWG24","either","3","270","","","","","","","0","1","0","","0.8998840018","0.8","0.6","0.2","0.4","0.2781329454","0.5733990252","0.8998840018","0.7584930438","","","","","","","","","","","","","","75","K","2","","","84","main_expt",""
"","bandit","164","470307","0.0-126.0-0.0","15022946","wem/bandit_party_2","A1VP12LE0ZWG24","either","3","209","","","","","","","1","0","0","0.9102188985","","0.8","0.6","0.2","0.4","","","","","0.3013149798","0.4719695616","0.9102188985","0.7727946294","","","","","","","","","","75","K","2","","","85","main_expt",""
"","bandit","165","471944","0.0-127.0-0.0","15022946","wem/bandit_party_2","A1VP12LE0ZWG24","either","3","78","","","","","","","0","1","0","","0.9000055418","0.8","0.6","0.2","0.4","0.3231836659","0.6941651786","0.9000055418","0.8216594778","","","","","","","","","","","","","","75","K","2","","","86","main_expt",""
"","bandit","166","473832","0.0-128.0-0.0","15022946","wem/bandit_party_2","A1VP12LE0ZWG24","either","3","331","","","","","","","1","0","0","0.8563468124","","0.8","0.6","0.2","0.4","","","","","0.3986379136","0.5408952125","0.8563468124","0.7833884788","","","","","","","","","","75","K","2","","","87","main_expt",""
"","bandit","167","475688","0.0-129.0-0.0","15022946","wem/bandit_party_2","A1VP12LE0ZWG24","either","3","300","","","","","","","0","1","0","","0.7349543302","0.8","0.6","0.2","0.4","0.4230151841","0.5438891422","0.7349543302","0.7804426693","","","","","","","","","","","","","","75","K","2","","","88","main_expt",""
"","bandit","168","477546","0.0-130.0-0.0","15022946","wem/bandit_party_2","A1VP12LE0ZWG24","either","3","317","","","","","","","0","1","0","","0.7907967515","0.8","0.6","0.2","0.4","0.3761858397","0.4294971294","0.7907967515","0.7930928848","","","","","","","","","","","","","","75","K","2","","","89","main_expt",""
"","bandit","169","479384","0.0-131.0-0.0","15022946","wem/bandit_party_2","A1VP12LE0ZWG24","either","3","296","","","","","","","1","0","0","0.7883246469","","0.8","0.6","0.2","0.4","","","","","0.4799086841","0.4928337868","0.7883246469","0.7683039237","","","","","","","","","","75","K","2","","","90","main_expt",""
"","bandit","170","480978","0.0-132.0-0.0","15022946","wem/bandit_party_2","A1VP12LE0ZWG24","either","3","37","","","","","","","0","1","0","","0.8389096604","0.8","0.6","0.2","0.4","0.4558425901","0.5655090935","0.8389096604","0.8072091422","","","","","","","","","","","","","","75","K","2","","","91","main_expt",""
"","bandit","171","483042","0.0-133.0-0.0","15022946","wem/bandit_party_2","A1VP12LE0ZWG24","either","3","498","","","","","","","1","0","0","0.8064187158","","0.8","0.6","0.2","0.4","","","","","0.3781515597","0.6154818033","0.8064187158","0.7791444337","","","","","","","","","","75","K","2","","","92","main_expt",""
"","bandit","172","485093","0.0-134.0-0.0","15022946","wem/bandit_party_2","A1VP12LE0ZWG24","either","3","496","","","","","","","0","0","1","","0.7542368763","0.8","0.6","0.2","0.4","0.2858753042","0.7381217307","0.7542368763","0.8498372391","","","","","","","","","","","","","","75","K","2","","","93","main_expt",""
"","bandit","173","486903","0.0-135.0-0.0","15022946","wem/bandit_party_2","A1VP12LE0ZWG24","either","3","249","","","","","","","0","0","1","0.6932487021","","0.8","0.6","0.2","0.4","","","","","0.3914428564","0.7776388333","0.6932487021","0.8440610374","","","","","","","","","","75","K","2","","","94","main_expt",""
"","bandit","174","489239","0.0-136.0-0.0","15022946","wem/bandit_party_2","A1VP12LE0ZWG24","either","3","771","","","","","","","1","0","0","0.6706070003","","0.8","0.6","0.2","0.4","","","","","0.3800018616","0.8299152283","0.6706070003","0.8092418145","","","","","","","","","","75","K","2","","","95","main_expt",""
"","bandit","175","491126","0.0-137.0-0.0","15022946","wem/bandit_party_2","A1VP12LE0ZWG24","either","3","330","","","","","","","0","1","0","","0.7697811485","0.8","0.6","0.2","0.4","0.3078584031","0.7697811485","0.6670251336","0.8655172998","","","","","","","","","","","","","","74","J","1","","","96","main_expt",""
"","bandit","176","492979","0.0-138.0-0.0","15022946","wem/bandit_party_2","A1VP12LE0ZWG24","either","3","303","","","","","","","0","1","0","","0.7487724405","0.8","0.6","0.2","0.4","0.218486712","0.7487724405","0.7023758817","0.8735151232","","","","","","","","","","","","","","74","J","1","","","97","main_expt",""
"","bandit","177","494914","0.0-139.0-0.0","15022946","wem/bandit_party_2","A1VP12LE0ZWG24","either","3","386","","","","","","","0","1","0","","0.7450583294","0.8","0.6","0.2","0.4","0.2037628256","0.7450583294","0.7036518389","0.84409386","","","","","","","","","","","","","","74","J","1","","","98","main_expt",""
"","bandit","178","496893","0.0-140.0-0.0","15022946","wem/bandit_party_2","A1VP12LE0ZWG24","either","3","416","","","","","","","0","0","1","0.7227120129","","0.8","0.6","0.2","0.4","","","","","0.2400196326","0.7227120129","0.8401346726","0.8089648913","","","","","","","","","","74","J","1","","","99","main_expt",""
"","bandit","179","498781","0.0-141.0-0.0","15022946","wem/bandit_party_2","A1VP12LE0ZWG24","either","3","338","","","","","","","0","1","0","","0.7259557377","0.8","0.6","0.2","0.4","0.3298222115","0.5872141049","0.8640782416","0.7259557377","","","","","","","","","","","","","","76","L","3","","","100","main_expt",""
"","bandit","180","500593","0.0-142.0-0.0","15022946","wem/bandit_party_2","A1VP12LE0ZWG24","either","3","267","","","","","","","0","1","0","","0.6332869741","0.8","0.6","0.2","0.4","0.3108047587","0.6432213136","0.8232172207","0.6332869741","","","","","","","","","","","","","","76","L","3","","","101","main_expt",""
"","bandit","181","502435","0.0-143.0-0.0","15022946","wem/bandit_party_2","A1VP12LE0ZWG24","either","3","286","","","","","","","1","0","0","0.659443461","","0.8","0.6","0.2","0.4","","","","","0.2869381514","0.6009476408","0.8451901448","0.659443461","","","","","","","","","","76","L","3","","","102","main_expt",""
"","bandit","182","504156","0.0-144.0-0.0","15022946","wem/bandit_party_2","A1VP12LE0ZWG24","either","3","169","","","","","","","1","0","0","0.5959971703","","0.8","0.6","0.2","0.4","","","","","0.246485708","0.6120105745","0.8792283932","0.5959971703","","","","","","","","","","76","L","3","","","103","main_expt",""
"","bandit","183","506010","0.0-145.0-0.0","15022946","wem/bandit_party_2","A1VP12LE0ZWG24","either","3","282","","","","","","","0","1","0","","0.5643630141","0.8","0.6","0.2","0.4","0.2175667678","0.6821098495","0.8887181638","0.5643630141","","","","","","","","","","","","","","76","L","3","","","104","main_expt",""
"","bandit","184","507896","0.0-146.0-0.0","15022946","wem/bandit_party_2","A1VP12LE0ZWG24","either","3","346","","","","","","","1","0","0","0.5489079514","","0.8","0.6","0.2","0.4","","","","","0.2645808036","0.7228510016","0.8013578166","0.5489079514","","","","","","","","","","76","L","3","","","105","main_expt",""
"","bandit","185","509734","0.0-147.0-0.0","15022946","wem/bandit_party_2","A1VP12LE0ZWG24","either","3","281","","","","","","","1","0","0","0.4336033326","","0.8","0.6","0.2","0.4","","","","","0.2652424516","0.6639212405","0.7307006529","0.4336033326","","","","","","","","","","76","L","3","","","106","main_expt",""
"","bandit","186","511579","0.0-148.0-0.0","15022946","wem/bandit_party_2","A1VP12LE0ZWG24","either","3","302","","","","","","","0","1","0","","0.4779201531","0.8","0.6","0.2","0.4","0.2481661544","0.6237034742","0.7519500851","0.4779201531","","","","","","","","","","","","","","76","L","3","","","107","main_expt",""
"","bandit","187","513497","0.0-149.0-0.0","15022946","wem/bandit_party_2","A1VP12LE0ZWG24","either","3","377","","","","","","","0","1","0","","0.5075294874","0.8","0.6","0.2","0.4","0.2361720859","0.5847293191","0.7457577851","0.5075294874","","","","","","","","","","","","","","76","L","3","","","108","main_expt",""
"","bandit","188","515370","0.0-150.0-0.0","15022946","wem/bandit_party_2","A1VP12LE0ZWG24","either","3","323","","","","","","","0","1","0","","0.522842385","0.8","0.6","0.2","0.4","0.2799679389","0.6260859175","0.77583868","0.522842385","","","","","","","","","","","","","","76","L","3","","","109","main_expt",""
"","bandit","189","517178","0.0-151.0-0.0","15022946","wem/bandit_party_2","A1VP12LE0ZWG24","either","3","242","","","","","","","1","0","0","0.419893696","","0.8","0.6","0.2","0.4","","","","","0.3333098602","0.4788227383","0.7520827962","0.419893696","","","","","","","","","","76","L","3","","","110","main_expt",""
"","bandit","190","518971","0.0-152.0-0.0","15022946","wem/bandit_party_2","A1VP12LE0ZWG24","either","3","234","","","","","","","0","0","1","","0.431092028","0.8","0.6","0.2","0.4","0.3669732535","0.6019778282","0.6512809768","0.431092028","","","","","","","","","","","","","","76","L","3","","","111","main_expt",""
"","bandit","191","520857","0.0-153.0-0.0","15022946","wem/bandit_party_2","A1VP12LE0ZWG24","either","3","346","","","","","","","1","0","0","0.389765336","","0.8","0.6","0.2","0.4","","","","","0.389765336","0.546445977","0.5891937939","0.3590071368","","","","","","","","","","72","H","0","img/none_selected.jpg","","112","main_expt",""
"","bandit","192","522632","0.0-154.0-0.0","15022946","wem/bandit_party_2","A1VP12LE0ZWG24","either","3","224","","","","","","","0","0","1","0.3191506652","","0.8","0.6","0.2","0.4","","","","","0.3191506652","0.6256092846","0.6490525038","0.4498419114","","","","","","","","","","72","H","0","img/none_selected.jpg","","113","main_expt",""
"","bandit","193","524520","0.0-155.0-0.0","15022946","wem/bandit_party_2","A1VP12LE0ZWG24","either","3","331","","","","","","","0","1","0","","0.6577617598","0.8","0.6","0.2","0.4","0.2090321438","0.6577617598","0.6283680234","0.4829831469","","","","","","","","","","","","","","74","J","1","","","114","main_expt",""
"","bandit","194","526361","0.0-156.0-0.0","15022946","wem/bandit_party_2","A1VP12LE0ZWG24","either","3","279","","","","","","","0","1","0","","0.7140476354","0.8","0.6","0.2","0.4","0.2094439124","0.7140476354","0.6064224059","0.4846695964","","","","","","","","","","","","","","74","J","1","","","115","main_expt",""
"","bandit","195","528079","0.0-157.0-0.0","15022946","wem/bandit_party_2","A1VP12LE0ZWG24","either","3","175","","","","","","","0","0","1","0.6589976567","","0.8","0.6","0.2","0.4","","","","","0.2695181069","0.6589976567","0.545813367","0.5396909338","","","","","","","","","","74","J","1","","","116","main_expt",""
"","bandit","196","529843","0.0-158.0-0.0","15022946","wem/bandit_party_2","A1VP12LE0ZWG24","either","3","207","","","","","","","0","0","1","","0.5179373022","0.8","0.6","0.2","0.4","0.3402036285","0.6937703341","0.5179373022","0.5378282835","","","","","","","","","","","","","","75","K","2","","","117","main_expt",""
"","bandit","197","531439","0.0-159.0-0.0","15022946","wem/bandit_party_2","A1VP12LE0ZWG24","either","3","52","","","","","","","0","0","1","","0.5729988564","0.8","0.6","0.2","0.4","0.3101634078","0.77114399","0.4014157923","0.5729988564","","","","","","","","","","","","","","76","L","3","","","118","main_expt",""
"","bandit","198","533354","0.0-160.0-0.0","15022946","wem/bandit_party_2","A1VP12LE0ZWG24","either","3","374","","","","","","","0","1","0","","0.4360264599","0.8","0.6","0.2","0.4","0.3242193616","0.710000291","0.4360264599","0.5630251564","","","","","","","","","","","","","","75","K","2","","","119","main_expt",""
"","bandit","199","535210","0.0-161.0-0.0","15022946","wem/bandit_party_2","A1VP12LE0ZWG24","either","3","308","","","","","","","1","0","0","0.3297853269","","0.8","0.6","0.2","0.4","","","","","0.3334277272","0.6767982245","0.3297853269","0.6482115929","","","","","","","","","","75","K","2","","","120","main_expt",""
"","bandit","200","537174","0.0-162.0-0.0","15022946","wem/bandit_party_2","A1VP12LE0ZWG24","either","3","409","","","","","","","0","1","0","","0.3767442019","0.8","0.6","0.2","0.4","0.4066521311","0.7360115258","0.3767442019","0.5688505083","","","","","","","","","","","","","","75","K","2","","","121","main_expt",""
"","bandit","201","539014","0.0-163.0-0.0","15022946","wem/bandit_party_2","A1VP12LE0ZWG24","either","3","273","","","","","","","0","0","1","","0.3589515546","0.8","0.6","0.2","0.4","0.5193034213","0.7258716992","0.3589515546","0.5349597204","","","","","","","","","","","","","","75","K","2","","","122","main_expt",""
"","bandit","202","540854","0.0-164.0-0.0","15022946","wem/bandit_party_2","A1VP12LE0ZWG24","either","3","274","","","","","","","0","1","0","","0.3461890545","0.8","0.6","0.2","0.4","0.5594962391","0.7848203729","0.3461890545","0.412887176","","","","","","","","","","","","","","75","K","2","","","123","main_expt",""
"","bandit","203","542910","0.0-165.0-0.0","15022946","wem/bandit_party_2","A1VP12LE0ZWG24","either","3","496","","","","","","","0","0","1","","0.2287340519","0.8","0.6","0.2","0.4","0.6876014299","0.7673004895","0.2287340519","0.4137060999","","","","","","","","","","","","","","75","K","2","","","124","main_expt",""
"","bandit","204","544673","0.0-166.0-0.0","15022946","wem/bandit_party_2","A1VP12LE0ZWG24","either","3","209","","","","","","","1","0","0","0.8020703208","","0.8","0.6","0.2","0.4","","","","","0.7354493796","0.8020703208","0.2900718705","0.3226696341","","","","","","","","","","74","J","1","","","125","main_expt",""
"","bandit","205","546408","0.0-167.0-0.0","15022946","wem/bandit_party_2","A1VP12LE0ZWG24","either","3","184","","","","","","","0","0","1","0.8196031782","","0.8","0.6","0.2","0.4","","","","","0.76840964","0.8196031782","0.2880997441","0.3904211026","","","","","","","","","","74","J","1","","","126","main_expt",""
"","bandit","206","548170","0.0-168.0-0.0","15022946","wem/bandit_party_2","A1VP12LE0ZWG24","either","3","218","","","","","","","1","0","0","0.7310750685","","0.8","0.6","0.2","0.4","","","","","0.7310750685","0.7095492128","0.3451069126","0.4227014292","","","","","","","","","","72","H","0","img/none_selected.jpg","","127","main_expt",""
"","bandit","207","549777","0.0-169.0-0.0","15022946","wem/bandit_party_2","A1VP12LE0ZWG24","either","3","55","","","","","","","1","0","0","0.6582635175","","0.8","0.6","0.2","0.4","","","","","0.6582635175","0.711577854","0.3129298861","0.543317668","","","","","","","","","","72","H","0","img/none_selected.jpg","","128","main_expt",""
"","bandit","208","551605","0.0-170.0-0.0","15022946","wem/bandit_party_2","A1VP12LE0ZWG24","either","3","281","","","","","","","0","0","1","0.7529887683","","0.8","0.6","0.2","0.4","","","","","0.7529887683","0.7022761705","0.3507055597","0.5906282681","","","","","","","","","","72","H","0","img/none_selected.jpg","","129","main_expt",""
"","bandit","209","553336","0.0-171.0-0.0","15022946","wem/bandit_party_2","A1VP12LE0ZWG24","either","3","180","","","","","","","0","1","0","","0.7309419319","0.8","0.6","0.2","0.4","0.7929301986","0.7309419319","0.3753424236","0.6636268631","","","","","","","","","","","","","","74","J","1","","","130","main_expt",""
"","bandit","210","555209","0.0-172.0-0.0","15022946","wem/bandit_party_2","A1VP12LE0ZWG24","either","3","315","","","","","","","0","0","1","0.6904825683","","0.8","0.6","0.2","0.4","","","","","0.8149544693","0.6904825683","0.3473486375","0.5686699027","","","","","","","","","","74","J","1","","","131","main_expt",""
"","bandit","211","557048","0.0-173.0-0.0","15022946","wem/bandit_party_2","A1VP12LE0ZWG24","either","3","278","","","","","","","0","0","1","","0.303679922","0.8","0.6","0.2","0.4","0.7626544417","0.7153166113","0.303679922","0.6564012045","","","","","","","","","","","","","","75","K","2","","","132","main_expt",""
"","bandit","212","558937","0.0-174.0-0.0","15022946","wem/bandit_party_2","A1VP12LE0ZWG24","either","3","337","","","","","","","0","0","1","0.5876654864","","0.8","0.6","0.2","0.4","","","","","0.7584501248","0.8135501627","0.3385565331","0.5876654864","","","","","","","","","","76","L","3","","","133","main_expt",""
"","bandit","213","560730","0.0-175.0-0.0","15022946","wem/bandit_party_2","A1VP12LE0ZWG24","either","3","223","","","","","","","1","0","0","0.5299368298","","0.8","0.6","0.2","0.4","","","","","0.7905015291","0.7707892239","0.3686406913","0.5299368298","","","","","","","","","","76","L","3","","","134","main_expt",""
"","bandit","214","562510","0.0-176.0-0.0","15022946","wem/bandit_party_2","A1VP12LE0ZWG24","either","3","222","","","","","","","0","0","1","0.4547966061","","0.8","0.6","0.2","0.4","","","","","0.7515189777","0.7689088841","0.3672202126","0.4547966061","","","","","","","","","","76","L","3","","","135","main_expt",""
"","bandit","215","564333","0.0-177.0-0.0","15022946","wem/bandit_party_2","A1VP12LE0ZWG24","either","3","255","","","","","","","0","1","0","","0.4064769993","0.8","0.6","0.2","0.4","0.7293518859","0.6641324257","0.4064769993","0.5290841583","","","","","","","","","","","","","","75","K","2","","","136","main_expt",""
"","bandit","216","566176","0.0-178.0-0.0","15022946","wem/bandit_party_2","A1VP12LE0ZWG24","either","3","293","","","","","","","0","1","0","","0.3492503667","0.8","0.6","0.2","0.4","0.7286216209","0.635388201","0.3492503667","0.419904672","","","","","","","","","","","","","","75","K","2","","","137","main_expt",""
"","bandit","217","568079","0.0-179.0-0.0","15022946","wem/bandit_party_2","A1VP12LE0ZWG24","either","3","343","","","","","","","0","0","1","0.3315752647","","0.8","0.6","0.2","0.4","","","","","0.7425921641","0.6889508363","0.3315752647","0.4532768315","","","","","","","","","","75","K","2","","","138","main_expt",""
"","bandit","218","569903","0.0-180.0-0.0","15022946","wem/bandit_party_2","A1VP12LE0ZWG24","either","3","262","","","","","","","1","0","0","0.3080831972","","0.8","0.6","0.2","0.4","","","","","0.7356638012","0.6481427694","0.3080831972","0.4194835996","","","","","","","","","","75","K","2","","","139","main_expt",""
"","bandit","219","571744","0.0-181.0-0.0","15022946","wem/bandit_party_2","A1VP12LE0ZWG24","either","3","275","","","","","","","1","0","0","0.6497449761","","0.8","0.6","0.2","0.4","","","","","0.7334346803","0.6497449761","0.3254670704","0.420008375","","","","","","","","","","74","J","1","","","140","main_expt",""
"","bandit","220","573571","0.0-182.0-0.0","15022946","wem/bandit_party_2","A1VP12LE0ZWG24","either","3","275","","","","","","","1","0","0","0.7328205829","","0.8","0.6","0.2","0.4","","","","","0.7737071977","0.7328205829","0.3452870884","0.3908595681","","","","","","","","","","74","J","1","","","141","main_expt",""
"","bandit","221","575431","0.0-183.0-0.0","15022946","wem/bandit_party_2","A1VP12LE0ZWG24","either","3","300","","","","","","","1","0","0","0.6396752577","","0.8","0.6","0.2","0.4","","","","","0.7912630164","0.6396752577","0.2659846132","0.3994278682","","","","","","","","","","74","J","1","","","142","main_expt",""
"","bandit","222","577041","0.0-184.0-0.0","15022946","wem/bandit_party_2","A1VP12LE0ZWG24","either","3","65","","","","","","","1","0","0","0.5974809775","","0.8","0.6","0.2","0.4","","","","","0.7709923268","0.5974809775","0.2549781044","0.3137486051","","","","","","","","","","74","J","1","","","143","main_expt",""
"","bandit","223","578700","0.0-185.0-0.0","15022946","wem/bandit_party_2","A1VP12LE0ZWG24","either","3","131","","","","","","","0","0","1","0.5953980303","","0.8","0.6","0.2","0.4","","","","","0.7492848764","0.5953980303","0.3603981418","0.3961992406","","","","","","","","","","74","J","1","","","144","main_expt",""
"","bandit","224","580234","0.0-186.0-0.0","15022946","wem/bandit_party_2","A1VP12LE0ZWG24","either","3","0","","","","","","","0","0","1","","0.6215671736","0.8","0.6","0.2","0.4","0.7343485297","0.6215671736","0.3682949958","0.3186856111","","","","","","","","","","","","","","74","J","1","","","145","main_expt",""
"","bandit","225","582034","0.0-187.0-0.0","15022946","wem/bandit_party_2","A1VP12LE0ZWG24","either","3","260","","","","","","","1","0","0","0.5766937592","","0.8","0.6","0.2","0.4","","","","","0.7701032705","0.5766937592","0.5028772858","0.2724247948","","","","","","","","","","74","J","1","","","146","main_expt",""
"","bandit","226","583941","0.0-188.0-0.0","15022946","wem/bandit_party_2","A1VP12LE0ZWG24","either","3","378","","","","","","","1","0","0","0.7521601774","","0.8","0.6","0.2","0.4","","","","","0.7521601774","0.4600492943","0.4186890645","0.2844288079","","","","","","","","","","72","H","0","img/none_selected.jpg","","147","main_expt",""
"","bandit","227","585753","0.0-189.0-0.0","15022946","wem/bandit_party_2","A1VP12LE0ZWG24","either","3","259","","","","","","","1","0","0","0.7762143641","","0.8","0.6","0.2","0.4","","","","","0.7762143641","0.4575448178","0.3928328601","0.3095389551","","","","","","","","","","72","H","0","img/none_selected.jpg","","148","main_expt",""
"","bandit","228","587547","0.0-190.0-0.0","15022946","wem/bandit_party_2","A1VP12LE0ZWG24","either","3","242","","","","","","","0","0","1","0.716016993","","0.8","0.6","0.2","0.4","","","","","0.716016993","0.3840278576","0.4220063763","0.2464654743","","","","","","","","","","72","H","0","img/none_selected.jpg","","149","main_expt",""
"","bandit","229","589266","0.0-191.0-0.0","15022946","wem/bandit_party_2","A1VP12LE0ZWG24","either","3","172","","","","","","","0","0","1","0.7182774931","","0.8","0.6","0.2","0.4","","","","","0.7182774931","0.3004406684","0.3206822378","0.2088091358","","","","","","","","","","72","H","0","img/none_selected.jpg","","150","main_expt",""
"","bandit","230","591133","0.0-192.0-0.0","15022946","wem/bandit_party_2","A1VP12LE0ZWG24","either","3","302","","","","","","","1","0","0","0.2769981479","","0.8","0.6","0.2","0.4","","","","","0.8028216805","0.2769981479","0.3380172956","0.2670014618","","","","","","","","","","74","J","1","","","151","main_expt",""
"","bandit","231","593236","0.0-193.0-0.0","15022946","wem/bandit_party_2","A1VP12LE0ZWG24","either","3","554","","","","","","","0","1","0","","0.40565407","0.8","0.6","0.2","0.4","0.8634692279","0.40565407","0.2461440624","0.3100930243","","","","","","","","","","","","","","74","J","1","","","152","main_expt",""
"","bandit","232","595075","0.0-194.0-0.0","15022946","wem/bandit_party_2","A1VP12LE0ZWG24","either","3","275","","","","","","","0","1","0","","0.3829351634","0.8","0.6","0.2","0.4","0.7719190238","0.3829351634","0.1852716423","0.3796096158","","","","","","","","","","","","","","74","J","1","","","153","main_expt",""
"","bandit","233","596978","0.0-195.0-0.0","15022946","wem/bandit_party_2","A1VP12LE0ZWG24","either","3","345","","","","","","","0","0","1","0.4912137185","","0.8","0.6","0.2","0.4","","","","","0.8343429945","0.4912137185","0.1660439368","0.2265028128","","","","","","","","","","74","J","1","","","154","main_expt",""
"","bandit","234","598849","0.0-196.0-0.0","15022946","wem/bandit_party_2","A1VP12LE0ZWG24","either","3","317","","","","","","","0","0","1","0.2241607793","","0.8","0.6","0.2","0.4","","","","","0.7908731232","0.5312535156","0.2241607793","0.2135741777","","","","","","","","","","75","K","2","","","155","main_expt",""
"","bandit","235","600641","0.0-197.0-0.0","15022946","wem/bandit_party_2","A1VP12LE0ZWG24","either","3","231","","","","","","","0","0","1","","0.1566338899","0.8","0.6","0.2","0.4","0.7848911391","0.5747898199","0.1566338899","0.1338357519","","","","","","","","","","","","","","75","K","2","","","156","main_expt",""
"","bandit","236","602206","0.0-198.0-0.0","15022946","wem/bandit_party_2","A1VP12LE0ZWG24","either","3","24","","","","","","","0","1","0","","0.1344370697","0.8","0.6","0.2","0.4","0.7467155263","0.5948125822","0.1839373886","0.1344370697","","","","","","","","","","","","","","76","L","3","","","157","main_expt",""
"","bandit","237","604030","0.0-199.0-0.0","15022946","wem/bandit_party_2","A1VP12LE0ZWG24","either","3","253","","","","","","","0","0","1","0.1217930933","","0.8","0.6","0.2","0.4","","","","","0.7413618202","0.6533804049","0.155802242","0.1217930933","","","","","","","","","","76","L","3","","","158","main_expt",""
"","bandit","238","605888","0.0-200.0-0.0","15022946","wem/bandit_party_2","A1VP12LE0ZWG24","either","3","300","","","","","","","0","0","1","","0.08524485746","0.8","0.6","0.2","0.4","0.6882043704","0.5777198579","0.2304237345","0.08524485746","","","","","","","","","","","","","","76","L","3","","","159","main_expt",""
"","bandit","239","607480","0.0-201.0-0.0","15022946","wem/bandit_party_2","A1VP12LE0ZWG24","either","3","21","","","","","","","1","0","0","0.7253096401","","0.8","0.6","0.2","0.4","","","","","0.7253096401","0.6777741118","0.2242026456","0.07332219892","","","","","","","","","","72","H","0","img/none_selected.jpg","","160","main_expt",""
"","bandit","240","609244","0.0-202.0-0.0","15022946","wem/bandit_party_2","A1VP12LE0ZWG24","either","3","218","","","","","","","0","0","1","0.6989182833","","0.8","0.6","0.2","0.4","","","","","0.6989182833","0.6249074267","0.2708915048","0.1063489691","","","","","","","","","","72","H","0","img/none_selected.jpg","","161","main_expt",""
"","bandit","241","611006","0.0-203.0-0.0","15022946","wem/bandit_party_2","A1VP12LE0ZWG24","either","3","212","","","","","","","1","0","0","0.7679575172","","0.8","0.6","0.2","0.4","","","","","0.7679575172","0.6755041601","0.2921592604","0.09670310095","","","","","","","","","","72","H","0","img/none_selected.jpg","","162","main_expt",""
"","bandit","242","612867","0.0-204.0-0.0","15022946","wem/bandit_party_2","A1VP12LE0ZWG24","either","3","277","","","","","","","0","0","1","0.6877390752","","0.8","0.6","0.2","0.4","","","","","0.6877390752","0.6461818487","0.2050535257","0.1266359811","","","","","","","","","","72","H","0","img/none_selected.jpg","","163","main_expt",""
"","bandit","243","615445","0.0-205.0-0.0","15022946","wem/bandit_party_2","A1VP12LE0ZWG24","either","3","1028","","","","","","","0","1","0","","0.6957575266","0.8","0.6","0.2","0.4","0.6957575266","0.76368027","0.1998759094","0.1212611996","","","","","","","","","","","","","","72","H","0","img/none_selected.jpg","","164","main_expt",""
"","bandit","244","617286","0.0-206.0-0.0","15022946","wem/bandit_party_2","A1VP12LE0ZWG24","either","3","270","","","","","","","1","0","0","0.6760148625","","0.8","0.6","0.2","0.4","","","","","0.6760148625","0.8400099296","0.1821974317","0.1917887173","","","","","","","","","","72","H","0","img/none_selected.jpg","","165","main_expt",""
"","bandit","245","619170","0.0-207.0-0.0","15022946","wem/bandit_party_2","A1VP12LE0ZWG24","either","3","329","","","","","","","0","1","0","","0.6463317238","0.8","0.6","0.2","0.4","0.6463317238","0.8573275969","0.2916844583","0.1560613016","","","","","","","","","","","","","","72","H","0","img/none_selected.jpg","","166","main_expt",""
"","bandit","246","621028","0.0-208.0-0.0","15022946","wem/bandit_party_2","A1VP12LE0ZWG24","either","3","301","","","","","","","1","0","0","0.5613055562","","0.8","0.6","0.2","0.4","","","","","0.5613055562","0.7735369509","0.3087465624","0.2214887095","","","","","","","","","","72","H","0","img/none_selected.jpg","","167","main_expt",""
"","bandit","247","622994","0.0-209.0-0.0","15022946","wem/bandit_party_2","A1VP12LE0ZWG24","either","3","419","","","","","","","0","0","1","0.5586162784","","0.8","0.6","0.2","0.4","","","","","0.5586162784","0.8091314607","0.3896626528","0.3463453368","","","","","","","","","","72","H","0","img/none_selected.jpg","","168","main_expt",""
"","bandit","248","624862","0.0-210.0-0.0","15022946","wem/bandit_party_2","A1VP12LE0ZWG24","either","3","312","","","","","","","1","0","0","0.8364166478","","0.8","0.6","0.2","0.4","","","","","0.597448185","0.8364166478","0.4458805252","0.3222551453","","","","","","","","","","74","J","1","","","169","main_expt",""
"","bandit","249","626535","0.0-211.0-0.0","15022946","wem/bandit_party_2","A1VP12LE0ZWG24","either","3","105","","","","","","","1","0","0","0.7867883415","","0.8","0.6","0.2","0.4","","","","","0.5351242352","0.7867883415","0.4844269655","0.2556410415","","","","","","","","","","74","J","1","","","170","main_expt",""
"","bandit","250","628410","0.0-212.0-0.0","15022946","wem/bandit_party_2","A1VP12LE0ZWG24","either","3","323","","","","","","","1","0","0","0.8728822524","","0.8","0.6","0.2","0.4","","","","","0.4819966971","0.8728822524","0.4858642724","0.2248109201","","","","","","","","","","74","J","1","","","171","main_expt",""
"","bandit","251","630257","0.0-213.0-0.0","15022946","wem/bandit_party_2","A1VP12LE0ZWG24","either","3","284","","","","","","","0","0","1","0.7804912391","","0.8","0.6","0.2","0.4","","","","","0.4038669266","0.7804912391","0.5060245996","0.3468742366","","","","","","","","","","74","J","1","","","172","main_expt",""
"","bandit","252","632037","0.0-214.0-0.0","15022946","wem/bandit_party_2","A1VP12LE0ZWG24","either","3","231","","","","","","","1","0","0","0.7728490534","","0.8","0.6","0.2","0.4","","","","","0.3102533384","0.7728490534","0.5413528159","0.234408543","","","","","","","","","","74","J","1","","","173","main_expt",""
"","bandit","253","633752","0.0-215.0-0.0","15022946","wem/bandit_party_2","A1VP12LE0ZWG24","either","3","172","","","","","","","1","0","0","0.814185781","","0.8","0.6","0.2","0.4","","","","","0.3818943333","0.814185781","0.6505326818","0.1404050277","","","","","","","","","","74","J","1","","","174","main_expt",""
"","bandit","254","635565","0.0-216.0-0.0","15022946","wem/bandit_party_2","A1VP12LE0ZWG24","either","3","259","","","","","","","1","0","0","0.8010682597","","0.8","0.6","0.2","0.4","","","","","0.2893198216","0.8010682597","0.6470977149","0.1081611795","","","","","","","","","","74","J","1","","","175","main_expt",""
"","bandit","255","637168","0.0-217.0-0.0","15022946","wem/bandit_party_2","A1VP12LE0ZWG24","either","3","35","","","","","","","1","0","0","0.7083228223","","0.8","0.6","0.2","0.4","","","","","0.226416223","0.7083228223","0.6844229635","0.0730283124","","","","","","","","","","74","J","1","","","176","main_expt",""
"","bandit","256","639070","0.0-218.0-0.0","15022946","wem/bandit_party_2","A1VP12LE0ZWG24","either","3","341","","","","","","","0","0","1","","0.7408938443","0.8","0.6","0.2","0.4","0.2786676386","0.7408938443","0.6883244284","0.07044941978","","","","","","","","","","","","","","74","J","1","","","177","main_expt",""
"","bandit","257","640701","0.0-219.0-0.0","15022946","wem/bandit_party_2","A1VP12LE0ZWG24","either","3","71","","","","","","","0","0","1","0.6621187214","","0.8","0.6","0.2","0.4","","","","","0.2279078815","0.6621187214","0.6098590842","0.06886985111","","","","","","","","","","74","J","1","","","178","main_expt",""
"","bandit","258","644119","0.0-220.0-0.0","15022946","wem/bandit_party_2","A1VP12LE0ZWG24","either","3","1882","","","","","","","1","0","0","0.5924449164","","0.8","0.6","0.2","0.4","","","","","0.1690126781","0.6765487854","0.5924449164","0.07254371148","","","","","","","","","","75","K","2","","","179","main_expt",""
"","bandit","259","645859","0.0-221.0-0.0","15022946","wem/bandit_party_2","A1VP12LE0ZWG24","either","3","167","","","","","","","0","0","1","","0.4915111467","0.8","0.6","0.2","0.4","0.1356066944","0.7276027883","0.4915111467","0.055057054","","","","","","","","","","","","","","75","K","2","","","180","main_expt",""
"","bandit","260","647994","0.0-222.0-0.0","15022946","wem/bandit_party_2","A1VP12LE0ZWG24","either","3","574","","","","","","","0","1","0","","0.4713933083","0.8","0.6","0.2","0.4","0.1889441784","0.7083410305","0.4713933083","0.1187845962","","","","","","","","","","","","","","75","K","2","","","181","main_expt",""
"","bandit","261","649882","0.0-223.0-0.0","15022946","wem/bandit_party_2","A1VP12LE0ZWG24","either","3","321","","","","","","","0","0","1","","0.500114893","0.8","0.6","0.2","0.4","0.2163976064","0.6489729838","0.500114893","0.1304227184","","","","","","","","","","","","","","75","K","2","","","182","main_expt",""
"","bandit","262","651689","0.0-224.0-0.0","15022946","wem/bandit_party_2","A1VP12LE0ZWG24","either","3","258","","","","","","","0","1","0","","0.4949273894","0.8","0.6","0.2","0.4","0.1902524086","0.6956751073","0.4949273894","0.1374638341","","","","","","","","","","","","","","75","K","2","","","183","main_expt",""
"","bandit","263","653607","0.0-225.0-0.0","15022946","wem/bandit_party_2","A1VP12LE0ZWG24","either","3","374","","","","","","","0","0","1","","0.4271361476","0.8","0.6","0.2","0.4","0.2265805791","0.6066537109","0.4271361476","0.1914365344","","","","","","","","","","","","","","75","K","2","","","184","main_expt",""
"","bandit","264","655406","0.0-226.0-0.0","15022946","wem/bandit_party_2","A1VP12LE0ZWG24","either","3","269","","","","","","","0","0","1","","0.4558255176","0.8","0.6","0.2","0.4","0.1843452782","0.6337362372","0.4558255176","0.1939872458","","","","","","","","","","","","","","75","K","2","","","185","main_expt",""
"","bandit","265","657126","0.0-227.0-0.0","15022946","wem/bandit_party_2","A1VP12LE0ZWG24","either","3","185","","","","","","","0","1","0","","0.2219937035","0.8","0.6","0.2","0.4","0.1898387663","0.5908962551","0.4031301461","0.2219937035","","","","","","","","","","","","","","76","L","3","","","186","main_expt",""
"","bandit","266","659000","0.0-228.0-0.0","15022946","wem/bandit_party_2","A1VP12LE0ZWG24","either","3","321","","","","","","","0","0","1","0.2024523472","","0.8","0.6","0.2","0.4","","","","","0.210498268","0.7651761031","0.3993697366","0.2024523472","","","","","","","","","","76","L","3","","","187","main_expt",""
"","bandit","267","660933","0.0-229.0-0.0","15022946","wem/bandit_party_2","A1VP12LE0ZWG24","either","3","377","","","","","","","0","0","1","","0.1930401344","0.8","0.6","0.2","0.4","0.2368649008","0.7928336054","0.4478687375","0.1930401344","","","","","","","","","","","","","","76","L","3","","","188","main_expt",""
"","bandit","268","663515","0.0-230.0-0.0","15022946","wem/bandit_party_2","A1VP12LE0ZWG24","either","3","1020","","","","","","","0","1","0","","0.291591963","0.8","0.6","0.2","0.4","0.291591963","0.8917358491","0.3699601256","0.3255404916","","","","","","","","","","","","","","72","H","0","img/none_selected.jpg","","189","main_expt",""
"","bandit","269","665185","0.0-231.0-0.0","15022946","wem/bandit_party_2","A1VP12LE0ZWG24","either","3","111","","","","","","","0","0","1","0.4411779124","","0.8","0.6","0.2","0.4","","","","","0.4411779124","0.898448025","0.3723251068","0.2364063212","","","","","","","","","","72","H","0","img/none_selected.jpg","","190","main_expt",""
"","bandit","270","667260","0.0-232.0-0.0","15022946","wem/bandit_party_2","A1VP12LE0ZWG24","either","3","503","","","","","","","0","1","0","","0.3968704403","0.8","0.6","0.2","0.4","0.3968704403","0.9186708851","0.3309849287","0.2662767285","","","","","","","","","","","","","","72","H","0","img/none_selected.jpg","","191","main_expt",""
"","bandit","271","668989","0.0-233.0-0.0","15022946","wem/bandit_party_2","A1VP12LE0ZWG24","either","3","165","","","","","","","0","0","1","0.4512817608","","0.8","0.6","0.2","0.4","","","","","0.4512817608","0.9314477517","0.2865625263","0.2815174114","","","","","","","","","","72","H","0","img/none_selected.jpg","","192","main_expt",""
"","bandit","272","670842","0.0-234.0-0.0","15022946","wem/bandit_party_2","A1VP12LE0ZWG24","either","3","286","","","","","","","0","1","0","","0.9090465067","0.8","0.6","0.2","0.4","0.4788006455","0.9090465067","0.2862811746","0.3461293965","","","","","","","","","","","","","","74","J","1","","","193","main_expt",""
"","bandit","273","672711","0.0-235.0-0.0","15022946","wem/bandit_party_2","A1VP12LE0ZWG24","either","3","305","","","","","","","1","0","0","0.8762249788","","0.8","0.6","0.2","0.4","","","","","0.4651889587","0.8762249788","0.2785288642","0.3303735913","","","","","","","","","","74","J","1","","","194","main_expt",""
"","bandit","274","674598","0.0-236.0-0.0","15022946","wem/bandit_party_2","A1VP12LE0ZWG24","either","3","332","","","","","","","0","1","0","","0.8623185747","0.8","0.6","0.2","0.4","0.4718629942","0.8623185747","0.2283941808","0.3194565039","","","","","","","","","","","","","","74","J","1","","","195","main_expt",""
"","bandit","275","676534","0.0-237.0-0.0","15022946","wem/bandit_party_2","A1VP12LE0ZWG24","either","3","370","","","","","","","0","0","1","0.7745977574","","0.8","0.6","0.2","0.4","","","","","0.3825708332","0.7745977574","0.214282227","0.4103944464","","","","","","","","","","74","J","1","","","196","main_expt",""
"","bandit","276","678468","0.0-238.0-0.0","15022946","wem/bandit_party_2","A1VP12LE0ZWG24","either","3","371","","","","","","","1","0","0","0.7723069829","","0.8","0.6","0.2","0.4","","","","","0.4530864699","0.7723069829","0.1422959513","0.4445726534","","","","","","","","","","74","J","1","","","197","main_expt",""
"","bandit","277","680303","0.0-239.0-0.0","15022946","wem/bandit_party_2","A1VP12LE0ZWG24","either","3","264","","","","","","","0","0","1","0.7084082875","","0.8","0.6","0.2","0.4","","","","","0.4337652667","0.7084082875","0.1126324943","0.4351718099","","","","","","","","","","74","J","1","","","198","main_expt",""
"","bandit","278","682243","0.0-240.0-0.0","15022946","wem/bandit_party_2","A1VP12LE0ZWG24","either","3","371","","","","","","","0","0","1","0.1144166609","","0.8","0.6","0.2","0.4","","","","","0.4138332966","0.7016883558","0.1144166609","0.4641294157","","","","","","","","","","75","K","2","","","199","main_expt",""
"","bandit","279","684121","0.0-241.0-0.0","15022946","wem/bandit_party_2","A1VP12LE0ZWG24","either","3","312","","","","","","","1","0","0","0.1518003708","","0.8","0.6","0.2","0.4","","","","","0.5005175686","0.6504384346","0.1518003708","0.4468687069","","","","","","","","","","75","K","2","","","200","main_expt",""
"","bandit","280","685927","0.0-242.0-0.0","15022946","wem/bandit_party_2","A1VP12LE0ZWG24","either","3","250","","","","","","","0","1","0","","0.5087435212","0.8","0.6","0.2","0.4","0.5122642399","0.7904945102","0.1974433607","0.5087435212","","","","","","","","","","","","","","76","L","3","","","201","main_expt",""
"","bandit","281","687552","0.0-243.0-0.0","15022946","wem/bandit_party_2","A1VP12LE0ZWG24","either","3","64","","","","","","","0","1","0","","0.4992132835","0.8","0.6","0.2","0.4","0.5414597976","0.7039472437","0.2000842809","0.4992132835","","","","","","","","","","","","","","76","L","3","","","202","main_expt",""
"","bandit","282","689641","0.0-244.0-0.0","15022946","wem/bandit_party_2","A1VP12LE0ZWG24","either","3","536","","","","","","","1","0","0","0.4859842053","","0.8","0.6","0.2","0.4","","","","","0.4993649945","0.7478807213","0.1715580826","0.4859842053","","","","","","","","","","76","L","3","","","203","main_expt",""
"","bandit","283","691495","0.0-245.0-0.0","15022946","wem/bandit_party_2","A1VP12LE0ZWG24","either","3","297","","","","","","","1","0","0","0.6162755314","","0.8","0.6","0.2","0.4","","","","","0.4056752737","0.7346150791","0.3028604286","0.6162755314","","","","","","","","","","76","L","3","","","204","main_expt",""
"","bandit","284","693426","0.0-246.0-0.0","15022946","wem/bandit_party_2","A1VP12LE0ZWG24","either","3","369","","","","","","","0","0","1","0.6204906845","","0.8","0.6","0.2","0.4","","","","","0.4174768156","0.7240623961","0.3714949669","0.6204906845","","","","","","","","","","76","L","3","","","205","main_expt",""
"","bandit","285","695267","0.0-247.0-0.0","15022946","wem/bandit_party_2","A1VP12LE0ZWG24","either","3","303","","","","","","","0","1","0","","0.6390595606","0.8","0.6","0.2","0.4","0.4364097613","0.733657826","0.3034865557","0.6390595606","","","","","","","","","","","","","","76","L","3","","","206","main_expt",""
"","bandit","286","697143","0.0-248.0-0.0","15022946","wem/bandit_party_2","A1VP12LE0ZWG24","either","3","349","","","","","","","1","0","0","0.2688105372","","0.8","0.6","0.2","0.4","","","","","0.4666062126","0.6797091947","0.2688105372","0.6022157482","","","","","","","","","","75","K","2","","","207","main_expt",""
"","bandit","287","698704","0.0-249.0-0.0","15022946","wem/bandit_party_2","A1VP12LE0ZWG24","either","3","9","","","","","","","0","0","1","","0.2240001326","0.8","0.6","0.2","0.4","0.4594719295","0.472157919","0.2240001326","0.6598502583","","","","","","","","","","","","","","75","K","2","","","208","main_expt",""
"","bandit","288","700543","0.0-250.0-0.0","15022946","wem/bandit_party_2","A1VP12LE0ZWG24","either","3","274","","","","","","","0","1","0","","0.3284172364","0.8","0.6","0.2","0.4","0.5415101973","0.4993955773","0.3284172364","0.6329069529","","","","","","","","","","","","","","75","K","2","","","209","main_expt",""
"","bandit","289","702183","0.0-251.0-0.0","15022946","wem/bandit_party_2","A1VP12LE0ZWG24","either","3","69","","","","","","","1","0","0","0.5418549626","","0.8","0.6","0.2","0.4","","","","","0.5627952802","0.3923888982","0.3178667136","0.5418549626","","","","","","","","","","76","L","3","","","210","main_expt",""
"","bandit","290","704224","0.0-252.0-0.0","15022946","wem/bandit_party_2","A1VP12LE0ZWG24","either","3","486","","","","","","","0","1","0","","0.7265410197","0.8","0.6","0.2","0.4","0.5779033475","0.4183885941","0.278360526","0.7265410197","","","","","","","","","","","","","","76","L","3","","","211","main_expt",""
"","bandit","291","706155","0.0-253.0-0.0","15022946","wem/bandit_party_2","A1VP12LE0ZWG24","either","3","360","","","","","","","0","1","0","","0.6550819281","0.8","0.6","0.2","0.4","0.6169713091","0.5367383083","0.2720231684","0.6550819281","","","","","","","","","","","","","","76","L","3","","","212","main_expt",""
"","bandit","292","708104","0.0-254.0-0.0","15022946","wem/bandit_party_2","A1VP12LE0ZWG24","either","3","384","","","","","","","0","1","0","","0.5812500281","0.8","0.6","0.2","0.4","0.5688165975","0.5779451767","0.3445332441","0.5812500281","","","","","","","","","","","","","","76","L","3","","","213","main_expt",""
"","bandit","293","709944","0.0-255.0-0.0","15022946","wem/bandit_party_2","A1VP12LE0ZWG24","either","3","296","","","","","","","1","0","0","0.6912727382","","0.8","0.6","0.2","0.4","","","","","0.5354690829","0.5615700258","0.331154659","0.6912727382","","","","","","","","","","76","L","3","","","214","main_expt",""
"","bandit","294","711782","0.0-256.0-0.0","15022946","wem/bandit_party_2","A1VP12LE0ZWG24","either","3","283","","","","","","","0","0","1","","0.695573978","0.8","0.6","0.2","0.4","0.4395706401","0.5361399643","0.3168016653","0.695573978","","","","","","","","","","","","","","76","L","3","","","215","main_expt",""
"","bandit","295","713605","0.0-257.0-0.0","15022946","wem/bandit_party_2","A1VP12LE0ZWG24","either","3","272","","","","","","","1","0","0","0.6531454011","","0.8","0.6","0.2","0.4","","","","","0.4522294324","0.620750855","0.2870858596","0.6531454011","","","","","","","","","","76","L","3","","","216","main_expt",""
"","bandit","296","715447","0.0-258.0-0.0","15022946","wem/bandit_party_2","A1VP12LE0ZWG24","either","3","283","","","","","","","0","0","1","","0.6459690495","0.8","0.6","0.2","0.4","0.4141575353","0.4812239037","0.2877345098","0.6459690495","","","","","","","","","","","","","","76","L","3","","","217","main_expt",""
"","bandit","297","717252","0.0-259.0-0.0","15022946","wem/bandit_party_2","A1VP12LE0ZWG24","either","3","241","","","","","","","1","0","0","0.6679944541","","0.8","0.6","0.2","0.4","","","","","0.3009722504","0.4028497994","0.3608492067","0.6679944541","","","","","","","","","","76","L","3","","","218","main_expt",""
"","bandit","298","719111","0.0-260.0-0.0","15022946","wem/bandit_party_2","A1VP12LE0ZWG24","either","3","295","","","","","","","0","1","0","","0.7159195147","0.8","0.6","0.2","0.4","0.2706893249","0.4441021312","0.4380407461","0.7159195147","","","","","","","","","","","","","","76","L","3","","","219","main_expt",""
"","bandit","299","721012","0.0-261.0-0.0","15022946","wem/bandit_party_2","A1VP12LE0ZWG24","either","3","334","","","","","","","1","0","0","0.6874484601","","0.8","0.6","0.2","0.4","","","","","0.3821277721","0.4867825248","0.4769938592","0.6874484601","","","","","","","","","","76","L","3","","","220","main_expt",""
"","bandit","300","722854","0.0-262.0-0.0","15022946","wem/bandit_party_2","A1VP12LE0ZWG24","either","3","293","","","","","","","1","0","0","0.6528128226","","0.8","0.6","0.2","0.4","","","","","0.4534214389","0.5428062785","0.4612627877","0.6528128226","","","","","","","","","","76","L","3","","","221","main_expt",""
"","bandit","301","724737","0.0-263.0-0.0","15022946","wem/bandit_party_2","A1VP12LE0ZWG24","either","3","322","","","","","","","1","0","0","0.6836467719","","0.8","0.6","0.2","0.4","","","","","0.6049712458","0.5993321864","0.4192901336","0.6836467719","","","","","","","","","","76","L","3","","","222","main_expt",""
"","bandit","302","726948","0.0-264.0-0.0","15022946","wem/bandit_party_2","A1VP12LE0ZWG24","either","3","642","","","","","","","0","1","0","","0.7820879334","0.8","0.6","0.2","0.4","0.6389506418","0.4920604154","0.5559965486","0.7820879334","","","","","","","","","","","","","","76","L","3","","","223","main_expt",""
"","bandit","303","729158","0.0-265.0-0.0","15022946","wem/bandit_party_2","A1VP12LE0ZWG24","either","3","648","","","","","","","0","1","0","","0.763226653","0.8","0.6","0.2","0.4","0.6677375732","0.5344282052","0.6687933923","0.763226653","","","","","","","","","","","","","","76","L","3","","","224","main_expt",""
"","bandit","304","731061","0.0-266.0-0.0","15022946","wem/bandit_party_2","A1VP12LE0ZWG24","either","3","334","","","","","","","1","0","0","0.6931961842","","0.8","0.6","0.2","0.4","","","","","0.7706853934","0.5583452501","0.5954484576","0.6931961842","","","","","","","","","","76","L","3","","","225","main_expt",""
"","bandit","305","732795","0.0-267.0-0.0","15022946","wem/bandit_party_2","A1VP12LE0ZWG24","either","3","189","","","","","","","0","1","0","","0.6633974694","0.8","0.6","0.2","0.4","0.7624197083","0.5126042404","0.6152447968","0.6633974694","","","","","","","","","","","","","","76","L","3","","","226","main_expt",""
"","bandit","306","734680","0.0-268.0-0.0","15022946","wem/bandit_party_2","A1VP12LE0ZWG24","either","3","306","","","","","","","0","0","1","0.6567175756","","0.8","0.6","0.2","0.4","","","","","0.7287840805","0.5720595628","0.6597553912","0.6567175756","","","","","","","","","","76","L","3","","","227","main_expt",""
"","bandit","307","736368","0.0-269.0-0.0","15022946","wem/bandit_party_2","A1VP12LE0ZWG24","either","3","126","","","","","","","0","0","1","0.6052730858","","0.8","0.6","0.2","0.4","","","","","0.7993891034","0.6134710885","0.594895186","0.6052730858","","","","","","","","","","76","L","3","","","228","main_expt",""
"","bandit","308","738254","0.0-270.0-0.0","15022946","wem/bandit_party_2","A1VP12LE0ZWG24","either","3","312","","","","","","","0","0","1","","0.5548990383","0.8","0.6","0.2","0.4","0.8374027748","0.5669106804","0.5722559027","0.5548990383","","","","","","","","","","","","","","76","L","3","","","229","main_expt",""
"","bandit","309","739832","0.0-271.0-0.0","15022946","wem/bandit_party_2","A1VP12LE0ZWG24","either","3","18","","","","","","","0","1","0","","0.5409090622","0.8","0.6","0.2","0.4","0.8414873787","0.6286782819","0.5409090622","0.6017114108","","","","","","","","","","","","","","75","K","2","","","230","main_expt",""
"","bandit","310","741673","0.0-272.0-0.0","15022946","wem/bandit_party_2","A1VP12LE0ZWG24","either","3","299","","","","","","","0","1","0","","0.518727512","0.8","0.6","0.2","0.4","0.8531648874","0.5594948871","0.518727512","0.5525336349","","","","","","","","","","","","","","75","K","2","","","231","main_expt",""
"","bandit","311","743576","0.0-273.0-0.0","15022946","wem/bandit_party_2","A1VP12LE0ZWG24","either","3","329","","","","","","","0","0","1","","0.5200298571","0.8","0.6","0.2","0.4","0.8813812612","0.5817998964","0.5200298571","0.4493361955","","","","","","","","","","","","","","75","K","2","","","232","main_expt",""
"","bandit","312","745431","0.0-274.0-0.0","15022946","wem/bandit_party_2","A1VP12LE0ZWG24","either","3","284","","","","","","","1","0","0","0.4564343731","","0.8","0.6","0.2","0.4","","","","","0.8916766345","0.5971875981","0.4564343731","0.5280832246","","","","","","","","","","75","K","2","","","233","main_expt",""
"","bandit","313","747072","0.0-275.0-0.0","15022946","wem/bandit_party_2","A1VP12LE0ZWG24","either","3","86","","","","","","","0","0","1","","0.4168065644","0.8","0.6","0.2","0.4","0.842820862","0.5227237997","0.4168065644","0.6814540918","","","","","","","","","","","","","","75","K","2","","","234","main_expt",""
"","bandit","314","748879","0.0-276.0-0.0","15022946","wem/bandit_party_2","A1VP12LE0ZWG24","either","3","258","","","","","","","0","0","1","","0.4340770274","0.8","0.6","0.2","0.4","0.7856269381","0.6231997156","0.4340770274","0.5518959403","","","","","","","","","","","","","","75","K","2","","","235","main_expt",""
"","bandit","315","750533","0.0-277.0-0.0","15022946","wem/bandit_party_2","A1VP12LE0ZWG24","either","3","82","","","","","","","0","0","1","","0.558272317","0.8","0.6","0.2","0.4","0.8092971262","0.558272317","0.4489205242","0.4965619817","","","","","","","","","","","","","","74","J","1","","","236","main_expt",""
"","bandit","316","753329","0.0-278.0-0.0","15022946","wem/bandit_party_2","A1VP12LE0ZWG24","either","3","1239","","","","","","","1","0","0","0.6118965497","","0.8","0.6","0.2","0.4","","","","","0.8125536838","0.6118965497","0.4838648791","0.4762879104","","","","","","","","","","74","J","1","","","237","main_expt",""
"","bandit","317","755152","0.0-279.0-0.0","15022946","wem/bandit_party_2","A1VP12LE0ZWG24","either","3","266","","","","","","","0","1","0","","0.7415542647","0.8","0.6","0.2","0.4","0.8684257659","0.7415542647","0.4615645545","0.4991976808","","","","","","","","","","","","","","74","J","1","","","238","main_expt",""
"","bandit","318","757040","0.0-280.0-0.0","15022946","wem/bandit_party_2","A1VP12LE0ZWG24","either","3","335","","","","","","","0","1","0","","0.794517608","0.8","0.6","0.2","0.4","0.8891050988","0.794517608","0.4263497721","0.4627972202","","","","","","","","","","","","","","74","J","1","","","239","main_expt",""
"","bandit","319","758871","0.0-281.0-0.0","15022946","wem/bandit_party_2","A1VP12LE0ZWG24","either","3","270","","","","","","","1","0","0","0.7966429163","","0.8","0.6","0.2","0.4","","","","","0.8983693474","0.7966429163","0.4372282776","0.484486763","","","","","","","","","","74","J","1","","","240","main_expt",""
