"consent","trial_type","trial_index","time_elapsed","internal_node_id","subjID","study","MID","cond","drift","rt","responses","button_pressed","key_press","like","value","connected","gems","bombs","no_reward","GemPrChosen","BombPrChosen","GainOverPainPr_0","GainOverPainPr_1","GainOverPainPr_2","GainOverPainPr_3","LosePr_0","LosePr_1","LosePr_2","LosePr_3","WinPr_0","WinPr_1","WinPr_2","WinPr_3","Q0","Q1","Q2","gender","age","ethnicity","label","expt_phase","target","respCharCode","respKey","respChoiceNum","respChoice","practice","trial_counter","trial_label","Q0_index"
"GDM/GDM_behavioral_consent_30min_online.html","consent","0","8612","0.0-0.0","15126203","wem/bandit_party_2","A3UV55HC87DO9C","either","8","","","","","","","","","","","","","","","","","","","","","","","","","","","","","","","","","","","","","","","","",""
"","survey-text","1","13975","0.0-1.0","15126203","wem/bandit_party_2","A3UV55HC87DO9C","either","8","4351","{""Q0"":""A3UV55HC87DO9C""}","","","","","","","","","","","","","","","","","","","","","","","","","","","","","","","","","","","","","","",""
"","button-response","2","16685","0.0-2.0","15126203","wem/bandit_party_2","A3UV55HC87DO9C","either","8","1701","","1","","","","","","","","","","","","","","","","","","","","","","","","","","","","","","","","","","","","","",""
"","text-replacement","3","22162","0.0-3.0","15126203","wem/bandit_party_2","A3UV55HC87DO9C","either","8","4470","","","32","","","","","","","","","","","","","","","","","","","","","","","","","","","","","","","","","","","","",""
"","text-replacement","4","27264","0.0-4.0","15126203","wem/bandit_party_2","A3UV55HC87DO9C","either","8","5100","","","32","","","","","","","","","","","","","","","","","","","","","","","","","","","","","","","","","","","","",""
"","identification","5","33817","0.0-6.0-0.0","15126203","wem/bandit_party_2","A3UV55HC87DO9C","either","8","6530","","","","5","5","5","","","","","","","","","","","","","","","","","","","","","","","","pre","identification_pre","the Democratic Party","","","","","","","",""
"","identification","6","40557","0.0-6.0-1.0","15126203","wem/bandit_party_2","A3UV55HC87DO9C","either","8","5723","","","","2","3","2","","","","","","","","","","","","","","","","","","","","","","","","pre","identification_pre","the Republican Party","","","","","","","",""
"","text-replacement","7","44648","0.0-7.0","15126203","wem/bandit_party_2","A3UV55HC87DO9C","either","8","3086","","","32","","","","","","","","","","","","","","","","","","","","","","","","","","","","","","","","","","","","",""
"","text-replacement","8","50008","0.0-8.0","15126203","wem/bandit_party_2","A3UV55HC87DO9C","either","8","5357","","","32","","","","","","","","","","","","","","","","","","","","","","","","","","","","","","","","","","","","",""
"","text-replacement","9","57824","0.0-9.0","15126203","wem/bandit_party_2","A3UV55HC87DO9C","either","8","7812","","","32","","","","","","","","","","","","","","","","","","","","","","","","","","","","","","","","","","","","",""
"","text-replacement","10","60312","0.0-10.0","15126203","wem/bandit_party_2","A3UV55HC87DO9C","either","8","2485","","","32","","","","","","","","","","","","","","","","","","","","","","","","","","","","","","","","","","","","",""
"","text-replacement","11","62151","0.0-11.0","15126203","wem/bandit_party_2","A3UV55HC87DO9C","either","8","1837","","","32","","","","","","","","","","","","","","","","","","","","","","","","","","","","","","","","","","","","",""
"","bandit","12","65200","0.0-12.0-0.0","15126203","wem/bandit_party_2","A3UV55HC87DO9C","either","8","1538","","","","","","","0","0","1","0","0","","","","","0","","","","0","","","","","","","","","","","","","74","J","0","img/none_selected_demo.jpg","true","0","",""
"","bandit","13","68054","0.0-13.0-0.0","15126203","wem/bandit_party_2","A3UV55HC87DO9C","either","8","1346","","","","","","","0","0","1","0","0","","","","","0","","","","0","","","","","","","","","","","","","75","K","0","img/none_selected_demo.jpg","true","0","",""
"","text-replacement","14","70223","0.0-14.0","15126203","wem/bandit_party_2","A3UV55HC87DO9C","either","8","2166","","","32","","","","","","","","","","","","","","","","","","","","","","","","","","","","","","","","","","","","",""
"","text-replacement","15","70855","0.0-15.0","15126203","wem/bandit_party_2","A3UV55HC87DO9C","either","8","628","","","32","","","","","","","","","","","","","","","","","","","","","","","","","","","","","","","","","","","","",""
"","text-replacement","16","71295","0.0-16.0","15126203","wem/bandit_party_2","A3UV55HC87DO9C","either","8","437","","","32","","","","","","","","","","","","","","","","","","","","","","","","","","","","","","","","","","","","",""
"","text-replacement","17","71879","0.0-17.0","15126203","wem/bandit_party_2","A3UV55HC87DO9C","either","8","581","","","32","","","","","","","","","","","","","","","","","","","","","","","","","","","","","","","","","","","","",""
"","bandit","18","74005","0.0-18.0-0.0","15126203","wem/bandit_party_2","A3UV55HC87DO9C","either","8","619","","","","","","","1","0","0","0.8","","0.5","0.5","","","","","","","0.8","0.2","","","","","","","","","","","","74","J","0","img/none_selected_demo.jpg","true","0","80_20_practice",""
"","bandit","19","75805","0.0-18.0-1.0","15126203","wem/bandit_party_2","A3UV55HC87DO9C","either","8","294","","","","","","","1","0","0","0.8","","0.5","0.5","","","","","","","0.8","0.2","","","","","","","","","","","","74","J","0","img/none_selected_demo.jpg","true","0","80_20_practice",""
"","bandit","20","77575","0.0-18.0-2.0","15126203","wem/bandit_party_2","A3UV55HC87DO9C","either","8","262","","","","","","","0","0","1","","0.2","0.5","0.5","","","0.8","0.2","","","","","","","","","","","","","","","","75","K","1","","true","0","80_20_practice",""
"","bandit","21","79445","0.0-18.0-3.0","15126203","wem/bandit_party_2","A3UV55HC87DO9C","either","8","362","","","","","","","0","0","1","","0.2","0.5","0.5","","","0.8","0.2","","","","","","","","","","","","","","","","75","K","1","","true","0","80_20_practice",""
"","bandit","22","81142","0.0-18.0-4.0","15126203","wem/bandit_party_2","A3UV55HC87DO9C","either","8","189","","","","","","","0","1","0","","0.8","0.5","0.5","","","0.8","0.2","","","","","","","","","","","","","","","","74","J","0","img/none_selected_demo.jpg","true","0","80_20_practice",""
"","bandit","23","82894","0.0-18.0-5.0","15126203","wem/bandit_party_2","A3UV55HC87DO9C","either","8","243","","","","","","","1","0","0","0.8","","0.5","0.5","","","","","","","0.8","0.2","","","","","","","","","","","","74","J","0","img/none_selected_demo.jpg","true","0","80_20_practice",""
"","bandit","24","84406","0.0-18.0-6.0","15126203","wem/bandit_party_2","A3UV55HC87DO9C","either","8","3","","","","","","","0","1","0","","0.8","0.5","0.5","","","0.8","0.2","","","","","","","","","","","","","","","","74","J","0","img/none_selected_demo.jpg","true","0","80_20_practice",""
"","bandit","25","87229","0.0-18.0-7.0","15126203","wem/bandit_party_2","A3UV55HC87DO9C","either","8","1316","","","","","","","1","0","0","0.8","","0.5","0.5","","","","","","","0.8","0.2","","","","","","","","","","","","74","J","0","img/none_selected_demo.jpg","true","0","80_20_practice",""
"","bandit","26","89029","0.0-18.0-8.0","15126203","wem/bandit_party_2","A3UV55HC87DO9C","either","8","293","","","","","","","1","0","0","0.2","","0.5","0.5","","","","","","","0.8","0.2","","","","","","","","","","","","75","K","1","","true","0","80_20_practice",""
"","bandit","27","90700","0.0-18.0-9.0","15126203","wem/bandit_party_2","A3UV55HC87DO9C","either","8","164","","","","","","","0","1","0","","0.2","0.5","0.5","","","0.8","0.2","","","","","","","","","","","","","","","","75","K","1","","true","0","80_20_practice",""
"","bandit","28","92397","0.0-18.0-10.0","15126203","wem/bandit_party_2","A3UV55HC87DO9C","either","8","188","","","","","","","0","0","1","","0.2","0.5","0.5","","","0.8","0.2","","","","","","","","","","","","","","","","75","K","1","","true","0","80_20_practice",""
"","bandit","29","94046","0.0-18.0-11.0","15126203","wem/bandit_party_2","A3UV55HC87DO9C","either","8","140","","","","","","","0","1","0","","0.8","0.5","0.5","","","0.8","0.2","","","","","","","","","","","","","","","","74","J","0","img/none_selected_demo.jpg","true","0","80_20_practice",""
"","bandit","30","95637","0.0-18.0-12.0","15126203","wem/bandit_party_2","A3UV55HC87DO9C","either","8","83","","","","","","","0","0","1","","0.2","0.5","0.5","","","0.8","0.2","","","","","","","","","","","","","","","","75","K","1","","true","0","80_20_practice",""
"","bandit","31","97269","0.0-18.0-13.0","15126203","wem/bandit_party_2","A3UV55HC87DO9C","either","8","124","","","","","","","0","1","0","","0.8","0.5","0.5","","","0.8","0.2","","","","","","","","","","","","","","","","74","J","0","img/none_selected_demo.jpg","true","0","80_20_practice",""
"","bandit","32","98780","0.0-18.0-14.0","15126203","wem/bandit_party_2","A3UV55HC87DO9C","either","8","3","","","","","","","0","1","0","","0.8","0.5","0.5","","","0.8","0.2","","","","","","","","","","","","","","","","74","J","0","img/none_selected_demo.jpg","true","0","80_20_practice",""
"","bandit","33","101564","0.0-18.0-15.0","15126203","wem/bandit_party_2","A3UV55HC87DO9C","either","8","1277","","","","","","","1","0","0","0.8","","0.5","0.5","","","","","","","0.8","0.2","","","","","","","","","","","","74","J","0","img/none_selected_demo.jpg","true","0","80_20_practice",""
"","bandit","34","103247","0.0-18.0-16.0","15126203","wem/bandit_party_2","A3UV55HC87DO9C","either","8","173","","","","","","","0","1","0","","0.8","0.5","0.5","","","0.8","0.2","","","","","","","","","","","","","","","","74","J","0","img/none_selected_demo.jpg","true","0","80_20_practice",""
"","bandit","35","104804","0.0-18.0-17.0","15126203","wem/bandit_party_2","A3UV55HC87DO9C","either","8","49","","","","","","","0","1","0","","0.8","0.5","0.5","","","0.8","0.2","","","","","","","","","","","","","","","","74","J","0","img/none_selected_demo.jpg","true","0","80_20_practice",""
"","bandit","36","106339","0.0-18.0-18.0","15126203","wem/bandit_party_2","A3UV55HC87DO9C","either","8","27","","","","","","","0","1","0","","0.8","0.5","0.5","","","0.8","0.2","","","","","","","","","","","","","","","","74","J","0","img/none_selected_demo.jpg","true","0","80_20_practice",""
"","bandit","37","109516","0.0-18.0-19.0","15126203","wem/bandit_party_2","A3UV55HC87DO9C","either","8","1670","","","","","","","0","0","1","0.8","","0.5","0.5","","","","","","","0.8","0.2","","","","","","","","","","","","74","J","0","img/none_selected_demo.jpg","true","0","80_20_practice",""
"","text-replacement","38","112958","0.0-19.0","15126203","wem/bandit_party_2","A3UV55HC87DO9C","either","8","3438","","","32","","","","","","","","","","","","","","","","","","","","","","","","","","","","","","","","","","","","",""
"","bandit","39","116524","0.0-20.0-0.0","15126203","wem/bandit_party_2","A3UV55HC87DO9C","either","8","2058","","","","","","","1","0","0","1","0","","","","","0","1","","","1","0","","","","","","","","","","","","74","J","0","img/none_selected_demo.jpg","true","0","",""
"","text-replacement","40","122765","0.0-21.0","15126203","wem/bandit_party_2","A3UV55HC87DO9C","either","8","6236","","","32","","","","","","","","","","","","","","","","","","","","","","","","","","","","","","","","","","","","",""
"","text-replacement","41","126557","0.0-22.0","15126203","wem/bandit_party_2","A3UV55HC87DO9C","either","8","3787","","","32","","","","","","","","","","","","","","","","","","","","","","","","","","","","","","","","","","","","",""
"","text-replacement","42","127973","0.0-23.0","15126203","wem/bandit_party_2","A3UV55HC87DO9C","either","8","1412","","","32","","","","","","","","","","","","","","","","","","","","","","","","","","","","","","","","","","","","",""
"","text-replacement","43","130125","0.0-24.0","15126203","wem/bandit_party_2","A3UV55HC87DO9C","either","8","2148","","","32","","","","","","","","","","","","","","","","","","","","","","","","","","","","","","","","","","","","",""
"","text-replacement","44","131445","0.0-25.0","15126203","wem/bandit_party_2","A3UV55HC87DO9C","either","8","1315","","","32","","","","","","","","","","","","","","","","","","","","","","","","","","","","","","","","","","","","",""
"","text-replacement","45","132077","0.0-26.0","15126203","wem/bandit_party_2","A3UV55HC87DO9C","either","8","627","","","32","","","","","","","","","","","","","","","","","","","","","","","","","","","","","","","","","","","","",""
"","text-replacement","46","132894","0.0-27.0","15126203","wem/bandit_party_2","A3UV55HC87DO9C","either","8","810","","","32","","","","","","","","","","","","","","","","","","","","","","","","","","","","","","","","","","","","",""
"","text-replacement","47","133421","0.0-28.0","15126203","wem/bandit_party_2","A3UV55HC87DO9C","either","8","523","","","32","","","","","","","","","","","","","","","","","","","","","","","","","","","","","","","","","","","","",""
"","text-replacement","48","133789","0.0-29.0","15126203","wem/bandit_party_2","A3UV55HC87DO9C","either","8","364","","","32","","","","","","","","","","","","","","","","","","","","","","","","","","","","","","","","","","","","",""
"","text-replacement","49","134125","0.0-30.0","15126203","wem/bandit_party_2","A3UV55HC87DO9C","either","8","332","","","32","","","","","","","","","","","","","","","","","","","","","","","","","","","","","","","","","","","","",""
"","text-replacement","50","135933","0.0-31.0","15126203","wem/bandit_party_2","A3UV55HC87DO9C","either","8","1804","","","32","","","","","","","","","","","","","","","","","","","","","","","","","","","","","","","","","","","","",""
"","bandit","51","138252","0.0-32.0-0.0","15126203","wem/bandit_party_2","A3UV55HC87DO9C","either","8","809","","","","","","","0","0","1","0.2","","0.5","0.5","0.5","0.5","","","","","0.8","0.2","0.6","0.2","","","","","","","","","","74","J","1","","true","0","full_practice",""
"","bandit","52","139789","0.0-32.0-1.0","15126203","wem/bandit_party_2","A3UV55HC87DO9C","either","8","27","","","","","","","0","1","0","","0.8","0.5","0.5","0.5","0.5","0.8","0.2","0.6","0.2","","","","","","","","","","","","","","72","H","0","img/none_selected.jpg","true","0","full_practice",""
"","bandit","53","141332","0.0-32.0-2.0","15126203","wem/bandit_party_2","A3UV55HC87DO9C","either","8","35","","","","","","","0","0","1","","0.6","0.5","0.5","0.5","0.5","0.8","0.2","0.6","0.2","","","","","","","","","","","","","","75","K","2","","true","0","full_practice",""
"","bandit","54","142860","0.0-32.0-3.0","15126203","wem/bandit_party_2","A3UV55HC87DO9C","either","8","19","","","","","","","0","0","1","","0.2","0.5","0.5","0.5","0.5","0.8","0.2","0.6","0.2","","","","","","","","","","","","","","76","L","3","","true","0","full_practice",""
"","bandit","55","144680","0.0-32.0-4.0","15126203","wem/bandit_party_2","A3UV55HC87DO9C","either","8","310","","","","","","","1","0","0","0.8","","0.5","0.5","0.5","0.5","","","","","0.8","0.2","0.6","0.2","","","","","","","","","","72","H","0","img/none_selected.jpg","true","0","full_practice",""
"","bandit","56","146276","0.0-32.0-5.0","15126203","wem/bandit_party_2","A3UV55HC87DO9C","either","8","86","","","","","","","0","0","1","0.8","","0.5","0.5","0.5","0.5","","","","","0.8","0.2","0.6","0.2","","","","","","","","","","72","H","0","img/none_selected.jpg","true","0","full_practice",""
"","bandit","57","147876","0.0-32.0-6.0","15126203","wem/bandit_party_2","A3UV55HC87DO9C","either","8","88","","","","","","","0","1","0","","0.6","0.5","0.5","0.5","0.5","0.8","0.2","0.6","0.2","","","","","","","","","","","","","","75","K","2","","true","0","full_practice",""
"","bandit","58","149404","0.0-32.0-7.0","15126203","wem/bandit_party_2","A3UV55HC87DO9C","either","8","18","","","","","","","0","0","1","0.2","","0.5","0.5","0.5","0.5","","","","","0.8","0.2","0.6","0.2","","","","","","","","","","74","J","1","","true","0","full_practice",""
"","bandit","59","151044","0.0-32.0-8.0","15126203","wem/bandit_party_2","A3UV55HC87DO9C","either","8","130","","","","","","","0","1","0","","0.8","0.5","0.5","0.5","0.5","0.8","0.2","0.6","0.2","","","","","","","","","","","","","","72","H","0","img/none_selected.jpg","true","0","full_practice",""
"","bandit","60","152564","0.0-32.0-9.0","15126203","wem/bandit_party_2","A3UV55HC87DO9C","either","8","10","","","","","","","0","0","1","","0.8","0.5","0.5","0.5","0.5","0.8","0.2","0.6","0.2","","","","","","","","","","","","","","72","H","0","img/none_selected.jpg","true","0","full_practice",""
"","bandit","61","154115","0.0-32.0-10.0","15126203","wem/bandit_party_2","A3UV55HC87DO9C","either","8","43","","","","","","","0","1","0","","0.6","0.5","0.5","0.5","0.5","0.8","0.2","0.6","0.2","","","","","","","","","","","","","","75","K","2","","true","0","full_practice",""
"","bandit","62","155814","0.0-32.0-11.0","15126203","wem/bandit_party_2","A3UV55HC87DO9C","either","8","187","","","","","","","0","0","1","0.6","","0.5","0.5","0.5","0.5","","","","","0.8","0.2","0.6","0.2","","","","","","","","","","75","K","2","","true","0","full_practice",""
"","bandit","63","157443","0.0-32.0-12.0","15126203","wem/bandit_party_2","A3UV55HC87DO9C","either","8","120","","","","","","","0","0","1","","0.6","0.5","0.5","0.5","0.5","0.8","0.2","0.6","0.2","","","","","","","","","","","","","","75","K","2","","true","0","full_practice",""
"","bandit","64","159091","0.0-32.0-13.0","15126203","wem/bandit_party_2","A3UV55HC87DO9C","either","8","136","","","","","","","0","0","1","","0.2","0.5","0.5","0.5","0.5","0.8","0.2","0.6","0.2","","","","","","","","","","","","","","76","L","3","","true","0","full_practice",""
"","bandit","65","160759","0.0-32.0-14.0","15126203","wem/bandit_party_2","A3UV55HC87DO9C","either","8","155","","","","","","","1","0","0","0.8","","0.5","0.5","0.5","0.5","","","","","0.8","0.2","0.6","0.2","","","","","","","","","","72","H","0","img/none_selected.jpg","true","0","full_practice",""
"","bandit","66","162451","0.0-32.0-15.0","15126203","wem/bandit_party_2","A3UV55HC87DO9C","either","8","182","","","","","","","0","1","0","","0.8","0.5","0.5","0.5","0.5","0.8","0.2","0.6","0.2","","","","","","","","","","","","","","72","H","0","img/none_selected.jpg","true","0","full_practice",""
"","bandit","67","164802","0.0-32.0-16.0","15126203","wem/bandit_party_2","A3UV55HC87DO9C","either","8","841","","","","","","","1","0","0","0.8","","0.5","0.5","0.5","0.5","","","","","0.8","0.2","0.6","0.2","","","","","","","","","","72","H","0","img/none_selected.jpg","true","0","full_practice",""
"","bandit","68","166932","0.0-32.0-17.0","15126203","wem/bandit_party_2","A3UV55HC87DO9C","either","8","619","","","","","","","1","0","0","0.8","","0.5","0.5","0.5","0.5","","","","","0.8","0.2","0.6","0.2","","","","","","","","","","72","H","0","img/none_selected.jpg","true","0","full_practice",""
"","bandit","69","168603","0.0-32.0-18.0","15126203","wem/bandit_party_2","A3UV55HC87DO9C","either","8","159","","","","","","","0","1","0","","0.8","0.5","0.5","0.5","0.5","0.8","0.2","0.6","0.2","","","","","","","","","","","","","","72","H","0","img/none_selected.jpg","true","0","full_practice",""
"","bandit","70","170238","0.0-32.0-19.0","15126203","wem/bandit_party_2","A3UV55HC87DO9C","either","8","123","","","","","","","0","0","1","","0.8","0.5","0.5","0.5","0.5","0.8","0.2","0.6","0.2","","","","","","","","","","","","","","72","H","0","img/none_selected.jpg","true","0","full_practice",""
"","text","71","172773","0.0-33.0","15126203","wem/bandit_party_2","A3UV55HC87DO9C","either","8","2515","","","32","","","","","","","","","","","","","","","","","","","","","","","","","","","","","","","","","","","","",""
"","text-replacement","72","186260","0.0-34.0","15126203","wem/bandit_party_2","A3UV55HC87DO9C","either","8","12479","","","32","","","","","","","","","","","","","","","","","","","","","","","","","","","","","","","","","","","","",""
"","text-replacement","73","188763","0.0-35.0","15126203","wem/bandit_party_2","A3UV55HC87DO9C","either","8","2497","","","32","","","","","","","","","","","","","","","","","","","","","","","","","","","","","","","","","","","","",""
"","text-replacement","74","189307","0.0-36.0","15126203","wem/bandit_party_2","A3UV55HC87DO9C","either","8","537","","","32","","","","","","","","","","","","","","","","","","","","","","","","","","","","","","","","","","","","",""
"","text-replacement","75","189692","0.0-37.0","15126203","wem/bandit_party_2","A3UV55HC87DO9C","either","8","379","","","32","","","","","","","","","","","","","","","","","","","","","","","","","","","","","","","","","","","","",""
"","text-replacement","76","190091","0.0-38.0","15126203","wem/bandit_party_2","A3UV55HC87DO9C","either","8","394","","","32","","","","","","","","","","","","","","","","","","","","","","","","","","","","","","","","","","","","",""
"","survey-multi-choice-replacement","77","195678","0.0-39.0-0.0","15126203","wem/bandit_party_2","A3UV55HC87DO9C","either","8","5570","","","","","","","","","","","","","","","","","","","","","","","","Money will be added to the pool for <span style='color:blue;'>DEMOCRATS</span>","","","","","","","attn_check","","","","","","","","","0"
"","survey-multi-choice-replacement","78","201292","0.0-40.0-0.0","15126203","wem/bandit_party_2","A3UV55HC87DO9C","either","8","4591","","","","","","","","","","","","","","","","","","","","","","","","Equal amounts of money will be added to the pool for <span style='color:blue;'>DEMOCRATS</span> and subtracted from the pool for <span style='color:red;'>REPUBLICANS</span>","","","","","","","attn_check","","","","","","","","","2"
"","survey-multi-choice-replacement","79","205132","0.0-41.0-0.0","15126203","wem/bandit_party_2","A3UV55HC87DO9C","either","8","2815","","","","","","","","","","","","","","","","","","","","","","","","No money will be added to either pool","","","","","","","attn_check","","","","","","","","","3"
"","bandit","80","209242","0.0-42.0-0.0","15126203","wem/bandit_party_2","A3UV55HC87DO9C","either","8","1587","","","","","","","1","0","0","0.2428949588","","0.6","0.4","0.8","0.2","","","","","0.2428949588","0.6337563202","0.3040937467","0.4468950172","","","","","","","","","","72","H","0","img/none_selected.jpg","","1","main_expt",""
"","bandit","81","211154","0.0-43.0-0.0","15126203","wem/bandit_party_2","A3UV55HC87DO9C","either","8","401","","","","","","","0","0","1","0.248961424","","0.6","0.4","0.8","0.2","","","","","0.248961424","0.7380673114","0.2687625136","0.3846124694","","","","","","","","","","72","H","0","img/none_selected.jpg","","2","main_expt",""
"","bandit","82","212890","0.0-44.0-0.0","15126203","wem/bandit_party_2","A3UV55HC87DO9C","either","8","224","","","","","","","0","0","1","0.7715549737","","0.6","0.4","0.8","0.2","","","","","0.1878604038","0.7715549737","0.3017919557","0.3885967974","","","","","","","","","","74","J","1","","","3","main_expt",""
"","bandit","83","214529","0.0-45.0-0.0","15126203","wem/bandit_party_2","A3UV55HC87DO9C","either","8","128","","","","","","","0","0","1","0.3388517529","","0.6","0.4","0.8","0.2","","","","","0.1194049449","0.8257013646","0.3388517529","0.2891644394","","","","","","","","","","75","K","2","","","4","main_expt",""
"","bandit","84","216171","0.0-46.0-0.0","15126203","wem/bandit_party_2","A3UV55HC87DO9C","either","8","130","","","","","","","0","0","1","","0.2654579937","0.6","0.4","0.8","0.2","0.197046458","0.8617886559","0.389096829","0.2654579937","","","","","","","","","","","","","","76","L","3","","","5","main_expt",""
"","bandit","85","217801","0.0-47.0-0.0","15126203","wem/bandit_party_2","A3UV55HC87DO9C","either","8","119","","","","","","","0","0","1","","0.2312720201","0.6","0.4","0.8","0.2","0.2312720201","0.8452125903","0.4799636182","0.355160999","","","","","","","","","","","","","","72","H","0","img/none_selected.jpg","","6","main_expt",""
"","bandit","86","219514","0.0-48.0-0.0","15126203","wem/bandit_party_2","A3UV55HC87DO9C","either","8","201","","","","","","","0","0","1","0.3255591742","","0.6","0.4","0.8","0.2","","","","","0.3255591742","0.8765288384","0.5316557606","0.4733904832","","","","","","","","","","72","H","0","img/none_selected.jpg","","7","main_expt",""
"","bandit","87","221130","0.0-49.0-0.0","15126203","wem/bandit_party_2","A3UV55HC87DO9C","either","8","103","","","","","","","0","0","1","0.163151729","","0.6","0.4","0.8","0.2","","","","","0.163151729","0.8625068071","0.4935712437","0.4900136729","","","","","","","","","","72","H","0","img/none_selected.jpg","","8","main_expt",""
"","bandit","88","222697","0.0-50.0-0.0","15126203","wem/bandit_party_2","A3UV55HC87DO9C","either","8","55","","","","","","","0","0","1","0.1671639775","","0.6","0.4","0.8","0.2","","","","","0.1671639775","0.8385781597","0.5400450001","0.4543552171","","","","","","","","","","72","H","0","img/none_selected.jpg","","9","main_expt",""
"","bandit","89","224241","0.0-51.0-0.0","15126203","wem/bandit_party_2","A3UV55HC87DO9C","either","8","31","","","","","","","0","0","1","","0.833356221","0.6","0.4","0.8","0.2","0.1315225434","0.833356221","0.6510952772","0.4523920981","","","","","","","","","","","","","","74","J","1","","","10","main_expt",""
"","bandit","90","225866","0.0-52.0-0.0","15126203","wem/bandit_party_2","A3UV55HC87DO9C","either","8","113","","","","","","","1","0","0","0.6117649901","","0.6","0.4","0.8","0.2","","","","","0.1287002637","0.9030756702","0.6117649901","0.4053083118","","","","","","","","","","75","K","2","","","11","main_expt",""
"","bandit","91","227481","0.0-53.0-0.0","15126203","wem/bandit_party_2","A3UV55HC87DO9C","either","8","105","","","","","","","1","0","0","0.6360746298","","0.6","0.4","0.8","0.2","","","","","0.1026596936","0.9129290363","0.6360746298","0.4059907931","","","","","","","","","","75","K","2","","","12","main_expt",""
"","bandit","92","229289","0.0-54.0-0.0","15126203","wem/bandit_party_2","A3UV55HC87DO9C","either","8","297","","","","","","","1","0","0","0.5673960652","","0.6","0.4","0.8","0.2","","","","","0.1287514256","0.8638417716","0.5673960652","0.2934167972","","","","","","","","","","75","K","2","","","13","main_expt",""
"","bandit","93","231002","0.0-55.0-0.0","15126203","wem/bandit_party_2","A3UV55HC87DO9C","either","8","202","","","","","","","1","0","0","0.6747725803","","0.6","0.4","0.8","0.2","","","","","0.1786171179","0.787806988","0.6747725803","0.3260927596","","","","","","","","","","75","K","2","","","14","main_expt",""
"","bandit","94","232625","0.0-56.0-0.0","15126203","wem/bandit_party_2","A3UV55HC87DO9C","either","8","111","","","","","","","0","0","1","0.6277188345","","0.6","0.4","0.8","0.2","","","","","0.1459410532","0.7254212376","0.6277188345","0.3355382734","","","","","","","","","","75","K","2","","","15","main_expt",""
"","bandit","95","234177","0.0-57.0-0.0","15126203","wem/bandit_party_2","A3UV55HC87DO9C","either","8","40","","","","","","","0","0","1","","0.3040928121","0.6","0.4","0.8","0.2","0.2255600906","0.7238415528","0.5435568235","0.3040928121","","","","","","","","","","","","","","76","L","3","","","16","main_expt",""
"","bandit","96","235817","0.0-58.0-0.0","15126203","wem/bandit_party_2","A3UV55HC87DO9C","either","8","128","","","","","","","0","0","1","0.4180161478","","0.6","0.4","0.8","0.2","","","","","0.2052013943","0.7796243455","0.4180161478","0.2730366263","","","","","","","","","","75","K","2","","","17","main_expt",""
"","bandit","97","237498","0.0-59.0-0.0","15126203","wem/bandit_party_2","A3UV55HC87DO9C","either","8","170","","","","","","","0","0","1","0.6928902724","","0.6","0.4","0.8","0.2","","","","","0.1780354615","0.6928902724","0.4961111773","0.4105298721","","","","","","","","","","74","J","1","","","18","main_expt",""
"","bandit","98","239033","0.0-60.0-0.0","15126203","wem/bandit_party_2","A3UV55HC87DO9C","either","8","23","","","","","","","0","0","1","0.1576496117","","0.6","0.4","0.8","0.2","","","","","0.1576496117","0.7658630901","0.445530788","0.3586923344","","","","","","","","","","72","H","0","img/none_selected.jpg","","19","main_expt",""
"","bandit","99","240699","0.0-61.0-0.0","15126203","wem/bandit_party_2","A3UV55HC87DO9C","either","8","151","","","","","","","0","0","1","0.1618752313","","0.6","0.4","0.8","0.2","","","","","0.1618752313","0.7584200513","0.3443163705","0.3220075653","","","","","","","","","","72","H","0","img/none_selected.jpg","","20","main_expt",""
"","bandit","100","242425","0.0-62.0-0.0","15126203","wem/bandit_party_2","A3UV55HC87DO9C","either","8","213","","","","","","","0","0","1","0.3012808647","","0.6","0.4","0.8","0.2","","","","","0.2152187387","0.7727038765","0.3012808647","0.2729660799","","","","","","","","","","75","K","2","","","21","main_expt",""
"","bandit","101","244265","0.0-63.0-0.0","15126203","wem/bandit_party_2","A3UV55HC87DO9C","either","8","328","","","","","","","0","0","1","","0.2712352107","0.6","0.4","0.8","0.2","0.3547982299","0.8152565923","0.2882062485","0.2712352107","","","","","","","","","","","","","","76","L","3","","","22","main_expt",""
"","bandit","102","245793","0.0-64.0-0.0","15126203","wem/bandit_party_2","A3UV55HC87DO9C","either","8","15","","","","","","","0","0","1","","0.3390855774","0.6","0.4","0.8","0.2","0.323805638","0.7537075358","0.2113421372","0.3390855774","","","","","","","","","","","","","","76","L","3","","","23","main_expt",""
"","bandit","103","247704","0.0-65.0-0.0","15126203","wem/bandit_party_2","A3UV55HC87DO9C","either","8","399","","","","","","","0","1","0","","0.7108822858","0.6","0.4","0.8","0.2","0.3588909826","0.7108822858","0.2201805416","0.3483259141","","","","","","","","","","","","","","74","J","1","","","24","main_expt",""
"","bandit","104","249323","0.0-66.0-0.0","15126203","wem/bandit_party_2","A3UV55HC87DO9C","either","8","105","","","","","","","1","0","0","0.6930515954","","0.6","0.4","0.8","0.2","","","","","0.3885553436","0.6930515954","0.2580956466","0.3416976173","","","","","","","","","","74","J","1","","","25","main_expt",""
"","bandit","105","250867","0.0-67.0-0.0","15126203","wem/bandit_party_2","A3UV55HC87DO9C","either","8","29","","","","","","","0","1","0","","0.6905393417","0.6","0.4","0.8","0.2","0.4871556374","0.6905393417","0.2153432854","0.4243476322","","","","","","","","","","","","","","74","J","1","","","26","main_expt",""
"","bandit","106","252465","0.0-68.0-0.0","15126203","wem/bandit_party_2","A3UV55HC87DO9C","either","8","83","","","","","","","0","1","0","","0.7531652131","0.6","0.4","0.8","0.2","0.4934119911","0.7531652131","0.1727955236","0.5257754898","","","","","","","","","","","","","","74","J","1","","","27","main_expt",""
"","bandit","107","254000","0.0-69.0-0.0","15126203","wem/bandit_party_2","A3UV55HC87DO9C","either","8","22","","","","","","","0","1","0","","0.8001777041","0.6","0.4","0.8","0.2","0.4322092846","0.8001777041","0.1894296703","0.5246232361","","","","","","","","","","","","","","74","J","1","","","28","main_expt",""
"","bandit","108","255617","0.0-70.0-0.0","15126203","wem/bandit_party_2","A3UV55HC87DO9C","either","8","103","","","","","","","1","0","0","0.8118404327","","0.6","0.4","0.8","0.2","","","","","0.3459113699","0.8118404327","0.2128919211","0.375994784","","","","","","","","","","74","J","1","","","29","main_expt",""
"","bandit","109","257216","0.0-71.0-0.0","15126203","wem/bandit_party_2","A3UV55HC87DO9C","either","8","85","","","","","","","0","1","0","","0.7839534503","0.6","0.4","0.8","0.2","0.280789843","0.7839534503","0.206056468","0.2936890161","","","","","","","","","","","","","","74","J","1","","","30","main_expt",""
"","bandit","110","258786","0.0-72.0-0.0","15126203","wem/bandit_party_2","A3UV55HC87DO9C","either","8","55","","","","","","","0","1","0","","0.8066372971","0.6","0.4","0.8","0.2","0.2613810438","0.8066372971","0.1725623241","0.2878812258","","","","","","","","","","","","","","74","J","1","","","31","main_expt",""
"","bandit","111","260400","0.0-73.0-0.0","15126203","wem/bandit_party_2","A3UV55HC87DO9C","either","8","100","","","","","","","0","1","0","","0.8049259064","0.6","0.4","0.8","0.2","0.3821585683","0.8049259064","0.1629883914","0.2451492808","","","","","","","","","","","","","","74","J","1","","","32","main_expt",""
"","bandit","112","261970","0.0-74.0-0.0","15126203","wem/bandit_party_2","A3UV55HC87DO9C","either","8","55","","","","","","","0","0","1","0.7891664673","","0.6","0.4","0.8","0.2","","","","","0.2714925976","0.7891664673","0.2107911223","0.2802113289","","","","","","","","","","74","J","1","","","33","main_expt",""
"","bandit","113","263601","0.0-75.0-0.0","15126203","wem/bandit_party_2","A3UV55HC87DO9C","either","8","116","","","","","","","0","0","1","0.2755575364","","0.6","0.4","0.8","0.2","","","","","0.2755575364","0.7854278051","0.1025901997","0.2892342718","","","","","","","","","","72","H","0","img/none_selected.jpg","","34","main_expt",""
"","bandit","114","265122","0.0-76.0-0.0","15126203","wem/bandit_party_2","A3UV55HC87DO9C","either","8","5","","","","","","","0","0","1","0.1289879153","","0.6","0.4","0.8","0.2","","","","","0.2697856654","0.7260182018","0.1289879153","0.2486893666","","","","","","","","","","75","K","2","","","35","main_expt",""
"","bandit","115","266736","0.0-77.0-0.0","15126203","wem/bandit_party_2","A3UV55HC87DO9C","either","8","100","","","","","","","1","0","0","0.3536408983","","0.6","0.4","0.8","0.2","","","","","0.2483646443","0.7910957192","0.1645491317","0.3536408983","","","","","","","","","","76","L","3","","","36","main_expt",""
"","bandit","116","268272","0.0-78.0-0.0","15126203","wem/bandit_party_2","A3UV55HC87DO9C","either","8","20","","","","","","","0","0","1","","0.2493566902","0.6","0.4","0.8","0.2","0.2103950957","0.7996551039","0.1698046746","0.2493566902","","","","","","","","","","","","","","76","L","3","","","37","main_expt",""
"","bandit","117","269834","0.0-79.0-0.0","15126203","wem/bandit_party_2","A3UV55HC87DO9C","either","8","47","","","","","","","0","0","1","","0.2948354516","0.6","0.4","0.8","0.2","0.2128944509","0.6717479894","0.2281502886","0.2948354516","","","","","","","","","","","","","","76","L","3","","","38","main_expt",""
"","bandit","118","271849","0.0-80.0-0.0","15126203","wem/bandit_party_2","A3UV55HC87DO9C","either","8","501","","","","","","","0","1","0","","0.7121128808","0.6","0.4","0.8","0.2","0.2965153327","0.7121128808","0.1561271762","0.3373274679","","","","","","","","","","","","","","74","J","1","","","39","main_expt",""
"","bandit","119","273464","0.0-81.0-0.0","15126203","wem/bandit_party_2","A3UV55HC87DO9C","either","8","100","","","","","","","0","1","0","","0.7157410044","0.6","0.4","0.8","0.2","0.4447532253","0.7157410044","0.1543620621","0.4138768052","","","","","","","","","","","","","","74","J","1","","","40","main_expt",""
"","bandit","120","275144","0.0-82.0-0.0","15126203","wem/bandit_party_2","A3UV55HC87DO9C","either","8","163","","","","","","","0","0","1","0.681196038","","0.6","0.4","0.8","0.2","","","","","0.5330008696","0.681196038","0.2271499981","0.438096834","","","","","","","","","","74","J","1","","","41","main_expt",""
"","bandit","121","276711","0.0-83.0-0.0","15126203","wem/bandit_party_2","A3UV55HC87DO9C","either","8","53","","","","","","","0","0","1","","0.6504320647","0.6","0.4","0.8","0.2","0.573861049","0.6504320647","0.2882452936","0.4185173612","","","","","","","","","","","","","","74","J","1","","","42","main_expt",""
"","bandit","122","278400","0.0-84.0-0.0","15126203","wem/bandit_party_2","A3UV55HC87DO9C","either","8","174","","","","","","","0","0","1","","0.7369830744","0.6","0.4","0.8","0.2","0.6654349765","0.7369830744","0.298522686","0.3796335567","","","","","","","","","","","","","","74","J","1","","","43","main_expt",""
"","bandit","123","279919","0.0-85.0-0.0","15126203","wem/bandit_party_2","A3UV55HC87DO9C","either","8","4","","","","","","","0","1","0","","0.31766129","0.6","0.4","0.8","0.2","0.691198465","0.6797935378","0.3188886026","0.31766129","","","","","","","","","","","","","","76","L","3","","","44","main_expt",""
"","bandit","124","281560","0.0-86.0-0.0","15126203","wem/bandit_party_2","A3UV55HC87DO9C","either","8","127","","","","","","","0","0","1","","0.4047397141","0.6","0.4","0.8","0.2","0.7652674903","0.6507473666","0.2705760174","0.4047397141","","","","","","","","","","","","","","76","L","3","","","45","main_expt",""
"","bandit","125","283074","0.0-87.0-0.0","15126203","wem/bandit_party_2","A3UV55HC87DO9C","either","8","0","","","","","","","0","0","1","0.4961613307","","0.6","0.4","0.8","0.2","","","","","0.8065230058","0.6334510787","0.2506880939","0.4961613307","","","","","","","","","","76","L","3","","","46","main_expt",""
"","bandit","126","284705","0.0-88.0-0.0","15126203","wem/bandit_party_2","A3UV55HC87DO9C","either","8","118","","","","","","","0","0","1","0.2491585872","","0.6","0.4","0.8","0.2","","","","","0.7774474893","0.6143175143","0.2491585872","0.4624468315","","","","","","","","","","75","K","2","","","47","main_expt",""
"","bandit","127","286425","0.0-89.0-0.0","15126203","wem/bandit_party_2","A3UV55HC87DO9C","either","8","204","","","","","","","0","1","0","","0.7693176975","0.6","0.4","0.8","0.2","0.7693176975","0.6404512611","0.1997021219","0.4886537242","","","","","","","","","","","","","","72","H","0","img/none_selected.jpg","","48","main_expt",""
"","bandit","128","288120","0.0-90.0-0.0","15126203","wem/bandit_party_2","A3UV55HC87DO9C","either","8","178","","","","","","","1","0","0","0.807419373","","0.6","0.4","0.8","0.2","","","","","0.807419373","0.6758621215","0.2119577724","0.4270302022","","","","","","","","","","72","H","0","img/none_selected.jpg","","49","main_expt",""
"","bandit","129","289799","0.0-91.0-0.0","15126203","wem/bandit_party_2","A3UV55HC87DO9C","either","8","164","","","","","","","0","1","0","","0.8562769227","0.6","0.4","0.8","0.2","0.8562769227","0.6873234502","0.2615271711","0.5151345658","","","","","","","","","","","","","","72","H","0","img/none_selected.jpg","","50","main_expt",""
"","bandit","130","291317","0.0-92.0-0.0","15126203","wem/bandit_party_2","A3UV55HC87DO9C","either","8","5","","","","","","","0","1","0","","0.8705114925","0.6","0.4","0.8","0.2","0.8705114925","0.7776044395","0.2764427577","0.5134524181","","","","","","","","","","","","","","72","H","0","img/none_selected.jpg","","51","main_expt",""
"","bandit","131","293175","0.0-93.0-0.0","15126203","wem/bandit_party_2","A3UV55HC87DO9C","either","8","344","","","","","","","1","0","0","0.9310361031","","0.6","0.4","0.8","0.2","","","","","0.9310361031","0.8403410939","0.3833776697","0.4842684999","","","","","","","","","","72","H","0","img/none_selected.jpg","","52","main_expt",""
"","bandit","132","294863","0.0-94.0-0.0","15126203","wem/bandit_party_2","A3UV55HC87DO9C","either","8","172","","","","","","","1","0","0","0.905794742","","0.6","0.4","0.8","0.2","","","","","0.905794742","0.8151983534","0.4356502318","0.4412850773","","","","","","","","","","72","H","0","img/none_selected.jpg","","53","main_expt",""
"","bandit","133","296567","0.0-95.0-0.0","15126203","wem/bandit_party_2","A3UV55HC87DO9C","either","8","190","","","","","","","1","0","0","0.9391541593","","0.6","0.4","0.8","0.2","","","","","0.9391541593","0.8081222638","0.4120588364","0.4397693946","","","","","","","","","","72","H","0","img/none_selected.jpg","","54","main_expt",""
"","bandit","134","298160","0.0-96.0-0.0","15126203","wem/bandit_party_2","A3UV55HC87DO9C","either","8","77","","","","","","","1","0","0","0.9596285882","","0.6","0.4","0.8","0.2","","","","","0.9596285882","0.742009976","0.2714296105","0.3928202278","","","","","","","","","","72","H","0","img/none_selected.jpg","","55","main_expt",""
"","bandit","135","299832","0.0-97.0-0.0","15126203","wem/bandit_party_2","A3UV55HC87DO9C","either","8","155","","","","","","","0","1","0","","0.9565658233","0.6","0.4","0.8","0.2","0.9565658233","0.7065076074","0.2122311877","0.4593665993","","","","","","","","","","","","","","72","H","0","img/none_selected.jpg","","56","main_expt",""
"","bandit","136","301512","0.0-98.0-0.0","15126203","wem/bandit_party_2","A3UV55HC87DO9C","either","8","164","","","","","","","1","0","0","0.9681540372","","0.6","0.4","0.8","0.2","","","","","0.9681540372","0.6860695476","0.2282278588","0.4006145211","","","","","","","","","","72","H","0","img/none_selected.jpg","","57","main_expt",""
"","bandit","137","303087","0.0-99.0-0.0","15126203","wem/bandit_party_2","A3UV55HC87DO9C","either","8","61","","","","","","","0","1","0","","0.9207083952","0.6","0.4","0.8","0.2","0.9207083952","0.742301155","0.1392076118","0.4597890412","","","","","","","","","","","","","","72","H","0","img/none_selected.jpg","","58","main_expt",""
"","bandit","138","304663","0.0-100.0-0.0","15126203","wem/bandit_party_2","A3UV55HC87DO9C","either","8","62","","","","","","","0","1","0","","0.9178227258","0.6","0.4","0.8","0.2","0.9178227258","0.5291004622","0.1706239206","0.4232266093","","","","","","","","","","","","","","72","H","0","img/none_selected.jpg","","59","main_expt",""
"","bandit","139","306336","0.0-101.0-0.0","15126203","wem/bandit_party_2","A3UV55HC87DO9C","either","8","156","","","","","","","1","0","0","0.8951285427","","0.6","0.4","0.8","0.2","","","","","0.8951285427","0.6348838793","0.1674269281","0.3565880291","","","","","","","","","","72","H","0","img/none_selected.jpg","","60","main_expt",""
"","bandit","140","308009","0.0-102.0-0.0","15126203","wem/bandit_party_2","A3UV55HC87DO9C","either","8","155","","","","","","","1","0","0","0.8506814954","","0.6","0.4","0.8","0.2","","","","","0.8506814954","0.6796423313","0.2182313474","0.3663276413","","","","","","","","","","72","H","0","img/none_selected.jpg","","61","main_expt",""
"","bandit","141","309631","0.0-103.0-0.0","15126203","wem/bandit_party_2","A3UV55HC87DO9C","either","8","106","","","","","","","1","0","0","0.8513854559","","0.6","0.4","0.8","0.2","","","","","0.8513854559","0.6928172916","0.2949218256","0.3193005293","","","","","","","","","","72","H","0","img/none_selected.jpg","","62","main_expt",""
"","bandit","142","311207","0.0-104.0-0.0","15126203","wem/bandit_party_2","A3UV55HC87DO9C","either","8","61","","","","","","","0","1","0","","0.8927579502","0.6","0.4","0.8","0.2","0.8927579502","0.6996506825","0.3170222383","0.1562068481","","","","","","","","","","","","","","72","H","0","img/none_selected.jpg","","63","main_expt",""
"","bandit","143","312833","0.0-105.0-0.0","15126203","wem/bandit_party_2","A3UV55HC87DO9C","either","8","109","","","","","","","1","0","0","0.9217936765","","0.6","0.4","0.8","0.2","","","","","0.9217936765","0.7294442249","0.3033511374","0.2300477965","","","","","","","","","","72","H","0","img/none_selected.jpg","","64","main_expt",""
"","bandit","144","314743","0.0-106.0-0.0","15126203","wem/bandit_party_2","A3UV55HC87DO9C","either","8","394","","","","","","","1","0","0","0.9357047413","","0.6","0.4","0.8","0.2","","","","","0.9357047413","0.6605354899","0.3973690147","0.2869838185","","","","","","","","","","72","H","0","img/none_selected.jpg","","65","main_expt",""
"","bandit","145","316328","0.0-107.0-0.0","15126203","wem/bandit_party_2","A3UV55HC87DO9C","either","8","70","","","","","","","0","1","0","","0.910343843","0.6","0.4","0.8","0.2","0.910343843","0.6959621059","0.4320294497","0.3287476356","","","","","","","","","","","","","","72","H","0","img/none_selected.jpg","","66","main_expt",""
"","bandit","146","318063","0.0-108.0-0.0","15126203","wem/bandit_party_2","A3UV55HC87DO9C","either","8","219","","","","","","","1","0","0","0.9022080512","","0.6","0.4","0.8","0.2","","","","","0.9022080512","0.653899752","0.3208465419","0.3018365728","","","","","","","","","","72","H","0","img/none_selected.jpg","","67","main_expt",""
"","bandit","147","319639","0.0-109.0-0.0","15126203","wem/bandit_party_2","A3UV55HC87DO9C","either","8","60","","","","","","","1","0","0","0.8492414063","","0.6","0.4","0.8","0.2","","","","","0.8492414063","0.6517851336","0.3570730799","0.3208616414","","","","","","","","","","72","H","0","img/none_selected.jpg","","68","main_expt",""
"","bandit","148","321635","0.0-110.0-0.0","15126203","wem/bandit_party_2","A3UV55HC87DO9C","either","8","480","","","","","","","0","1","0","","0.768219052","0.6","0.4","0.8","0.2","0.768219052","0.7011615004","0.3451514791","0.386863802","","","","","","","","","","","","","","72","H","0","img/none_selected.jpg","","69","main_expt",""
"","bandit","149","323452","0.0-111.0-0.0","15126203","wem/bandit_party_2","A3UV55HC87DO9C","either","8","301","","","","","","","1","0","0","0.7996218848","","0.6","0.4","0.8","0.2","","","","","0.7996218848","0.6278947594","0.3127714871","0.3628244161","","","","","","","","","","72","H","0","img/none_selected.jpg","","70","main_expt",""
"","bandit","150","326550","0.0-112.0-0.0","15126203","wem/bandit_party_2","A3UV55HC87DO9C","either","8","1583","","","","","","","0","1","0","","0.9130189757","0.6","0.4","0.8","0.2","0.9130189757","0.688517509","0.3855297895","0.2969295023","","","","","","","","","","","","","","72","H","0","img/none_selected.jpg","","71","main_expt",""
"","bandit","151","328151","0.0-113.0-0.0","15126203","wem/bandit_party_2","A3UV55HC87DO9C","either","8","84","","","","","","","0","0","1","0.9016843832","","0.6","0.4","0.8","0.2","","","","","0.9016843832","0.6125440106","0.3555010044","0.3512325323","","","","","","","","","","72","H","0","img/none_selected.jpg","","72","main_expt",""
"","bandit","152","329696","0.0-114.0-0.0","15126203","wem/bandit_party_2","A3UV55HC87DO9C","either","8","29","","","","","","","1","0","0","0.4884410468","","0.6","0.4","0.8","0.2","","","","","0.9166584401","0.4884410468","0.3278360739","0.3845321254","","","","","","","","","","74","J","1","","","73","main_expt",""
"","bandit","153","331417","0.0-115.0-0.0","15126203","wem/bandit_party_2","A3UV55HC87DO9C","either","8","206","","","","","","","1","0","0","0.5800760741","","0.6","0.4","0.8","0.2","","","","","0.8699410266","0.5800760741","0.3275161349","0.3760614253","","","","","","","","","","74","J","1","","","74","main_expt",""
"","bandit","154","333102","0.0-116.0-0.0","15126203","wem/bandit_party_2","A3UV55HC87DO9C","either","8","168","","","","","","","0","0","1","","0.6614390465","0.6","0.4","0.8","0.2","0.8192171788","0.6614390465","0.3454333807","0.370831352","","","","","","","","","","","","","","74","J","1","","","75","main_expt",""
"","bandit","155","334814","0.0-117.0-0.0","15126203","wem/bandit_party_2","A3UV55HC87DO9C","either","8","197","","","","","","","1","0","0","0.6861570843","","0.6","0.4","0.8","0.2","","","","","0.8990587115","0.6861570843","0.4213924804","0.4008199491","","","","","","","","","","74","J","1","","","76","main_expt",""
"","bandit","156","336343","0.0-118.0-0.0","15126203","wem/bandit_party_2","A3UV55HC87DO9C","either","8","11","","","","","","","1","0","0","0.5980737028","","0.6","0.4","0.8","0.2","","","","","0.9062137116","0.5980737028","0.439510692","0.3928984844","","","","","","","","","","74","J","1","","","77","main_expt",""
"","bandit","157","338023","0.0-119.0-0.0","15126203","wem/bandit_party_2","A3UV55HC87DO9C","either","8","163","","","","","","","0","0","1","","0.6754083514","0.6","0.4","0.8","0.2","0.9215914722","0.6754083514","0.4419424199","0.4709058574","","","","","","","","","","","","","","74","J","1","","","78","main_expt",""
"","bandit","158","339598","0.0-120.0-0.0","15126203","wem/bandit_party_2","A3UV55HC87DO9C","either","8","59","","","","","","","0","1","0","","0.7012934339","0.6","0.4","0.8","0.2","0.895443078","0.7012934339","0.5056762283","0.4971614577","","","","","","","","","","","","","","74","J","1","","","79","main_expt",""
"","bandit","159","341279","0.0-121.0-0.0","15126203","wem/bandit_party_2","A3UV55HC87DO9C","either","8","164","","","","","","","0","1","0","","0.7067798052","0.6","0.4","0.8","0.2","0.7789772955","0.7067798052","0.4558190996","0.4828267768","","","","","","","","","","","","","","74","J","1","","","80","main_expt",""
"","bandit","160","343048","0.0-122.0-0.0","15126203","wem/bandit_party_2","A3UV55HC87DO9C","either","8","250","","","","","","","0","0","1","","0.7259433061","0.6","0.4","0.8","0.2","0.755426824","0.7259433061","0.4774921548","0.4280570329","","","","","","","","","","","","","","74","J","1","","","81","main_expt",""
"","bandit","161","344574","0.0-123.0-0.0","15126203","wem/bandit_party_2","A3UV55HC87DO9C","either","8","9","","","","","","","0","0","1","0.7022130872","","0.6","0.4","0.8","0.2","","","","","0.8356426425","0.7022130872","0.3611036613","0.486136241","","","","","","","","","","74","J","1","","","82","main_expt",""
"","bandit","162","346143","0.0-124.0-0.0","15126203","wem/bandit_party_2","A3UV55HC87DO9C","either","8","51","","","","","","","0","0","1","0.3341354767","","0.6","0.4","0.8","0.2","","","","","0.8783145762","0.75927227","0.3341354767","0.3539143083","","","","","","","","","","75","K","2","","","83","main_expt",""
"","bandit","163","347758","0.0-125.0-0.0","15126203","wem/bandit_party_2","A3UV55HC87DO9C","either","8","97","","","","","","","0","0","1","0.288479151","","0.6","0.4","0.8","0.2","","","","","0.9087743635","0.8556046088","0.288479151","0.374811954","","","","","","","","","","75","K","2","","","84","main_expt",""
"","bandit","164","349408","0.0-126.0-0.0","15126203","wem/bandit_party_2","A3UV55HC87DO9C","either","8","132","","","","","","","0","0","1","","0.4518264681","0.6","0.4","0.8","0.2","0.8632011641","0.7835234447","0.3061923995","0.4518264681","","","","","","","","","","","","","","76","L","3","","","85","main_expt",""
"","bandit","165","350958","0.0-127.0-0.0","15126203","wem/bandit_party_2","A3UV55HC87DO9C","either","8","33","","","","","","","0","0","1","","0.461936863","0.6","0.4","0.8","0.2","0.8341253046","0.7037548709","0.3370204437","0.461936863","","","","","","","","","","","","","","76","L","3","","","86","main_expt",""
"","bandit","166","352814","0.0-128.0-0.0","15126203","wem/bandit_party_2","A3UV55HC87DO9C","either","8","340","","","","","","","0","1","0","","0.6903674631","0.6","0.4","0.8","0.2","0.8728746981","0.6903674631","0.3900809043","0.3681660755","","","","","","","","","","","","","","74","J","1","","","87","main_expt",""
"","bandit","167","354503","0.0-129.0-0.0","15126203","wem/bandit_party_2","A3UV55HC87DO9C","either","8","171","","","","","","","1","0","0","0.5883284312","","0.6","0.4","0.8","0.2","","","","","0.8408980459","0.5883284312","0.4296615172","0.3788462328","","","","","","","","","","74","J","1","","","88","main_expt",""
"","bandit","168","356126","0.0-130.0-0.0","15126203","wem/bandit_party_2","A3UV55HC87DO9C","either","8","105","","","","","","","0","0","1","","0.5258490985","0.6","0.4","0.8","0.2","0.8585781628","0.5258490985","0.4636560077","0.3316952272","","","","","","","","","","","","","","74","J","1","","","89","main_expt",""
"","bandit","169","357703","0.0-131.0-0.0","15126203","wem/bandit_party_2","A3UV55HC87DO9C","either","8","59","","","","","","","0","0","1","","0.6395041767","0.6","0.4","0.8","0.2","0.925840658","0.6395041767","0.4463585346","0.438068917","","","","","","","","","","","","","","74","J","1","","","90","main_expt",""
"","bandit","170","359365","0.0-132.0-0.0","15126203","wem/bandit_party_2","A3UV55HC87DO9C","either","8","145","","","","","","","0","1","0","","0.6931091445","0.6","0.4","0.8","0.2","0.9201841885","0.6931091445","0.4734463503","0.5158843935","","","","","","","","","","","","","","74","J","1","","","91","main_expt",""
"","bandit","171","361030","0.0-133.0-0.0","15126203","wem/bandit_party_2","A3UV55HC87DO9C","either","8","147","","","","","","","0","0","1","","0.6725373887","0.6","0.4","0.8","0.2","0.8508076908","0.6725373887","0.5248255385","0.5182757575","","","","","","","","","","","","","","74","J","1","","","92","main_expt",""
"","bandit","172","362725","0.0-134.0-0.0","15126203","wem/bandit_party_2","A3UV55HC87DO9C","either","8","178","","","","","","","0","1","0","","0.7388835399","0.6","0.4","0.8","0.2","0.8106711147","0.7388835399","0.3386726181","0.5498130742","","","","","","","","","","","","","","74","J","1","","","93","main_expt",""
"","bandit","173","364254","0.0-135.0-0.0","15126203","wem/bandit_party_2","A3UV55HC87DO9C","either","8","9","","","","","","","0","0","1","","0.697373586","0.6","0.4","0.8","0.2","0.8543263914","0.697373586","0.3718894848","0.6049407638","","","","","","","","","","","","","","74","J","1","","","94","main_expt",""
"","bandit","174","365949","0.0-136.0-0.0","15126203","wem/bandit_party_2","A3UV55HC87DO9C","either","8","177","","","","","","","0","1","0","","0.7550322224","0.6","0.4","0.8","0.2","0.8387782901","0.7550322224","0.4005278521","0.6604115927","","","","","","","","","","","","","","74","J","1","","","95","main_expt",""
"","bandit","175","367473","0.0-137.0-0.0","15126203","wem/bandit_party_2","A3UV55HC87DO9C","either","8","3","","","","","","","0","1","0","","0.6576962358","0.6","0.4","0.8","0.2","0.8208071174","0.6576962358","0.3694595514","0.7003847986","","","","","","","","","","","","","","74","J","1","","","96","main_expt",""
"","bandit","176","369029","0.0-138.0-0.0","15126203","wem/bandit_party_2","A3UV55HC87DO9C","either","8","36","","","","","","","1","0","0","0.6802484638","","0.6","0.4","0.8","0.2","","","","","0.765358829","0.6802484638","0.3186037095","0.6793148949","","","","","","","","","","74","J","1","","","97","main_expt",""
"","bandit","177","370695","0.0-139.0-0.0","15126203","wem/bandit_party_2","A3UV55HC87DO9C","either","8","146","","","","","","","1","0","0","0.7042077447","","0.6","0.4","0.8","0.2","","","","","0.7823463211","0.7042077447","0.2786717818","0.6204607354","","","","","","","","","","74","J","1","","","98","main_expt",""
"","bandit","178","372326","0.0-140.0-0.0","15126203","wem/bandit_party_2","A3UV55HC87DO9C","either","8","113","","","","","","","0","1","0","","0.7355617892","0.6","0.4","0.8","0.2","0.7523003034","0.7355617892","0.32929866","0.6166262367","","","","","","","","","","","","","","74","J","1","","","99","main_expt",""
"","bandit","179","374014","0.0-141.0-0.0","15126203","wem/bandit_party_2","A3UV55HC87DO9C","either","8","170","","","","","","","0","1","0","","0.7117411671","0.6","0.4","0.8","0.2","0.7174790615","0.7117411671","0.3115323478","0.5347115766","","","","","","","","","","","","","","74","J","1","","","100","main_expt",""
"","bandit","180","375582","0.0-142.0-0.0","15126203","wem/bandit_party_2","A3UV55HC87DO9C","either","8","51","","","","","","","0","1","0","","0.7263903312","0.6","0.4","0.8","0.2","0.7660578318","0.7263903312","0.4221749579","0.3418016043","","","","","","","","","","","","","","74","J","1","","","101","main_expt",""
"","bandit","181","377286","0.0-143.0-0.0","15126203","wem/bandit_party_2","A3UV55HC87DO9C","either","8","186","","","","","","","1","0","0","0.7357346189","","0.6","0.4","0.8","0.2","","","","","0.7201180075","0.7357346189","0.2718078598","0.2550922237","","","","","","","","","","74","J","1","","","102","main_expt",""
"","bandit","182","378807","0.0-144.0-0.0","15126203","wem/bandit_party_2","A3UV55HC87DO9C","either","8","2","","","","","","","0","1","0","","0.7026134783","0.6","0.4","0.8","0.2","0.8452780714","0.7026134783","0.3011307106","0.3181696353","","","","","","","","","","","","","","74","J","1","","","103","main_expt",""
"","bandit","183","380365","0.0-145.0-0.0","15126203","wem/bandit_party_2","A3UV55HC87DO9C","either","8","40","","","","","","","0","0","1","","0.8073666152","0.6","0.4","0.8","0.2","0.7236924273","0.8073666152","0.3659291838","0.3383579412","","","","","","","","","","","","","","74","J","1","","","104","main_expt",""
"","bandit","184","382030","0.0-146.0-0.0","15126203","wem/bandit_party_2","A3UV55HC87DO9C","either","8","147","","","","","","","1","0","0","0.824483439","","0.6","0.4","0.8","0.2","","","","","0.743719778","0.824483439","0.3499435223","0.2354673658","","","","","","","","","","74","J","1","","","105","main_expt",""
"","bandit","185","383694","0.0-147.0-0.0","15126203","wem/bandit_party_2","A3UV55HC87DO9C","either","8","145","","","","","","","0","1","0","","0.9208810438","0.6","0.4","0.8","0.2","0.7985687284","0.9208810438","0.3602262465","0.159398249","","","","","","","","","","","","","","74","J","1","","","106","main_expt",""
"","bandit","186","385221","0.0-148.0-0.0","15126203","wem/bandit_party_2","A3UV55HC87DO9C","either","8","8","","","","","","","0","1","0","","0.8911910097","0.6","0.4","0.8","0.2","0.799345197","0.8911910097","0.3252215163","0.1295169146","","","","","","","","","","","","","","74","J","1","","","107","main_expt",""
"","bandit","187","386829","0.0-149.0-0.0","15126203","wem/bandit_party_2","A3UV55HC87DO9C","either","8","89","","","","","","","1","0","0","0.8450149587","","0.6","0.4","0.8","0.2","","","","","0.8681690713","0.8450149587","0.2812406992","0.07754053308","","","","","","","","","","74","J","1","","","108","main_expt",""
"","bandit","188","388413","0.0-150.0-0.0","15126203","wem/bandit_party_2","A3UV55HC87DO9C","either","8","66","","","","","","","0","1","0","","0.868327257","0.6","0.4","0.8","0.2","0.8556732204","0.868327257","0.2559497519","0.06591215473","","","","","","","","","","","","","","74","J","1","","","109","main_expt",""
"","bandit","189","389964","0.0-151.0-0.0","15126203","wem/bandit_party_2","A3UV55HC87DO9C","either","8","34","","","","","","","1","0","0","0.8868335222","","0.6","0.4","0.8","0.2","","","","","0.8669893864","0.8868335222","0.2817400418","0.1189546392","","","","","","","","","","74","J","1","","","110","main_expt",""
"","bandit","190","391511","0.0-152.0-0.0","15126203","wem/bandit_party_2","A3UV55HC87DO9C","either","8","23","","","","","","","0","1","0","","0.8770728171","0.6","0.4","0.8","0.2","0.799383849","0.8770728171","0.2773620367","0.09523351692","","","","","","","","","","","","","","74","J","1","","","111","main_expt",""
"","bandit","191","393101","0.0-153.0-0.0","15126203","wem/bandit_party_2","A3UV55HC87DO9C","either","8","70","","","","","","","1","0","0","0.8481710002","","0.6","0.4","0.8","0.2","","","","","0.859799476","0.8481710002","0.2833316415","0.107489667","","","","","","","","","","74","J","1","","","112","main_expt",""
"","bandit","192","394708","0.0-154.0-0.0","15126203","wem/bandit_party_2","A3UV55HC87DO9C","either","8","87","","","","","","","0","1","0","","0.8573528835","0.6","0.4","0.8","0.2","0.7932436089","0.8573528835","0.3433702059","0.1026187258","","","","","","","","","","","","","","74","J","1","","","113","main_expt",""
"","bandit","193","396292","0.0-155.0-0.0","15126203","wem/bandit_party_2","A3UV55HC87DO9C","either","8","61","","","","","","","1","0","0","0.8291807482","","0.6","0.4","0.8","0.2","","","","","0.849407262","0.8291807482","0.4828882278","0.1044839951","","","","","","","","","","74","J","1","","","114","main_expt",""
"","bandit","194","397854","0.0-156.0-0.0","15126203","wem/bandit_party_2","A3UV55HC87DO9C","either","8","39","","","","","","","0","1","0","","0.761972944","0.6","0.4","0.8","0.2","0.8882716547","0.761972944","0.54932579","0.1213931844","","","","","","","","","","","","","","74","J","1","","","115","main_expt",""
"","bandit","195","399469","0.0-157.0-0.0","15126203","wem/bandit_party_2","A3UV55HC87DO9C","either","8","95","","","","","","","0","1","0","","0.786197192","0.6","0.4","0.8","0.2","0.8741354715","0.786197192","0.6971345968","0.1184144227","","","","","","","","","","","","","","74","J","1","","","116","main_expt",""
"","bandit","196","401005","0.0-158.0-0.0","15126203","wem/bandit_party_2","A3UV55HC87DO9C","either","8","14","","","","","","","0","1","0","","0.7834453561","0.6","0.4","0.8","0.2","0.8083823922","0.7834453561","0.5396272374","0.1983931569","","","","","","","","","","","","","","74","J","1","","","117","main_expt",""
"","bandit","197","402613","0.0-159.0-0.0","15126203","wem/bandit_party_2","A3UV55HC87DO9C","either","8","88","","","","","","","1","0","0","0.6742380839","","0.6","0.4","0.8","0.2","","","","","0.868525306","0.6742380839","0.5544567993","0.2840039584","","","","","","","","","","74","J","1","","","118","main_expt",""
"","bandit","198","404229","0.0-160.0-0.0","15126203","wem/bandit_party_2","A3UV55HC87DO9C","either","8","96","","","","","","","1","0","0","0.7350700153","","0.6","0.4","0.8","0.2","","","","","0.8386471998","0.7350700153","0.5504896642","0.3563325119","","","","","","","","","","74","J","1","","","119","main_expt",""
"","bandit","199","405845","0.0-161.0-0.0","15126203","wem/bandit_party_2","A3UV55HC87DO9C","either","8","94","","","","","","","0","0","1","","0.70601835","0.6","0.4","0.8","0.2","0.8103559508","0.70601835","0.5812137135","0.5682387565","","","","","","","","","","","","","","74","J","1","","","120","main_expt",""
"","bandit","200","407412","0.0-162.0-0.0","15126203","wem/bandit_party_2","A3UV55HC87DO9C","either","8","48","","","","","","","1","0","0","0.8193015173","","0.6","0.4","0.8","0.2","","","","","0.8193015173","0.7347719752","0.6033058466","0.5189107771","","","","","","","","","","72","H","0","img/none_selected.jpg","","121","main_expt",""
"","bandit","201","408979","0.0-163.0-0.0","15126203","wem/bandit_party_2","A3UV55HC87DO9C","either","8","48","","","","","","","0","0","1","0.8025146027","","0.6","0.4","0.8","0.2","","","","","0.8025146027","0.8270923978","0.6102220397","0.4428493372","","","","","","","","","","72","H","0","img/none_selected.jpg","","122","main_expt",""
"","bandit","202","410669","0.0-164.0-0.0","15126203","wem/bandit_party_2","A3UV55HC87DO9C","either","8","169","","","","","","","1","0","0","0.8121847492","","0.6","0.4","0.8","0.2","","","","","0.8121847492","0.7980631313","0.6108151959","0.472724465","","","","","","","","","","72","H","0","img/none_selected.jpg","","123","main_expt",""
"","bandit","203","412341","0.0-165.0-0.0","15126203","wem/bandit_party_2","A3UV55HC87DO9C","either","8","151","","","","","","","0","0","1","0.8299418439","","0.6","0.4","0.8","0.2","","","","","0.8299418439","0.7369852887","0.7117385939","0.4799585558","","","","","","","","","","72","H","0","img/none_selected.jpg","","124","main_expt",""
"","bandit","204","413933","0.0-166.0-0.0","15126203","wem/bandit_party_2","A3UV55HC87DO9C","either","8","71","","","","","","","0","0","1","0.825688343","","0.6","0.4","0.8","0.2","","","","","0.825688343","0.7465944313","0.7554186078","0.5080184993","","","","","","","","","","72","H","0","img/none_selected.jpg","","125","main_expt",""
"","bandit","205","415540","0.0-167.0-0.0","15126203","wem/bandit_party_2","A3UV55HC87DO9C","either","8","85","","","","","","","1","0","0","0.8855751833","","0.6","0.4","0.8","0.2","","","","","0.8372054396","0.7596834852","0.8855751833","0.4555098289","","","","","","","","","","75","K","2","","","126","main_expt",""
"","bandit","206","417226","0.0-168.0-0.0","15126203","wem/bandit_party_2","A3UV55HC87DO9C","either","8","165","","","","","","","0","0","1","0.8003015049","","0.6","0.4","0.8","0.2","","","","","0.7906689898","0.7398299979","0.8003015049","0.5475411796","","","","","","","","","","75","K","2","","","127","main_expt",""
"","bandit","207","418749","0.0-169.0-0.0","15126203","wem/bandit_party_2","A3UV55HC87DO9C","either","8","2","","","","","","","1","0","0","0.8403113951","","0.6","0.4","0.8","0.2","","","","","0.8008571507","0.7764866849","0.8403113951","0.612647382","","","","","","","","","","75","K","2","","","128","main_expt",""
"","bandit","208","420404","0.0-170.0-0.0","15126203","wem/bandit_party_2","A3UV55HC87DO9C","either","8","134","","","","","","","1","0","0","0.8826872071","","0.6","0.4","0.8","0.2","","","","","0.7829297973","0.6435675963","0.8826872071","0.7128970287","","","","","","","","","","75","K","2","","","129","main_expt",""
"","bandit","209","422067","0.0-171.0-0.0","15126203","wem/bandit_party_2","A3UV55HC87DO9C","either","8","143","","","","","","","1","0","0","0.8641000085","","0.6","0.4","0.8","0.2","","","","","0.6898445721","0.7030252038","0.8641000085","0.7309911721","","","","","","","","","","75","K","2","","","130","main_expt",""
"","bandit","210","423619","0.0-172.0-0.0","15126203","wem/bandit_party_2","A3UV55HC87DO9C","either","8","31","","","","","","","0","0","1","0.8752037592","","0.6","0.4","0.8","0.2","","","","","0.5864867529","0.6829232191","0.8752037592","0.73180147","","","","","","","","","","75","K","2","","","131","main_expt",""
"","bandit","211","425254","0.0-173.0-0.0","15126203","wem/bandit_party_2","A3UV55HC87DO9C","either","8","113","","","","","","","0","0","1","0.8279556795","","0.6","0.4","0.8","0.2","","","","","0.560122833","0.7406452387","0.8279556795","0.8467134838","","","","","","","","","","75","K","2","","","132","main_expt",""
"","bandit","212","426964","0.0-174.0-0.0","15126203","wem/bandit_party_2","A3UV55HC87DO9C","either","8","190","","","","","","","0","1","0","","0.8481264083","0.6","0.4","0.8","0.2","0.48439517","0.6666234363","0.8194722428","0.8481264083","","","","","","","","","","","","","","76","L","3","","","133","main_expt",""
"","bandit","213","428539","0.0-175.0-0.0","15126203","wem/bandit_party_2","A3UV55HC87DO9C","either","8","54","","","","","","","1","0","0","0.8771050955","","0.6","0.4","0.8","0.2","","","","","0.3919863126","0.680542061","0.8037084922","0.8771050955","","","","","","","","","","76","L","3","","","134","main_expt",""
"","bandit","214","430189","0.0-176.0-0.0","15126203","wem/bandit_party_2","A3UV55HC87DO9C","either","8","127","","","","","","","0","1","0","","0.9103241533","0.6","0.4","0.8","0.2","0.5174750093","0.7006187635","0.8155916457","0.9103241533","","","","","","","","","","","","","","76","L","3","","","135","main_expt",""
"","bandit","215","431756","0.0-177.0-0.0","15126203","wem/bandit_party_2","A3UV55HC87DO9C","either","8","45","","","","","","","0","0","1","0.9126032517","","0.6","0.4","0.8","0.2","","","","","0.4264762493","0.6936815578","0.8281957705","0.9126032517","","","","","","","","","","76","L","3","","","136","main_expt",""
"","bandit","216","433380","0.0-178.0-0.0","15126203","wem/bandit_party_2","A3UV55HC87DO9C","either","8","103","","","","","","","0","1","0","","0.8983360858","0.6","0.4","0.8","0.2","0.5351999402","0.6531428085","0.7055403129","0.8983360858","","","","","","","","","","","","","","76","L","3","","","137","main_expt",""
"","bandit","217","435052","0.0-179.0-0.0","15126203","wem/bandit_party_2","A3UV55HC87DO9C","either","8","150","","","","","","","1","0","0","0.8851370462","","0.6","0.4","0.8","0.2","","","","","0.4758748922","0.6769758131","0.6884351598","0.8851370462","","","","","","","","","","76","L","3","","","138","main_expt",""
"","bandit","218","436763","0.0-180.0-0.0","15126203","wem/bandit_party_2","A3UV55HC87DO9C","either","8","190","","","","","","","0","1","0","","0.8662270416","0.6","0.4","0.8","0.2","0.4039793023","0.7649589049","0.6090423031","0.8662270416","","","","","","","","","","","","","","76","L","3","","","139","main_expt",""
"","bandit","219","438460","0.0-181.0-0.0","15126203","wem/bandit_party_2","A3UV55HC87DO9C","either","8","175","","","","","","","1","0","0","0.8345767194","","0.6","0.4","0.8","0.2","","","","","0.384774136","0.7674202191","0.7000077187","0.8345767194","","","","","","","","","","76","L","3","","","140","main_expt",""
"","bandit","220","440027","0.0-182.0-0.0","15126203","wem/bandit_party_2","A3UV55HC87DO9C","either","8","44","","","","","","","0","1","0","","0.8783670964","0.6","0.4","0.8","0.2","0.327254859","0.8575114448","0.6643185619","0.8783670964","","","","","","","","","","","","","","76","L","3","","","141","main_expt",""
"","bandit","221","441552","0.0-183.0-0.0","15126203","wem/bandit_party_2","A3UV55HC87DO9C","either","8","1","","","","","","","0","1","0","","0.8895828315","0.6","0.4","0.8","0.2","0.4536641492","0.8134430427","0.7079845674","0.8895828315","","","","","","","","","","","","","","76","L","3","","","142","main_expt",""
"","bandit","222","443139","0.0-184.0-0.0","15126203","wem/bandit_party_2","A3UV55HC87DO9C","either","8","66","","","","","","","0","1","0","","0.9053928798","0.6","0.4","0.8","0.2","0.4348486293","0.8345505038","0.6624187643","0.9053928798","","","","","","","","","","","","","","76","L","3","","","143","main_expt",""
"","bandit","223","444781","0.0-185.0-0.0","15126203","wem/bandit_party_2","A3UV55HC87DO9C","either","8","120","","","","","","","1","0","0","0.9033088386","","0.6","0.4","0.8","0.2","","","","","0.4086594597","0.7482817554","0.6779247185","0.9033088386","","","","","","","","","","76","L","3","","","144","main_expt",""
"","bandit","224","446340","0.0-186.0-0.0","15126203","wem/bandit_party_2","A3UV55HC87DO9C","either","8","36","","","","","","","0","0","1","","0.8572864227","0.6","0.4","0.8","0.2","0.4420772456","0.7400387939","0.7216102374","0.8572864227","","","","","","","","","","","","","","76","L","3","","","145","main_expt",""
"","bandit","225","448068","0.0-187.0-0.0","15126203","wem/bandit_party_2","A3UV55HC87DO9C","either","8","204","","","","","","","1","0","0","0.8687508917","","0.6","0.4","0.8","0.2","","","","","0.508741462","0.795971973","0.7837267619","0.8687508917","","","","","","","","","","76","L","3","","","146","main_expt",""
"","bandit","226","449652","0.0-188.0-0.0","15126203","wem/bandit_party_2","A3UV55HC87DO9C","either","8","61","","","","","","","0","1","0","","0.8657621525","0.6","0.4","0.8","0.2","0.4624398998","0.7503502301","0.7652264833","0.8657621525","","","","","","","","","","","","","","76","L","3","","","147","main_expt",""
"","bandit","227","451347","0.0-189.0-0.0","15126203","wem/bandit_party_2","A3UV55HC87DO9C","either","8","173","","","","","","","0","1","0","","0.8362891365","0.6","0.4","0.8","0.2","0.4062589849","0.8200474043","0.7358716413","0.8362891365","","","","","","","","","","","","","","76","L","3","","","148","main_expt",""
"","bandit","228","452893","0.0-190.0-0.0","15126203","wem/bandit_party_2","A3UV55HC87DO9C","either","8","23","","","","","","","0","1","0","","0.8144386017","0.6","0.4","0.8","0.2","0.4895331913","0.8509010271","0.7129200786","0.8144386017","","","","","","","","","","","","","","76","L","3","","","149","main_expt",""
"","bandit","229","454475","0.0-191.0-0.0","15126203","wem/bandit_party_2","A3UV55HC87DO9C","either","8","59","","","","","","","0","0","1","","0.6948055455","0.6","0.4","0.8","0.2","0.4704746919","0.8298908313","0.705531668","0.6948055455","","","","","","","","","","","","","","76","L","3","","","150","main_expt",""
"","bandit","230","456291","0.0-192.0-0.0","15126203","wem/bandit_party_2","A3UV55HC87DO9C","either","8","293","","","","","","","0","0","1","","0.6231991314","0.6","0.4","0.8","0.2","0.4725745774","0.7362749002","0.5744604188","0.6231991314","","","","","","","","","","","","","","76","L","3","","","151","main_expt",""
"","bandit","231","457868","0.0-193.0-0.0","15126203","wem/bandit_party_2","A3UV55HC87DO9C","either","8","54","","","","","","","0","0","1","","0.7045057733","0.6","0.4","0.8","0.2","0.4943906398","0.7601791643","0.5372669321","0.7045057733","","","","","","","","","","","","","","76","L","3","","","152","main_expt",""
"","bandit","232","459395","0.0-194.0-0.0","15126203","wem/bandit_party_2","A3UV55HC87DO9C","either","8","5","","","","","","","1","0","0","0.7590648118","","0.6","0.4","0.8","0.2","","","","","0.4639524782","0.7590648118","0.5447545218","0.5331338622","","","","","","","","","","74","J","1","","","153","main_expt",""
"","bandit","233","461003","0.0-195.0-0.0","15126203","wem/bandit_party_2","A3UV55HC87DO9C","either","8","86","","","","","","","0","1","0","","0.7805387907","0.6","0.4","0.8","0.2","0.3935792086","0.7805387907","0.4191749193","0.5096720896","","","","","","","","","","","","","","74","J","1","","","154","main_expt",""
"","bandit","234","462627","0.0-196.0-0.0","15126203","wem/bandit_party_2","A3UV55HC87DO9C","either","8","101","","","","","","","1","0","0","0.8450805748","","0.6","0.4","0.8","0.2","","","","","0.4127348605","0.8450805748","0.4269770229","0.4719011365","","","","","","","","","","74","J","1","","","155","main_expt",""
"","bandit","235","464267","0.0-197.0-0.0","15126203","wem/bandit_party_2","A3UV55HC87DO9C","either","8","116","","","","","","","0","0","1","","0.8513110265","0.6","0.4","0.8","0.2","0.3697675558","0.8513110265","0.4589862704","0.5818713095","","","","","","","","","","","","","","74","J","1","","","156","main_expt",""
"","bandit","236","465875","0.0-198.0-0.0","15126203","wem/bandit_party_2","A3UV55HC87DO9C","either","8","83","","","","","","","1","0","0","0.8226236001","","0.6","0.4","0.8","0.2","","","","","0.3604398023","0.8226236001","0.5370818316","0.5804022203","","","","","","","","","","74","J","1","","","157","main_expt",""
"","bandit","237","467501","0.0-199.0-0.0","15126203","wem/bandit_party_2","A3UV55HC87DO9C","either","8","103","","","","","","","0","0","1","","0.8843141367","0.6","0.4","0.8","0.2","0.4061750625","0.8843141367","0.4757376888","0.4773166223","","","","","","","","","","","","","","74","J","1","","","158","main_expt",""
"","bandit","238","469091","0.0-200.0-0.0","15126203","wem/bandit_party_2","A3UV55HC87DO9C","either","8","66","","","","","","","0","1","0","","0.8078798749","0.6","0.4","0.8","0.2","0.4696417586","0.8078798749","0.4887287223","0.419048585","","","","","","","","","","","","","","74","J","1","","","159","main_expt",""
"","bandit","239","470682","0.0-201.0-0.0","15126203","wem/bandit_party_2","A3UV55HC87DO9C","either","8","69","","","","","","","0","1","0","","0.7689164465","0.6","0.4","0.8","0.2","0.4659569923","0.7689164465","0.4588489809","0.4672574386","","","","","","","","","","","","","","74","J","1","","","160","main_expt",""
"","bandit","240","472209","0.0-202.0-0.0","15126203","wem/bandit_party_2","A3UV55HC87DO9C","either","8","4","","","","","","","1","0","0","0.7863156869","","0.6","0.4","0.8","0.2","","","","","0.3947207546","0.7863156869","0.4920004413","0.5612985374","","","","","","","","","","74","J","1","","","161","main_expt",""
"","bandit","241","473738","0.0-203.0-0.0","15126203","wem/bandit_party_2","A3UV55HC87DO9C","either","8","5","","","","","","","0","0","1","","0.8098475403","0.6","0.4","0.8","0.2","0.2460097942","0.8098475403","0.5389881207","0.5288680036","","","","","","","","","","","","","","74","J","1","","","162","main_expt",""
"","bandit","242","475396","0.0-204.0-0.0","15126203","wem/bandit_party_2","A3UV55HC87DO9C","either","8","133","","","","","","","0","1","0","","0.8222712862","0.6","0.4","0.8","0.2","0.3603606056","0.8222712862","0.6040136001","0.6096883849","","","","","","","","","","","","","","74","J","1","","","163","main_expt",""
"","bandit","243","477027","0.0-205.0-0.0","15126203","wem/bandit_party_2","A3UV55HC87DO9C","either","8","108","","","","","","","1","0","0","0.7876031225","","0.6","0.4","0.8","0.2","","","","","0.2507209727","0.7876031225","0.623756827","0.4868922288","","","","","","","","","","74","J","1","","","164","main_expt",""
"","bandit","244","478564","0.0-206.0-0.0","15126203","wem/bandit_party_2","A3UV55HC87DO9C","either","8","13","","","","","","","0","0","1","","0.7435052823","0.6","0.4","0.8","0.2","0.2162043423","0.7435052823","0.6164515281","0.4055552053","","","","","","","","","","","","","","74","J","1","","","165","main_expt",""
"","bandit","245","480091","0.0-207.0-0.0","15126203","wem/bandit_party_2","A3UV55HC87DO9C","either","8","2","","","","","","","0","0","1","","0.6545739251","0.6","0.4","0.8","0.2","0.2573409732","0.6545739251","0.4660222187","0.4748236382","","","","","","","","","","","","","","74","J","1","","","166","main_expt",""
"","bandit","246","481914","0.0-208.0-0.0","15126203","wem/bandit_party_2","A3UV55HC87DO9C","either","8","300","","","","","","","0","0","1","0.3336058786","","0.6","0.4","0.8","0.2","","","","","0.4016088623","0.6645907447","0.3336058786","0.4725242185","","","","","","","","","","75","K","2","","","167","main_expt",""
"","bandit","247","483442","0.0-209.0-0.0","15126203","wem/bandit_party_2","A3UV55HC87DO9C","either","8","1","","","","","","","1","0","0","0.5522858252","","0.6","0.4","0.8","0.2","","","","","0.5522858252","0.7243751722","0.2887723434","0.4775208721","","","","","","","","","","72","H","0","img/none_selected.jpg","","168","main_expt",""
"","bandit","248","485043","0.0-210.0-0.0","15126203","wem/bandit_party_2","A3UV55HC87DO9C","either","8","77","","","","","","","1","0","0","0.5461138513","","0.6","0.4","0.8","0.2","","","","","0.5461138513","0.6453105543","0.3357056981","0.4682732781","","","","","","","","","","72","H","0","img/none_selected.jpg","","169","main_expt",""
"","bandit","249","486731","0.0-211.0-0.0","15126203","wem/bandit_party_2","A3UV55HC87DO9C","either","8","164","","","","","","","0","0","1","","0.4402798015","0.6","0.4","0.8","0.2","0.4402798015","0.5334010147","0.4179693295","0.4246621539","","","","","","","","","","","","","","72","H","0","img/none_selected.jpg","","170","main_expt",""
"","bandit","250","488346","0.0-212.0-0.0","15126203","wem/bandit_party_2","A3UV55HC87DO9C","either","8","91","","","","","","","0","0","1","0.450294849","","0.6","0.4","0.8","0.2","","","","","0.450294849","0.498122785","0.3050406521","0.2843380906","","","","","","","","","","72","H","0","img/none_selected.jpg","","171","main_expt",""
"","bandit","251","489930","0.0-213.0-0.0","15126203","wem/bandit_party_2","A3UV55HC87DO9C","either","8","61","","","","","","","0","0","1","0.6475755847","","0.6","0.4","0.8","0.2","","","","","0.6475755847","0.4356988635","0.3364500029","0.2668952485","","","","","","","","","","72","H","0","img/none_selected.jpg","","172","main_expt",""
"","bandit","252","491578","0.0-214.0-0.0","15126203","wem/bandit_party_2","A3UV55HC87DO9C","either","8","123","","","","","","","0","0","1","","0.3802819164","0.6","0.4","0.8","0.2","0.6095255177","0.3964199688","0.421339117","0.3802819164","","","","","","","","","","","","","","76","L","3","","","173","main_expt",""
"","bandit","253","493219","0.0-215.0-0.0","15126203","wem/bandit_party_2","A3UV55HC87DO9C","either","8","116","","","","","","","0","0","1","","0.4042455133","0.6","0.4","0.8","0.2","0.5003628493","0.3194345802","0.4913704717","0.4042455133","","","","","","","","","","","","","","76","L","3","","","174","main_expt",""
"","bandit","254","494851","0.0-216.0-0.0","15126203","wem/bandit_party_2","A3UV55HC87DO9C","either","8","106","","","","","","","0","0","1","0.2865230234","","0.6","0.4","0.8","0.2","","","","","0.5576212716","0.2865230234","0.5882611891","0.4393989914","","","","","","","","","","74","J","1","","","175","main_expt",""
"","bandit","255","496490","0.0-217.0-0.0","15126203","wem/bandit_party_2","A3UV55HC87DO9C","either","8","112","","","","","","","0","0","1","0.6313830356","","0.6","0.4","0.8","0.2","","","","","0.6230679906","0.3352692614","0.6313830356","0.4705173801","","","","","","","","","","75","K","2","","","176","main_expt",""
"","bandit","256","498131","0.0-218.0-0.0","15126203","wem/bandit_party_2","A3UV55HC87DO9C","either","8","113","","","","","","","0","0","1","","0.5531265137","0.6","0.4","0.8","0.2","0.6501784685","0.3389264817","0.5531265137","0.4698597734","","","","","","","","","","","","","","75","K","2","","","177","main_expt",""
"","bandit","257","499723","0.0-219.0-0.0","15126203","wem/bandit_party_2","A3UV55HC87DO9C","either","8","66","","","","","","","0","1","0","","0.3709673039","0.6","0.4","0.8","0.2","0.6334155083","0.3709673039","0.4621004187","0.3570804947","","","","","","","","","","","","","","74","J","1","","","178","main_expt",""
"","bandit","258","501409","0.0-220.0-0.0","15126203","wem/bandit_party_2","A3UV55HC87DO9C","either","8","162","","","","","","","0","0","1","0.2940579202","","0.6","0.4","0.8","0.2","","","","","0.7548338289","0.2940579202","0.512884041","0.3441184995","","","","","","","","","","74","J","1","","","179","main_expt",""
"","bandit","259","503093","0.0-221.0-0.0","15126203","wem/bandit_party_2","A3UV55HC87DO9C","either","8","156","","","","","","","0","0","1","","0.3218724025","0.6","0.4","0.8","0.2","0.8074073351","0.3218724025","0.506744284","0.3646136501","","","","","","","","","","","","","","74","J","1","","","180","main_expt",""
"","bandit","260","504786","0.0-222.0-0.0","15126203","wem/bandit_party_2","A3UV55HC87DO9C","either","8","166","","","","","","","0","0","1","","0.3633286182","0.6","0.4","0.8","0.2","0.780721516","0.3633286182","0.4556494723","0.3777688814","","","","","","","","","","","","","","74","J","1","","","181","main_expt",""
"","bandit","261","506314","0.0-223.0-0.0","15126203","wem/bandit_party_2","A3UV55HC87DO9C","either","8","3","","","","","","","1","0","0","0.7647415088","","0.6","0.4","0.8","0.2","","","","","0.7647415088","0.3324048704","0.4494525508","0.4578236703","","","","","","","","","","72","H","0","img/none_selected.jpg","","182","main_expt",""
"","bandit","262","507985","0.0-224.0-0.0","15126203","wem/bandit_party_2","A3UV55HC87DO9C","either","8","146","","","","","","","1","0","0","0.7349307529","","0.6","0.4","0.8","0.2","","","","","0.7349307529","0.3092830871","0.5189143621","0.4244895098","","","","","","","","","","72","H","0","img/none_selected.jpg","","183","main_expt",""
"","bandit","263","509569","0.0-225.0-0.0","15126203","wem/bandit_party_2","A3UV55HC87DO9C","either","8","59","","","","","","","0","1","0","","0.8298088288","0.6","0.4","0.8","0.2","0.8298088288","0.3905692936","0.5167606333","0.3566779322","","","","","","","","","","","","","","72","H","0","img/none_selected.jpg","","184","main_expt",""
"","bandit","264","511098","0.0-226.0-0.0","15126203","wem/bandit_party_2","A3UV55HC87DO9C","either","8","5","","","","","","","1","0","0","0.7894193193","","0.6","0.4","0.8","0.2","","","","","0.7894193193","0.4626192444","0.5270237034","0.3737416658","","","","","","","","","","72","H","0","img/none_selected.jpg","","185","main_expt",""
"","bandit","265","512874","0.0-227.0-0.0","15126203","wem/bandit_party_2","A3UV55HC87DO9C","either","8","249","","","","","","","0","0","1","","0.7665022487","0.6","0.4","0.8","0.2","0.7665022487","0.6061762586","0.5556036571","0.3120176694","","","","","","","","","","","","","","72","H","0","img/none_selected.jpg","","186","main_expt",""
"","bandit","266","514402","0.0-228.0-0.0","15126203","wem/bandit_party_2","A3UV55HC87DO9C","either","8","2","","","","","","","1","0","0","0.7394266891","","0.6","0.4","0.8","0.2","","","","","0.7394266891","0.530958695","0.5865134094","0.4134691065","","","","","","","","","","72","H","0","img/none_selected.jpg","","187","main_expt",""
"","bandit","267","516065","0.0-229.0-0.0","15126203","wem/bandit_party_2","A3UV55HC87DO9C","either","8","137","","","","","","","1","0","0","0.6567361442","","0.6","0.4","0.8","0.2","","","","","0.6567361442","0.380024655","0.5034866795","0.4637770407","","","","","","","","","","72","H","0","img/none_selected.jpg","","188","main_expt",""
"","bandit","268","517610","0.0-230.0-0.0","15126203","wem/bandit_party_2","A3UV55HC87DO9C","either","8","19","","","","","","","1","0","0","0.6572443956","","0.6","0.4","0.8","0.2","","","","","0.6572443956","0.4563575644","0.5761715841","0.5739034088","","","","","","","","","","72","H","0","img/none_selected.jpg","","189","main_expt",""
"","bandit","269","519306","0.0-231.0-0.0","15126203","wem/bandit_party_2","A3UV55HC87DO9C","either","8","168","","","","","","","0","0","1","0.6735764162","","0.6","0.4","0.8","0.2","","","","","0.6735764162","0.4540853102","0.5325489933","0.5859504021","","","","","","","","","","72","H","0","img/none_selected.jpg","","190","main_expt",""
"","bandit","270","520897","0.0-232.0-0.0","15126203","wem/bandit_party_2","A3UV55HC87DO9C","either","8","66","","","","","","","0","0","1","0.4328006462","","0.6","0.4","0.8","0.2","","","","","0.5997518312","0.4328006462","0.5614919892","0.5325822721","","","","","","","","","","74","J","1","","","191","main_expt",""
"","bandit","271","522450","0.0-233.0-0.0","15126203","wem/bandit_party_2","A3UV55HC87DO9C","either","8","28","","","","","","","0","1","0","","0.5972832049","0.6","0.4","0.8","0.2","0.6582178794","0.4979354652","0.5972832049","0.4622441745","","","","","","","","","","","","","","75","K","2","","","192","main_expt",""
"","bandit","272","523983","0.0-234.0-0.0","15126203","wem/bandit_party_2","A3UV55HC87DO9C","either","8","3","","","","","","","1","0","0","0.6997951875","","0.6","0.4","0.8","0.2","","","","","0.7246172867","0.4887187701","0.6997951875","0.4765036663","","","","","","","","","","75","K","2","","","193","main_expt",""
"","bandit","273","525513","0.0-235.0-0.0","15126203","wem/bandit_party_2","A3UV55HC87DO9C","either","8","5","","","","","","","0","0","1","0.7511051992","","0.6","0.4","0.8","0.2","","","","","0.7721250451","0.4993882896","0.7511051992","0.4504155567","","","","","","","","","","75","K","2","","","194","main_expt",""
"","bandit","274","527305","0.0-236.0-0.0","15126203","wem/bandit_party_2","A3UV55HC87DO9C","either","8","263","","","","","","","0","0","1","0.8281457055","","0.6","0.4","0.8","0.2","","","","","0.8366496483","0.5011331455","0.8281457055","0.4354252764","","","","","","","","","","75","K","2","","","195","main_expt",""
"","bandit","275","528953","0.0-237.0-0.0","15126203","wem/bandit_party_2","A3UV55HC87DO9C","either","8","123","","","","","","","0","0","1","","0.4170899215","0.6","0.4","0.8","0.2","0.8484646997","0.4487960683","0.8248544968","0.4170899215","","","","","","","","","","","","","","76","L","3","","","196","main_expt",""
"","bandit","276","530625","0.0-238.0-0.0","15126203","wem/bandit_party_2","A3UV55HC87DO9C","either","8","147","","","","","","","0","0","1","","0.4149059055","0.6","0.4","0.8","0.2","0.8734060335","0.3975590019","0.8532714289","0.4149059055","","","","","","","","","","","","","","76","L","3","","","197","main_expt",""
"","bandit","277","532385","0.0-239.0-0.0","15126203","wem/bandit_party_2","A3UV55HC87DO9C","either","8","233","","","","","","","1","0","0","0.4161601929","","0.6","0.4","0.8","0.2","","","","","0.8515360685","0.4161601929","0.7587337752","0.4737306044","","","","","","","","","","74","J","1","","","198","main_expt",""
"","bandit","278","533953","0.0-240.0-0.0","15126203","wem/bandit_party_2","A3UV55HC87DO9C","either","8","40","","","","","","","0","1","0","","0.4483979408","0.6","0.4","0.8","0.2","0.8805923715","0.4483979408","0.8124408481","0.4541760911","","","","","","","","","","","","","","74","J","1","","","199","main_expt",""
"","bandit","279","535617","0.0-241.0-0.0","15126203","wem/bandit_party_2","A3UV55HC87DO9C","either","8","136","","","","","","","0","0","1","0.5303380975","","0.6","0.4","0.8","0.2","","","","","0.9645818821","0.5303380975","0.7935778268","0.3964714959","","","","","","","","","","74","J","1","","","200","main_expt",""
"","bandit","280","537288","0.0-242.0-0.0","15126203","wem/bandit_party_2","A3UV55HC87DO9C","either","8","147","","","","","","","0","1","0","","0.4014045657","0.6","0.4","0.8","0.2","0.9689478708","0.4014045657","0.736942723","0.3815447649","","","","","","","","","","","","","","74","J","1","","","201","main_expt",""
"","bandit","281","538841","0.0-243.0-0.0","15126203","wem/bandit_party_2","A3UV55HC87DO9C","either","8","27","","","","","","","0","0","1","","0.5115169607","0.6","0.4","0.8","0.2","0.9678291885","0.5115169607","0.7001951276","0.3726367513","","","","","","","","","","","","","","74","J","1","","","202","main_expt",""
"","bandit","282","540472","0.0-244.0-0.0","15126203","wem/bandit_party_2","A3UV55HC87DO9C","either","8","106","","","","","","","0","0","1","","0.5026191452","0.6","0.4","0.8","0.2","0.9633244117","0.5026191452","0.7209300446","0.3062653216","","","","","","","","","","","","","","74","J","1","","","203","main_expt",""
"","bandit","283","542144","0.0-245.0-0.0","15126203","wem/bandit_party_2","A3UV55HC87DO9C","either","8","146","","","","","","","0","1","0","","0.9730812582","0.6","0.4","0.8","0.2","0.9730812582","0.4736298566","0.8574132932","0.2848501254","","","","","","","","","","","","","","72","H","0","img/none_selected.jpg","","204","main_expt",""
"","bandit","284","543674","0.0-246.0-0.0","15126203","wem/bandit_party_2","A3UV55HC87DO9C","either","8","1","","","","","","","1","0","0","0.9521206422","","0.6","0.4","0.8","0.2","","","","","0.9521206422","0.6121858428","0.9038760074","0.3457586416","","","","","","","","","","72","H","0","img/none_selected.jpg","","205","main_expt",""
"","bandit","285","545426","0.0-247.0-0.0","15126203","wem/bandit_party_2","A3UV55HC87DO9C","either","8","224","","","","","","","0","1","0","","0.9614764056","0.6","0.4","0.8","0.2","0.9614764056","0.6377028942","0.9273356803","0.4609097875","","","","","","","","","","","","","","72","H","0","img/none_selected.jpg","","206","main_expt",""
"","bandit","286","546970","0.0-248.0-0.0","15126203","wem/bandit_party_2","A3UV55HC87DO9C","either","8","17","","","","","","","0","1","0","","0.9625830716","0.6","0.4","0.8","0.2","0.9625830716","0.5700483165","0.9502037039","0.4980316736","","","","","","","","","","","","","","72","H","0","img/none_selected.jpg","","207","main_expt",""
"","bandit","287","548521","0.0-249.0-0.0","15126203","wem/bandit_party_2","A3UV55HC87DO9C","either","8","25","","","","","","","0","1","0","","0.9359306517","0.6","0.4","0.8","0.2","0.9359306517","0.624428721","0.944094639","0.4537691537","","","","","","","","","","","","","","72","H","0","img/none_selected.jpg","","208","main_expt",""
"","bandit","288","550066","0.0-250.0-0.0","15126203","wem/bandit_party_2","A3UV55HC87DO9C","either","8","19","","","","","","","0","1","0","","0.9632917203","0.6","0.4","0.8","0.2","0.9632917203","0.4861871301","0.9070839441","0.4475842875","","","","","","","","","","","","","","72","H","0","img/none_selected.jpg","","209","main_expt",""
"","bandit","289","552264","0.0-251.0-0.0","15126203","wem/bandit_party_2","A3UV55HC87DO9C","either","8","673","","","","","","","0","1","0","","0.9633226214","0.6","0.4","0.8","0.2","0.9633226214","0.3956361612","0.8960653589","0.4803454055","","","","","","","","","","","","","","72","H","0","img/none_selected.jpg","","210","main_expt",""
"","bandit","290","553880","0.0-252.0-0.0","15126203","wem/bandit_party_2","A3UV55HC87DO9C","either","8","89","","","","","","","1","0","0","0.9719781217","","0.6","0.4","0.8","0.2","","","","","0.9719781217","0.3599204452","0.9155455821","0.4126443349","","","","","","","","","","72","H","0","img/none_selected.jpg","","211","main_expt",""
"","bandit","291","555410","0.0-253.0-0.0","15126203","wem/bandit_party_2","A3UV55HC87DO9C","either","8","3","","","","","","","0","1","0","","0.9700781686","0.6","0.4","0.8","0.2","0.9700781686","0.3349000901","0.9087954588","0.3384802849","","","","","","","","","","","","","","72","H","0","img/none_selected.jpg","","212","main_expt",""
"","bandit","292","557016","0.0-254.0-0.0","15126203","wem/bandit_party_2","A3UV55HC87DO9C","either","8","79","","","","","","","0","1","0","","0.971165811","0.6","0.4","0.8","0.2","0.971165811","0.3183344176","0.8528540962","0.3039242722","","","","","","","","","","","","","","72","H","0","img/none_selected.jpg","","213","main_expt",""
"","bandit","293","558664","0.0-255.0-0.0","15126203","wem/bandit_party_2","A3UV55HC87DO9C","either","8","120","","","","","","","1","0","0","0.9627117","","0.6","0.4","0.8","0.2","","","","","0.9627117","0.2390758011","0.8506041988","0.4541530846","","","","","","","","","","72","H","0","img/none_selected.jpg","","214","main_expt",""
"","bandit","294","560328","0.0-256.0-0.0","15126203","wem/bandit_party_2","A3UV55HC87DO9C","either","8","137","","","","","","","1","0","0","0.9552130497","","0.6","0.4","0.8","0.2","","","","","0.9552130497","0.1997060473","0.8001829978","0.5101749692","","","","","","","","","","72","H","0","img/none_selected.jpg","","215","main_expt",""
"","bandit","295","561976","0.0-257.0-0.0","15126203","wem/bandit_party_2","A3UV55HC87DO9C","either","8","120","","","","","","","0","1","0","","0.9220350188","0.6","0.4","0.8","0.2","0.9220350188","0.2326539104","0.733614842","0.5580520347","","","","","","","","","","","","","","72","H","0","img/none_selected.jpg","","216","main_expt",""
"","bandit","296","563632","0.0-258.0-0.0","15126203","wem/bandit_party_2","A3UV55HC87DO9C","either","8","131","","","","","","","1","0","0","0.8736667029","","0.6","0.4","0.8","0.2","","","","","0.8736667029","0.2319826337","0.7479737912","0.4368451062","","","","","","","","","","72","H","0","img/none_selected.jpg","","217","main_expt",""
"","bandit","297","565328","0.0-259.0-0.0","15126203","wem/bandit_party_2","A3UV55HC87DO9C","either","8","168","","","","","","","0","0","1","","0.7602784417","0.6","0.4","0.8","0.2","0.7602784417","0.3143382807","0.7713398237","0.3963441813","","","","","","","","","","","","","","72","H","0","img/none_selected.jpg","","218","main_expt",""
"","bandit","298","566970","0.0-260.0-0.0","15126203","wem/bandit_party_2","A3UV55HC87DO9C","either","8","116","","","","","","","0","1","0","","0.7643050859","0.6","0.4","0.8","0.2","0.7643050859","0.3304972923","0.8077055691","0.4809426617","","","","","","","","","","","","","","72","H","0","img/none_selected.jpg","","219","main_expt",""
"","bandit","299","568568","0.0-261.0-0.0","15126203","wem/bandit_party_2","A3UV55HC87DO9C","either","8","74","","","","","","","1","0","0","0.7793587236","","0.6","0.4","0.8","0.2","","","","","0.7793587236","0.2866104843","0.7778114837","0.397759556","","","","","","","","","","72","H","0","img/none_selected.jpg","","220","main_expt",""
"","bandit","300","570176","0.0-262.0-0.0","15126203","wem/bandit_party_2","A3UV55HC87DO9C","either","8","84","","","","","","","0","0","1","0.82086311","","0.6","0.4","0.8","0.2","","","","","0.82086311","0.3602561646","0.7214198583","0.4087677593","","","","","","","","","","72","H","0","img/none_selected.jpg","","221","main_expt",""
"","bandit","301","571775","0.0-263.0-0.0","15126203","wem/bandit_party_2","A3UV55HC87DO9C","either","8","75","","","","","","","1","0","0","0.8543662658","","0.6","0.4","0.8","0.2","","","","","0.8543662658","0.3228749062","0.8091526303","0.4561280915","","","","","","","","","","72","H","0","img/none_selected.jpg","","222","main_expt",""
"","bandit","302","574089","0.0-264.0-0.0","15126203","wem/bandit_party_2","A3UV55HC87DO9C","either","8","789","","","","","","","0","1","0","","0.8599459829","0.6","0.4","0.8","0.2","0.8599459829","0.2549485676","0.8240838469","0.4419858618","","","","","","","","","","","","","","72","H","0","img/none_selected.jpg","","223","main_expt",""
"","bandit","303","575625","0.0-265.0-0.0","15126203","wem/bandit_party_2","A3UV55HC87DO9C","either","8","12","","","","","","","1","0","0","0.8747991669","","0.6","0.4","0.8","0.2","","","","","0.8747991669","0.2389333491","0.7670685714","0.494409337","","","","","","","","","","72","H","0","img/none_selected.jpg","","224","main_expt",""
"","bandit","304","577177","0.0-266.0-0.0","15126203","wem/bandit_party_2","A3UV55HC87DO9C","either","8","24","","","","","","","1","0","0","0.7910409491","","0.6","0.4","0.8","0.2","","","","","0.7910409491","0.1517307125","0.8775689376","0.3713348049","","","","","","","","","","72","H","0","img/none_selected.jpg","","225","main_expt",""
"","bandit","305","578897","0.0-267.0-0.0","15126203","wem/bandit_party_2","A3UV55HC87DO9C","either","8","190","","","","","","","0","0","1","","0.7212928749","0.6","0.4","0.8","0.2","0.7212928749","0.1002450003","0.8846504348","0.4013452417","","","","","","","","","","","","","","72","H","0","img/none_selected.jpg","","226","main_expt",""
"","bandit","306","580506","0.0-268.0-0.0","15126203","wem/bandit_party_2","A3UV55HC87DO9C","either","8","79","","","","","","","1","0","0","0.7090989562","","0.6","0.4","0.8","0.2","","","","","0.7090989562","0.1049945928","0.851087938","0.393451628","","","","","","","","","","72","H","0","img/none_selected.jpg","","227","main_expt",""
"","bandit","307","582064","0.0-269.0-0.0","15126203","wem/bandit_party_2","A3UV55HC87DO9C","either","8","30","","","","","","","0","0","1","","0.6606736223","0.6","0.4","0.8","0.2","0.6606736223","0.03915988122","0.9074720337","0.4175844788","","","","","","","","","","","","","","72","H","0","img/none_selected.jpg","","228","main_expt",""
"","bandit","308","583696","0.0-270.0-0.0","15126203","wem/bandit_party_2","A3UV55HC87DO9C","either","8","104","","","","","","","0","1","0","","0.6893924153","0.6","0.4","0.8","0.2","0.6893924153","0.03767516843","0.872332114","0.408368909","","","","","","","","","","","","","","72","H","0","img/none_selected.jpg","","229","main_expt",""
"","bandit","309","585327","0.0-271.0-0.0","15126203","wem/bandit_party_2","A3UV55HC87DO9C","either","8","103","","","","","","","0","0","1","0.6067604319","","0.6","0.4","0.8","0.2","","","","","0.6067604319","0.05804790214","0.7967167456","0.4777699032","","","","","","","","","","72","H","0","img/none_selected.jpg","","230","main_expt",""
"","bandit","310","586919","0.0-272.0-0.0","15126203","wem/bandit_party_2","A3UV55HC87DO9C","either","8","65","","","","","","","0","0","1","","0.5037419277","0.6","0.4","0.8","0.2","0.5037419277","0.04963095007","0.7760618079","0.4935442242","","","","","","","","","","","","","","72","H","0","img/none_selected.jpg","","231","main_expt",""
"","bandit","311","588567","0.0-273.0-0.0","15126203","wem/bandit_party_2","A3UV55HC87DO9C","either","8","117","","","","","","","0","0","1","","0.03759782928","0.6","0.4","0.8","0.2","0.4339479185","0.03759782928","0.7765467853","0.4889590317","","","","","","","","","","","","","","74","J","1","","","232","main_expt",""
"","bandit","312","590287","0.0-274.0-0.0","15126203","wem/bandit_party_2","A3UV55HC87DO9C","either","8","193","","","","","","","0","1","0","","0.7895219362","0.6","0.4","0.8","0.2","0.4525546635","0.03147013274","0.7895219362","0.5212294662","","","","","","","","","","","","","","75","K","2","","","233","main_expt",""
"","bandit","313","591866","0.0-275.0-0.0","15126203","wem/bandit_party_2","A3UV55HC87DO9C","either","8","52","","","","","","","1","0","0","0.7491899586","","0.6","0.4","0.8","0.2","","","","","0.3680080929","0.03547440544","0.7491899586","0.4420617392","","","","","","","","","","75","K","2","","","234","main_expt",""
"","bandit","314","593392","0.0-276.0-0.0","15126203","wem/bandit_party_2","A3UV55HC87DO9C","either","8","1","","","","","","","1","0","0","0.7397351474","","0.6","0.4","0.8","0.2","","","","","0.3416373547","0.04486782706","0.7397351474","0.4816955248","","","","","","","","","","75","K","2","","","235","main_expt",""
"","bandit","315","595062","0.0-277.0-0.0","15126203","wem/bandit_party_2","A3UV55HC87DO9C","either","8","145","","","","","","","1","0","0","0.6587673302","","0.6","0.4","0.8","0.2","","","","","0.3722877153","0.03122339122","0.6587673302","0.3028121716","","","","","","","","","","75","K","2","","","236","main_expt",""
