"consent","trial_type","trial_index","time_elapsed","internal_node_id","subjID","study","MID","cond","drift","rt","responses","button_pressed","key_press","like","value","connected","gems","bombs","no_reward","GemPrChosen","BombPrChosen","GainOverPainPr_0","GainOverPainPr_1","GainOverPainPr_2","GainOverPainPr_3","LosePr_0","LosePr_1","LosePr_2","LosePr_3","WinPr_0","WinPr_1","WinPr_2","WinPr_3","Q0","Q1","Q2","gender","age","ethnicity","label","expt_phase","target","respCharCode","respKey","respChoiceNum","respChoice","practice","trial_counter","trial_label","Q0_index"
"GDM/GDM_behavioral_consent_30min_online.html","consent","0","6545","0.0-0.0","16593974","wem/bandit_party_2","A1KQWBK5WHCNYQ","either","6","","","","","","","","","","","","","","","","","","","","","","","","","","","","","","","","","","","","","","","","",""
"","survey-text","1","12730","0.0-1.0","16593974","wem/bandit_party_2","A1KQWBK5WHCNYQ","either","6","5178","{""Q0"":""A1KQWBK5WHCNYQ""}","","","","","","","","","","","","","","","","","","","","","","","","","","","","","","","","","","","","","","",""
"","button-response","2","15200","0.0-2.0","16593974","wem/bandit_party_2","A1KQWBK5WHCNYQ","either","6","1462","","1","","","","","","","","","","","","","","","","","","","","","","","","","","","","","","","","","","","","","",""
"","text-replacement","3","25812","0.0-3.0","16593974","wem/bandit_party_2","A1KQWBK5WHCNYQ","either","6","9608","","","32","","","","","","","","","","","","","","","","","","","","","","","","","","","","","","","","","","","","",""
"","text-replacement","4","38343","0.0-4.0","16593974","wem/bandit_party_2","A1KQWBK5WHCNYQ","either","6","12527","","","32","","","","","","","","","","","","","","","","","","","","","","","","","","","","","","","","","","","","",""
"","identification","5","44246","0.0-6.0-0.0","16593974","wem/bandit_party_2","A1KQWBK5WHCNYQ","either","6","5873","","","","3","3","3","","","","","","","","","","","","","","","","","","","","","","","","pre","identification_pre","the Republican Party","","","","","","","",""
"","identification","6","48037","0.0-6.0-1.0","16593974","wem/bandit_party_2","A1KQWBK5WHCNYQ","either","6","2770","","","","3","3","3","","","","","","","","","","","","","","","","","","","","","","","","pre","identification_pre","the Democratic Party","","","","","","","",""
"","text-replacement","7","54772","0.0-7.0","16593974","wem/bandit_party_2","A1KQWBK5WHCNYQ","either","6","5729","","","32","","","","","","","","","","","","","","","","","","","","","","","","","","","","","","","","","","","","",""
"","text-replacement","8","62448","0.0-8.0","16593974","wem/bandit_party_2","A1KQWBK5WHCNYQ","either","6","7673","","","32","","","","","","","","","","","","","","","","","","","","","","","","","","","","","","","","","","","","",""
"","text-replacement","9","74045","0.0-9.0","16593974","wem/bandit_party_2","A1KQWBK5WHCNYQ","either","6","11592","","","32","","","","","","","","","","","","","","","","","","","","","","","","","","","","","","","","","","","","",""
"","text-replacement","10","76965","0.0-10.0","16593974","wem/bandit_party_2","A1KQWBK5WHCNYQ","either","6","2916","","","32","","","","","","","","","","","","","","","","","","","","","","","","","","","","","","","","","","","","",""
"","text-replacement","11","83776","0.0-11.0","16593974","wem/bandit_party_2","A1KQWBK5WHCNYQ","either","6","6808","","","32","","","","","","","","","","","","","","","","","","","","","","","","","","","","","","","","","","","","",""
"","bandit","12","87381","0.0-12.0-0.0","16593974","wem/bandit_party_2","A1KQWBK5WHCNYQ","either","6","2092","","","","","","","0","0","1","0","0","","","","","0","","","","0","","","","","","","","","","","","","74","J","0","img/none_selected_demo.jpg","true","0","",""
"","bandit","13","90808","0.0-13.0-0.0","16593974","wem/bandit_party_2","A1KQWBK5WHCNYQ","either","6","1921","","","","","","","0","0","1","0","0","","","","","0","","","","0","","","","","","","","","","","","","75","K","0","img/none_selected_demo.jpg","true","0","",""
"","text-replacement","14","109053","0.0-14.0","16593974","wem/bandit_party_2","A1KQWBK5WHCNYQ","either","6","18242","","","32","","","","","","","","","","","","","","","","","","","","","","","","","","","","","","","","","","","","",""
"","text-replacement","15","114415","0.0-15.0","16593974","wem/bandit_party_2","A1KQWBK5WHCNYQ","either","6","5358","","","32","","","","","","","","","","","","","","","","","","","","","","","","","","","","","","","","","","","","",""
"","text-replacement","16","126452","0.0-16.0","16593974","wem/bandit_party_2","A1KQWBK5WHCNYQ","either","6","12035","","","32","","","","","","","","","","","","","","","","","","","","","","","","","","","","","","","","","","","","",""
"","text-replacement","17","130913","0.0-17.0","16593974","wem/bandit_party_2","A1KQWBK5WHCNYQ","either","6","4457","","","32","","","","","","","","","","","","","","","","","","","","","","","","","","","","","","","","","","","","",""
"","bandit","18","132982","0.0-18.0-0.0","16593974","wem/bandit_party_2","A1KQWBK5WHCNYQ","either","6","558","","","","","","","1","0","0","0.8","","0.5","0.5","","","","","","","0.8","0.2","","","","","","","","","","","","74","J","0","img/none_selected_demo.jpg","true","0","80_20_practice",""
"","bandit","19","134961","0.0-18.0-1.0","16593974","wem/bandit_party_2","A1KQWBK5WHCNYQ","either","6","469","","","","","","","1","0","0","0.8","","0.5","0.5","","","","","","","0.8","0.2","","","","","","","","","","","","74","J","0","img/none_selected_demo.jpg","true","0","80_20_practice",""
"","bandit","20","136817","0.0-18.0-2.0","16593974","wem/bandit_party_2","A1KQWBK5WHCNYQ","either","6","346","","","","","","","0","0","1","","0.8","0.5","0.5","","","0.8","0.2","","","","","","","","","","","","","","","","74","J","0","img/none_selected_demo.jpg","true","0","80_20_practice",""
"","bandit","21","138837","0.0-18.0-3.0","16593974","wem/bandit_party_2","A1KQWBK5WHCNYQ","either","6","508","","","","","","","0","1","0","","0.8","0.5","0.5","","","0.8","0.2","","","","","","","","","","","","","","","","74","J","0","img/none_selected_demo.jpg","true","0","80_20_practice",""
"","bandit","22","140826","0.0-18.0-4.0","16593974","wem/bandit_party_2","A1KQWBK5WHCNYQ","either","6","480","","","","","","","0","0","1","","0.2","0.5","0.5","","","0.8","0.2","","","","","","","","","","","","","","","","75","K","1","","true","0","80_20_practice",""
"","bandit","23","142628","0.0-18.0-5.0","16593974","wem/bandit_party_2","A1KQWBK5WHCNYQ","either","6","291","","","","","","","1","0","0","0.2","","0.5","0.5","","","","","","","0.8","0.2","","","","","","","","","","","","75","K","1","","true","0","80_20_practice",""
"","bandit","24","144396","0.0-18.0-6.0","16593974","wem/bandit_party_2","A1KQWBK5WHCNYQ","either","6","257","","","","","","","0","0","1","0.2","","0.5","0.5","","","","","","","0.8","0.2","","","","","","","","","","","","75","K","1","","true","0","80_20_practice",""
"","bandit","25","146733","0.0-18.0-7.0","16593974","wem/bandit_party_2","A1KQWBK5WHCNYQ","either","6","826","","","","","","","0","0","1","0.2","","0.5","0.5","","","","","","","0.8","0.2","","","","","","","","","","","","75","K","1","","true","0","80_20_practice",""
"","bandit","26","148757","0.0-18.0-8.0","16593974","wem/bandit_party_2","A1KQWBK5WHCNYQ","either","6","516","","","","","","","0","0","1","0.8","","0.5","0.5","","","","","","","0.8","0.2","","","","","","","","","","","","74","J","0","img/none_selected_demo.jpg","true","0","80_20_practice",""
"","bandit","27","151250","0.0-18.0-9.0","16593974","wem/bandit_party_2","A1KQWBK5WHCNYQ","either","6","984","","","","","","","1","0","0","0.8","","0.5","0.5","","","","","","","0.8","0.2","","","","","","","","","","","","74","J","0","img/none_selected_demo.jpg","true","0","80_20_practice",""
"","bandit","28","153758","0.0-18.0-10.0","16593974","wem/bandit_party_2","A1KQWBK5WHCNYQ","either","6","1000","","","","","","","0","0","1","0.8","","0.5","0.5","","","","","","","0.8","0.2","","","","","","","","","","","","74","J","0","img/none_selected_demo.jpg","true","0","80_20_practice",""
"","bandit","29","156089","0.0-18.0-11.0","16593974","wem/bandit_party_2","A1KQWBK5WHCNYQ","either","6","821","","","","","","","1","0","0","0.8","","0.5","0.5","","","","","","","0.8","0.2","","","","","","","","","","","","74","J","0","img/none_selected_demo.jpg","true","0","80_20_practice",""
"","bandit","30","158558","0.0-18.0-12.0","16593974","wem/bandit_party_2","A1KQWBK5WHCNYQ","either","6","960","","","","","","","0","0","1","","0.8","0.5","0.5","","","0.8","0.2","","","","","","","","","","","","","","","","74","J","0","img/none_selected_demo.jpg","true","0","80_20_practice",""
"","bandit","31","161060","0.0-18.0-13.0","16593974","wem/bandit_party_2","A1KQWBK5WHCNYQ","either","6","991","","","","","","","0","0","1","0.8","","0.5","0.5","","","","","","","0.8","0.2","","","","","","","","","","","","74","J","0","img/none_selected_demo.jpg","true","0","80_20_practice",""
"","bandit","32","162977","0.0-18.0-14.0","16593974","wem/bandit_party_2","A1KQWBK5WHCNYQ","either","6","406","","","","","","","0","0","1","","0.2","0.5","0.5","","","0.8","0.2","","","","","","","","","","","","","","","","75","K","1","","true","0","80_20_practice",""
"","bandit","33","164896","0.0-18.0-15.0","16593974","wem/bandit_party_2","A1KQWBK5WHCNYQ","either","6","410","","","","","","","0","1","0","","0.8","0.5","0.5","","","0.8","0.2","","","","","","","","","","","","","","","","74","J","0","img/none_selected_demo.jpg","true","0","80_20_practice",""
"","bandit","34","167840","0.0-18.0-16.0","16593974","wem/bandit_party_2","A1KQWBK5WHCNYQ","either","6","1437","","","","","","","1","0","0","0.8","","0.5","0.5","","","","","","","0.8","0.2","","","","","","","","","","","","74","J","0","img/none_selected_demo.jpg","true","0","80_20_practice",""
"","bandit","35","170552","0.0-18.0-17.0","16593974","wem/bandit_party_2","A1KQWBK5WHCNYQ","either","6","1199","","","","","","","0","1","0","","0.8","0.5","0.5","","","0.8","0.2","","","","","","","","","","","","","","","","74","J","0","img/none_selected_demo.jpg","true","0","80_20_practice",""
"","bandit","36","172505","0.0-18.0-18.0","16593974","wem/bandit_party_2","A1KQWBK5WHCNYQ","either","6","445","","","","","","","1","0","0","0.8","","0.5","0.5","","","","","","","0.8","0.2","","","","","","","","","","","","74","J","0","img/none_selected_demo.jpg","true","0","80_20_practice",""
"","bandit","37","175117","0.0-18.0-19.0","16593974","wem/bandit_party_2","A1KQWBK5WHCNYQ","either","6","1102","","","","","","","1","0","0","0.8","","0.5","0.5","","","","","","","0.8","0.2","","","","","","","","","","","","74","J","0","img/none_selected_demo.jpg","true","0","80_20_practice",""
"","text-replacement","38","180285","0.0-19.0","16593974","wem/bandit_party_2","A1KQWBK5WHCNYQ","either","6","5164","","","32","","","","","","","","","","","","","","","","","","","","","","","","","","","","","","","","","","","","",""
"","bandit","39","183242","0.0-20.0-0.0","16593974","wem/bandit_party_2","A1KQWBK5WHCNYQ","either","6","1447","","","","","","","1","0","0","1","0","","","","","0","1","","","1","0","","","","","","","","","","","","74","J","0","img/none_selected_demo.jpg","true","0","",""
"","text-replacement","40","194675","0.0-21.0","16593974","wem/bandit_party_2","A1KQWBK5WHCNYQ","either","6","11431","","","32","","","","","","","","","","","","","","","","","","","","","","","","","","","","","","","","","","","","",""
"","text-replacement","41","197314","0.0-22.0","16593974","wem/bandit_party_2","A1KQWBK5WHCNYQ","either","6","2633","","","32","","","","","","","","","","","","","","","","","","","","","","","","","","","","","","","","","","","","",""
"","text-replacement","42","200100","0.0-23.0","16593974","wem/bandit_party_2","A1KQWBK5WHCNYQ","either","6","2782","","","32","","","","","","","","","","","","","","","","","","","","","","","","","","","","","","","","","","","","",""
"","text-replacement","43","203265","0.0-24.0","16593974","wem/bandit_party_2","A1KQWBK5WHCNYQ","either","6","3161","","","32","","","","","","","","","","","","","","","","","","","","","","","","","","","","","","","","","","","","",""
"","text-replacement","44","214634","0.0-25.0","16593974","wem/bandit_party_2","A1KQWBK5WHCNYQ","either","6","11365","","","32","","","","","","","","","","","","","","","","","","","","","","","","","","","","","","","","","","","","",""
"","text-replacement","45","220208","0.0-26.0","16593974","wem/bandit_party_2","A1KQWBK5WHCNYQ","either","6","5570","","","32","","","","","","","","","","","","","","","","","","","","","","","","","","","","","","","","","","","","",""
"","text-replacement","46","229248","0.0-27.0","16593974","wem/bandit_party_2","A1KQWBK5WHCNYQ","either","6","9036","","","32","","","","","","","","","","","","","","","","","","","","","","","","","","","","","","","","","","","","",""
"","text-replacement","47","232923","0.0-28.0","16593974","wem/bandit_party_2","A1KQWBK5WHCNYQ","either","6","3672","","","32","","","","","","","","","","","","","","","","","","","","","","","","","","","","","","","","","","","","",""
"","text-replacement","48","268398","0.0-29.0","16593974","wem/bandit_party_2","A1KQWBK5WHCNYQ","either","6","35469","","","32","","","","","","","","","","","","","","","","","","","","","","","","","","","","","","","","","","","","",""
"","text-replacement","49","270330","0.0-30.0","16593974","wem/bandit_party_2","A1KQWBK5WHCNYQ","either","6","1928","","","32","","","","","","","","","","","","","","","","","","","","","","","","","","","","","","","","","","","","",""
"","text-replacement","50","272896","0.0-31.0","16593974","wem/bandit_party_2","A1KQWBK5WHCNYQ","either","6","2561","","","32","","","","","","","","","","","","","","","","","","","","","","","","","","","","","","","","","","","","",""
"","bandit","51","275142","0.0-32.0-0.0","16593974","wem/bandit_party_2","A1KQWBK5WHCNYQ","either","6","736","","","","","","","0","1","0","","0.8","0.5","0.5","0.5","0.5","0.8","0.2","0.6","0.2","","","","","","","","","","","","","","72","H","0","img/none_selected.jpg","true","0","full_practice",""
"","bandit","52","277171","0.0-32.0-1.0","16593974","wem/bandit_party_2","A1KQWBK5WHCNYQ","either","6","517","","","","","","","0","1","0","","0.8","0.5","0.5","0.5","0.5","0.8","0.2","0.6","0.2","","","","","","","","","","","","","","72","H","0","img/none_selected.jpg","true","0","full_practice",""
"","bandit","53","279042","0.0-32.0-2.0","16593974","wem/bandit_party_2","A1KQWBK5WHCNYQ","either","6","362","","","","","","","0","1","0","","0.8","0.5","0.5","0.5","0.5","0.8","0.2","0.6","0.2","","","","","","","","","","","","","","72","H","0","img/none_selected.jpg","true","0","full_practice",""
"","bandit","54","281036","0.0-32.0-3.0","16593974","wem/bandit_party_2","A1KQWBK5WHCNYQ","either","6","481","","","","","","","0","1","0","","0.8","0.5","0.5","0.5","0.5","0.8","0.2","0.6","0.2","","","","","","","","","","","","","","72","H","0","img/none_selected.jpg","true","0","full_practice",""
"","bandit","55","283068","0.0-32.0-4.0","16593974","wem/bandit_party_2","A1KQWBK5WHCNYQ","either","6","523","","","","","","","1","0","0","0.8","","0.5","0.5","0.5","0.5","","","","","0.8","0.2","0.6","0.2","","","","","","","","","","72","H","0","img/none_selected.jpg","true","0","full_practice",""
"","bandit","56","284970","0.0-32.0-5.0","16593974","wem/bandit_party_2","A1KQWBK5WHCNYQ","either","6","392","","","","","","","0","1","0","","0.8","0.5","0.5","0.5","0.5","0.8","0.2","0.6","0.2","","","","","","","","","","","","","","72","H","0","img/none_selected.jpg","true","0","full_practice",""
"","bandit","57","287081","0.0-32.0-6.0","16593974","wem/bandit_party_2","A1KQWBK5WHCNYQ","either","6","606","","","","","","","1","0","0","0.8","","0.5","0.5","0.5","0.5","","","","","0.8","0.2","0.6","0.2","","","","","","","","","","72","H","0","img/none_selected.jpg","true","0","full_practice",""
"","bandit","58","289076","0.0-32.0-7.0","16593974","wem/bandit_party_2","A1KQWBK5WHCNYQ","either","6","490","","","","","","","0","0","1","","0.2","0.5","0.5","0.5","0.5","0.8","0.2","0.6","0.2","","","","","","","","","","","","","","74","J","1","","true","0","full_practice",""
"","bandit","59","290815","0.0-32.0-8.0","16593974","wem/bandit_party_2","A1KQWBK5WHCNYQ","either","6","233","","","","","","","0","0","1","0.8","","0.5","0.5","0.5","0.5","","","","","0.8","0.2","0.6","0.2","","","","","","","","","","72","H","0","img/none_selected.jpg","true","0","full_practice",""
"","bandit","60","292513","0.0-32.0-9.0","16593974","wem/bandit_party_2","A1KQWBK5WHCNYQ","either","6","192","","","","","","","0","0","1","0.6","","0.5","0.5","0.5","0.5","","","","","0.8","0.2","0.6","0.2","","","","","","","","","","75","K","2","","true","0","full_practice",""
"","bandit","61","294319","0.0-32.0-10.0","16593974","wem/bandit_party_2","A1KQWBK5WHCNYQ","either","6","294","","","","","","","0","0","1","","0.2","0.5","0.5","0.5","0.5","0.8","0.2","0.6","0.2","","","","","","","","","","","","","","76","L","3","","true","0","full_practice",""
"","bandit","62","296163","0.0-32.0-11.0","16593974","wem/bandit_party_2","A1KQWBK5WHCNYQ","either","6","335","","","","","","","0","0","1","0.8","","0.5","0.5","0.5","0.5","","","","","0.8","0.2","0.6","0.2","","","","","","","","","","72","H","0","img/none_selected.jpg","true","0","full_practice",""
"","bandit","63","299034","0.0-32.0-12.0","16593974","wem/bandit_party_2","A1KQWBK5WHCNYQ","either","6","1356","","","","","","","0","0","1","0.2","","0.5","0.5","0.5","0.5","","","","","0.8","0.2","0.6","0.2","","","","","","","","","","74","J","1","","true","0","full_practice",""
"","bandit","64","300757","0.0-32.0-13.0","16593974","wem/bandit_party_2","A1KQWBK5WHCNYQ","either","6","213","","","","","","","1","0","0","0.6","","0.5","0.5","0.5","0.5","","","","","0.8","0.2","0.6","0.2","","","","","","","","","","75","K","2","","true","0","full_practice",""
"","bandit","65","302637","0.0-32.0-14.0","16593974","wem/bandit_party_2","A1KQWBK5WHCNYQ","either","6","372","","","","","","","0","0","1","","0.6","0.5","0.5","0.5","0.5","0.8","0.2","0.6","0.2","","","","","","","","","","","","","","75","K","2","","true","0","full_practice",""
"","bandit","66","304513","0.0-32.0-15.0","16593974","wem/bandit_party_2","A1KQWBK5WHCNYQ","either","6","365","","","","","","","0","0","1","0.2","","0.5","0.5","0.5","0.5","","","","","0.8","0.2","0.6","0.2","","","","","","","","","","76","L","3","","true","0","full_practice",""
"","bandit","67","306300","0.0-32.0-16.0","16593974","wem/bandit_party_2","A1KQWBK5WHCNYQ","either","6","274","","","","","","","0","0","1","0.6","","0.5","0.5","0.5","0.5","","","","","0.8","0.2","0.6","0.2","","","","","","","","","","75","K","2","","true","0","full_practice",""
"","bandit","68","308129","0.0-32.0-17.0","16593974","wem/bandit_party_2","A1KQWBK5WHCNYQ","either","6","318","","","","","","","0","1","0","","0.8","0.5","0.5","0.5","0.5","0.8","0.2","0.6","0.2","","","","","","","","","","","","","","72","H","0","img/none_selected.jpg","true","0","full_practice",""
"","bandit","69","310129","0.0-32.0-18.0","16593974","wem/bandit_party_2","A1KQWBK5WHCNYQ","either","6","489","","","","","","","0","0","1","0.8","","0.5","0.5","0.5","0.5","","","","","0.8","0.2","0.6","0.2","","","","","","","","","","72","H","0","img/none_selected.jpg","true","0","full_practice",""
"","bandit","70","312021","0.0-32.0-19.0","16593974","wem/bandit_party_2","A1KQWBK5WHCNYQ","either","6","382","","","","","","","0","0","1","0.2","","0.5","0.5","0.5","0.5","","","","","0.8","0.2","0.6","0.2","","","","","","","","","","74","J","1","","true","0","full_practice",""
"","text","71","332541","0.0-33.0","16593974","wem/bandit_party_2","A1KQWBK5WHCNYQ","either","6","20501","","","32","","","","","","","","","","","","","","","","","","","","","","","","","","","","","","","","","","","","",""
"","text-replacement","72","345136","0.0-34.0","16593974","wem/bandit_party_2","A1KQWBK5WHCNYQ","either","6","11588","","","32","","","","","","","","","","","","","","","","","","","","","","","","","","","","","","","","","","","","",""
"","text-replacement","73","364470","0.0-35.0","16593974","wem/bandit_party_2","A1KQWBK5WHCNYQ","either","6","19327","","","32","","","","","","","","","","","","","","","","","","","","","","","","","","","","","","","","","","","","",""
"","text-replacement","74","368507","0.0-36.0","16593974","wem/bandit_party_2","A1KQWBK5WHCNYQ","either","6","4030","","","32","","","","","","","","","","","","","","","","","","","","","","","","","","","","","","","","","","","","",""
"","text-replacement","75","372365","0.0-37.0","16593974","wem/bandit_party_2","A1KQWBK5WHCNYQ","either","6","3855","","","32","","","","","","","","","","","","","","","","","","","","","","","","","","","","","","","","","","","","",""
"","text-replacement","76","377469","0.0-38.0","16593974","wem/bandit_party_2","A1KQWBK5WHCNYQ","either","6","5100","","","32","","","","","","","","","","","","","","","","","","","","","","","","","","","","","","","","","","","","",""
"","survey-multi-choice-replacement","77","388304","0.0-39.0-0.0","16593974","wem/bandit_party_2","A1KQWBK5WHCNYQ","either","6","10828","","","","","","","","","","","","","","","","","","","","","","","","Money will be added to the pool for <span style='color:blue;'>DEMOCRATS</span>","","","","","","","attn_check","","","","","","","","","0"
"","survey-multi-choice-replacement","78","395096","0.0-40.0-0.0","16593974","wem/bandit_party_2","A1KQWBK5WHCNYQ","either","6","5777","","","","","","","","","","","","","","","","","","","","","","","","Equal amounts of money will be added to the pool for <span style='color:blue;'>DEMOCRATS</span> and subtracted from the pool for <span style='color:red;'>REPUBLICANS</span>","","","","","","","attn_check","","","","","","","","","2"
"","survey-multi-choice-replacement","79","398848","0.0-41.0-0.0","16593974","wem/bandit_party_2","A1KQWBK5WHCNYQ","either","6","2735","","","","","","","","","","","","","","","","","","","","","","","","No money will be added to either pool","","","","","","","attn_check","","","","","","","","","3"
"","bandit","80","403397","0.0-42.0-0.0","16593974","wem/bandit_party_2","A1KQWBK5WHCNYQ","either","6","2033","","","","","","","1","0","0","0.1947351938","","0.4","0.8","0.2","0.6","","","","","0.1947351938","0.3049938501","0.7197236342","0.2309914537","","","","","","","","","","72","H","0","img/none_selected.jpg","","1","main_expt",""
"","bandit","81","405425","0.0-43.0-0.0","16593974","wem/bandit_party_2","A1KQWBK5WHCNYQ","either","6","515","","","","","","","0","0","1","","0.1865171684","0.4","0.8","0.2","0.6","0.1865171684","0.3105507028","0.7453792406","0.2351366282","","","","","","","","","","","","","","72","H","0","img/none_selected.jpg","","2","main_expt",""
"","bandit","82","407501","0.0-44.0-0.0","16593974","wem/bandit_party_2","A1KQWBK5WHCNYQ","either","6","564","","","","","","","1","0","0","0.1578482069","","0.4","0.8","0.2","0.6","","","","","0.1578482069","0.347932066","0.7422746785","0.3338792953","","","","","","","","","","72","H","0","img/none_selected.jpg","","3","main_expt",""
"","bandit","83","409828","0.0-45.0-0.0","16593974","wem/bandit_party_2","A1KQWBK5WHCNYQ","either","6","815","","","","","","","0","0","1","","0.1733557992","0.4","0.8","0.2","0.6","0.1733557992","0.294099503","0.8152876082","0.2578124611","","","","","","","","","","","","","","72","H","0","img/none_selected.jpg","","4","main_expt",""
"","bandit","84","411896","0.0-46.0-0.0","16593974","wem/bandit_party_2","A1KQWBK5WHCNYQ","either","6","556","","","","","","","0","0","1","0.1275681293","","0.4","0.8","0.2","0.6","","","","","0.1275681293","0.256228135","0.8494846052","0.152782507","","","","","","","","","","72","H","0","img/none_selected.jpg","","5","main_expt",""
"","bandit","85","413703","0.0-47.0-0.0","16593974","wem/bandit_party_2","A1KQWBK5WHCNYQ","either","6","294","","","","","","","0","0","1","0.3142053347","","0.4","0.8","0.2","0.6","","","","","0.1776351543","0.3142053347","0.8036792828","0.200224935","","","","","","","","","","74","J","1","","","6","main_expt",""
"","bandit","86","415563","0.0-48.0-0.0","16593974","wem/bandit_party_2","A1KQWBK5WHCNYQ","either","6","349","","","","","","","0","1","0","","0.8659664865","0.4","0.8","0.2","0.6","0.1412615145","0.2382568898","0.8659664865","0.2200442108","","","","","","","","","","","","","","75","K","2","","","7","main_expt",""
"","bandit","87","417359","0.0-49.0-0.0","16593974","wem/bandit_party_2","A1KQWBK5WHCNYQ","either","6","286","","","","","","","0","1","0","","0.8475436228","0.4","0.8","0.2","0.6","0.1508054742","0.220471749","0.8475436228","0.1516915951","","","","","","","","","","","","","","75","K","2","","","8","main_expt",""
"","bandit","88","419180","0.0-50.0-0.0","16593974","wem/bandit_party_2","A1KQWBK5WHCNYQ","either","6","306","","","","","","","1","0","0","0.8034999265","","0.4","0.8","0.2","0.6","","","","","0.1882404854","0.2842820234","0.8034999265","0.1468829212","","","","","","","","","","75","K","2","","","9","main_expt",""
"","bandit","89","420976","0.0-51.0-0.0","16593974","wem/bandit_party_2","A1KQWBK5WHCNYQ","either","6","267","","","","","","","1","0","0","0.7148412232","","0.4","0.8","0.2","0.6","","","","","0.1731305678","0.3392415315","0.7148412232","0.1507643719","","","","","","","","","","75","K","2","","","10","main_expt",""
"","bandit","90","422765","0.0-52.0-0.0","16593974","wem/bandit_party_2","A1KQWBK5WHCNYQ","either","6","277","","","","","","","0","1","0","","0.7213030285","0.4","0.8","0.2","0.6","0.2475279461","0.4470346709","0.7213030285","0.18301","","","","","","","","","","","","","","75","K","2","","","11","main_expt",""
"","bandit","91","424666","0.0-53.0-0.0","16593974","wem/bandit_party_2","A1KQWBK5WHCNYQ","either","6","390","","","","","","","0","1","0","","0.7396148754","0.4","0.8","0.2","0.6","0.2068792089","0.5143820195","0.7396148754","0.209562337","","","","","","","","","","","","","","75","K","2","","","12","main_expt",""
"","bandit","92","426457","0.0-54.0-0.0","16593974","wem/bandit_party_2","A1KQWBK5WHCNYQ","either","6","276","","","","","","","0","1","0","","0.6870781676","0.4","0.8","0.2","0.6","0.1594062408","0.4934308908","0.6870781676","0.2133897639","","","","","","","","","","","","","","75","K","2","","","13","main_expt",""
"","bandit","93","428190","0.0-55.0-0.0","16593974","wem/bandit_party_2","A1KQWBK5WHCNYQ","either","6","220","","","","","","","0","0","1","","0.6561171826","0.4","0.8","0.2","0.6","0.1808320347","0.5884397519","0.6561171826","0.1865122749","","","","","","","","","","","","","","75","K","2","","","14","main_expt",""
"","bandit","94","429933","0.0-56.0-0.0","16593974","wem/bandit_party_2","A1KQWBK5WHCNYQ","either","6","229","","","","","","","0","0","1","","0.6255101569","0.4","0.8","0.2","0.6","0.2401125286","0.425765204","0.6255101569","0.3169691733","","","","","","","","","","","","","","75","K","2","","","15","main_expt",""
"","bandit","95","431676","0.0-57.0-0.0","16593974","wem/bandit_party_2","A1KQWBK5WHCNYQ","either","6","231","","","","","","","0","0","1","0.4458974369","","0.4","0.8","0.2","0.6","","","","","0.1823220599","0.4458974369","0.6101220295","0.3927767979","","","","","","","","","","74","J","1","","","16","main_expt",""
"","bandit","96","433461","0.0-58.0-0.0","16593974","wem/bandit_party_2","A1KQWBK5WHCNYQ","either","6","275","","","","","","","0","0","1","0.2882183284","","0.4","0.8","0.2","0.6","","","","","0.2076179308","0.4907358526","0.6233337625","0.2882183284","","","","","","","","","","76","L","3","","","17","main_expt",""
"","bandit","97","435381","0.0-59.0-0.0","16593974","wem/bandit_party_2","A1KQWBK5WHCNYQ","either","6","411","","","","","","","0","0","1","","0.2310064443","0.4","0.8","0.2","0.6","0.2310064443","0.4895096529","0.598865074","0.3212622409","","","","","","","","","","","","","","72","H","0","img/none_selected.jpg","","18","main_expt",""
"","bandit","98","437235","0.0-60.0-0.0","16593974","wem/bandit_party_2","A1KQWBK5WHCNYQ","either","6","343","","","","","","","0","1","0","","0.6318918302","0.4","0.8","0.2","0.6","0.1919199612","0.5437378015","0.6318918302","0.3678238944","","","","","","","","","","","","","","75","K","2","","","19","main_expt",""
"","bandit","99","438990","0.0-61.0-0.0","16593974","wem/bandit_party_2","A1KQWBK5WHCNYQ","either","6","245","","","","","","","0","1","0","","0.5667690756","0.4","0.8","0.2","0.6","0.2150176637","0.543071052","0.5667690756","0.4357360734","","","","","","","","","","","","","","75","K","2","","","20","main_expt",""
"","bandit","100","440796","0.0-62.0-0.0","16593974","wem/bandit_party_2","A1KQWBK5WHCNYQ","either","6","299","","","","","","","0","1","0","","0.6364396753","0.4","0.8","0.2","0.6","0.2980309021","0.5457928974","0.6364396753","0.4486518506","","","","","","","","","","","","","","75","K","2","","","21","main_expt",""
"","bandit","101","443250","0.0-63.0-0.0","16593974","wem/bandit_party_2","A1KQWBK5WHCNYQ","either","6","943","","","","","","","0","1","0","","0.5563436533","0.4","0.8","0.2","0.6","0.3238742104","0.4531799458","0.5563436533","0.5145372488","","","","","","","","","","","","","","75","K","2","","","22","main_expt",""
"","bandit","102","445249","0.0-64.0-0.0","16593974","wem/bandit_party_2","A1KQWBK5WHCNYQ","either","6","489","","","","","","","0","0","1","","0.4555064456","0.4","0.8","0.2","0.6","0.4158928209","0.4321579995","0.4555064456","0.6324996067","","","","","","","","","","","","","","75","K","2","","","23","main_expt",""
"","bandit","103","447170","0.0-65.0-0.0","16593974","wem/bandit_party_2","A1KQWBK5WHCNYQ","either","6","408","","","","","","","0","0","1","0.3892872195","","0.4","0.8","0.2","0.6","","","","","0.2798670784","0.3892872195","0.4398961724","0.6665025749","","","","","","","","","","74","J","1","","","24","main_expt",""
"","bandit","104","448944","0.0-66.0-0.0","16593974","wem/bandit_party_2","A1KQWBK5WHCNYQ","either","6","262","","","","","","","0","0","1","","0.3932164435","0.4","0.8","0.2","0.6","0.3932164435","0.4322880781","0.3810464824","0.5316582614","","","","","","","","","","","","","","72","H","0","img/none_selected.jpg","","25","main_expt",""
"","bandit","105","450679","0.0-67.0-0.0","16593974","wem/bandit_party_2","A1KQWBK5WHCNYQ","either","6","222","","","","","","","0","0","1","0.4282094451","","0.4","0.8","0.2","0.6","","","","","0.3243459504","0.4560392573","0.451695138","0.4282094451","","","","","","","","","","76","L","3","","","26","main_expt",""
"","bandit","106","452337","0.0-68.0-0.0","16593974","wem/bandit_party_2","A1KQWBK5WHCNYQ","either","6","146","","","","","","","0","0","1","0.4423729324","","0.4","0.8","0.2","0.6","","","","","0.4266302179","0.5372901799","0.4423729324","0.4711380508","","","","","","","","","","75","K","2","","","27","main_expt",""
"","bandit","107","454106","0.0-69.0-0.0","16593974","wem/bandit_party_2","A1KQWBK5WHCNYQ","either","6","256","","","","","","","0","1","0","","0.6619872032","0.4","0.8","0.2","0.6","0.4206607535","0.6619872032","0.4221124674","0.4539290932","","","","","","","","","","","","","","74","J","1","","","28","main_expt",""
"","bandit","108","455934","0.0-70.0-0.0","16593974","wem/bandit_party_2","A1KQWBK5WHCNYQ","either","6","314","","","","","","","1","0","0","0.5939885142","","0.4","0.8","0.2","0.6","","","","","0.440099583","0.5939885142","0.489207998","0.4378511583","","","","","","","","","","74","J","1","","","29","main_expt",""
"","bandit","109","457733","0.0-71.0-0.0","16593974","wem/bandit_party_2","A1KQWBK5WHCNYQ","either","6","286","","","","","","","0","0","1","0.5602145404","","0.4","0.8","0.2","0.6","","","","","0.3982168329","0.5602145404","0.4406356357","0.3425428874","","","","","","","","","","74","J","1","","","30","main_expt",""
"","bandit","110","459760","0.0-72.0-0.0","16593974","wem/bandit_party_2","A1KQWBK5WHCNYQ","either","6","515","","","","","","","0","0","1","","0.484130952","0.4","0.8","0.2","0.6","0.3573437221","0.5376870091","0.484130952","0.2354865125","","","","","","","","","","","","","","75","K","2","","","31","main_expt",""
"","bandit","111","461566","0.0-73.0-0.0","16593974","wem/bandit_party_2","A1KQWBK5WHCNYQ","either","6","294","","","","","","","0","0","1","","0.3712986889","0.4","0.8","0.2","0.6","0.3712986889","0.6346195819","0.432294219","0.2552437171","","","","","","","","","","","","","","72","H","0","img/none_selected.jpg","","32","main_expt",""
"","bandit","112","463242","0.0-74.0-0.0","16593974","wem/bandit_party_2","A1KQWBK5WHCNYQ","either","6","165","","","","","","","0","0","1","0.2470382599","","0.4","0.8","0.2","0.6","","","","","0.45096985","0.7540961955","0.4821309474","0.2470382599","","","","","","","","","","76","L","3","","","33","main_expt",""
"","bandit","113","465009","0.0-75.0-0.0","16593974","wem/bandit_party_2","A1KQWBK5WHCNYQ","either","6","252","","","","","","","1","0","0","0.4702474349","","0.4","0.8","0.2","0.6","","","","","0.5559331637","0.699797925","0.4702474349","0.2951894024","","","","","","","","","","75","K","2","","","34","main_expt",""
"","bandit","114","466806","0.0-76.0-0.0","16593974","wem/bandit_party_2","A1KQWBK5WHCNYQ","either","6","278","","","","","","","0","0","1","","0.5363697359","0.4","0.8","0.2","0.6","0.7354386419","0.7410295452","0.5363697359","0.2596626779","","","","","","","","","","","","","","75","K","2","","","35","main_expt",""
"","bandit","115","468596","0.0-77.0-0.0","16593974","wem/bandit_party_2","A1KQWBK5WHCNYQ","either","6","276","","","","","","","1","0","0","0.7332281969","","0.4","0.8","0.2","0.6","","","","","0.6934166837","0.7332281969","0.602250539","0.3164764808","","","","","","","","","","74","J","1","","","36","main_expt",""
"","bandit","116","470411","0.0-78.0-0.0","16593974","wem/bandit_party_2","A1KQWBK5WHCNYQ","either","6","303","","","","","","","0","0","1","0.736713329","","0.4","0.8","0.2","0.6","","","","","0.6311869688","0.736713329","0.5337433964","0.3672962009","","","","","","","","","","74","J","1","","","37","main_expt",""
"","bandit","117","472422","0.0-79.0-0.0","16593974","wem/bandit_party_2","A1KQWBK5WHCNYQ","either","6","495","","","","","","","0","1","0","","0.6583504975","0.4","0.8","0.2","0.6","0.6583504975","0.6860808007","0.5970413872","0.4056598401","","","","","","","","","","","","","","72","H","0","img/none_selected.jpg","","38","main_expt",""
"","bandit","118","474276","0.0-80.0-0.0","16593974","wem/bandit_party_2","A1KQWBK5WHCNYQ","either","6","340","","","","","","","0","1","0","","0.5861321806","0.4","0.8","0.2","0.6","0.5861321806","0.7498761973","0.6529448079","0.4236995386","","","","","","","","","","","","","","72","H","0","img/none_selected.jpg","","39","main_expt",""
"","bandit","119","476400","0.0-81.0-0.0","16593974","wem/bandit_party_2","A1KQWBK5WHCNYQ","either","6","614","","","","","","","1","0","0","0.4365163158","","0.4","0.8","0.2","0.6","","","","","0.4892836735","0.7043283504","0.6612991154","0.4365163158","","","","","","","","","","76","L","3","","","40","main_expt",""
"","bandit","120","478188","0.0-82.0-0.0","16593974","wem/bandit_party_2","A1KQWBK5WHCNYQ","either","6","279","","","","","","","1","0","0","0.4854269132","","0.4","0.8","0.2","0.6","","","","","0.3479900608","0.6469690382","0.7390431107","0.4854269132","","","","","","","","","","76","L","3","","","41","main_expt",""
"","bandit","121","480374","0.0-83.0-0.0","16593974","wem/bandit_party_2","A1KQWBK5WHCNYQ","either","6","670","","","","","","","0","0","1","","0.4753587859","0.4","0.8","0.2","0.6","0.376709287","0.6388905256","0.7609423287","0.4753587859","","","","","","","","","","","","","","76","L","3","","","42","main_expt",""
"","bandit","122","482102","0.0-84.0-0.0","16593974","wem/bandit_party_2","A1KQWBK5WHCNYQ","either","6","214","","","","","","","0","0","1","0.4319300722","","0.4","0.8","0.2","0.6","","","","","0.4319300722","0.6383372244","0.8039673949","0.452202747","","","","","","","","","","72","H","0","img/none_selected.jpg","","43","main_expt",""
"","bandit","123","483954","0.0-85.0-0.0","16593974","wem/bandit_party_2","A1KQWBK5WHCNYQ","either","6","336","","","","","","","0","0","1","0.6247854939","","0.4","0.8","0.2","0.6","","","","","0.4458636389","0.6247854939","0.8216753652","0.5522191005","","","","","","","","","","74","J","1","","","44","main_expt",""
"","bandit","124","485712","0.0-86.0-0.0","16593974","wem/bandit_party_2","A1KQWBK5WHCNYQ","either","6","247","","","","","","","0","1","0","","0.7636866317","0.4","0.8","0.2","0.6","0.4323480181","0.6341880498","0.7636866317","0.4878962787","","","","","","","","","","","","","","75","K","2","","","45","main_expt",""
"","bandit","125","488276","0.0-87.0-0.0","16593974","wem/bandit_party_2","A1KQWBK5WHCNYQ","either","6","1049","","","","","","","0","1","0","","0.8203755575","0.4","0.8","0.2","0.6","0.4348202433","0.5081310512","0.8203755575","0.487595293","","","","","","","","","","","","","","75","K","2","","","46","main_expt",""
"","bandit","126","490242","0.0-88.0-0.0","16593974","wem/bandit_party_2","A1KQWBK5WHCNYQ","either","6","454","","","","","","","0","1","0","","0.8706375764","0.4","0.8","0.2","0.6","0.3430847618","0.4202927251","0.8706375764","0.444754188","","","","","","","","","","","","","","75","K","2","","","47","main_expt",""
"","bandit","127","492287","0.0-89.0-0.0","16593974","wem/bandit_party_2","A1KQWBK5WHCNYQ","either","6","531","","","","","","","1","0","0","0.8019506245","","0.4","0.8","0.2","0.6","","","","","0.2601977795","0.4767868938","0.8019506245","0.5044276746","","","","","","","","","","75","K","2","","","48","main_expt",""
"","bandit","128","494072","0.0-90.0-0.0","16593974","wem/bandit_party_2","A1KQWBK5WHCNYQ","either","6","272","","","","","","","0","1","0","","0.7331224435","0.4","0.8","0.2","0.6","0.2368144698","0.3749468019","0.7331224435","0.3766714482","","","","","","","","","","","","","","75","K","2","","","49","main_expt",""
"","bandit","129","495870","0.0-91.0-0.0","16593974","wem/bandit_party_2","A1KQWBK5WHCNYQ","either","6","279","","","","","","","0","1","0","","0.7908344101","0.4","0.8","0.2","0.6","0.2484527115","0.3532902347","0.7908344101","0.406992786","","","","","","","","","","","","","","75","K","2","","","50","main_expt",""
"","bandit","130","497692","0.0-92.0-0.0","16593974","wem/bandit_party_2","A1KQWBK5WHCNYQ","either","6","309","","","","","","","0","1","0","","0.7922828235","0.4","0.8","0.2","0.6","0.230268934","0.2413466802","0.7922828235","0.3854505747","","","","","","","","","","","","","","75","K","2","","","51","main_expt",""
"","bandit","131","499434","0.0-93.0-0.0","16593974","wem/bandit_party_2","A1KQWBK5WHCNYQ","either","6","231","","","","","","","0","1","0","","0.7485378942","0.4","0.8","0.2","0.6","0.3429002399","0.2673723166","0.7485378942","0.3956915145","","","","","","","","","","","","","","75","K","2","","","52","main_expt",""
"","bandit","132","501319","0.0-94.0-0.0","16593974","wem/bandit_party_2","A1KQWBK5WHCNYQ","either","6","372","","","","","","","0","1","0","","0.6603794952","0.4","0.8","0.2","0.6","0.2871029552","0.2806035608","0.6603794952","0.3062348001","","","","","","","","","","","","","","75","K","2","","","53","main_expt",""
"","bandit","133","503144","0.0-95.0-0.0","16593974","wem/bandit_party_2","A1KQWBK5WHCNYQ","either","6","310","","","","","","","0","1","0","","0.6931449795","0.4","0.8","0.2","0.6","0.2594444468","0.2544312064","0.6931449795","0.2996500993","","","","","","","","","","","","","","75","K","2","","","54","main_expt",""
"","bandit","134","504764","0.0-96.0-0.0","16593974","wem/bandit_party_2","A1KQWBK5WHCNYQ","either","6","108","","","","","","","0","0","1","","0.7553272845","0.4","0.8","0.2","0.6","0.3333749245","0.3362815808","0.7553272845","0.2518247787","","","","","","","","","","","","","","75","K","2","","","55","main_expt",""
"","bandit","135","506526","0.0-97.0-0.0","16593974","wem/bandit_party_2","A1KQWBK5WHCNYQ","either","6","249","","","","","","","0","0","1","","0.3014763065","0.4","0.8","0.2","0.6","0.3049104067","0.3798256012","0.7231548626","0.3014763065","","","","","","","","","","","","","","76","L","3","","","56","main_expt",""
"","bandit","136","508333","0.0-98.0-0.0","16593974","wem/bandit_party_2","A1KQWBK5WHCNYQ","either","6","294","","","","","","","0","0","1","0.3989549393","","0.4","0.8","0.2","0.6","","","","","0.3623273811","0.3989549393","0.7485901337","0.2730843718","","","","","","","","","","74","J","1","","","57","main_expt",""
"","bandit","137","510188","0.0-99.0-0.0","16593974","wem/bandit_party_2","A1KQWBK5WHCNYQ","either","6","339","","","","","","","0","0","1","","0.3621169042","0.4","0.8","0.2","0.6","0.3621169042","0.3373398956","0.797082508","0.367239041","","","","","","","","","","","","","","72","H","0","img/none_selected.jpg","","58","main_expt",""
"","bandit","138","511955","0.0-100.0-0.0","16593974","wem/bandit_party_2","A1KQWBK5WHCNYQ","either","6","252","","","","","","","0","1","0","","0.7466963627","0.4","0.8","0.2","0.6","0.3672848169","0.3381045731","0.7466963627","0.4005220403","","","","","","","","","","","","","","75","K","2","","","59","main_expt",""
"","bandit","139","513748","0.0-101.0-0.0","16593974","wem/bandit_party_2","A1KQWBK5WHCNYQ","either","6","281","","","","","","","0","1","0","","0.6359615323","0.4","0.8","0.2","0.6","0.5123874715","0.4838111383","0.6359615323","0.4863912708","","","","","","","","","","","","","","75","K","2","","","60","main_expt",""
"","bandit","140","515510","0.0-102.0-0.0","16593974","wem/bandit_party_2","A1KQWBK5WHCNYQ","either","6","249","","","","","","","0","0","1","","0.7125939799","0.4","0.8","0.2","0.6","0.5218319631","0.4290776342","0.7125939799","0.5220595343","","","","","","","","","","","","","","75","K","2","","","61","main_expt",""
"","bandit","141","517300","0.0-103.0-0.0","16593974","wem/bandit_party_2","A1KQWBK5WHCNYQ","either","6","276","","","","","","","0","0","1","0.4387439774","","0.4","0.8","0.2","0.6","","","","","0.6482151027","0.4387439774","0.5978650666","0.5447889898","","","","","","","","","","74","J","1","","","62","main_expt",""
"","bandit","142","519061","0.0-104.0-0.0","16593974","wem/bandit_party_2","A1KQWBK5WHCNYQ","either","6","246","","","","","","","1","0","0","0.5166338879","","0.4","0.8","0.2","0.6","","","","","0.6966290852","0.3670418014","0.5166338879","0.5517390004","","","","","","","","","","75","K","2","","","63","main_expt",""
"","bandit","143","520977","0.0-105.0-0.0","16593974","wem/bandit_party_2","A1KQWBK5WHCNYQ","either","6","403","","","","","","","0","1","0","","0.4901650138","0.4","0.8","0.2","0.6","0.6497033777","0.3470393933","0.4901650138","0.6576188384","","","","","","","","","","","","","","75","K","2","","","64","main_expt",""
"","bandit","144","522755","0.0-106.0-0.0","16593974","wem/bandit_party_2","A1KQWBK5WHCNYQ","either","6","263","","","","","","","0","0","1","0.459365688","","0.4","0.8","0.2","0.6","","","","","0.6925184903","0.3361574661","0.459365688","0.5156176703","","","","","","","","","","75","K","2","","","65","main_expt",""
"","bandit","145","524473","0.0-107.0-0.0","16593974","wem/bandit_party_2","A1KQWBK5WHCNYQ","either","6","205","","","","","","","0","1","0","","0.4666104807","0.4","0.8","0.2","0.6","0.8298767513","0.34308242","0.4666104807","0.3851410914","","","","","","","","","","","","","","75","K","2","","","66","main_expt",""
"","bandit","146","526436","0.0-108.0-0.0","16593974","wem/bandit_party_2","A1KQWBK5WHCNYQ","either","6","449","","","","","","","0","1","0","","0.5547259005","0.4","0.8","0.2","0.6","0.8506596021","0.3730603492","0.5547259005","0.3925250542","","","","","","","","","","","","","","75","K","2","","","67","main_expt",""
"","bandit","147","528242","0.0-109.0-0.0","16593974","wem/bandit_party_2","A1KQWBK5WHCNYQ","either","6","293","","","","","","","0","1","0","","0.6038719492","0.4","0.8","0.2","0.6","0.8536910832","0.4089949532","0.6038719492","0.3884113518","","","","","","","","","","","","","","75","K","2","","","68","main_expt",""
"","bandit","148","530111","0.0-110.0-0.0","16593974","wem/bandit_party_2","A1KQWBK5WHCNYQ","either","6","352","","","","","","","0","1","0","","0.6148283845","0.4","0.8","0.2","0.6","0.8642538991","0.3749002533","0.6148283845","0.3434478979","","","","","","","","","","","","","","75","K","2","","","69","main_expt",""
"","bandit","149","531852","0.0-111.0-0.0","16593974","wem/bandit_party_2","A1KQWBK5WHCNYQ","either","6","229","","","","","","","0","0","1","","0.6683283761","0.4","0.8","0.2","0.6","0.8073802352","0.4133869845","0.6683283761","0.4426642051","","","","","","","","","","","","","","75","K","2","","","70","main_expt",""
"","bandit","150","533607","0.0-112.0-0.0","16593974","wem/bandit_party_2","A1KQWBK5WHCNYQ","either","6","238","","","","","","","1","0","0","0.738459761","","0.4","0.8","0.2","0.6","","","","","0.8059201048","0.3302164541","0.738459761","0.4518046004","","","","","","","","","","75","K","2","","","71","main_expt",""
"","bandit","151","535365","0.0-113.0-0.0","16593974","wem/bandit_party_2","A1KQWBK5WHCNYQ","either","6","241","","","","","","","0","0","1","","0.6525166508","0.4","0.8","0.2","0.6","0.8262275011","0.2570952275","0.6525166508","0.4903223245","","","","","","","","","","","","","","75","K","2","","","72","main_expt",""
"","bandit","152","537130","0.0-114.0-0.0","16593974","wem/bandit_party_2","A1KQWBK5WHCNYQ","either","6","250","","","","","","","0","0","1","","0.5715134512","0.4","0.8","0.2","0.6","0.7334390718","0.2042885023","0.5715134512","0.5296083002","","","","","","","","","","","","","","75","K","2","","","73","main_expt",""
"","bandit","153","539034","0.0-115.0-0.0","16593974","wem/bandit_party_2","A1KQWBK5WHCNYQ","either","6","388","","","","","","","0","0","1","0.7490977197","","0.4","0.8","0.2","0.6","","","","","0.7490977197","0.2152837516","0.6228045854","0.4883026933","","","","","","","","","","72","H","0","img/none_selected.jpg","","74","main_expt",""
"","bandit","154","540760","0.0-116.0-0.0","16593974","wem/bandit_party_2","A1KQWBK5WHCNYQ","either","6","211","","","","","","","0","0","1","0.2044775694","","0.4","0.8","0.2","0.6","","","","","0.7554087461","0.2044775694","0.613630376","0.4914171484","","","","","","","","","","74","J","1","","","75","main_expt",""
"","bandit","155","542593","0.0-117.0-0.0","16593974","wem/bandit_party_2","A1KQWBK5WHCNYQ","either","6","318","","","","","","","0","0","1","0.6059218973","","0.4","0.8","0.2","0.6","","","","","0.804443878","0.2247613499","0.7047266053","0.6059218973","","","","","","","","","","76","L","3","","","76","main_expt",""
"","bandit","156","544377","0.0-118.0-0.0","16593974","wem/bandit_party_2","A1KQWBK5WHCNYQ","either","6","267","","","","","","","0","1","0","","0.6910360943","0.4","0.8","0.2","0.6","0.6656620098","0.2266335256","0.6910360943","0.553792366","","","","","","","","","","","","","","75","K","2","","","77","main_expt",""
"","bandit","157","546165","0.0-119.0-0.0","16593974","wem/bandit_party_2","A1KQWBK5WHCNYQ","either","6","271","","","","","","","0","1","0","","0.5515992215","0.4","0.8","0.2","0.6","0.5898140708","0.1659731505","0.5515992215","0.6884193839","","","","","","","","","","","","","","75","K","2","","","78","main_expt",""
"","bandit","158","547962","0.0-120.0-0.0","16593974","wem/bandit_party_2","A1KQWBK5WHCNYQ","either","6","284","","","","","","","1","0","0","0.6448399581","","0.4","0.8","0.2","0.6","","","","","0.613215191","0.2343921172","0.6448399581","0.7214277645","","","","","","","","","","75","K","2","","","79","main_expt",""
"","bandit","159","549739","0.0-121.0-0.0","16593974","wem/bandit_party_2","A1KQWBK5WHCNYQ","either","6","267","","","","","","","0","1","0","","0.739479497","0.4","0.8","0.2","0.6","0.4605925783","0.2164054515","0.739479497","0.7328142644","","","","","","","","","","","","","","75","K","2","","","80","main_expt",""
"","bandit","160","551557","0.0-122.0-0.0","16593974","wem/bandit_party_2","A1KQWBK5WHCNYQ","either","6","303","","","","","","","0","1","0","","0.6956071838","0.4","0.8","0.2","0.6","0.5390789087","0.1361232007","0.6956071838","0.7101675561","","","","","","","","","","","","","","75","K","2","","","81","main_expt",""
"","bandit","161","553309","0.0-123.0-0.0","16593974","wem/bandit_party_2","A1KQWBK5WHCNYQ","either","6","238","","","","","","","0","1","0","","0.5886517937","0.4","0.8","0.2","0.6","0.621290364","0.2275447725","0.5886517937","0.6984384541","","","","","","","","","","","","","","75","K","2","","","82","main_expt",""
"","bandit","162","555071","0.0-124.0-0.0","16593974","wem/bandit_party_2","A1KQWBK5WHCNYQ","either","6","251","","","","","","","0","0","1","","0.4764182235","0.4","0.8","0.2","0.6","0.6359424421","0.1900607051","0.4764182235","0.7447883659","","","","","","","","","","","","","","75","K","2","","","83","main_expt",""
"","bandit","163","556960","0.0-125.0-0.0","16593974","wem/bandit_party_2","A1KQWBK5WHCNYQ","either","6","375","","","","","","","0","1","0","","0.5149027494","0.4","0.8","0.2","0.6","0.6133664729","0.1306868958","0.5149027494","0.6900592863","","","","","","","","","","","","","","75","K","2","","","84","main_expt",""
"","bandit","164","558692","0.0-126.0-0.0","16593974","wem/bandit_party_2","A1KQWBK5WHCNYQ","either","6","216","","","","","","","0","0","1","","0.4908067213","0.4","0.8","0.2","0.6","0.7815463305","0.1683201849","0.4908067213","0.7010597455","","","","","","","","","","","","","","75","K","2","","","85","main_expt",""
"","bandit","165","560469","0.0-127.0-0.0","16593974","wem/bandit_party_2","A1KQWBK5WHCNYQ","either","6","251","","","","","","","0","0","1","","0.4139472458","0.4","0.8","0.2","0.6","0.7355789231","0.1290314955","0.4139472458","0.6171062652","","","","","","","","","","","","","","75","K","2","","","86","main_expt",""
"","bandit","166","562377","0.0-128.0-0.0","16593974","wem/bandit_party_2","A1KQWBK5WHCNYQ","either","6","399","","","","","","","0","1","0","","0.4253818619","0.4","0.8","0.2","0.6","0.7267399876","0.2297537383","0.4253818619","0.5629375242","","","","","","","","","","","","","","75","K","2","","","87","main_expt",""
"","bandit","167","564374","0.0-129.0-0.0","16593974","wem/bandit_party_2","A1KQWBK5WHCNYQ","either","6","482","","","","","","","0","0","1","","0.4448862761","0.4","0.8","0.2","0.6","0.7703195612","0.1878263516","0.4448862761","0.6434443074","","","","","","","","","","","","","","75","K","2","","","88","main_expt",""
"","bandit","168","566655","0.0-130.0-0.0","16593974","wem/bandit_party_2","A1KQWBK5WHCNYQ","either","6","773","","","","","","","0","0","1","0.1896964823","","0.4","0.8","0.2","0.6","","","","","0.81872988","0.1896964823","0.4295642349","0.7296698787","","","","","","","","","","74","J","1","","","89","main_expt",""
"","bandit","169","568627","0.0-131.0-0.0","16593974","wem/bandit_party_2","A1KQWBK5WHCNYQ","either","6","462","","","","","","","1","0","0","0.3655203192","","0.4","0.8","0.2","0.6","","","","","0.8032570632","0.1614970172","0.3655203192","0.7042864347","","","","","","","","","","75","K","2","","","90","main_expt",""
"","bandit","170","570866","0.0-132.0-0.0","16593974","wem/bandit_party_2","A1KQWBK5WHCNYQ","either","6","723","","","","","","","1","0","0","0.402428746","","0.4","0.8","0.2","0.6","","","","","0.8257352781","0.2107705911","0.402428746","0.7606559624","","","","","","","","","","75","K","2","","","91","main_expt",""
"","bandit","171","579269","0.0-133.0-0.0","16593974","wem/bandit_party_2","A1KQWBK5WHCNYQ","either","6","6886","","","","","","","0","0","1","","0.452733603","0.4","0.8","0.2","0.6","0.7762210657","0.1317951273","0.452733603","0.8466818248","","","","","","","","","","","","","","75","K","2","","","92","main_expt",""
"","bandit","172","581259","0.0-134.0-0.0","16593974","wem/bandit_party_2","A1KQWBK5WHCNYQ","either","6","476","","","","","","","0","0","1","","0.5416456901","0.4","0.8","0.2","0.6","0.8293629201","0.09268613222","0.5416456901","0.8181600593","","","","","","","","","","","","","","75","K","2","","","93","main_expt",""
"","bandit","173","583135","0.0-135.0-0.0","16593974","wem/bandit_party_2","A1KQWBK5WHCNYQ","either","6","353","","","","","","","0","1","0","","0.7849393417","0.4","0.8","0.2","0.6","0.7849393417","0.06418168538","0.5246039132","0.7259749053","","","","","","","","","","","","","","72","H","0","img/none_selected.jpg","","94","main_expt",""
"","bandit","174","585029","0.0-136.0-0.0","16593974","wem/bandit_party_2","A1KQWBK5WHCNYQ","either","6","377","","","","","","","1","0","0","0.7850226125","","0.4","0.8","0.2","0.6","","","","","0.7850226125","0.100072779","0.606801291","0.6538641892","","","","","","","","","","72","H","0","img/none_selected.jpg","","95","main_expt",""
"","bandit","175","586869","0.0-137.0-0.0","16593974","wem/bandit_party_2","A1KQWBK5WHCNYQ","either","6","324","","","","","","","1","0","0","0.8013150942","","0.4","0.8","0.2","0.6","","","","","0.8013150942","0.09628221604","0.7175242067","0.6384360591","","","","","","","","","","72","H","0","img/none_selected.jpg","","96","main_expt",""
"","bandit","176","589060","0.0-138.0-0.0","16593974","wem/bandit_party_2","A1KQWBK5WHCNYQ","either","6","672","","","","","","","0","1","0","","0.70340399","0.4","0.8","0.2","0.6","0.70340399","0.1335622201","0.7706560561","0.6836118029","","","","","","","","","","","","","","72","H","0","img/none_selected.jpg","","97","main_expt",""
"","bandit","177","591383","0.0-139.0-0.0","16593974","wem/bandit_party_2","A1KQWBK5WHCNYQ","either","6","808","","","","","","","0","1","0","","0.7562517051","0.4","0.8","0.2","0.6","0.7562517051","0.167202632","0.7234704616","0.659457158","","","","","","","","","","","","","","72","H","0","img/none_selected.jpg","","98","main_expt",""
"","bandit","178","593425","0.0-140.0-0.0","16593974","wem/bandit_party_2","A1KQWBK5WHCNYQ","either","6","524","","","","","","","0","0","1","","0.6514659141","0.4","0.8","0.2","0.6","0.6514659141","0.1216125457","0.6582042781","0.7726162223","","","","","","","","","","","","","","72","H","0","img/none_selected.jpg","","99","main_expt",""
"","bandit","179","595376","0.0-141.0-0.0","16593974","wem/bandit_party_2","A1KQWBK5WHCNYQ","either","6","433","","","","","","","0","0","1","","0.7112237606","0.4","0.8","0.2","0.6","0.7112237606","0.1163239148","0.6530973887","0.8446518706","","","","","","","","","","","","","","72","H","0","img/none_selected.jpg","","100","main_expt",""
"","bandit","180","597189","0.0-142.0-0.0","16593974","wem/bandit_party_2","A1KQWBK5WHCNYQ","either","6","297","","","","","","","0","0","1","0.1037928869","","0.4","0.8","0.2","0.6","","","","","0.6865981462","0.1037928869","0.6690961394","0.8784151442","","","","","","","","","","74","J","1","","","101","main_expt",""
"","bandit","181","598976","0.0-143.0-0.0","16593974","wem/bandit_party_2","A1KQWBK5WHCNYQ","either","6","272","","","","","","","0","0","1","0.6268844929","","0.4","0.8","0.2","0.6","","","","","0.6663704066","0.0991068806","0.6268844929","0.8781202538","","","","","","","","","","75","K","2","","","102","main_expt",""
"","bandit","182","600838","0.0-144.0-0.0","16593974","wem/bandit_party_2","A1KQWBK5WHCNYQ","either","6","347","","","","","","","1","0","0","0.8123732176","","0.4","0.8","0.2","0.6","","","","","0.6006744832","0.1226752409","0.6657789595","0.8123732176","","","","","","","","","","76","L","3","","","103","main_expt",""
"","bandit","183","602758","0.0-145.0-0.0","16593974","wem/bandit_party_2","A1KQWBK5WHCNYQ","either","6","408","","","","","","","1","0","0","0.8461937008","","0.4","0.8","0.2","0.6","","","","","0.518723913","0.1552466415","0.6951589836","0.8461937008","","","","","","","","","","76","L","3","","","104","main_expt",""
"","bandit","184","604330","0.0-146.0-0.0","16593974","wem/bandit_party_2","A1KQWBK5WHCNYQ","either","6","58","","","","","","","0","1","0","","0.8664825842","0.4","0.8","0.2","0.6","0.5343999165","0.1702138509","0.6382729445","0.8664825842","","","","","","","","","","","","","","76","L","3","","","105","main_expt",""
"","bandit","185","606155","0.0-147.0-0.0","16593974","wem/bandit_party_2","A1KQWBK5WHCNYQ","either","6","313","","","","","","","1","0","0","0.8703997655","","0.4","0.8","0.2","0.6","","","","","0.4959998489","0.2021425125","0.7139624249","0.8703997655","","","","","","","","","","76","L","3","","","106","main_expt",""
"","bandit","186","608097","0.0-148.0-0.0","16593974","wem/bandit_party_2","A1KQWBK5WHCNYQ","either","6","421","","","","","","","0","1","0","","0.8964314806","0.4","0.8","0.2","0.6","0.5052663648","0.2196373816","0.7718136471","0.8964314806","","","","","","","","","","","","","","76","L","3","","","107","main_expt",""
"","bandit","187","609911","0.0-149.0-0.0","16593974","wem/bandit_party_2","A1KQWBK5WHCNYQ","either","6","300","","","","","","","1","0","0","0.9080126319","","0.4","0.8","0.2","0.6","","","","","0.4859582203","0.2393661099","0.8818715302","0.9080126319","","","","","","","","","","76","L","3","","","108","main_expt",""
"","bandit","188","611912","0.0-150.0-0.0","16593974","wem/bandit_party_2","A1KQWBK5WHCNYQ","either","6","493","","","","","","","1","0","0","0.8880845243","","0.4","0.8","0.2","0.6","","","","","0.523617738","0.2516352594","0.8757741924","0.8880845243","","","","","","","","","","76","L","3","","","109","main_expt",""
"","bandit","189","613773","0.0-151.0-0.0","16593974","wem/bandit_party_2","A1KQWBK5WHCNYQ","either","6","346","","","","","","","0","0","1","0.899251136","","0.4","0.8","0.2","0.6","","","","","0.5492010791","0.2424291788","0.8657151097","0.899251136","","","","","","","","","","76","L","3","","","110","main_expt",""
"","bandit","190","615621","0.0-152.0-0.0","16593974","wem/bandit_party_2","A1KQWBK5WHCNYQ","either","6","332","","","","","","","0","0","1","0.9019514556","","0.4","0.8","0.2","0.6","","","","","0.5467154696","0.2033086481","0.8457624762","0.9019514556","","","","","","","","","","76","L","3","","","111","main_expt",""
"","bandit","191","617531","0.0-153.0-0.0","16593974","wem/bandit_party_2","A1KQWBK5WHCNYQ","either","6","401","","","","","","","0","0","1","","0.8756116827","0.4","0.8","0.2","0.6","0.5396215981","0.208613213","0.8756116827","0.9315537639","","","","","","","","","","","","","","75","K","2","","","112","main_expt",""
"","bandit","192","619417","0.0-154.0-0.0","16593974","wem/bandit_party_2","A1KQWBK5WHCNYQ","either","6","370","","","","","","","0","0","1","0.2743958833","","0.4","0.8","0.2","0.6","","","","","0.5542875214","0.2743958833","0.8773181328","0.9254394702","","","","","","","","","","74","J","1","","","113","main_expt",""
"","bandit","193","621283","0.0-155.0-0.0","16593974","wem/bandit_party_2","A1KQWBK5WHCNYQ","either","6","352","","","","","","","0","0","1","0.6411428718","","0.4","0.8","0.2","0.6","","","","","0.6411428718","0.2657329006","0.8842236373","0.9394904604","","","","","","","","","","72","H","0","img/none_selected.jpg","","114","main_expt",""
"","bandit","194","623076","0.0-156.0-0.0","16593974","wem/bandit_party_2","A1KQWBK5WHCNYQ","either","6","283","","","","","","","0","0","1","","0.8499121835","0.4","0.8","0.2","0.6","0.7261400339","0.3234316928","0.8499121835","0.9533355239","","","","","","","","","","","","","","75","K","2","","","115","main_expt",""
"","bandit","195","624913","0.0-157.0-0.0","16593974","wem/bandit_party_2","A1KQWBK5WHCNYQ","either","6","322","","","","","","","1","0","0","0.960842596","","0.4","0.8","0.2","0.6","","","","","0.7395407697","0.3625587123","0.7890056153","0.960842596","","","","","","","","","","76","L","3","","","116","main_expt",""
"","bandit","196","626791","0.0-158.0-0.0","16593974","wem/bandit_party_2","A1KQWBK5WHCNYQ","either","6","366","","","","","","","0","0","1","","0.937733065","0.4","0.8","0.2","0.6","0.8231731708","0.4946904956","0.7709890197","0.937733065","","","","","","","","","","","","","","76","L","3","","","117","main_expt",""
"","bandit","197","628606","0.0-159.0-0.0","16593974","wem/bandit_party_2","A1KQWBK5WHCNYQ","either","6","307","","","","","","","0","1","0","","0.9561499645","0.4","0.8","0.2","0.6","0.8278750807","0.6246330079","0.7459937787","0.9561499645","","","","","","","","","","","","","","76","L","3","","","118","main_expt",""
"","bandit","198","630643","0.0-160.0-0.0","16593974","wem/bandit_party_2","A1KQWBK5WHCNYQ","either","6","526","","","","","","","1","0","0","0.9595118281","","0.4","0.8","0.2","0.6","","","","","0.8715827524","0.5818097722","0.716881491","0.9595118281","","","","","","","","","","76","L","3","","","119","main_expt",""
"","bandit","199","632581","0.0-161.0-0.0","16593974","wem/bandit_party_2","A1KQWBK5WHCNYQ","either","6","418","","","","","","","1","0","0","0.9548463758","","0.4","0.8","0.2","0.6","","","","","0.8522670476","0.5990025551","0.6595649419","0.9548463758","","","","","","","","","","76","L","3","","","120","main_expt",""
"","bandit","200","634478","0.0-162.0-0.0","16593974","wem/bandit_party_2","A1KQWBK5WHCNYQ","either","6","379","","","","","","","0","1","0","","0.958085665","0.4","0.8","0.2","0.6","0.8266542562","0.6534424477","0.6576447048","0.958085665","","","","","","","","","","","","","","76","L","3","","","121","main_expt",""
"","bandit","201","636603","0.0-163.0-0.0","16593974","wem/bandit_party_2","A1KQWBK5WHCNYQ","either","6","608","","","","","","","0","1","0","","0.9630601427","0.4","0.8","0.2","0.6","0.81688531","0.5952731017","0.6391957719","0.9630601427","","","","","","","","","","","","","","76","L","3","","","122","main_expt",""
"","bandit","202","638391","0.0-164.0-0.0","16593974","wem/bandit_party_2","A1KQWBK5WHCNYQ","either","6","275","","","","","","","1","0","0","0.9790283764","","0.4","0.8","0.2","0.6","","","","","0.8307363081","0.6469086187","0.5873908865","0.9790283764","","","","","","","","","","76","L","3","","","123","main_expt",""
"","bandit","203","640360","0.0-165.0-0.0","16593974","wem/bandit_party_2","A1KQWBK5WHCNYQ","either","6","458","","","","","","","1","0","0","0.9718765302","","0.4","0.8","0.2","0.6","","","","","0.6943824695","0.6911454426","0.6592760984","0.9718765302","","","","","","","","","","76","L","3","","","124","main_expt",""
"","bandit","204","642245","0.0-166.0-0.0","16593974","wem/bandit_party_2","A1KQWBK5WHCNYQ","either","6","369","","","","","","","1","0","0","0.9845173964","","0.4","0.8","0.2","0.6","","","","","0.7137568944","0.750572215","0.6012083746","0.9845173964","","","","","","","","","","76","L","3","","","125","main_expt",""
"","bandit","205","644446","0.0-167.0-0.0","16593974","wem/bandit_party_2","A1KQWBK5WHCNYQ","either","6","686","","","","","","","1","0","0","0.9804670004","","0.4","0.8","0.2","0.6","","","","","0.6878742658","0.8108432581","0.6043440275","0.9804670004","","","","","","","","","","76","L","3","","","126","main_expt",""
"","bandit","206","646511","0.0-168.0-0.0","16593974","wem/bandit_party_2","A1KQWBK5WHCNYQ","either","6","556","","","","","","","1","0","0","0.9792667249","","0.4","0.8","0.2","0.6","","","","","0.6175454059","0.8338196277","0.5043142332","0.9792667249","","","","","","","","","","76","L","3","","","127","main_expt",""
"","bandit","207","648419","0.0-169.0-0.0","16593974","wem/bandit_party_2","A1KQWBK5WHCNYQ","either","6","399","","","","","","","0","1","0","","0.9853815399","0.4","0.8","0.2","0.6","0.5556505876","0.8624128669","0.5778209799","0.9853815399","","","","","","","","","","","","","","76","L","3","","","128","main_expt",""
"","bandit","208","650250","0.0-170.0-0.0","16593974","wem/bandit_party_2","A1KQWBK5WHCNYQ","either","6","313","","","","","","","1","0","0","0.9838319732","","0.4","0.8","0.2","0.6","","","","","0.5948532478","0.9026068167","0.5806273004","0.9838319732","","","","","","","","","","76","L","3","","","129","main_expt",""
"","bandit","209","652011","0.0-171.0-0.0","16593974","wem/bandit_party_2","A1KQWBK5WHCNYQ","either","6","246","","","","","","","0","1","0","","0.9798768453","0.4","0.8","0.2","0.6","0.6646968067","0.8983636673","0.4152233618","0.9798768453","","","","","","","","","","","","","","76","L","3","","","130","main_expt",""
"","bandit","210","653876","0.0-172.0-0.0","16593974","wem/bandit_party_2","A1KQWBK5WHCNYQ","either","6","347","","","","","","","0","1","0","","0.9628017066","0.4","0.8","0.2","0.6","0.6676177377","0.888478962","0.4527057242","0.9628017066","","","","","","","","","","","","","","76","L","3","","","131","main_expt",""
"","bandit","211","655862","0.0-173.0-0.0","16593974","wem/bandit_party_2","A1KQWBK5WHCNYQ","either","6","475","","","","","","","0","1","0","","0.9723970119","0.4","0.8","0.2","0.6","0.7638630926","0.8470567254","0.5185753891","0.9723970119","","","","","","","","","","","","","","76","L","3","","","132","main_expt",""
"","bandit","212","657822","0.0-174.0-0.0","16593974","wem/bandit_party_2","A1KQWBK5WHCNYQ","either","6","451","","","","","","","0","1","0","","0.9754432393","0.4","0.8","0.2","0.6","0.726350598","0.8852081265","0.4567386081","0.9754432393","","","","","","","","","","","","","","76","L","3","","","133","main_expt",""
"","bandit","213","659670","0.0-175.0-0.0","16593974","wem/bandit_party_2","A1KQWBK5WHCNYQ","either","6","339","","","","","","","1","0","0","0.9635376407","","0.4","0.8","0.2","0.6","","","","","0.7638059904","0.8317422298","0.4494056808","0.9635376407","","","","","","","","","","76","L","3","","","134","main_expt",""
"","bandit","214","661520","0.0-176.0-0.0","16593974","wem/bandit_party_2","A1KQWBK5WHCNYQ","either","6","335","","","","","","","0","1","0","","0.9304273523","0.4","0.8","0.2","0.6","0.7337835984","0.8121858422","0.4608562393","0.9304273523","","","","","","","","","","","","","","76","L","3","","","135","main_expt",""
"","bandit","215","663658","0.0-177.0-0.0","16593974","wem/bandit_party_2","A1KQWBK5WHCNYQ","either","6","625","","","","","","","1","0","0","0.9295592062","","0.4","0.8","0.2","0.6","","","","","0.7869055623","0.8473276522","0.6684020244","0.9295592062","","","","","","","","","","76","L","3","","","136","main_expt",""
"","bandit","216","665539","0.0-178.0-0.0","16593974","wem/bandit_party_2","A1KQWBK5WHCNYQ","either","6","360","","","","","","","1","0","0","0.9343332129","","0.4","0.8","0.2","0.6","","","","","0.8033651193","0.8251243182","0.614137061","0.9343332129","","","","","","","","","","76","L","3","","","137","main_expt",""
"","bandit","217","667710","0.0-179.0-0.0","16593974","wem/bandit_party_2","A1KQWBK5WHCNYQ","either","6","647","","","","","","","0","1","0","","0.9325781127","0.4","0.8","0.2","0.6","0.7620089345","0.7892590299","0.711021659","0.9325781127","","","","","","","","","","","","","","76","L","3","","","138","main_expt",""
"","bandit","218","669813","0.0-180.0-0.0","16593974","wem/bandit_party_2","A1KQWBK5WHCNYQ","either","6","590","","","","","","","0","1","0","","0.9687763229","0.4","0.8","0.2","0.6","0.8098853196","0.753698647","0.5731932267","0.9687763229","","","","","","","","","","","","","","76","L","3","","","139","main_expt",""
"","bandit","219","671702","0.0-181.0-0.0","16593974","wem/bandit_party_2","A1KQWBK5WHCNYQ","either","6","380","","","","","","","1","0","0","0.9520204639","","0.4","0.8","0.2","0.6","","","","","0.8737133651","0.7281837229","0.6553783698","0.9520204639","","","","","","","","","","76","L","3","","","140","main_expt",""
"","bandit","220","673638","0.0-182.0-0.0","16593974","wem/bandit_party_2","A1KQWBK5WHCNYQ","either","6","417","","","","","","","1","0","0","0.9615613541","","0.4","0.8","0.2","0.6","","","","","0.8464817719","0.7913145473","0.5665224918","0.9615613541","","","","","","","","","","76","L","3","","","141","main_expt",""
"","bandit","221","675995","0.0-183.0-0.0","16593974","wem/bandit_party_2","A1KQWBK5WHCNYQ","either","6","840","","","","","","","1","0","0","0.9438722422","","0.4","0.8","0.2","0.6","","","","","0.8457688645","0.7498898283","0.5230460729","0.9438722422","","","","","","","","","","76","L","3","","","142","main_expt",""
"","bandit","222","678162","0.0-184.0-0.0","16593974","wem/bandit_party_2","A1KQWBK5WHCNYQ","either","6","642","","","","","","","1","0","0","0.9419241064","","0.4","0.8","0.2","0.6","","","","","0.8801682128","0.723110339","0.5401897842","0.9419241064","","","","","","","","","","76","L","3","","","143","main_expt",""
"","bandit","223","680010","0.0-185.0-0.0","16593974","wem/bandit_party_2","A1KQWBK5WHCNYQ","either","6","338","","","","","","","1","0","0","0.9383966058","","0.4","0.8","0.2","0.6","","","","","0.7806105972","0.7697142539","0.5495292383","0.9383966058","","","","","","","","","","76","L","3","","","144","main_expt",""
"","bandit","224","682092","0.0-186.0-0.0","16593974","wem/bandit_party_2","A1KQWBK5WHCNYQ","either","6","564","","","","","","","0","1","0","","0.9442204223","0.4","0.8","0.2","0.6","0.7384744451","0.8279494337","0.4718854897","0.9442204223","","","","","","","","","","","","","","76","L","3","","","145","main_expt",""
"","bandit","225","684184","0.0-187.0-0.0","16593974","wem/bandit_party_2","A1KQWBK5WHCNYQ","either","6","573","","","","","","","0","1","0","","0.9461270134","0.4","0.8","0.2","0.6","0.7078417075","0.747104877","0.3790577705","0.9461270134","","","","","","","","","","","","","","76","L","3","","","146","main_expt",""
"","bandit","226","687002","0.0-188.0-0.0","16593974","wem/bandit_party_2","A1KQWBK5WHCNYQ","either","6","1297","","","","","","","1","0","0","0.9677113618","","0.4","0.8","0.2","0.6","","","","","0.7671729372","0.7635883185","0.3671333747","0.9677113618","","","","","","","","","","76","L","3","","","147","main_expt",""
"","bandit","227","689235","0.0-189.0-0.0","16593974","wem/bandit_party_2","A1KQWBK5WHCNYQ","either","6","715","","","","","","","1","0","0","0.9603287673","","0.4","0.8","0.2","0.6","","","","","0.7515071201","0.6650729927","0.4462771912","0.9603287673","","","","","","","","","","76","L","3","","","148","main_expt",""
"","bandit","228","691398","0.0-190.0-0.0","16593974","wem/bandit_party_2","A1KQWBK5WHCNYQ","either","6","648","","","","","","","1","0","0","0.9256305183","","0.4","0.8","0.2","0.6","","","","","0.7582160768","0.594527628","0.3929125452","0.9256305183","","","","","","","","","","76","L","3","","","149","main_expt",""
"","bandit","229","693600","0.0-191.0-0.0","16593974","wem/bandit_party_2","A1KQWBK5WHCNYQ","either","6","685","","","","","","","1","0","0","0.9222609783","","0.4","0.8","0.2","0.6","","","","","0.6843302658","0.5101412162","0.3825194633","0.9222609783","","","","","","","","","","76","L","3","","","150","main_expt",""
"","bandit","230","695661","0.0-192.0-0.0","16593974","wem/bandit_party_2","A1KQWBK5WHCNYQ","either","6","542","","","","","","","0","0","1","0.9522131909","","0.4","0.8","0.2","0.6","","","","","0.4980827124","0.5755011036","0.3889652011","0.9522131909","","","","","","","","","","76","L","3","","","151","main_expt",""
"","bandit","231","697903","0.0-193.0-0.0","16593974","wem/bandit_party_2","A1KQWBK5WHCNYQ","either","6","724","","","","","","","1","0","0","0.9351777179","","0.4","0.8","0.2","0.6","","","","","0.5418861514","0.5415628766","0.372169082","0.9351777179","","","","","","","","","","76","L","3","","","152","main_expt",""
"","bandit","232","700479","0.0-194.0-0.0","16593974","wem/bandit_party_2","A1KQWBK5WHCNYQ","either","6","1065","","","","","","","0","1","0","","0.9526549669","0.4","0.8","0.2","0.6","0.6424708626","0.6392888902","0.4275919172","0.9526549669","","","","","","","","","","","","","","76","L","3","","","153","main_expt",""
"","bandit","233","702899","0.0-195.0-0.0","16593974","wem/bandit_party_2","A1KQWBK5WHCNYQ","either","6","902","","","","","","","0","1","0","","0.944677936","0.4","0.8","0.2","0.6","0.6200403258","0.6798835142","0.3978897223","0.944677936","","","","","","","","","","","","","","76","L","3","","","154","main_expt",""
"","bandit","234","705180","0.0-196.0-0.0","16593974","wem/bandit_party_2","A1KQWBK5WHCNYQ","either","6","759","","","","","","","0","1","0","","0.9443948233","0.4","0.8","0.2","0.6","0.5087788092","0.7376683638","0.4922143253","0.9443948233","","","","","","","","","","","","","","76","L","3","","","155","main_expt",""
"","bandit","235","707582","0.0-197.0-0.0","16593974","wem/bandit_party_2","A1KQWBK5WHCNYQ","either","6","881","","","","","","","0","1","0","","0.9312029685","0.4","0.8","0.2","0.6","0.4397360723","0.7740838489","0.5060601407","0.9312029685","","","","","","","","","","","","","","76","L","3","","","156","main_expt",""
"","bandit","236","709861","0.0-198.0-0.0","16593974","wem/bandit_party_2","A1KQWBK5WHCNYQ","either","6","765","","","","","","","1","0","0","0.9009413449","","0.4","0.8","0.2","0.6","","","","","0.4529934193","0.7526352547","0.56460533","0.9009413449","","","","","","","","","","76","L","3","","","157","main_expt",""
"","bandit","237","712625","0.0-199.0-0.0","16593974","wem/bandit_party_2","A1KQWBK5WHCNYQ","either","6","1246","","","","","","","0","1","0","","0.8799225656","0.4","0.8","0.2","0.6","0.522014142","0.807066173","0.5551408743","0.8799225656","","","","","","","","","","","","","","76","L","3","","","158","main_expt",""
"","bandit","238","714631","0.0-200.0-0.0","16593974","wem/bandit_party_2","A1KQWBK5WHCNYQ","either","6","489","","","","","","","0","1","0","","0.9103166083","0.4","0.8","0.2","0.6","0.447178695","0.8348587906","0.6362487126","0.9103166083","","","","","","","","","","","","","","76","L","3","","","159","main_expt",""
"","bandit","239","716859","0.0-201.0-0.0","16593974","wem/bandit_party_2","A1KQWBK5WHCNYQ","either","6","711","","","","","","","0","1","0","","0.9575168601","0.4","0.8","0.2","0.6","0.4293784973","0.8054329593","0.5818198138","0.9575168601","","","","","","","","","","","","","","76","L","3","","","160","main_expt",""
"","bandit","240","718830","0.0-202.0-0.0","16593974","wem/bandit_party_2","A1KQWBK5WHCNYQ","either","6","458","","","","","","","1","0","0","0.9323430526","","0.4","0.8","0.2","0.6","","","","","0.4263694152","0.8263011938","0.5079421761","0.9323430526","","","","","","","","","","76","L","3","","","161","main_expt",""
"","bandit","241","720672","0.0-203.0-0.0","16593974","wem/bandit_party_2","A1KQWBK5WHCNYQ","either","6","326","","","","","","","1","0","0","0.8731035433","","0.4","0.8","0.2","0.6","","","","","0.4394756583","0.8468561623","0.3944353318","0.8731035433","","","","","","","","","","76","L","3","","","162","main_expt",""
"","bandit","242","722692","0.0-204.0-0.0","16593974","wem/bandit_party_2","A1KQWBK5WHCNYQ","either","6","511","","","","","","","1","0","0","0.860239847","","0.4","0.8","0.2","0.6","","","","","0.4632532181","0.866861138","0.4560534757","0.860239847","","","","","","","","","","76","L","3","","","163","main_expt",""
"","bandit","243","724504","0.0-205.0-0.0","16593974","wem/bandit_party_2","A1KQWBK5WHCNYQ","either","6","304","","","","","","","1","0","0","0.8327160304","","0.4","0.8","0.2","0.6","","","","","0.469091439","0.8621839131","0.4338988853","0.8327160304","","","","","","","","","","76","L","3","","","164","main_expt",""
"","bandit","244","726302","0.0-206.0-0.0","16593974","wem/bandit_party_2","A1KQWBK5WHCNYQ","either","6","281","","","","","","","1","0","0","0.8780399083","","0.4","0.8","0.2","0.6","","","","","0.4691854483","0.8368369455","0.3640020004","0.8780399083","","","","","","","","","","76","L","3","","","165","main_expt",""
"","bandit","245","728072","0.0-207.0-0.0","16593974","wem/bandit_party_2","A1KQWBK5WHCNYQ","either","6","256","","","","","","","1","0","0","0.8659509199","","0.4","0.8","0.2","0.6","","","","","0.424594696","0.8543831227","0.4433911144","0.8659509199","","","","","","","","","","76","L","3","","","166","main_expt",""
"","bandit","246","729948","0.0-208.0-0.0","16593974","wem/bandit_party_2","A1KQWBK5WHCNYQ","either","6","364","","","","","","","1","0","0","0.8458676595","","0.4","0.8","0.2","0.6","","","","","0.4691217736","0.8444257961","0.4852122499","0.8458676595","","","","","","","","","","76","L","3","","","167","main_expt",""
"","bandit","247","731763","0.0-209.0-0.0","16593974","wem/bandit_party_2","A1KQWBK5WHCNYQ","either","6","305","","","","","","","0","1","0","","0.7368025647","0.4","0.8","0.2","0.6","0.4605946041","0.8895061166","0.4829488348","0.7368025647","","","","","","","","","","","","","","76","L","3","","","168","main_expt",""
"","bandit","248","733634","0.0-210.0-0.0","16593974","wem/bandit_party_2","A1KQWBK5WHCNYQ","either","6","361","","","","","","","0","1","0","","0.6811301937","0.4","0.8","0.2","0.6","0.4302520818","0.8980662015","0.467087579","0.6811301937","","","","","","","","","","","","","","76","L","3","","","169","main_expt",""
"","bandit","249","735681","0.0-211.0-0.0","16593974","wem/bandit_party_2","A1KQWBK5WHCNYQ","either","6","537","","","","","","","1","0","0","0.6781719117","","0.4","0.8","0.2","0.6","","","","","0.3846086554","0.9399190154","0.3575164989","0.6781719117","","","","","","","","","","76","L","3","","","170","main_expt",""
"","bandit","250","737475","0.0-212.0-0.0","16593974","wem/bandit_party_2","A1KQWBK5WHCNYQ","either","6","286","","","","","","","0","0","1","0.5779776893","","0.4","0.8","0.2","0.6","","","","","0.4938912128","0.9199626721","0.3433755155","0.5779776893","","","","","","","","","","76","L","3","","","171","main_expt",""
"","bandit","251","739307","0.0-213.0-0.0","16593974","wem/bandit_party_2","A1KQWBK5WHCNYQ","either","6","323","","","","","","","0","0","1","0.5461867433","","0.4","0.8","0.2","0.6","","","","","0.5409242696","0.8885959212","0.2921203137","0.5461867433","","","","","","","","","","76","L","3","","","172","main_expt",""
"","bandit","252","741247","0.0-214.0-0.0","16593974","wem/bandit_party_2","A1KQWBK5WHCNYQ","either","6","430","","","","","","","0","1","0","","0.3237382503","0.4","0.8","0.2","0.6","0.4899310385","0.8502068985","0.3237382503","0.5898781272","","","","","","","","","","","","","","75","K","2","","","173","main_expt",""
"","bandit","253","743230","0.0-215.0-0.0","16593974","wem/bandit_party_2","A1KQWBK5WHCNYQ","either","6","464","","","","","","","0","0","1","","0.2935635685","0.4","0.8","0.2","0.6","0.4464532747","0.9054067092","0.2935635685","0.5990225055","","","","","","","","","","","","","","75","K","2","","","174","main_expt",""
"","bandit","254","745107","0.0-216.0-0.0","16593974","wem/bandit_party_2","A1KQWBK5WHCNYQ","either","6","364","","","","","","","0","0","1","","0.2797951809","0.4","0.8","0.2","0.6","0.4363040476","0.9096893241","0.2797951809","0.6129624105","","","","","","","","","","","","","","75","K","2","","","175","main_expt",""
"","bandit","255","746933","0.0-217.0-0.0","16593974","wem/bandit_party_2","A1KQWBK5WHCNYQ","either","6","304","","","","","","","1","0","0","0.9081003197","","0.4","0.8","0.2","0.6","","","","","0.4198776974","0.9081003197","0.2067270565","0.5434192492","","","","","","","","","","74","J","1","","","176","main_expt",""
"","bandit","256","748789","0.0-218.0-0.0","16593974","wem/bandit_party_2","A1KQWBK5WHCNYQ","either","6","336","","","","","","","0","1","0","","0.8417535431","0.4","0.8","0.2","0.6","0.4001478854","0.8417535431","0.19266164","0.5893108522","","","","","","","","","","","","","","74","J","1","","","177","main_expt",""
"","bandit","257","750976","0.0-219.0-0.0","16593974","wem/bandit_party_2","A1KQWBK5WHCNYQ","either","6","668","","","","","","","1","0","0","0.8045518304","","0.4","0.8","0.2","0.6","","","","","0.3015477047","0.8045518304","0.1393448617","0.4862463398","","","","","","","","","","74","J","1","","","178","main_expt",""
"","bandit","258","752861","0.0-220.0-0.0","16593974","wem/bandit_party_2","A1KQWBK5WHCNYQ","either","6","365","","","","","","","0","0","1","","0.8250115846","0.4","0.8","0.2","0.6","0.2700131006","0.8250115846","0.1149816072","0.4227787996","","","","","","","","","","","","","","74","J","1","","","179","main_expt",""
"","bandit","259","754950","0.0-221.0-0.0","16593974","wem/bandit_party_2","A1KQWBK5WHCNYQ","either","6","569","","","","","","","1","0","0","0.3473069","","0.4","0.8","0.2","0.6","","","","","0.3473069","0.7418096358","0.1231561222","0.3583368423","","","","","","","","","","72","H","0","img/none_selected.jpg","","180","main_expt",""
"","bandit","260","756809","0.0-222.0-0.0","16593974","wem/bandit_party_2","A1KQWBK5WHCNYQ","either","6","340","","","","","","","1","0","0","0.3478804011","","0.4","0.8","0.2","0.6","","","","","0.3478804011","0.7180260456","0.1134989143","0.3820052134","","","","","","","","","","72","H","0","img/none_selected.jpg","","181","main_expt",""
"","bandit","261","758736","0.0-223.0-0.0","16593974","wem/bandit_party_2","A1KQWBK5WHCNYQ","either","6","406","","","","","","","0","0","1","","0.3304981007","0.4","0.8","0.2","0.6","0.3304981007","0.6777378447","0.07317944644","0.437769555","","","","","","","","","","","","","","72","H","0","img/none_selected.jpg","","182","main_expt",""
"","bandit","262","760638","0.0-224.0-0.0","16593974","wem/bandit_party_2","A1KQWBK5WHCNYQ","either","6","381","","","","","","","0","0","1","0.2578466268","","0.4","0.8","0.2","0.6","","","","","0.2578466268","0.6331465848","0.05085611098","0.3951330089","","","","","","","","","","72","H","0","img/none_selected.jpg","","183","main_expt",""
"","bandit","263","762601","0.0-225.0-0.0","16593974","wem/bandit_party_2","A1KQWBK5WHCNYQ","either","6","444","","","","","","","0","0","1","","0.4062376343","0.4","0.8","0.2","0.6","0.3550464129","0.6578519513","0.07152820202","0.4062376343","","","","","","","","","","","","","","76","L","3","","","184","main_expt",""
"","bandit","264","764550","0.0-226.0-0.0","16593974","wem/bandit_party_2","A1KQWBK5WHCNYQ","either","6","428","","","","","","","0","0","1","","0.08814522307","0.4","0.8","0.2","0.6","0.2993299556","0.7160298793","0.08814522307","0.4035727276","","","","","","","","","","","","","","75","K","2","","","185","main_expt",""
"","bandit","265","766400","0.0-227.0-0.0","16593974","wem/bandit_party_2","A1KQWBK5WHCNYQ","either","6","331","","","","","","","0","1","0","","0.7081703269","0.4","0.8","0.2","0.6","0.3985972224","0.7081703269","0.0931487442","0.4595565904","","","","","","","","","","","","","","74","J","1","","","186","main_expt",""
"","bandit","266","768321","0.0-228.0-0.0","16593974","wem/bandit_party_2","A1KQWBK5WHCNYQ","either","6","410","","","","","","","1","0","0","0.7670757258","","0.4","0.8","0.2","0.6","","","","","0.4563810555","0.7670757258","0.05847154344","0.4956959756","","","","","","","","","","74","J","1","","","187","main_expt",""
"","bandit","267","770154","0.0-229.0-0.0","16593974","wem/bandit_party_2","A1KQWBK5WHCNYQ","either","6","314","","","","","","","0","1","0","","0.7986884496","0.4","0.8","0.2","0.6","0.4621092719","0.7986884496","0.05005107021","0.4295585103","","","","","","","","","","","","","","74","J","1","","","188","main_expt",""
"","bandit","268","771984","0.0-230.0-0.0","16593974","wem/bandit_party_2","A1KQWBK5WHCNYQ","either","6","315","","","","","","","1","0","0","0.8113194514","","0.4","0.8","0.2","0.6","","","","","0.4214675273","0.8113194514","0.05158958255","0.4121259827","","","","","","","","","","74","J","1","","","189","main_expt",""
"","bandit","269","773889","0.0-231.0-0.0","16593974","wem/bandit_party_2","A1KQWBK5WHCNYQ","either","6","389","","","","","","","1","0","0","0.8311477635","","0.4","0.8","0.2","0.6","","","","","0.4445162903","0.8311477635","0.0530996007","0.40505342","","","","","","","","","","74","J","1","","","190","main_expt",""
"","bandit","270","775747","0.0-232.0-0.0","16593974","wem/bandit_party_2","A1KQWBK5WHCNYQ","either","6","338","","","","","","","1","0","0","0.7941336253","","0.4","0.8","0.2","0.6","","","","","0.4077799102","0.7941336253","0.05342003941","0.3671493273","","","","","","","","","","74","J","1","","","191","main_expt",""
"","bandit","271","777637","0.0-233.0-0.0","16593974","wem/bandit_party_2","A1KQWBK5WHCNYQ","either","6","369","","","","","","","1","0","0","0.841847859","","0.4","0.8","0.2","0.6","","","","","0.413117206","0.841847859","0.05264216412","0.3367263454","","","","","","","","","","74","J","1","","","192","main_expt",""
"","bandit","272","779509","0.0-234.0-0.0","16593974","wem/bandit_party_2","A1KQWBK5WHCNYQ","either","6","352","","","","","","","1","0","0","0.865127625","","0.4","0.8","0.2","0.6","","","","","0.374663265","0.865127625","0.07418965368","0.2587514209","","","","","","","","","","74","J","1","","","193","main_expt",""
"","bandit","273","781404","0.0-235.0-0.0","16593974","wem/bandit_party_2","A1KQWBK5WHCNYQ","either","6","372","","","","","","","0","1","0","","0.8369883383","0.4","0.8","0.2","0.6","0.2792309937","0.8369883383","0.1148515542","0.2123696513","","","","","","","","","","","","","","74","J","1","","","194","main_expt",""
"","bandit","274","783260","0.0-236.0-0.0","16593974","wem/bandit_party_2","A1KQWBK5WHCNYQ","either","6","331","","","","","","","0","0","1","0.8226177272","","0.4","0.8","0.2","0.6","","","","","0.3090424304","0.8226177272","0.1102075851","0.2551117677","","","","","","","","","","74","J","1","","","195","main_expt",""
"","bandit","275","785130","0.0-237.0-0.0","16593974","wem/bandit_party_2","A1KQWBK5WHCNYQ","either","6","346","","","","","","","0","1","0","","0.8759919892","0.4","0.8","0.2","0.6","0.2254203465","0.8759919892","0.09307195637","0.2948177706","","","","","","","","","","","","","","74","J","1","","","196","main_expt",""
"","bandit","276","787174","0.0-238.0-0.0","16593974","wem/bandit_party_2","A1KQWBK5WHCNYQ","either","6","520","","","","","","","0","0","1","0.9413038234","","0.4","0.8","0.2","0.6","","","","","0.2104085952","0.9413038234","0.08341332984","0.2864074111","","","","","","","","","","74","J","1","","","197","main_expt",""
"","bandit","277","789266","0.0-239.0-0.0","16593974","wem/bandit_party_2","A1KQWBK5WHCNYQ","either","6","575","","","","","","","0","0","1","","0.1686499416","0.4","0.8","0.2","0.6","0.1686499416","0.9384937307","0.06206278739","0.3044962429","","","","","","","","","","","","","","72","H","0","img/none_selected.jpg","","198","main_expt",""
"","bandit","278","791110","0.0-240.0-0.0","16593974","wem/bandit_party_2","A1KQWBK5WHCNYQ","either","6","324","","","","","","","0","0","1","","0.1015706687","0.4","0.8","0.2","0.6","0.1696058054","0.927250614","0.1015706687","0.2804127106","","","","","","","","","","","","","","75","K","2","","","199","main_expt",""
"","bandit","279","792938","0.0-241.0-0.0","16593974","wem/bandit_party_2","A1KQWBK5WHCNYQ","either","6","308","","","","","","","0","0","1","","0.3151112274","0.4","0.8","0.2","0.6","0.1940139532","0.8840406778","0.07348353789","0.3151112274","","","","","","","","","","","","","","76","L","3","","","200","main_expt",""
"","bandit","280","794845","0.0-242.0-0.0","16593974","wem/bandit_party_2","A1KQWBK5WHCNYQ","either","6","387","","","","","","","1","0","0","0.8866639954","","0.4","0.8","0.2","0.6","","","","","0.2384341862","0.8866639954","0.09218994405","0.3124471347","","","","","","","","","","74","J","1","","","201","main_expt",""
"","bandit","281","796975","0.0-243.0-0.0","16593974","wem/bandit_party_2","A1KQWBK5WHCNYQ","either","6","618","","","","","","","0","1","0","","0.8188103646","0.4","0.8","0.2","0.6","0.2069173963","0.8188103646","0.1662378481","0.3418115628","","","","","","","","","","","","","","74","J","1","","","202","main_expt",""
"","bandit","282","799006","0.0-244.0-0.0","16593974","wem/bandit_party_2","A1KQWBK5WHCNYQ","either","6","509","","","","","","","0","1","0","","0.8026106274","0.4","0.8","0.2","0.6","0.2502389624","0.8026106274","0.1808123801","0.2676578736","","","","","","","","","","","","","","74","J","1","","","203","main_expt",""
"","bandit","283","800819","0.0-245.0-0.0","16593974","wem/bandit_party_2","A1KQWBK5WHCNYQ","either","6","299","","","","","","","0","0","1","","0.6613987003","0.4","0.8","0.2","0.6","0.2226806","0.6613987003","0.2011980288","0.2513587973","","","","","","","","","","","","","","74","J","1","","","204","main_expt",""
"","bandit","284","802756","0.0-246.0-0.0","16593974","wem/bandit_party_2","A1KQWBK5WHCNYQ","either","6","408","","","","","","","1","0","0","0.7402115251","","0.4","0.8","0.2","0.6","","","","","0.2327973494","0.7402115251","0.1877492959","0.2733703365","","","","","","","","","","74","J","1","","","205","main_expt",""
"","bandit","285","804829","0.0-247.0-0.0","16593974","wem/bandit_party_2","A1KQWBK5WHCNYQ","either","6","552","","","","","","","0","0","1","0.6792505986","","0.4","0.8","0.2","0.6","","","","","0.3134624789","0.6792505986","0.1891298069","0.3212331514","","","","","","","","","","74","J","1","","","206","main_expt",""
"","bandit","286","806863","0.0-248.0-0.0","16593974","wem/bandit_party_2","A1KQWBK5WHCNYQ","either","6","515","","","","","","","0","0","1","","0.2092890992","0.4","0.8","0.2","0.6","0.3808856429","0.6510378203","0.2092890992","0.3381772831","","","","","","","","","","","","","","75","K","2","","","207","main_expt",""
"","bandit","287","808855","0.0-249.0-0.0","16593974","wem/bandit_party_2","A1KQWBK5WHCNYQ","either","6","477","","","","","","","0","0","1","0.2370260631","","0.4","0.8","0.2","0.6","","","","","0.318509643","0.5971377862","0.2563161799","0.2370260631","","","","","","","","","","76","L","3","","","208","main_expt",""
"","bandit","288","810843","0.0-250.0-0.0","16593974","wem/bandit_party_2","A1KQWBK5WHCNYQ","either","6","466","","","","","","","0","0","1","","0.2932847295","0.4","0.8","0.2","0.6","0.2932847295","0.6040603887","0.2643940457","0.2157004535","","","","","","","","","","","","","","72","H","0","img/none_selected.jpg","","209","main_expt",""
"","bandit","289","812718","0.0-251.0-0.0","16593974","wem/bandit_party_2","A1KQWBK5WHCNYQ","either","6","353","","","","","","","1","0","0","0.7794442159","","0.4","0.8","0.2","0.6","","","","","0.2230023122","0.7794442159","0.2710870001","0.2655169153","","","","","","","","","","74","J","1","","","210","main_expt",""
"","bandit","290","814737","0.0-252.0-0.0","16593974","wem/bandit_party_2","A1KQWBK5WHCNYQ","either","6","498","","","","","","","1","0","0","0.8397026392","","0.4","0.8","0.2","0.6","","","","","0.1899351836","0.8397026392","0.2056380183","0.2359505063","","","","","","","","","","74","J","1","","","211","main_expt",""
"","bandit","291","816769","0.0-253.0-0.0","16593974","wem/bandit_party_2","A1KQWBK5WHCNYQ","either","6","509","","","","","","","0","1","0","","0.7883870126","0.4","0.8","0.2","0.6","0.2593929449","0.7883870126","0.2487045614","0.2431981852","","","","","","","","","","","","","","74","J","1","","","212","main_expt",""
"","bandit","292","818695","0.0-254.0-0.0","16593974","wem/bandit_party_2","A1KQWBK5WHCNYQ","either","6","403","","","","","","","0","0","1","","0.7160446845","0.4","0.8","0.2","0.6","0.2304425673","0.7160446845","0.3520378668","0.3385658967","","","","","","","","","","","","","","74","J","1","","","213","main_expt",""
"","bandit","293","820942","0.0-255.0-0.0","16593974","wem/bandit_party_2","A1KQWBK5WHCNYQ","either","6","725","","","","","","","1","0","0","0.7501162241","","0.4","0.8","0.2","0.6","","","","","0.2849244028","0.7501162241","0.3455661114","0.445002088","","","","","","","","","","74","J","1","","","214","main_expt",""
"","bandit","294","823035","0.0-256.0-0.0","16593974","wem/bandit_party_2","A1KQWBK5WHCNYQ","either","6","574","","","","","","","1","0","0","0.7574589115","","0.4","0.8","0.2","0.6","","","","","0.3184819088","0.7574589115","0.3290646698","0.4340580748","","","","","","","","","","74","J","1","","","215","main_expt",""
"","bandit","295","825177","0.0-257.0-0.0","16593974","wem/bandit_party_2","A1KQWBK5WHCNYQ","either","6","632","","","","","","","1","0","0","0.7376674805","","0.4","0.8","0.2","0.6","","","","","0.2989728513","0.7376674805","0.2737258078","0.3996931216","","","","","","","","","","74","J","1","","","216","main_expt",""
"","bandit","296","827982","0.0-258.0-0.0","16593974","wem/bandit_party_2","A1KQWBK5WHCNYQ","either","6","1280","","","","","","","1","0","0","0.67262171","","0.4","0.8","0.2","0.6","","","","","0.5538830624","0.67262171","0.2401291484","0.453570069","","","","","","","","","","74","J","1","","","217","main_expt",""
"","bandit","297","829654","0.0-259.0-0.0","16593974","wem/bandit_party_2","A1KQWBK5WHCNYQ","either","6","157","","","","","","","1","0","0","0.6309662891","","0.4","0.8","0.2","0.6","","","","","0.5331458927","0.6309662891","0.2395298113","0.3566620654","","","","","","","","","","74","J","1","","","218","main_expt",""
"","bandit","298","832740","0.0-260.0-0.0","16593974","wem/bandit_party_2","A1KQWBK5WHCNYQ","either","6","1565","","","","","","","1","0","0","0.610488243","","0.4","0.8","0.2","0.6","","","","","0.409279481","0.610488243","0.2333127667","0.3114207129","","","","","","","","","","74","J","1","","","219","main_expt",""
"","bandit","299","835107","0.0-261.0-0.0","16593974","wem/bandit_party_2","A1KQWBK5WHCNYQ","either","6","846","","","","","","","0","0","1","","0.6741838821","0.4","0.8","0.2","0.6","0.3910907299","0.6741838821","0.2097963002","0.348491043","","","","","","","","","","","","","","74","J","1","","","220","main_expt",""
"","bandit","300","837475","0.0-262.0-0.0","16593974","wem/bandit_party_2","A1KQWBK5WHCNYQ","either","6","856","","","","","","","0","0","1","","0.1761429423","0.4","0.8","0.2","0.6","0.37386253","0.6938787555","0.1761429423","0.325682353","","","","","","","","","","","","","","75","K","2","","","221","main_expt",""
"","bandit","301","839346","0.0-263.0-0.0","16593974","wem/bandit_party_2","A1KQWBK5WHCNYQ","either","6","361","","","","","","","1","0","0","0.3582518194","","0.4","0.8","0.2","0.6","","","","","0.5460784034","0.622086605","0.1770547834","0.3582518194","","","","","","","","","","76","L","3","","","222","main_expt",""
"","bandit","302","841420","0.0-264.0-0.0","16593974","wem/bandit_party_2","A1KQWBK5WHCNYQ","either","6","561","","","","","","","0","0","1","0.3596631187","","0.4","0.8","0.2","0.6","","","","","0.5484594206","0.6190419158","0.1494166006","0.3596631187","","","","","","","","","","76","L","3","","","223","main_expt",""
"","bandit","303","843588","0.0-265.0-0.0","16593974","wem/bandit_party_2","A1KQWBK5WHCNYQ","either","6","645","","","","","","","0","0","1","0.4757784632","","0.4","0.8","0.2","0.6","","","","","0.5156266917","0.6525227655","0.1444184755","0.4757784632","","","","","","","","","","76","L","3","","","224","main_expt",""
"","bandit","304","845355","0.0-266.0-0.0","16593974","wem/bandit_party_2","A1KQWBK5WHCNYQ","either","6","248","","","","","","","0","0","1","","0.2381889698","0.4","0.8","0.2","0.6","0.5120039273","0.5739960468","0.2381889698","0.5384710229","","","","","","","","","","","","","","75","K","2","","","225","main_expt",""
"","bandit","305","847168","0.0-267.0-0.0","16593974","wem/bandit_party_2","A1KQWBK5WHCNYQ","either","6","302","","","","","","","1","0","0","0.6038380469","","0.4","0.8","0.2","0.6","","","","","0.5568413113","0.6038380469","0.1429230379","0.5308581489","","","","","","","","","","74","J","1","","","226","main_expt",""
"","bandit","306","849506","0.0-268.0-0.0","16593974","wem/bandit_party_2","A1KQWBK5WHCNYQ","either","6","812","","","","","","","0","1","0","","0.5203417309","0.4","0.8","0.2","0.6","0.5277183188","0.5203417309","0.124100867","0.488482713","","","","","","","","","","","","","","74","J","1","","","227","main_expt",""
"","bandit","307","851663","0.0-269.0-0.0","16593974","wem/bandit_party_2","A1KQWBK5WHCNYQ","either","6","634","","","","","","","0","0","1","0.4263922038","","0.4","0.8","0.2","0.6","","","","","0.5041270258","0.4263922038","0.1762219884","0.4406219513","","","","","","","","","","74","J","1","","","228","main_expt",""
"","bandit","308","854457","0.0-270.0-0.0","16593974","wem/bandit_party_2","A1KQWBK5WHCNYQ","either","6","1284","","","","","","","0","0","1","","0.4541369304","0.4","0.8","0.2","0.6","0.4541369304","0.3475105047","0.1910325121","0.4892119921","","","","","","","","","","","","","","72","H","0","img/none_selected.jpg","","229","main_expt",""
"","bandit","309","856400","0.0-271.0-0.0","16593974","wem/bandit_party_2","A1KQWBK5WHCNYQ","either","6","418","","","","","","","0","1","0","","0.2571549068","0.4","0.8","0.2","0.6","0.4504381994","0.3353007417","0.2571549068","0.5129573662","","","","","","","","","","","","","","75","K","2","","","230","main_expt",""
"","bandit","310","859601","0.0-272.0-0.0","16593974","wem/bandit_party_2","A1KQWBK5WHCNYQ","either","6","1672","","","","","","","0","1","0","","0.1781345747","0.4","0.8","0.2","0.6","0.4698668598","0.2870546929","0.1781345747","0.4382888871","","","","","","","","","","","","","","75","K","2","","","231","main_expt",""
"","bandit","311","862173","0.0-273.0-0.0","16593974","wem/bandit_party_2","A1KQWBK5WHCNYQ","either","6","1048","","","","","","","1","0","0","0.1748933913","","0.4","0.8","0.2","0.6","","","","","0.5460008395","0.3092655517","0.1748933913","0.42174841","","","","","","","","","","75","K","2","","","232","main_expt",""
"","bandit","312","863994","0.0-274.0-0.0","16593974","wem/bandit_party_2","A1KQWBK5WHCNYQ","either","6","308","","","","","","","0","0","1","","0.2196371411","0.4","0.8","0.2","0.6","0.5345299581","0.4231157335","0.2196371411","0.4297142637","","","","","","","","","","","","","","75","K","2","","","233","main_expt",""
"","bandit","313","865768","0.0-275.0-0.0","16593974","wem/bandit_party_2","A1KQWBK5WHCNYQ","either","6","251","","","","","","","0","0","1","","0.3016140143","0.4","0.8","0.2","0.6","0.508060833","0.5525929145","0.2052749597","0.3016140143","","","","","","","","","","","","","","76","L","3","","","234","main_expt",""
"","bandit","314","867586","0.0-276.0-0.0","16593974","wem/bandit_party_2","A1KQWBK5WHCNYQ","either","6","303","","","","","","","1","0","0","0.7239072418","","0.4","0.8","0.2","0.6","","","","","0.4956589368","0.7239072418","0.3158924645","0.2735586703","","","","","","","","","","74","J","1","","","235","main_expt",""
"","bandit","315","870110","0.0-277.0-0.0","16593974","wem/bandit_party_2","A1KQWBK5WHCNYQ","either","6","1009","","","","","","","1","0","0","0.8076920848","","0.4","0.8","0.2","0.6","","","","","0.5514737959","0.8076920848","0.3668106878","0.2536827631","","","","","","","","","","74","J","1","","","236","main_expt",""
"","bandit","316","872451","0.0-278.0-0.0","16593974","wem/bandit_party_2","A1KQWBK5WHCNYQ","either","6","829","","","","","","","1","0","0","0.7703095863","","0.4","0.8","0.2","0.6","","","","","0.5183580196","0.7703095863","0.3866395083","0.2478783488","","","","","","","","","","74","J","1","","","237","main_expt",""
"","bandit","317","874349","0.0-279.0-0.0","16593974","wem/bandit_party_2","A1KQWBK5WHCNYQ","either","6","371","","","","","","","1","0","0","0.6485929649","","0.4","0.8","0.2","0.6","","","","","0.5320509842","0.6485929649","0.4108821033","0.1688186905","","","","","","","","","","74","J","1","","","238","main_expt",""
"","bandit","318","876486","0.0-280.0-0.0","16593974","wem/bandit_party_2","A1KQWBK5WHCNYQ","either","6","613","","","","","","","0","0","1","0.7028133827","","0.4","0.8","0.2","0.6","","","","","0.46832295","0.7028133827","0.4384900471","0.1232648298","","","","","","","","","","74","J","1","","","239","main_expt",""
