"consent","trial_type","trial_index","time_elapsed","internal_node_id","subjID","study","MID","cond","drift","rt","responses","button_pressed","key_press","like","value","connected","gems","bombs","no_reward","GemPrChosen","BombPrChosen","GainOverPainPr_0","GainOverPainPr_1","GainOverPainPr_2","GainOverPainPr_3","LosePr_0","LosePr_1","LosePr_2","LosePr_3","WinPr_0","WinPr_1","WinPr_2","WinPr_3","Q0","Q1","Q2","gender","age","ethnicity","label","expt_phase","target","respCharCode","respKey","respChoiceNum","respChoice","practice","trial_counter","trial_label","Q0_index","view_history"
"GDM/GDM_behavioral_consent_30min_online.html","consent","0","74568","0.0-0.0","17850026","wem/bandit_party_2","AK1Y09TWU3IQ6","either","6","","","","","","","","","","","","","","","","","","","","","","","","","","","","","","","","","","","","","","","","","",""
"","survey-text","1","77662","0.0-1.0","17850026","wem/bandit_party_2","AK1Y09TWU3IQ6","either","6","2082","{""Q0"":""AK1Y09TWU3IQ6""}","","","","","","","","","","","","","","","","","","","","","","","","","","","","","","","","","","","","","","","",""
"","button-response","2","80189","0.0-2.0","17850026","wem/bandit_party_2","AK1Y09TWU3IQ6","either","6","1518","","0","","","","","","","","","","","","","","","","","","","","","","","","","","","","","","","","","","","","","","",""
"","text-replacement","3","136078","0.0-3.0","17850026","wem/bandit_party_2","AK1Y09TWU3IQ6","either","6","54883","","","32","","","","","","","","","","","","","","","","","","","","","","","","","","","","","","","","","","","","","",""
"","text-replacement","4","168484","0.0-4.0","17850026","wem/bandit_party_2","AK1Y09TWU3IQ6","either","6","32404","","","32","","","","","","","","","","","","","","","","","","","","","","","","","","","","","","","","","","","","","",""
"","identification","5","180541","0.0-6.0-0.0","17850026","wem/bandit_party_2","AK1Y09TWU3IQ6","either","6","12029","","","","6","6","6","","","","","","","","","","","","","","","","","","","","","","","","pre","identification_pre","the Republican Party","","","","","","","","",""
"","identification","6","184956","0.0-6.0-1.0","17850026","wem/bandit_party_2","AK1Y09TWU3IQ6","either","6","3392","","","","0","0","0","","","","","","","","","","","","","","","","","","","","","","","","pre","identification_pre","the Democratic Party","","","","","","","","",""
"","text-replacement","7","197573","0.0-7.0","17850026","wem/bandit_party_2","AK1Y09TWU3IQ6","either","6","11613","","","32","","","","","","","","","","","","","","","","","","","","","","","","","","","","","","","","","","","","","",""
"","text-replacement","8","202963","0.0-8.0","17850026","wem/bandit_party_2","AK1Y09TWU3IQ6","either","6","5386","","","32","","","","","","","","","","","","","","","","","","","","","","","","","","","","","","","","","","","","","",""
"","text-replacement","9","226084","0.0-9.0","17850026","wem/bandit_party_2","AK1Y09TWU3IQ6","either","6","23120","","","32","","","","","","","","","","","","","","","","","","","","","","","","","","","","","","","","","","","","","",""
"","text-replacement","10","231625","0.0-10.0","17850026","wem/bandit_party_2","AK1Y09TWU3IQ6","either","6","5538","","","32","","","","","","","","","","","","","","","","","","","","","","","","","","","","","","","","","","","","","",""
"","text-replacement","11","240494","0.0-11.0","17850026","wem/bandit_party_2","AK1Y09TWU3IQ6","either","6","8867","","","32","","","","","","","","","","","","","","","","","","","","","","","","","","","","","","","","","","","","","",""
"","bandit","12","245678","0.0-12.0-0.0","17850026","wem/bandit_party_2","AK1Y09TWU3IQ6","either","6","3671","","","","","","","0","0","1","0","0","","","","","0","","","","0","","","","","","","","","","","","","74","J","0","img/none_selected_demo.jpg","true","0","","",""
"","bandit","13","249078","0.0-13.0-0.0","17850026","wem/bandit_party_2","AK1Y09TWU3IQ6","either","6","1890","","","","","","","0","0","1","0","0","","","","","0","","","","0","","","","","","","","","","","","","75","K","0","img/none_selected_demo.jpg","true","0","","",""
"","text-replacement","14","255423","0.0-14.0","17850026","wem/bandit_party_2","AK1Y09TWU3IQ6","either","6","6343","","","32","","","","","","","","","","","","","","","","","","","","","","","","","","","","","","","","","","","","","",""
"","text-replacement","15","270160","0.0-15.0","17850026","wem/bandit_party_2","AK1Y09TWU3IQ6","either","6","14733","","","32","","","","","","","","","","","","","","","","","","","","","","","","","","","","","","","","","","","","","",""
"","text-replacement","16","279876","0.0-16.0","17850026","wem/bandit_party_2","AK1Y09TWU3IQ6","either","6","9714","","","32","","","","","","","","","","","","","","","","","","","","","","","","","","","","","","","","","","","","","",""
"","text-replacement","17","285739","0.0-17.0","17850026","wem/bandit_party_2","AK1Y09TWU3IQ6","either","6","5862","","","32","","","","","","","","","","","","","","","","","","","","","","","","","","","","","","","","","","","","","",""
"","bandit","18","288461","0.0-18.0-0.0","17850026","wem/bandit_party_2","AK1Y09TWU3IQ6","either","6","1213","","","","","","","1","0","0","0.2","","0.5","0.5","","","","","","","0.8","0.2","","","","","","","","","","","","75","K","1","","true","0","80_20_practice","",""
"","bandit","19","291206","0.0-18.0-1.0","17850026","wem/bandit_party_2","AK1Y09TWU3IQ6","either","6","1234","","","","","","","0","0","1","","0.2","0.5","0.5","","","0.8","0.2","","","","","","","","","","","","","","","","75","K","1","","true","0","80_20_practice","",""
"","bandit","20","293887","0.0-18.0-2.0","17850026","wem/bandit_party_2","AK1Y09TWU3IQ6","either","6","1171","","","","","","","1","0","0","0.8","","0.5","0.5","","","","","","","0.8","0.2","","","","","","","","","","","","74","J","0","img/none_selected_demo.jpg","true","0","80_20_practice","",""
"","bandit","21","297234","0.0-18.0-3.0","17850026","wem/bandit_party_2","AK1Y09TWU3IQ6","either","6","1839","","","","","","","0","0","1","","0.2","0.5","0.5","","","0.8","0.2","","","","","","","","","","","","","","","","75","K","1","","true","0","80_20_practice","",""
"","bandit","22","299244","0.0-18.0-4.0","17850026","wem/bandit_party_2","AK1Y09TWU3IQ6","either","6","501","","","","","","","0","0","1","0.8","","0.5","0.5","","","","","","","0.8","0.2","","","","","","","","","","","","74","J","0","img/none_selected_demo.jpg","true","0","80_20_practice","",""
"","bandit","23","301236","0.0-18.0-5.0","17850026","wem/bandit_party_2","AK1Y09TWU3IQ6","either","6","482","","","","","","","0","0","1","","0.2","0.5","0.5","","","0.8","0.2","","","","","","","","","","","","","","","","75","K","1","","true","0","80_20_practice","",""
"","bandit","24","302979","0.0-18.0-6.0","17850026","wem/bandit_party_2","AK1Y09TWU3IQ6","either","6","237","","","","","","","1","0","0","0.2","","0.5","0.5","","","","","","","0.8","0.2","","","","","","","","","","","","75","K","1","","true","0","80_20_practice","",""
"","bandit","25","304829","0.0-18.0-7.0","17850026","wem/bandit_party_2","AK1Y09TWU3IQ6","either","6","343","","","","","","","0","0","1","0.2","","0.5","0.5","","","","","","","0.8","0.2","","","","","","","","","","","","75","K","1","","true","0","80_20_practice","",""
"","bandit","26","306842","0.0-18.0-8.0","17850026","wem/bandit_party_2","AK1Y09TWU3IQ6","either","6","505","","","","","","","0","1","0","","0.8","0.5","0.5","","","0.8","0.2","","","","","","","","","","","","","","","","74","J","0","img/none_selected_demo.jpg","true","0","80_20_practice","",""
"","bandit","27","308646","0.0-18.0-9.0","17850026","wem/bandit_party_2","AK1Y09TWU3IQ6","either","6","296","","","","","","","0","0","1","0.2","","0.5","0.5","","","","","","","0.8","0.2","","","","","","","","","","","","75","K","1","","true","0","80_20_practice","",""
"","bandit","28","310459","0.0-18.0-10.0","17850026","wem/bandit_party_2","AK1Y09TWU3IQ6","either","6","303","","","","","","","0","0","1","","0.8","0.5","0.5","","","0.8","0.2","","","","","","","","","","","","","","","","74","J","0","img/none_selected_demo.jpg","true","0","80_20_practice","",""
"","bandit","29","312452","0.0-18.0-11.0","17850026","wem/bandit_party_2","AK1Y09TWU3IQ6","either","6","481","","","","","","","1","0","0","0.2","","0.5","0.5","","","","","","","0.8","0.2","","","","","","","","","","","","75","K","1","","true","0","80_20_practice","",""
"","bandit","30","314179","0.0-18.0-12.0","17850026","wem/bandit_party_2","AK1Y09TWU3IQ6","either","6","219","","","","","","","0","1","0","","0.8","0.5","0.5","","","0.8","0.2","","","","","","","","","","","","","","","","74","J","0","img/none_selected_demo.jpg","true","0","80_20_practice","",""
"","bandit","31","316091","0.0-18.0-13.0","17850026","wem/bandit_party_2","AK1Y09TWU3IQ6","either","6","403","","","","","","","1","0","0","0.2","","0.5","0.5","","","","","","","0.8","0.2","","","","","","","","","","","","75","K","1","","true","0","80_20_practice","",""
"","bandit","32","317882","0.0-18.0-14.0","17850026","wem/bandit_party_2","AK1Y09TWU3IQ6","either","6","282","","","","","","","1","0","0","0.8","","0.5","0.5","","","","","","","0.8","0.2","","","","","","","","","","","","74","J","0","img/none_selected_demo.jpg","true","0","80_20_practice","",""
"","bandit","33","319895","0.0-18.0-15.0","17850026","wem/bandit_party_2","AK1Y09TWU3IQ6","either","6","503","","","","","","","0","0","1","","0.2","0.5","0.5","","","0.8","0.2","","","","","","","","","","","","","","","","75","K","1","","true","0","80_20_practice","",""
"","bandit","34","321683","0.0-18.0-16.0","17850026","wem/bandit_party_2","AK1Y09TWU3IQ6","either","6","279","","","","","","","0","0","1","0.8","","0.5","0.5","","","","","","","0.8","0.2","","","","","","","","","","","","74","J","0","img/none_selected_demo.jpg","true","0","80_20_practice","",""
"","bandit","35","323452","0.0-18.0-17.0","17850026","wem/bandit_party_2","AK1Y09TWU3IQ6","either","6","258","","","","","","","1","0","0","0.8","","0.5","0.5","","","","","","","0.8","0.2","","","","","","","","","","","","74","J","0","img/none_selected_demo.jpg","true","0","80_20_practice","",""
"","bandit","36","325554","0.0-18.0-18.0","17850026","wem/bandit_party_2","AK1Y09TWU3IQ6","either","6","594","","","","","","","0","1","0","","0.8","0.5","0.5","","","0.8","0.2","","","","","","","","","","","","","","","","74","J","0","img/none_selected_demo.jpg","true","0","80_20_practice","",""
"","bandit","37","327410","0.0-18.0-19.0","17850026","wem/bandit_party_2","AK1Y09TWU3IQ6","either","6","350","","","","","","","0","0","1","0.2","","0.5","0.5","","","","","","","0.8","0.2","","","","","","","","","","","","75","K","1","","true","0","80_20_practice","",""
"","text-replacement","38","333326","0.0-19.0","17850026","wem/bandit_party_2","AK1Y09TWU3IQ6","either","6","5910","","","32","","","","","","","","","","","","","","","","","","","","","","","","","","","","","","","","","","","","","",""
"","bandit","39","338797","0.0-20.0-0.0","17850026","wem/bandit_party_2","AK1Y09TWU3IQ6","either","6","3961","","","","","","","0","1","0","0","1","","","","","0","1","","","1","0","","","","","","","","","","","","75","K","1","","true","0","","",""
"","text-replacement","40","348347","0.0-21.0","17850026","wem/bandit_party_2","AK1Y09TWU3IQ6","either","6","9545","","","32","","","","","","","","","","","","","","","","","","","","","","","","","","","","","","","","","","","","","",""
"","text-replacement","41","352556","0.0-22.0","17850026","wem/bandit_party_2","AK1Y09TWU3IQ6","either","6","4205","","","32","","","","","","","","","","","","","","","","","","","","","","","","","","","","","","","","","","","","","",""
"","text-replacement","42","356438","0.0-23.0","17850026","wem/bandit_party_2","AK1Y09TWU3IQ6","either","6","3879","","","32","","","","","","","","","","","","","","","","","","","","","","","","","","","","","","","","","","","","","",""
"","text-replacement","43","359397","0.0-24.0","17850026","wem/bandit_party_2","AK1Y09TWU3IQ6","either","6","2954","","","32","","","","","","","","","","","","","","","","","","","","","","","","","","","","","","","","","","","","","",""
"","text-replacement","44","360763","0.0-25.0","17850026","wem/bandit_party_2","AK1Y09TWU3IQ6","either","6","1363","","","32","","","","","","","","","","","","","","","","","","","","","","","","","","","","","","","","","","","","","",""
"","text-replacement","45","361293","0.0-26.0","17850026","wem/bandit_party_2","AK1Y09TWU3IQ6","either","6","527","","","32","","","","","","","","","","","","","","","","","","","","","","","","","","","","","","","","","","","","","",""
"","text-replacement","46","361684","0.0-27.0","17850026","wem/bandit_party_2","AK1Y09TWU3IQ6","either","6","387","","","32","","","","","","","","","","","","","","","","","","","","","","","","","","","","","","","","","","","","","",""
"","text-replacement","47","362109","0.0-28.0","17850026","wem/bandit_party_2","AK1Y09TWU3IQ6","either","6","421","","","32","","","","","","","","","","","","","","","","","","","","","","","","","","","","","","","","","","","","","",""
"","text-replacement","48","362732","0.0-29.0","17850026","wem/bandit_party_2","AK1Y09TWU3IQ6","either","6","619","","","32","","","","","","","","","","","","","","","","","","","","","","","","","","","","","","","","","","","","","",""
"","text-replacement","49","363708","0.0-30.0","17850026","wem/bandit_party_2","AK1Y09TWU3IQ6","either","6","972","","","32","","","","","","","","","","","","","","","","","","","","","","","","","","","","","","","","","","","","","",""
"","text-replacement","50","364980","0.0-31.0","17850026","wem/bandit_party_2","AK1Y09TWU3IQ6","either","6","1269","","","32","","","","","","","","","","","","","","","","","","","","","","","","","","","","","","","","","","","","","",""
"","bandit","51","367324","0.0-32.0-0.0","17850026","wem/bandit_party_2","AK1Y09TWU3IQ6","either","6","834","","","","","","","1","0","0","0.8","","0.5","0.5","0.5","0.5","","","","","0.8","0.2","0.6","0.2","","","","","","","","","","72","H","0","img/none_selected.jpg","true","0","full_practice","",""
"","bandit","52","369232","0.0-32.0-1.0","17850026","wem/bandit_party_2","AK1Y09TWU3IQ6","either","6","397","","","","","","","0","0","1","","0.2","0.5","0.5","0.5","0.5","0.8","0.2","0.6","0.2","","","","","","","","","","","","","","74","J","1","","true","0","full_practice","",""
"","bandit","53","371172","0.0-32.0-2.0","17850026","wem/bandit_party_2","AK1Y09TWU3IQ6","either","6","429","","","","","","","0","0","1","0.6","","0.5","0.5","0.5","0.5","","","","","0.8","0.2","0.6","0.2","","","","","","","","","","75","K","2","","true","0","full_practice","",""
"","bandit","54","373004","0.0-32.0-3.0","17850026","wem/bandit_party_2","AK1Y09TWU3IQ6","either","6","322","","","","","","","0","0","1","","0.2","0.5","0.5","0.5","0.5","0.8","0.2","0.6","0.2","","","","","","","","","","","","","","76","L","3","","true","0","full_practice","",""
"","bandit","55","374902","0.0-32.0-4.0","17850026","wem/bandit_party_2","AK1Y09TWU3IQ6","either","6","384","","","","","","","1","0","0","0.8","","0.5","0.5","0.5","0.5","","","","","0.8","0.2","0.6","0.2","","","","","","","","","","72","H","0","img/none_selected.jpg","true","0","full_practice","",""
"","bandit","56","376764","0.0-32.0-5.0","17850026","wem/bandit_party_2","AK1Y09TWU3IQ6","either","6","352","","","","","","","0","1","0","","0.2","0.5","0.5","0.5","0.5","0.8","0.2","0.6","0.2","","","","","","","","","","","","","","74","J","1","","true","0","full_practice","",""
"","bandit","57","379687","0.0-32.0-6.0","17850026","wem/bandit_party_2","AK1Y09TWU3IQ6","either","6","1413","","","","","","","0","0","1","0.6","","0.5","0.5","0.5","0.5","","","","","0.8","0.2","0.6","0.2","","","","","","","","","","75","K","2","","true","0","full_practice","",""
"","bandit","58","381484","0.0-32.0-7.0","17850026","wem/bandit_party_2","AK1Y09TWU3IQ6","either","6","287","","","","","","","0","0","1","0.2","","0.5","0.5","0.5","0.5","","","","","0.8","0.2","0.6","0.2","","","","","","","","","","76","L","3","","true","0","full_practice","",""
"","bandit","59","383323","0.0-32.0-8.0","17850026","wem/bandit_party_2","AK1Y09TWU3IQ6","either","6","329","","","","","","","0","1","0","","0.8","0.5","0.5","0.5","0.5","0.8","0.2","0.6","0.2","","","","","","","","","","","","","","72","H","0","img/none_selected.jpg","true","0","full_practice","",""
"","bandit","60","385652","0.0-32.0-9.0","17850026","wem/bandit_party_2","AK1Y09TWU3IQ6","either","6","820","","","","","","","0","0","1","0.2","","0.5","0.5","0.5","0.5","","","","","0.8","0.2","0.6","0.2","","","","","","","","","","74","J","1","","true","0","full_practice","",""
"","bandit","61","387810","0.0-32.0-10.0","17850026","wem/bandit_party_2","AK1Y09TWU3IQ6","either","6","653","","","","","","","0","1","0","","0.6","0.5","0.5","0.5","0.5","0.8","0.2","0.6","0.2","","","","","","","","","","","","","","75","K","2","","true","0","full_practice","",""
"","bandit","62","389604","0.0-32.0-11.0","17850026","wem/bandit_party_2","AK1Y09TWU3IQ6","either","6","282","","","","","","","0","0","1","","0.2","0.5","0.5","0.5","0.5","0.8","0.2","0.6","0.2","","","","","","","","","","","","","","76","L","3","","true","0","full_practice","",""
"","bandit","63","391492","0.0-32.0-12.0","17850026","wem/bandit_party_2","AK1Y09TWU3IQ6","either","6","381","","","","","","","0","1","0","","0.8","0.5","0.5","0.5","0.5","0.8","0.2","0.6","0.2","","","","","","","","","","","","","","72","H","0","img/none_selected.jpg","true","0","full_practice","",""
"","bandit","64","393726","0.0-32.0-13.0","17850026","wem/bandit_party_2","AK1Y09TWU3IQ6","either","6","724","","","","","","","0","0","1","","0.2","0.5","0.5","0.5","0.5","0.8","0.2","0.6","0.2","","","","","","","","","","","","","","74","J","1","","true","0","full_practice","",""
"","bandit","65","395916","0.0-32.0-14.0","17850026","wem/bandit_party_2","AK1Y09TWU3IQ6","either","6","681","","","","","","","0","1","0","","0.6","0.5","0.5","0.5","0.5","0.8","0.2","0.6","0.2","","","","","","","","","","","","","","75","K","2","","true","0","full_practice","",""
"","bandit","66","397779","0.0-32.0-15.0","17850026","wem/bandit_party_2","AK1Y09TWU3IQ6","either","6","354","","","","","","","1","0","0","0.2","","0.5","0.5","0.5","0.5","","","","","0.8","0.2","0.6","0.2","","","","","","","","","","76","L","3","","true","0","full_practice","",""
"","bandit","67","399691","0.0-32.0-16.0","17850026","wem/bandit_party_2","AK1Y09TWU3IQ6","either","6","404","","","","","","","0","1","0","","0.8","0.5","0.5","0.5","0.5","0.8","0.2","0.6","0.2","","","","","","","","","","","","","","72","H","0","img/none_selected.jpg","true","0","full_practice","",""
"","bandit","68","401582","0.0-32.0-17.0","17850026","wem/bandit_party_2","AK1Y09TWU3IQ6","either","6","383","","","","","","","0","0","1","","0.2","0.5","0.5","0.5","0.5","0.8","0.2","0.6","0.2","","","","","","","","","","","","","","74","J","1","","true","0","full_practice","",""
"","bandit","69","403716","0.0-32.0-18.0","17850026","wem/bandit_party_2","AK1Y09TWU3IQ6","either","6","628","","","","","","","0","1","0","","0.6","0.5","0.5","0.5","0.5","0.8","0.2","0.6","0.2","","","","","","","","","","","","","","75","K","2","","true","0","full_practice","",""
"","bandit","70","405660","0.0-32.0-19.0","17850026","wem/bandit_party_2","AK1Y09TWU3IQ6","either","6","433","","","","","","","0","0","1","","0.2","0.5","0.5","0.5","0.5","0.8","0.2","0.6","0.2","","","","","","","","","","","","","","76","L","3","","true","0","full_practice","",""
"","text","71","408621","0.0-33.0","17850026","wem/bandit_party_2","AK1Y09TWU3IQ6","either","6","2941","","","32","","","","","","","","","","","","","","","","","","","","","","","","","","","","","","","","","","","","","",""
"","text-replacement","72","424099","0.0-34.0","17850026","wem/bandit_party_2","AK1Y09TWU3IQ6","either","6","14473","","","32","","","","","","","","","","","","","","","","","","","","","","","","","","","","","","","","","","","","","",""
"","text-replacement","73","432747","0.0-35.0","17850026","wem/bandit_party_2","AK1Y09TWU3IQ6","either","6","8643","","","32","","","","","","","","","","","","","","","","","","","","","","","","","","","","","","","","","","","","","",""
"","text-replacement","74","438556","0.0-36.0","17850026","wem/bandit_party_2","AK1Y09TWU3IQ6","either","6","5806","","","32","","","","","","","","","","","","","","","","","","","","","","","","","","","","","","","","","","","","","",""
"","text-replacement","75","445779","0.0-37.0","17850026","wem/bandit_party_2","AK1Y09TWU3IQ6","either","6","7219","","","32","","","","","","","","","","","","","","","","","","","","","","","","","","","","","","","","","","","","","",""
"","text-replacement","76","452731","0.0-38.0","17850026","wem/bandit_party_2","AK1Y09TWU3IQ6","either","6","6945","","","32","","","","","","","","","","","","","","","","","","","","","","","","","","","","","","","","","","","","","",""
"","survey-multi-choice-replacement","77","460430","0.0-39.0-0.0","17850026","wem/bandit_party_2","AK1Y09TWU3IQ6","either","6","7683","","","","","","","","","","","","","","","","","","","","","","","","Money will be added to the pool for <span style='color:red;'>REPUBLICANS</span>","","","","","","","attn_check","","","","","","","","","0",""
"","survey-multi-choice-replacement","78","464759","0.0-40.0-0.0","17850026","wem/bandit_party_2","AK1Y09TWU3IQ6","either","6","3319","","","","","","","","","","","","","","","","","","","","","","","","Money will be subtracted from the pool for <span style='color:blue;'>DEMOCRATS</span>","","","","","","","attn_check","","","","","","","","","1",""
"","instructions","79","467402","0.0-40.0-1.0-0.0","17850026","wem/bandit_party_2","AK1Y09TWU3IQ6","either","6","1636","","","","","","","","","","","","","","","","","","","","","","","","","","","","","","","","","","","","","","","","","[{""page_index"":0,""viewing_time"":1635}]"
"","survey-multi-choice-replacement","80","478176","0.0-40.1-0.1","17850026","wem/bandit_party_2","AK1Y09TWU3IQ6","either","6","9761","","","","","","","","","","","","","","","","","","","","","","","","Equal amounts of money will be added to the pool for <span style='color:red;'>REPUBLICANS</span> and subtracted from the pool for <span style='color:blue;'>DEMOCRATS</span>","","","","","","","attn_check","","","","","","","","","2",""
"","survey-multi-choice-replacement","81","486078","0.0-41.0-0.0","17850026","wem/bandit_party_2","AK1Y09TWU3IQ6","either","6","6890","","","","","","","","","","","","","","","","","","","","","","","","No money will be added to either pool","","","","","","","attn_check","","","","","","","","","3",""
"","bandit","82","492014","0.0-42.0-0.0","17850026","wem/bandit_party_2","AK1Y09TWU3IQ6","either","6","3421","","","","","","","0","0","1","","0.1947351938","0.4","0.8","0.2","0.6","0.1947351938","0.2309914537","0.3049938501","0.7197236342","","","","","","","","","","","","","","72","H","0","img/none_selected.jpg","","1","main_expt","",""
"","bandit","83","494397","0.0-43.0-0.0","17850026","wem/bandit_party_2","AK1Y09TWU3IQ6","either","6","869","","","","","","","0","0","1","","0.1865171684","0.4","0.8","0.2","0.6","0.1865171684","0.2351366282","0.3105507028","0.7453792406","","","","","","","","","","","","","","72","H","0","img/none_selected.jpg","","2","main_expt","",""
"","bandit","84","496443","0.0-44.0-0.0","17850026","wem/bandit_party_2","AK1Y09TWU3IQ6","either","6","534","","","","","","","0","0","1","0.3338792953","","0.4","0.8","0.2","0.6","","","","","0.1578482069","0.3338792953","0.347932066","0.7422746785","","","","","","","","","","74","J","1","","","3","main_expt","",""
"","bandit","85","498339","0.0-45.0-0.0","17850026","wem/bandit_party_2","AK1Y09TWU3IQ6","either","6","384","","","","","","","0","0","1","0.294099503","","0.4","0.8","0.2","0.6","","","","","0.1733557992","0.2578124611","0.294099503","0.8152876082","","","","","","","","","","75","K","2","","","4","main_expt","",""
"","bandit","86","500227","0.0-46.0-0.0","17850026","wem/bandit_party_2","AK1Y09TWU3IQ6","either","6","377","","","","","","","0","0","1","0.152782507","","0.4","0.8","0.2","0.6","","","","","0.1275681293","0.152782507","0.256228135","0.8494846052","","","","","","","","","","74","J","1","","","5","main_expt","",""
"","bandit","87","502045","0.0-47.0-0.0","17850026","wem/bandit_party_2","AK1Y09TWU3IQ6","either","6","307","","","","","","","0","1","0","","0.3142053347","0.4","0.8","0.2","0.6","0.1776351543","0.200224935","0.3142053347","0.8036792828","","","","","","","","","","","","","","75","K","2","","","6","main_expt","",""
"","bandit","88","503978","0.0-48.0-0.0","17850026","wem/bandit_party_2","AK1Y09TWU3IQ6","either","6","415","","","","","","","1","0","0","0.8659664865","","0.4","0.8","0.2","0.6","","","","","0.1412615145","0.2200442108","0.2382568898","0.8659664865","","","","","","","","","","76","L","3","","","7","main_expt","",""
"","bandit","89","505905","0.0-49.0-0.0","17850026","wem/bandit_party_2","AK1Y09TWU3IQ6","either","6","420","","","","","","","0","1","0","","0.8475436228","0.4","0.8","0.2","0.6","0.1508054742","0.1516915951","0.220471749","0.8475436228","","","","","","","","","","","","","","76","L","3","","","8","main_expt","",""
"","bandit","90","507794","0.0-50.0-0.0","17850026","wem/bandit_party_2","AK1Y09TWU3IQ6","either","6","379","","","","","","","0","1","0","","0.8034999265","0.4","0.8","0.2","0.6","0.1882404854","0.1468829212","0.2842820234","0.8034999265","","","","","","","","","","","","","","76","L","3","","","9","main_expt","",""
"","bandit","91","509627","0.0-51.0-0.0","17850026","wem/bandit_party_2","AK1Y09TWU3IQ6","either","6","326","","","","","","","0","0","1","","0.7148412232","0.4","0.8","0.2","0.6","0.1731305678","0.1507643719","0.3392415315","0.7148412232","","","","","","","","","","","","","","76","L","3","","","10","main_expt","",""
"","bandit","92","511497","0.0-52.0-0.0","17850026","wem/bandit_party_2","AK1Y09TWU3IQ6","either","6","364","","","","","","","0","1","0","","0.7213030285","0.4","0.8","0.2","0.6","0.2475279461","0.18301","0.4470346709","0.7213030285","","","","","","","","","","","","","","76","L","3","","","11","main_expt","",""
"","bandit","93","513333","0.0-53.0-0.0","17850026","wem/bandit_party_2","AK1Y09TWU3IQ6","either","6","326","","","","","","","0","0","1","","0.7396148754","0.4","0.8","0.2","0.6","0.2068792089","0.209562337","0.5143820195","0.7396148754","","","","","","","","","","","","","","76","L","3","","","12","main_expt","",""
"","bandit","94","515267","0.0-54.0-0.0","17850026","wem/bandit_party_2","AK1Y09TWU3IQ6","either","6","427","","","","","","","1","0","0","0.6870781676","","0.4","0.8","0.2","0.6","","","","","0.1594062408","0.2133897639","0.4934308908","0.6870781676","","","","","","","","","","76","L","3","","","13","main_expt","",""
"","bandit","95","517067","0.0-55.0-0.0","17850026","wem/bandit_party_2","AK1Y09TWU3IQ6","either","6","288","","","","","","","0","0","1","","0.6561171826","0.4","0.8","0.2","0.6","0.1808320347","0.1865122749","0.5884397519","0.6561171826","","","","","","","","","","","","","","76","L","3","","","14","main_expt","",""
"","bandit","96","518907","0.0-56.0-0.0","17850026","wem/bandit_party_2","AK1Y09TWU3IQ6","either","6","329","","","","","","","0","1","0","","0.6255101569","0.4","0.8","0.2","0.6","0.2401125286","0.3169691733","0.425765204","0.6255101569","","","","","","","","","","","","","","76","L","3","","","15","main_expt","",""
"","bandit","97","520747","0.0-57.0-0.0","17850026","wem/bandit_party_2","AK1Y09TWU3IQ6","either","6","327","","","","","","","0","1","0","","0.1823220599","0.4","0.8","0.2","0.6","0.1823220599","0.3927767979","0.4458974369","0.6101220295","","","","","","","","","","","","","","72","H","0","img/none_selected.jpg","","16","main_expt","",""
"","bandit","98","522716","0.0-58.0-0.0","17850026","wem/bandit_party_2","AK1Y09TWU3IQ6","either","6","456","","","","","","","0","0","1","0.2882183284","","0.4","0.8","0.2","0.6","","","","","0.2076179308","0.2882183284","0.4907358526","0.6233337625","","","","","","","","","","74","J","1","","","17","main_expt","",""
"","bandit","99","524699","0.0-59.0-0.0","17850026","wem/bandit_party_2","AK1Y09TWU3IQ6","either","6","472","","","","","","","0","0","1","0.4895096529","","0.4","0.8","0.2","0.6","","","","","0.2310064443","0.3212622409","0.4895096529","0.598865074","","","","","","","","","","75","K","2","","","18","main_expt","",""
"","bandit","100","527037","0.0-60.0-0.0","17850026","wem/bandit_party_2","AK1Y09TWU3IQ6","either","6","829","","","","","","","0","0","1","0.1919199612","","0.4","0.8","0.2","0.6","","","","","0.1919199612","0.3678238944","0.5437378015","0.6318918302","","","","","","","","","","72","H","0","img/none_selected.jpg","","19","main_expt","",""
"","bandit","101","529155","0.0-61.0-0.0","17850026","wem/bandit_party_2","AK1Y09TWU3IQ6","either","6","605","","","","","","","0","0","1","0.4357360734","","0.4","0.8","0.2","0.6","","","","","0.2150176637","0.4357360734","0.543071052","0.5667690756","","","","","","","","","","74","J","1","","","20","main_expt","",""
"","bandit","102","531348","0.0-62.0-0.0","17850026","wem/bandit_party_2","AK1Y09TWU3IQ6","either","6","680","","","","","","","0","1","0","","0.5457928974","0.4","0.8","0.2","0.6","0.2980309021","0.4486518506","0.5457928974","0.6364396753","","","","","","","","","","","","","","75","K","2","","","21","main_expt","",""
"","bandit","103","533290","0.0-63.0-0.0","17850026","wem/bandit_party_2","AK1Y09TWU3IQ6","either","6","430","","","","","","","1","0","0","0.5563436533","","0.4","0.8","0.2","0.6","","","","","0.3238742104","0.5145372488","0.4531799458","0.5563436533","","","","","","","","","","76","L","3","","","22","main_expt","",""
"","bandit","104","535108","0.0-64.0-0.0","17850026","wem/bandit_party_2","AK1Y09TWU3IQ6","either","6","307","","","","","","","0","1","0","","0.4321579995","0.4","0.8","0.2","0.6","0.4158928209","0.6324996067","0.4321579995","0.4555064456","","","","","","","","","","","","","","75","K","2","","","23","main_expt","",""
"","bandit","105","536986","0.0-65.0-0.0","17850026","wem/bandit_party_2","AK1Y09TWU3IQ6","either","6","366","","","","","","","0","1","0","","0.4398961724","0.4","0.8","0.2","0.6","0.2798670784","0.6665025749","0.3892872195","0.4398961724","","","","","","","","","","","","","","76","L","3","","","24","main_expt","",""
"","bandit","106","538818","0.0-66.0-0.0","17850026","wem/bandit_party_2","AK1Y09TWU3IQ6","either","6","324","","","","","","","0","1","0","","0.4322880781","0.4","0.8","0.2","0.6","0.3932164435","0.5316582614","0.4322880781","0.3810464824","","","","","","","","","","","","","","75","K","2","","","25","main_expt","",""
"","bandit","107","540641","0.0-67.0-0.0","17850026","wem/bandit_party_2","AK1Y09TWU3IQ6","either","6","312","","","","","","","0","0","1","0.451695138","","0.4","0.8","0.2","0.6","","","","","0.3243459504","0.4282094451","0.4560392573","0.451695138","","","","","","","","","","76","L","3","","","26","main_expt","",""
"","bandit","108","542443","0.0-68.0-0.0","17850026","wem/bandit_party_2","AK1Y09TWU3IQ6","either","6","289","","","","","","","0","0","1","0.5372901799","","0.4","0.8","0.2","0.6","","","","","0.4266302179","0.4711380508","0.5372901799","0.4423729324","","","","","","","","","","75","K","2","","","27","main_expt","",""
"","bandit","109","544434","0.0-69.0-0.0","17850026","wem/bandit_party_2","AK1Y09TWU3IQ6","either","6","479","","","","","","","0","0","1","0.4539290932","","0.4","0.8","0.2","0.6","","","","","0.4206607535","0.4539290932","0.6619872032","0.4221124674","","","","","","","","","","74","J","1","","","28","main_expt","",""
"","bandit","110","546260","0.0-70.0-0.0","17850026","wem/bandit_party_2","AK1Y09TWU3IQ6","either","6","314","","","","","","","0","0","1","","0.440099583","0.4","0.8","0.2","0.6","0.440099583","0.4378511583","0.5939885142","0.489207998","","","","","","","","","","","","","","72","H","0","img/none_selected.jpg","","29","main_expt","",""
"","bandit","111","548153","0.0-71.0-0.0","17850026","wem/bandit_party_2","AK1Y09TWU3IQ6","either","6","385","","","","","","","1","0","0","0.3425428874","","0.4","0.8","0.2","0.6","","","","","0.3982168329","0.3425428874","0.5602145404","0.4406356357","","","","","","","","","","74","J","1","","","30","main_expt","",""
"","bandit","112","549929","0.0-72.0-0.0","17850026","wem/bandit_party_2","AK1Y09TWU3IQ6","either","6","263","","","","","","","0","0","1","","0.3573437221","0.4","0.8","0.2","0.6","0.3573437221","0.2354865125","0.5376870091","0.484130952","","","","","","","","","","","","","","72","H","0","img/none_selected.jpg","","31","main_expt","",""
"","bandit","113","551658","0.0-73.0-0.0","17850026","wem/bandit_party_2","AK1Y09TWU3IQ6","either","6","218","","","","","","","0","0","1","","0.2552437171","0.4","0.8","0.2","0.6","0.3712986889","0.2552437171","0.6346195819","0.432294219","","","","","","","","","","","","","","74","J","1","","","32","main_expt","",""
"","bandit","114","553593","0.0-74.0-0.0","17850026","wem/bandit_party_2","AK1Y09TWU3IQ6","either","6","415","","","","","","","0","1","0","","0.7540961955","0.4","0.8","0.2","0.6","0.45096985","0.2470382599","0.7540961955","0.4821309474","","","","","","","","","","","","","","75","K","2","","","33","main_expt","",""
"","bandit","115","555211","0.0-75.0-0.0","17850026","wem/bandit_party_2","AK1Y09TWU3IQ6","either","6","109","","","","","","","0","1","0","","0.4702474349","0.4","0.8","0.2","0.6","0.5559331637","0.2951894024","0.699797925","0.4702474349","","","","","","","","","","","","","","76","L","3","","","34","main_expt","",""
"","bandit","116","557014","0.0-76.0-0.0","17850026","wem/bandit_party_2","AK1Y09TWU3IQ6","either","6","287","","","","","","","0","0","1","","0.7410295452","0.4","0.8","0.2","0.6","0.7354386419","0.2596626779","0.7410295452","0.5363697359","","","","","","","","","","","","","","75","K","2","","","35","main_expt","",""
"","bandit","117","558812","0.0-77.0-0.0","17850026","wem/bandit_party_2","AK1Y09TWU3IQ6","either","6","285","","","","","","","0","0","1","0.602250539","","0.4","0.8","0.2","0.6","","","","","0.6934166837","0.3164764808","0.7332281969","0.602250539","","","","","","","","","","76","L","3","","","36","main_expt","",""
"","bandit","118","560565","0.0-78.0-0.0","17850026","wem/bandit_party_2","AK1Y09TWU3IQ6","either","6","237","","","","","","","0","0","1","","0.5337433964","0.4","0.8","0.2","0.6","0.6311869688","0.3672962009","0.736713329","0.5337433964","","","","","","","","","","","","","","76","L","3","","","37","main_expt","",""
"","bandit","119","562290","0.0-79.0-0.0","17850026","wem/bandit_party_2","AK1Y09TWU3IQ6","either","6","212","","","","","","","0","1","0","","0.6860808007","0.4","0.8","0.2","0.6","0.6583504975","0.4056598401","0.6860808007","0.5970413872","","","","","","","","","","","","","","75","K","2","","","38","main_expt","",""
"","bandit","120","564275","0.0-80.0-0.0","17850026","wem/bandit_party_2","AK1Y09TWU3IQ6","either","6","471","","","","","","","1","0","0","0.5861321806","","0.4","0.8","0.2","0.6","","","","","0.5861321806","0.4236995386","0.7498761973","0.6529448079","","","","","","","","","","72","H","0","img/none_selected.jpg","","39","main_expt","",""
"","bandit","121","566083","0.0-81.0-0.0","17850026","wem/bandit_party_2","AK1Y09TWU3IQ6","either","6","296","","","","","","","0","1","0","","0.7043283504","0.4","0.8","0.2","0.6","0.4892836735","0.4365163158","0.7043283504","0.6612991154","","","","","","","","","","","","","","75","K","2","","","40","main_expt","",""
"","bandit","122","567879","0.0-82.0-0.0","17850026","wem/bandit_party_2","AK1Y09TWU3IQ6","either","6","281","","","","","","","0","0","1","0.3479900608","","0.4","0.8","0.2","0.6","","","","","0.3479900608","0.4854269132","0.6469690382","0.7390431107","","","","","","","","","","72","H","0","img/none_selected.jpg","","41","main_expt","",""
"","bandit","123","569692","0.0-83.0-0.0","17850026","wem/bandit_party_2","AK1Y09TWU3IQ6","either","6","300","","","","","","","0","1","0","","0.6388905256","0.4","0.8","0.2","0.6","0.376709287","0.4753587859","0.6388905256","0.7609423287","","","","","","","","","","","","","","75","K","2","","","42","main_expt","",""
"","bandit","124","571715","0.0-84.0-0.0","17850026","wem/bandit_party_2","AK1Y09TWU3IQ6","either","6","515","","","","","","","0","0","1","0.452202747","","0.4","0.8","0.2","0.6","","","","","0.4319300722","0.452202747","0.6383372244","0.8039673949","","","","","","","","","","74","J","1","","","43","main_expt","",""
"","bandit","125","573475","0.0-85.0-0.0","17850026","wem/bandit_party_2","AK1Y09TWU3IQ6","either","6","247","","","","","","","0","1","0","","0.6247854939","0.4","0.8","0.2","0.6","0.4458636389","0.5522191005","0.6247854939","0.8216753652","","","","","","","","","","","","","","75","K","2","","","44","main_expt","",""
"","bandit","126","575353","0.0-86.0-0.0","17850026","wem/bandit_party_2","AK1Y09TWU3IQ6","either","6","367","","","","","","","0","0","1","","0.6341880498","0.4","0.8","0.2","0.6","0.4323480181","0.4878962787","0.6341880498","0.7636866317","","","","","","","","","","","","","","75","K","2","","","45","main_expt","",""
"","bandit","127","580341","0.0-87.0-0.0","17850026","wem/bandit_party_2","AK1Y09TWU3IQ6","either","6","3479","","","","","","","0","0","1","","0.5081310512","0.4","0.8","0.2","0.6","0.4348202433","0.487595293","0.5081310512","0.8203755575","","","","","","","","","","","","","","75","K","2","","","46","main_expt","",""
"","bandit","128","583284","0.0-88.0-0.0","17850026","wem/bandit_party_2","AK1Y09TWU3IQ6","either","6","1431","","","","","","","0","0","1","","0.3430847618","0.4","0.8","0.2","0.6","0.3430847618","0.444754188","0.4202927251","0.8706375764","","","","","","","","","","","","","","72","H","0","img/none_selected.jpg","","47","main_expt","",""
"","bandit","129","585122","0.0-89.0-0.0","17850026","wem/bandit_party_2","AK1Y09TWU3IQ6","either","6","325","","","","","","","0","1","0","","0.8019506245","0.4","0.8","0.2","0.6","0.2601977795","0.5044276746","0.4767868938","0.8019506245","","","","","","","","","","","","","","76","L","3","","","48","main_expt","",""
"","bandit","130","587026","0.0-90.0-0.0","17850026","wem/bandit_party_2","AK1Y09TWU3IQ6","either","6","392","","","","","","","1","0","0","0.7331224435","","0.4","0.8","0.2","0.6","","","","","0.2368144698","0.3766714482","0.3749468019","0.7331224435","","","","","","","","","","76","L","3","","","49","main_expt","",""
"","bandit","131","588979","0.0-91.0-0.0","17850026","wem/bandit_party_2","AK1Y09TWU3IQ6","either","6","439","","","","","","","1","0","0","0.7908344101","","0.4","0.8","0.2","0.6","","","","","0.2484527115","0.406992786","0.3532902347","0.7908344101","","","","","","","","","","76","L","3","","","50","main_expt","",""
"","bandit","132","590917","0.0-92.0-0.0","17850026","wem/bandit_party_2","AK1Y09TWU3IQ6","either","6","426","","","","","","","0","0","1","","0.7922828235","0.4","0.8","0.2","0.6","0.230268934","0.3854505747","0.2413466802","0.7922828235","","","","","","","","","","","","","","76","L","3","","","51","main_expt","",""
"","bandit","133","592962","0.0-93.0-0.0","17850026","wem/bandit_party_2","AK1Y09TWU3IQ6","either","6","531","","","","","","","0","0","1","0.3956915145","","0.4","0.8","0.2","0.6","","","","","0.3429002399","0.3956915145","0.2673723166","0.7485378942","","","","","","","","","","74","J","1","","","52","main_expt","",""
"","bandit","134","595012","0.0-94.0-0.0","17850026","wem/bandit_party_2","AK1Y09TWU3IQ6","either","6","540","","","","","","","1","0","0","0.3062348001","","0.4","0.8","0.2","0.6","","","","","0.2871029552","0.3062348001","0.2806035608","0.6603794952","","","","","","","","","","74","J","1","","","53","main_expt","",""
"","bandit","135","597121","0.0-95.0-0.0","17850026","wem/bandit_party_2","AK1Y09TWU3IQ6","either","6","597","","","","","","","0","1","0","","0.2996500993","0.4","0.8","0.2","0.6","0.2594444468","0.2996500993","0.2544312064","0.6931449795","","","","","","","","","","","","","","74","J","1","","","54","main_expt","",""
"","bandit","136","599082","0.0-96.0-0.0","17850026","wem/bandit_party_2","AK1Y09TWU3IQ6","either","6","447","","","","","","","0","0","1","0.2518247787","","0.4","0.8","0.2","0.6","","","","","0.3333749245","0.2518247787","0.3362815808","0.7553272845","","","","","","","","","","74","J","1","","","55","main_expt","",""
"","bandit","137","601239","0.0-97.0-0.0","17850026","wem/bandit_party_2","AK1Y09TWU3IQ6","either","6","645","","","","","","","0","0","1","","0.3798256012","0.4","0.8","0.2","0.6","0.3049104067","0.3014763065","0.3798256012","0.7231548626","","","","","","","","","","","","","","75","K","2","","","56","main_expt","",""
"","bandit","138","603178","0.0-98.0-0.0","17850026","wem/bandit_party_2","AK1Y09TWU3IQ6","either","6","424","","","","","","","0","1","0","","0.3623273811","0.4","0.8","0.2","0.6","0.3623273811","0.2730843718","0.3989549393","0.7485901337","","","","","","","","","","","","","","72","H","0","img/none_selected.jpg","","57","main_expt","",""
"","bandit","139","605171","0.0-99.0-0.0","17850026","wem/bandit_party_2","AK1Y09TWU3IQ6","either","6","480","","","","","","","0","0","1","0.3621169042","","0.4","0.8","0.2","0.6","","","","","0.3621169042","0.367239041","0.3373398956","0.797082508","","","","","","","","","","72","H","0","img/none_selected.jpg","","58","main_expt","",""
"","bandit","140","607250","0.0-100.0-0.0","17850026","wem/bandit_party_2","AK1Y09TWU3IQ6","either","6","567","","","","","","","0","1","0","","0.3381045731","0.4","0.8","0.2","0.6","0.3672848169","0.4005220403","0.3381045731","0.7466963627","","","","","","","","","","","","","","75","K","2","","","59","main_expt","",""
"","bandit","141","609312","0.0-101.0-0.0","17850026","wem/bandit_party_2","AK1Y09TWU3IQ6","either","6","553","","","","","","","1","0","0","0.4838111383","","0.4","0.8","0.2","0.6","","","","","0.5123874715","0.4863912708","0.4838111383","0.6359615323","","","","","","","","","","75","K","2","","","60","main_expt","",""
"","bandit","142","611107","0.0-102.0-0.0","17850026","wem/bandit_party_2","AK1Y09TWU3IQ6","either","6","286","","","","","","","0","0","1","0.4290776342","","0.4","0.8","0.2","0.6","","","","","0.5218319631","0.5220595343","0.4290776342","0.7125939799","","","","","","","","","","75","K","2","","","61","main_expt","",""
"","bandit","143","613078","0.0-103.0-0.0","17850026","wem/bandit_party_2","AK1Y09TWU3IQ6","either","6","456","","","","","","","0","1","0","","0.6482151027","0.4","0.8","0.2","0.6","0.6482151027","0.5447889898","0.4387439774","0.5978650666","","","","","","","","","","","","","","72","H","0","img/none_selected.jpg","","62","main_expt","",""
"","bandit","144","614881","0.0-104.0-0.0","17850026","wem/bandit_party_2","AK1Y09TWU3IQ6","either","6","292","","","","","","","1","0","0","0.5166338879","","0.4","0.8","0.2","0.6","","","","","0.6966290852","0.5517390004","0.3670418014","0.5166338879","","","","","","","","","","76","L","3","","","63","main_expt","",""
"","bandit","145","617139","0.0-105.0-0.0","17850026","wem/bandit_party_2","AK1Y09TWU3IQ6","either","6","743","","","","","","","0","0","1","","0.6576188384","0.4","0.8","0.2","0.6","0.6497033777","0.6576188384","0.3470393933","0.4901650138","","","","","","","","","","","","","","74","J","1","","","64","main_expt","",""
"","bandit","146","618698","0.0-106.0-0.0","17850026","wem/bandit_party_2","AK1Y09TWU3IQ6","either","6","44","","","","","","","0","0","1","","0.459365688","0.4","0.8","0.2","0.6","0.6925184903","0.5156176703","0.3361574661","0.459365688","","","","","","","","","","","","","","76","L","3","","","65","main_expt","",""
"","bandit","147","620244","0.0-107.0-0.0","17850026","wem/bandit_party_2","AK1Y09TWU3IQ6","either","6","29","","","","","","","0","1","0","","0.8298767513","0.4","0.8","0.2","0.6","0.8298767513","0.3851410914","0.34308242","0.4666104807","","","","","","","","","","","","","","72","H","0","img/none_selected.jpg","","66","main_expt","",""
"","bandit","148","623764","0.0-108.0-0.0","17850026","wem/bandit_party_2","AK1Y09TWU3IQ6","either","6","2012","","","","","","","0","0","1","","0.3730603492","0.4","0.8","0.2","0.6","0.8506596021","0.3925250542","0.3730603492","0.5547259005","","","","","","","","","","","","","","75","K","2","","","67","main_expt","",""
"","bandit","149","626371","0.0-109.0-0.0","17850026","wem/bandit_party_2","AK1Y09TWU3IQ6","either","6","1092","","","","","","","0","0","1","0.3884113518","","0.4","0.8","0.2","0.6","","","","","0.8536910832","0.3884113518","0.4089949532","0.6038719492","","","","","","","","","","74","J","1","","","68","main_expt","",""
"","bandit","150","627898","0.0-110.0-0.0","17850026","wem/bandit_party_2","AK1Y09TWU3IQ6","either","6","13","","","","","","","1","0","0","0.6148283845","","0.4","0.8","0.2","0.6","","","","","0.8642538991","0.3434478979","0.3749002533","0.6148283845","","","","","","","","","","76","L","3","","","69","main_expt","",""
"","bandit","151","630180","0.0-111.0-0.0","17850026","wem/bandit_party_2","AK1Y09TWU3IQ6","either","6","766","","","","","","","0","1","0","","0.8073802352","0.4","0.8","0.2","0.6","0.8073802352","0.4426642051","0.4133869845","0.6683283761","","","","","","","","","","","","","","72","H","0","img/none_selected.jpg","","70","main_expt","",""
"","bandit","152","631922","0.0-112.0-0.0","17850026","wem/bandit_party_2","AK1Y09TWU3IQ6","either","6","229","","","","","","","0","0","1","","0.3302164541","0.4","0.8","0.2","0.6","0.8059201048","0.4518046004","0.3302164541","0.738459761","","","","","","","","","","","","","","75","K","2","","","71","main_expt","",""
"","bandit","153","633565","0.0-113.0-0.0","17850026","wem/bandit_party_2","AK1Y09TWU3IQ6","either","6","126","","","","","","","0","0","1","0.4903223245","","0.4","0.8","0.2","0.6","","","","","0.8262275011","0.4903223245","0.2570952275","0.6525166508","","","","","","","","","","74","J","1","","","72","main_expt","",""
"","bandit","154","635122","0.0-114.0-0.0","17850026","wem/bandit_party_2","AK1Y09TWU3IQ6","either","6","42","","","","","","","0","1","0","","0.7334390718","0.4","0.8","0.2","0.6","0.7334390718","0.5296083002","0.2042885023","0.5715134512","","","","","","","","","","","","","","72","H","0","img/none_selected.jpg","","73","main_expt","",""
"","bandit","155","636883","0.0-115.0-0.0","17850026","wem/bandit_party_2","AK1Y09TWU3IQ6","either","6","246","","","","","","","0","1","0","","0.6228045854","0.4","0.8","0.2","0.6","0.7490977197","0.4883026933","0.2152837516","0.6228045854","","","","","","","","","","","","","","76","L","3","","","74","main_expt","",""
"","bandit","156","638585","0.0-116.0-0.0","17850026","wem/bandit_party_2","AK1Y09TWU3IQ6","either","6","188","","","","","","","0","0","1","","0.4914171484","0.4","0.8","0.2","0.6","0.7554087461","0.4914171484","0.2044775694","0.613630376","","","","","","","","","","","","","","74","J","1","","","75","main_expt","",""
"","bandit","157","640497","0.0-117.0-0.0","17850026","wem/bandit_party_2","AK1Y09TWU3IQ6","either","6","397","","","","","","","0","0","1","","0.2247613499","0.4","0.8","0.2","0.6","0.804443878","0.6059218973","0.2247613499","0.7047266053","","","","","","","","","","","","","","75","K","2","","","76","main_expt","",""
"","bandit","158","642634","0.0-118.0-0.0","17850026","wem/bandit_party_2","AK1Y09TWU3IQ6","either","6","622","","","","","","","0","0","1","","0.6656620098","0.4","0.8","0.2","0.6","0.6656620098","0.553792366","0.2266335256","0.6910360943","","","","","","","","","","","","","","72","H","0","img/none_selected.jpg","","77","main_expt","",""
"","bandit","159","644268","0.0-119.0-0.0","17850026","wem/bandit_party_2","AK1Y09TWU3IQ6","either","6","126","","","","","","","0","0","1","0.5515992215","","0.4","0.8","0.2","0.6","","","","","0.5898140708","0.6884193839","0.1659731505","0.5515992215","","","","","","","","","","76","L","3","","","78","main_expt","",""
"","bandit","160","646177","0.0-120.0-0.0","17850026","wem/bandit_party_2","AK1Y09TWU3IQ6","either","6","401","","","","","","","1","0","0","0.7214277645","","0.4","0.8","0.2","0.6","","","","","0.613215191","0.7214277645","0.2343921172","0.6448399581","","","","","","","","","","74","J","1","","","79","main_expt","",""
"","bandit","161","647978","0.0-121.0-0.0","17850026","wem/bandit_party_2","AK1Y09TWU3IQ6","either","6","287","","","","","","","0","0","1","","0.739479497","0.4","0.8","0.2","0.6","0.4605925783","0.7328142644","0.2164054515","0.739479497","","","","","","","","","","","","","","76","L","3","","","80","main_expt","",""
"","bandit","162","649715","0.0-122.0-0.0","17850026","wem/bandit_party_2","AK1Y09TWU3IQ6","either","6","226","","","","","","","0","0","1","","0.1361232007","0.4","0.8","0.2","0.6","0.5390789087","0.7101675561","0.1361232007","0.6956071838","","","","","","","","","","","","","","75","K","2","","","81","main_expt","",""
"","bandit","163","651521","0.0-123.0-0.0","17850026","wem/bandit_party_2","AK1Y09TWU3IQ6","either","6","291","","","","","","","0","0","1","0.6984384541","","0.4","0.8","0.2","0.6","","","","","0.621290364","0.6984384541","0.2275447725","0.5886517937","","","","","","","","","","74","J","1","","","82","main_expt","",""
"","bandit","164","653348","0.0-124.0-0.0","17850026","wem/bandit_party_2","AK1Y09TWU3IQ6","either","6","313","","","","","","","0","1","0","","0.6359424421","0.4","0.8","0.2","0.6","0.6359424421","0.7447883659","0.1900607051","0.4764182235","","","","","","","","","","","","","","72","H","0","img/none_selected.jpg","","83","main_expt","",""
"","bandit","165","655185","0.0-125.0-0.0","17850026","wem/bandit_party_2","AK1Y09TWU3IQ6","either","6","325","","","","","","","0","0","1","0.6133664729","","0.4","0.8","0.2","0.6","","","","","0.6133664729","0.6900592863","0.1306868958","0.5149027494","","","","","","","","","","72","H","0","img/none_selected.jpg","","84","main_expt","",""
"","bandit","166","657037","0.0-126.0-0.0","17850026","wem/bandit_party_2","AK1Y09TWU3IQ6","either","6","343","","","","","","","0","0","1","0.4908067213","","0.4","0.8","0.2","0.6","","","","","0.7815463305","0.7010597455","0.1683201849","0.4908067213","","","","","","","","","","76","L","3","","","85","main_expt","",""
"","bandit","167","659099","0.0-127.0-0.0","17850026","wem/bandit_party_2","AK1Y09TWU3IQ6","either","6","543","","","","","","","0","0","1","0.1290314955","","0.4","0.8","0.2","0.6","","","","","0.7355789231","0.6171062652","0.1290314955","0.4139472458","","","","","","","","","","75","K","2","","","86","main_expt","",""
"","bandit","168","661418","0.0-128.0-0.0","17850026","wem/bandit_party_2","AK1Y09TWU3IQ6","either","6","804","","","","","","","1","0","0","0.5629375242","","0.4","0.8","0.2","0.6","","","","","0.7267399876","0.5629375242","0.2297537383","0.4253818619","","","","","","","","","","74","J","1","","","87","main_expt","",""
"","bandit","169","663113","0.0-129.0-0.0","17850026","wem/bandit_party_2","AK1Y09TWU3IQ6","either","6","182","","","","","","","0","0","1","","0.7703195612","0.4","0.8","0.2","0.6","0.7703195612","0.6434443074","0.1878263516","0.4448862761","","","","","","","","","","","","","","72","H","0","img/none_selected.jpg","","88","main_expt","",""
"","bandit","170","664700","0.0-130.0-0.0","17850026","wem/bandit_party_2","AK1Y09TWU3IQ6","either","6","71","","","","","","","0","0","1","0.1896964823","","0.4","0.8","0.2","0.6","","","","","0.81872988","0.7296698787","0.1896964823","0.4295642349","","","","","","","","","","75","K","2","","","89","main_expt","",""
"","bandit","171","666273","0.0-131.0-0.0","17850026","wem/bandit_party_2","AK1Y09TWU3IQ6","either","6","57","","","","","","","0","0","1","","0.3655203192","0.4","0.8","0.2","0.6","0.8032570632","0.7042864347","0.1614970172","0.3655203192","","","","","","","","","","","","","","76","L","3","","","90","main_expt","",""
"","bandit","172","667891","0.0-132.0-0.0","17850026","wem/bandit_party_2","AK1Y09TWU3IQ6","either","6","99","","","","","","","1","0","0","0.7606559624","","0.4","0.8","0.2","0.6","","","","","0.8257352781","0.7606559624","0.2107705911","0.402428746","","","","","","","","","","74","J","1","","","91","main_expt","",""
"","bandit","173","669474","0.0-133.0-0.0","17850026","wem/bandit_party_2","AK1Y09TWU3IQ6","either","6","67","","","","","","","0","0","1","","0.1317951273","0.4","0.8","0.2","0.6","0.7762210657","0.8466818248","0.1317951273","0.452733603","","","","","","","","","","","","","","75","K","2","","","92","main_expt","",""
"","bandit","174","671150","0.0-134.0-0.0","17850026","wem/bandit_party_2","AK1Y09TWU3IQ6","either","6","160","","","","","","","0","0","1","0.09268613222","","0.4","0.8","0.2","0.6","","","","","0.8293629201","0.8181600593","0.09268613222","0.5416456901","","","","","","","","","","75","K","2","","","93","main_expt","",""
"","bandit","175","672667","0.0-135.0-0.0","17850026","wem/bandit_party_2","AK1Y09TWU3IQ6","either","6","2","","","","","","","0","0","1","0.7259749053","","0.4","0.8","0.2","0.6","","","","","0.7849393417","0.7259749053","0.06418168538","0.5246039132","","","","","","","","","","74","J","1","","","94","main_expt","",""
"","bandit","176","674232","0.0-136.0-0.0","17850026","wem/bandit_party_2","AK1Y09TWU3IQ6","either","6","57","","","","","","","0","0","1","","0.606801291","0.4","0.8","0.2","0.6","0.7850226125","0.6538641892","0.100072779","0.606801291","","","","","","","","","","","","","","76","L","3","","","95","main_expt","",""
"","bandit","177","675844","0.0-137.0-0.0","17850026","wem/bandit_party_2","AK1Y09TWU3IQ6","either","6","100","","","","","","","1","0","0","0.7175242067","","0.4","0.8","0.2","0.6","","","","","0.8013150942","0.6384360591","0.09628221604","0.7175242067","","","","","","","","","","76","L","3","","","96","main_expt","",""
"","bandit","178","677359","0.0-138.0-0.0","17850026","wem/bandit_party_2","AK1Y09TWU3IQ6","either","6","1","","","","","","","0","0","1","","0.7706560561","0.4","0.8","0.2","0.6","0.70340399","0.6836118029","0.1335622201","0.7706560561","","","","","","","","","","","","","","76","L","3","","","97","main_expt","",""
"","bandit","179","679044","0.0-139.0-0.0","17850026","wem/bandit_party_2","AK1Y09TWU3IQ6","either","6","168","","","","","","","1","0","0","0.7562517051","","0.4","0.8","0.2","0.6","","","","","0.7562517051","0.659457158","0.167202632","0.7234704616","","","","","","","","","","72","H","0","img/none_selected.jpg","","98","main_expt","",""
"","bandit","180","680651","0.0-140.0-0.0","17850026","wem/bandit_party_2","AK1Y09TWU3IQ6","either","6","91","","","","","","","1","0","0","0.6582042781","","0.4","0.8","0.2","0.6","","","","","0.6514659141","0.7726162223","0.1216125457","0.6582042781","","","","","","","","","","76","L","3","","","99","main_expt","",""
"","bandit","181","682251","0.0-141.0-0.0","17850026","wem/bandit_party_2","AK1Y09TWU3IQ6","either","6","84","","","","","","","1","0","0","0.6530973887","","0.4","0.8","0.2","0.6","","","","","0.7112237606","0.8446518706","0.1163239148","0.6530973887","","","","","","","","","","76","L","3","","","100","main_expt","",""
"","bandit","182","683861","0.0-142.0-0.0","17850026","wem/bandit_party_2","AK1Y09TWU3IQ6","either","6","95","","","","","","","1","0","0","0.8784151442","","0.4","0.8","0.2","0.6","","","","","0.6865981462","0.8784151442","0.1037928869","0.6690961394","","","","","","","","","","74","J","1","","","101","main_expt","",""
"","bandit","183","685418","0.0-143.0-0.0","17850026","wem/bandit_party_2","AK1Y09TWU3IQ6","either","6","42","","","","","","","0","0","1","","0.0991068806","0.4","0.8","0.2","0.6","0.6663704066","0.8781202538","0.0991068806","0.6268844929","","","","","","","","","","","","","","75","K","2","","","102","main_expt","",""
"","bandit","184","687195","0.0-144.0-0.0","17850026","wem/bandit_party_2","AK1Y09TWU3IQ6","either","6","262","","","","","","","0","0","1","","0.6006744832","0.4","0.8","0.2","0.6","0.6006744832","0.8123732176","0.1226752409","0.6657789595","","","","","","","","","","","","","","72","H","0","img/none_selected.jpg","","103","main_expt","",""
"","bandit","185","688747","0.0-145.0-0.0","17850026","wem/bandit_party_2","AK1Y09TWU3IQ6","either","6","35","","","","","","","0","0","1","","0.1552466415","0.4","0.8","0.2","0.6","0.518723913","0.8461937008","0.1552466415","0.6951589836","","","","","","","","","","","","","","75","K","2","","","104","main_expt","",""
"","bandit","186","690339","0.0-146.0-0.0","17850026","wem/bandit_party_2","AK1Y09TWU3IQ6","either","6","77","","","","","","","0","1","0","","0.6382729445","0.4","0.8","0.2","0.6","0.5343999165","0.8664825842","0.1702138509","0.6382729445","","","","","","","","","","","","","","76","L","3","","","105","main_expt","",""
"","bandit","187","691937","0.0-147.0-0.0","17850026","wem/bandit_party_2","AK1Y09TWU3IQ6","either","6","76","","","","","","","0","1","0","","0.4959998489","0.4","0.8","0.2","0.6","0.4959998489","0.8703997655","0.2021425125","0.7139624249","","","","","","","","","","","","","","72","H","0","img/none_selected.jpg","","106","main_expt","",""
"","bandit","188","693708","0.0-148.0-0.0","17850026","wem/bandit_party_2","AK1Y09TWU3IQ6","either","6","261","","","","","","","0","1","0","","0.2196373816","0.4","0.8","0.2","0.6","0.5052663648","0.8964314806","0.2196373816","0.7718136471","","","","","","","","","","","","","","75","K","2","","","107","main_expt","",""
"","bandit","189","695245","0.0-149.0-0.0","17850026","wem/bandit_party_2","AK1Y09TWU3IQ6","either","6","19","","","","","","","0","0","1","","0.2393661099","0.4","0.8","0.2","0.6","0.4859582203","0.9080126319","0.2393661099","0.8818715302","","","","","","","","","","","","","","75","K","2","","","108","main_expt","",""
"","bandit","190","697037","0.0-150.0-0.0","17850026","wem/bandit_party_2","AK1Y09TWU3IQ6","either","6","275","","","","","","","1","0","0","0.8757741924","","0.4","0.8","0.2","0.6","","","","","0.523617738","0.8880845243","0.2516352594","0.8757741924","","","","","","","","","","76","L","3","","","109","main_expt","",""
"","bandit","191","698578","0.0-151.0-0.0","17850026","wem/bandit_party_2","AK1Y09TWU3IQ6","either","6","25","","","","","","","1","0","0","0.899251136","","0.4","0.8","0.2","0.6","","","","","0.5492010791","0.899251136","0.2424291788","0.8657151097","","","","","","","","","","74","J","1","","","110","main_expt","",""
"","bandit","192","700194","0.0-152.0-0.0","17850026","wem/bandit_party_2","AK1Y09TWU3IQ6","either","6","100","","","","","","","0","0","1","0.8457624762","","0.4","0.8","0.2","0.6","","","","","0.5467154696","0.9019514556","0.2033086481","0.8457624762","","","","","","","","","","76","L","3","","","111","main_expt","",""
"","bandit","193","701978","0.0-153.0-0.0","17850026","wem/bandit_party_2","AK1Y09TWU3IQ6","either","6","270","","","","","","","1","0","0","0.5396215981","","0.4","0.8","0.2","0.6","","","","","0.5396215981","0.9315537639","0.208613213","0.8756116827","","","","","","","","","","72","H","0","img/none_selected.jpg","","112","main_expt","",""
"","bandit","194","703610","0.0-154.0-0.0","17850026","wem/bandit_party_2","AK1Y09TWU3IQ6","either","6","122","","","","","","","1","0","0","0.8773181328","","0.4","0.8","0.2","0.6","","","","","0.5542875214","0.9254394702","0.2743958833","0.8773181328","","","","","","","","","","76","L","3","","","113","main_expt","",""
"","bandit","195","705298","0.0-155.0-0.0","17850026","wem/bandit_party_2","AK1Y09TWU3IQ6","either","6","172","","","","","","","1","0","0","0.9394904604","","0.4","0.8","0.2","0.6","","","","","0.6411428718","0.9394904604","0.2657329006","0.8842236373","","","","","","","","","","74","J","1","","","114","main_expt","",""
"","bandit","196","706876","0.0-156.0-0.0","17850026","wem/bandit_party_2","AK1Y09TWU3IQ6","either","6","62","","","","","","","0","1","0","","0.8499121835","0.4","0.8","0.2","0.6","0.7261400339","0.9533355239","0.3234316928","0.8499121835","","","","","","","","","","","","","","76","L","3","","","115","main_expt","",""
"","bandit","197","708474","0.0-157.0-0.0","17850026","wem/bandit_party_2","AK1Y09TWU3IQ6","either","6","82","","","","","","","0","0","1","","0.3625587123","0.4","0.8","0.2","0.6","0.7395407697","0.960842596","0.3625587123","0.7890056153","","","","","","","","","","","","","","75","K","2","","","116","main_expt","",""
"","bandit","198","710123","0.0-158.0-0.0","17850026","wem/bandit_party_2","AK1Y09TWU3IQ6","either","6","134","","","","","","","0","1","0","","0.4946904956","0.4","0.8","0.2","0.6","0.8231731708","0.937733065","0.4946904956","0.7709890197","","","","","","","","","","","","","","75","K","2","","","117","main_expt","",""
"","bandit","199","711866","0.0-159.0-0.0","17850026","wem/bandit_party_2","AK1Y09TWU3IQ6","either","6","227","","","","","","","0","1","0","","0.8278750807","0.4","0.8","0.2","0.6","0.8278750807","0.9561499645","0.6246330079","0.7459937787","","","","","","","","","","","","","","72","H","0","img/none_selected.jpg","","118","main_expt","",""
"","bandit","200","713442","0.0-160.0-0.0","17850026","wem/bandit_party_2","AK1Y09TWU3IQ6","either","6","61","","","","","","","0","1","0","","0.5818097722","0.4","0.8","0.2","0.6","0.8715827524","0.9595118281","0.5818097722","0.716881491","","","","","","","","","","","","","","75","K","2","","","119","main_expt","",""
"","bandit","201","715370","0.0-161.0-0.0","17850026","wem/bandit_party_2","AK1Y09TWU3IQ6","either","6","418","","","","","","","0","1","0","","0.6595649419","0.4","0.8","0.2","0.6","0.8522670476","0.9548463758","0.5990025551","0.6595649419","","","","","","","","","","","","","","76","L","3","","","120","main_expt","",""
"","bandit","202","716899","0.0-162.0-0.0","17850026","wem/bandit_party_2","AK1Y09TWU3IQ6","either","6","14","","","","","","","0","0","1","0.6576447048","","0.4","0.8","0.2","0.6","","","","","0.8266542562","0.958085665","0.6534424477","0.6576447048","","","","","","","","","","76","L","3","","","121","main_expt","",""
"","bandit","203","718763","0.0-163.0-0.0","17850026","wem/bandit_party_2","AK1Y09TWU3IQ6","either","6","347","","","","","","","1","0","0","0.6391957719","","0.4","0.8","0.2","0.6","","","","","0.81688531","0.9630601427","0.5952731017","0.6391957719","","","","","","","","","","76","L","3","","","122","main_expt","",""
"","bandit","204","720344","0.0-164.0-0.0","17850026","wem/bandit_party_2","AK1Y09TWU3IQ6","either","6","65","","","","","","","0","0","1","","0.5873908865","0.4","0.8","0.2","0.6","0.8307363081","0.9790283764","0.6469086187","0.5873908865","","","","","","","","","","","","","","76","L","3","","","123","main_expt","",""
"","bandit","205","721860","0.0-165.0-0.0","17850026","wem/bandit_party_2","AK1Y09TWU3IQ6","either","6","1","","","","","","","0","1","0","","0.6592760984","0.4","0.8","0.2","0.6","0.6943824695","0.9718765302","0.6911454426","0.6592760984","","","","","","","","","","","","","","76","L","3","","","124","main_expt","",""
"","bandit","206","723738","0.0-166.0-0.0","17850026","wem/bandit_party_2","AK1Y09TWU3IQ6","either","6","363","","","","","","","0","0","1","","0.7137568944","0.4","0.8","0.2","0.6","0.7137568944","0.9845173964","0.750572215","0.6012083746","","","","","","","","","","","","","","72","H","0","img/none_selected.jpg","","125","main_expt","",""
"","bandit","207","725348","0.0-167.0-0.0","17850026","wem/bandit_party_2","AK1Y09TWU3IQ6","either","6","99","","","","","","","0","1","0","","0.8108432581","0.4","0.8","0.2","0.6","0.6878742658","0.9804670004","0.8108432581","0.6043440275","","","","","","","","","","","","","","75","K","2","","","126","main_expt","",""
"","bandit","208","726996","0.0-168.0-0.0","17850026","wem/bandit_party_2","AK1Y09TWU3IQ6","either","6","131","","","","","","","1","0","0","0.5043142332","","0.4","0.8","0.2","0.6","","","","","0.6175454059","0.9792667249","0.8338196277","0.5043142332","","","","","","","","","","76","L","3","","","127","main_expt","",""
"","bandit","209","728763","0.0-169.0-0.0","17850026","wem/bandit_party_2","AK1Y09TWU3IQ6","either","6","251","","","","","","","0","0","1","","0.5556505876","0.4","0.8","0.2","0.6","0.5556505876","0.9853815399","0.8624128669","0.5778209799","","","","","","","","","","","","","","72","H","0","img/none_selected.jpg","","128","main_expt","",""
"","bandit","210","730408","0.0-170.0-0.0","17850026","wem/bandit_party_2","AK1Y09TWU3IQ6","either","6","130","","","","","","","1","0","0","0.9026068167","","0.4","0.8","0.2","0.6","","","","","0.5948532478","0.9838319732","0.9026068167","0.5806273004","","","","","","","","","","75","K","2","","","129","main_expt","",""
"","bandit","211","732168","0.0-171.0-0.0","17850026","wem/bandit_party_2","AK1Y09TWU3IQ6","either","6","244","","","","","","","0","0","1","0.4152233618","","0.4","0.8","0.2","0.6","","","","","0.6646968067","0.9798768453","0.8983636673","0.4152233618","","","","","","","","","","76","L","3","","","130","main_expt","",""
"","bandit","212","733801","0.0-172.0-0.0","17850026","wem/bandit_party_2","AK1Y09TWU3IQ6","either","6","119","","","","","","","1","0","0","0.9628017066","","0.4","0.8","0.2","0.6","","","","","0.6676177377","0.9628017066","0.888478962","0.4527057242","","","","","","","","","","74","J","1","","","131","main_expt","",""
"","bandit","213","735494","0.0-173.0-0.0","17850026","wem/bandit_party_2","AK1Y09TWU3IQ6","either","6","176","","","","","","","0","0","1","","0.8470567254","0.4","0.8","0.2","0.6","0.7638630926","0.9723970119","0.8470567254","0.5185753891","","","","","","","","","","","","","","75","K","2","","","132","main_expt","",""
"","bandit","214","737014","0.0-174.0-0.0","17850026","wem/bandit_party_2","AK1Y09TWU3IQ6","either","6","2","","","","","","","0","1","0","","0.8852081265","0.4","0.8","0.2","0.6","0.726350598","0.9754432393","0.8852081265","0.4567386081","","","","","","","","","","","","","","75","K","2","","","133","main_expt","",""
"","bandit","215","738533","0.0-175.0-0.0","17850026","wem/bandit_party_2","AK1Y09TWU3IQ6","either","6","1","","","","","","","1","0","0","0.4494056808","","0.4","0.8","0.2","0.6","","","","","0.7638059904","0.9635376407","0.8317422298","0.4494056808","","","","","","","","","","76","L","3","","","134","main_expt","",""
"","bandit","216","741242","0.0-176.0-0.0","17850026","wem/bandit_party_2","AK1Y09TWU3IQ6","either","6","1198","","","","","","","1","0","0","0.7337835984","","0.4","0.8","0.2","0.6","","","","","0.7337835984","0.9304273523","0.8121858422","0.4608562393","","","","","","","","","","72","H","0","img/none_selected.jpg","","135","main_expt","",""
"","bandit","217","742994","0.0-177.0-0.0","17850026","wem/bandit_party_2","AK1Y09TWU3IQ6","either","6","240","","","","","","","0","1","0","","0.7869055623","0.4","0.8","0.2","0.6","0.7869055623","0.9295592062","0.8473276522","0.6684020244","","","","","","","","","","","","","","72","H","0","img/none_selected.jpg","","136","main_expt","",""
"","bandit","218","744515","0.0-178.0-0.0","17850026","wem/bandit_party_2","AK1Y09TWU3IQ6","either","6","2","","","","","","","1","0","0","0.9343332129","","0.4","0.8","0.2","0.6","","","","","0.8033651193","0.9343332129","0.8251243182","0.614137061","","","","","","","","","","74","J","1","","","137","main_expt","",""
"","bandit","219","746093","0.0-179.0-0.0","17850026","wem/bandit_party_2","AK1Y09TWU3IQ6","either","6","60","","","","","","","0","0","1","","0.7892590299","0.4","0.8","0.2","0.6","0.7620089345","0.9325781127","0.7892590299","0.711021659","","","","","","","","","","","","","","75","K","2","","","138","main_expt","",""
"","bandit","220","747981","0.0-180.0-0.0","17850026","wem/bandit_party_2","AK1Y09TWU3IQ6","either","6","373","","","","","","","1","0","0","0.9687763229","","0.4","0.8","0.2","0.6","","","","","0.8098853196","0.9687763229","0.753698647","0.5731932267","","","","","","","","","","74","J","1","","","139","main_expt","",""
"","bandit","221","749634","0.0-181.0-0.0","17850026","wem/bandit_party_2","AK1Y09TWU3IQ6","either","6","137","","","","","","","0","0","1","","0.8737133651","0.4","0.8","0.2","0.6","0.8737133651","0.9520204639","0.7281837229","0.6553783698","","","","","","","","","","","","","","72","H","0","img/none_selected.jpg","","140","main_expt","",""
"","bandit","222","751147","0.0-182.0-0.0","17850026","wem/bandit_party_2","AK1Y09TWU3IQ6","either","6","1","","","","","","","1","0","0","0.9615613541","","0.4","0.8","0.2","0.6","","","","","0.8464817719","0.9615613541","0.7913145473","0.5665224918","","","","","","","","","","74","J","1","","","141","main_expt","",""
"","bandit","223","752772","0.0-183.0-0.0","17850026","wem/bandit_party_2","AK1Y09TWU3IQ6","either","6","106","","","","","","","1","0","0","0.9438722422","","0.4","0.8","0.2","0.6","","","","","0.8457688645","0.9438722422","0.7498898283","0.5230460729","","","","","","","","","","74","J","1","","","142","main_expt","",""
"","bandit","224","754898","0.0-184.0-0.0","17850026","wem/bandit_party_2","AK1Y09TWU3IQ6","either","6","611","","","","","","","0","0","1","0.8801682128","","0.4","0.8","0.2","0.6","","","","","0.8801682128","0.9419241064","0.723110339","0.5401897842","","","","","","","","","","72","H","0","img/none_selected.jpg","","143","main_expt","",""
"","bandit","225","757840","0.0-185.0-0.0","17850026","wem/bandit_party_2","AK1Y09TWU3IQ6","either","6","1425","","","","","","","0","0","1","","0.7806105972","0.4","0.8","0.2","0.6","0.7806105972","0.9383966058","0.7697142539","0.5495292383","","","","","","","","","","","","","","72","H","0","img/none_selected.jpg","","144","main_expt","",""
"","bandit","226","759443","0.0-186.0-0.0","17850026","wem/bandit_party_2","AK1Y09TWU3IQ6","either","6","88","","","","","","","1","0","0","0.9442204223","","0.4","0.8","0.2","0.6","","","","","0.7384744451","0.9442204223","0.8279494337","0.4718854897","","","","","","","","","","74","J","1","","","145","main_expt","",""
"","bandit","227","761224","0.0-187.0-0.0","17850026","wem/bandit_party_2","AK1Y09TWU3IQ6","either","6","260","","","","","","","1","0","0","0.7078417075","","0.4","0.8","0.2","0.6","","","","","0.7078417075","0.9461270134","0.747104877","0.3790577705","","","","","","","","","","72","H","0","img/none_selected.jpg","","146","main_expt","",""
"","bandit","228","766052","0.0-188.0-0.0","17850026","wem/bandit_party_2","AK1Y09TWU3IQ6","either","6","3310","","","","","","","0","1","0","","0.9677113618","0.4","0.8","0.2","0.6","0.7671729372","0.9677113618","0.7635883185","0.3671333747","","","","","","","","","","","","","","74","J","1","","","147","main_expt","",""
"","bandit","229","767865","0.0-189.0-0.0","17850026","wem/bandit_party_2","AK1Y09TWU3IQ6","either","6","296","","","","","","","0","0","1","0.4462771912","","0.4","0.8","0.2","0.6","","","","","0.7515071201","0.9603287673","0.6650729927","0.4462771912","","","","","","","","","","76","L","3","","","148","main_expt","",""
"","bandit","230","770990","0.0-190.0-0.0","17850026","wem/bandit_party_2","AK1Y09TWU3IQ6","either","6","1607","","","","","","","0","1","0","","0.594527628","0.4","0.8","0.2","0.6","0.7582160768","0.9256305183","0.594527628","0.3929125452","","","","","","","","","","","","","","75","K","2","","","149","main_expt","",""
"","bandit","231","772541","0.0-191.0-0.0","17850026","wem/bandit_party_2","AK1Y09TWU3IQ6","either","6","33","","","","","","","0","0","1","","0.6843302658","0.4","0.8","0.2","0.6","0.6843302658","0.9222609783","0.5101412162","0.3825194633","","","","","","","","","","","","","","72","H","0","img/none_selected.jpg","","150","main_expt","",""
"","bandit","232","774105","0.0-192.0-0.0","17850026","wem/bandit_party_2","AK1Y09TWU3IQ6","either","6","49","","","","","","","0","0","1","0.4980827124","","0.4","0.8","0.2","0.6","","","","","0.4980827124","0.9522131909","0.5755011036","0.3889652011","","","","","","","","","","72","H","0","img/none_selected.jpg","","151","main_expt","",""
"","bandit","233","775699","0.0-193.0-0.0","17850026","wem/bandit_party_2","AK1Y09TWU3IQ6","either","6","77","","","","","","","1","0","0","0.9351777179","","0.4","0.8","0.2","0.6","","","","","0.5418861514","0.9351777179","0.5415628766","0.372169082","","","","","","","","","","74","J","1","","","152","main_expt","",""
"","bandit","234","777330","0.0-194.0-0.0","17850026","wem/bandit_party_2","AK1Y09TWU3IQ6","either","6","115","","","","","","","0","0","1","0.6424708626","","0.4","0.8","0.2","0.6","","","","","0.6424708626","0.9526549669","0.6392888902","0.4275919172","","","","","","","","","","72","H","0","img/none_selected.jpg","","153","main_expt","",""
"","bandit","235","778894","0.0-195.0-0.0","17850026","wem/bandit_party_2","AK1Y09TWU3IQ6","either","6","53","","","","","","","1","0","0","0.944677936","","0.4","0.8","0.2","0.6","","","","","0.6200403258","0.944677936","0.6798835142","0.3978897223","","","","","","","","","","74","J","1","","","154","main_expt","",""
"","bandit","236","780482","0.0-196.0-0.0","17850026","wem/bandit_party_2","AK1Y09TWU3IQ6","either","6","71","","","","","","","0","1","0","","0.9443948233","0.4","0.8","0.2","0.6","0.5087788092","0.9443948233","0.7376683638","0.4922143253","","","","","","","","","","","","","","74","J","1","","","155","main_expt","",""
"","bandit","237","782086","0.0-197.0-0.0","17850026","wem/bandit_party_2","AK1Y09TWU3IQ6","either","6","99","","","","","","","0","0","1","","0.4397360723","0.4","0.8","0.2","0.6","0.4397360723","0.9312029685","0.7740838489","0.5060601407","","","","","","","","","","","","","","72","H","0","img/none_selected.jpg","","156","main_expt","",""
"","bandit","238","783627","0.0-198.0-0.0","17850026","wem/bandit_party_2","AK1Y09TWU3IQ6","either","6","26","","","","","","","0","0","1","0.7526352547","","0.4","0.8","0.2","0.6","","","","","0.4529934193","0.9009413449","0.7526352547","0.56460533","","","","","","","","","","75","K","2","","","157","main_expt","",""
"","bandit","239","785170","0.0-199.0-0.0","17850026","wem/bandit_party_2","AK1Y09TWU3IQ6","either","6","26","","","","","","","1","0","0","0.807066173","","0.4","0.8","0.2","0.6","","","","","0.522014142","0.8799225656","0.807066173","0.5551408743","","","","","","","","","","75","K","2","","","158","main_expt","",""
"","bandit","240","786821","0.0-200.0-0.0","17850026","wem/bandit_party_2","AK1Y09TWU3IQ6","either","6","139","","","","","","","0","1","0","","0.447178695","0.4","0.8","0.2","0.6","0.447178695","0.9103166083","0.8348587906","0.6362487126","","","","","","","","","","","","","","72","H","0","img/none_selected.jpg","","159","main_expt","",""
"","bandit","241","788524","0.0-201.0-0.0","17850026","wem/bandit_party_2","AK1Y09TWU3IQ6","either","6","185","","","","","","","0","0","1","0.4293784973","","0.4","0.8","0.2","0.6","","","","","0.4293784973","0.9575168601","0.8054329593","0.5818198138","","","","","","","","","","72","H","0","img/none_selected.jpg","","160","main_expt","",""
"","bandit","242","790069","0.0-202.0-0.0","17850026","wem/bandit_party_2","AK1Y09TWU3IQ6","either","6","26","","","","","","","0","1","0","","0.4263694152","0.4","0.8","0.2","0.6","0.4263694152","0.9323430526","0.8263011938","0.5079421761","","","","","","","","","","","","","","72","H","0","img/none_selected.jpg","","161","main_expt","",""
"","bandit","243","791597","0.0-203.0-0.0","17850026","wem/bandit_party_2","AK1Y09TWU3IQ6","either","6","10","","","","","","","0","1","0","","0.8731035433","0.4","0.8","0.2","0.6","0.4394756583","0.8731035433","0.8468561623","0.3944353318","","","","","","","","","","","","","","74","J","1","","","162","main_expt","",""
"","bandit","244","793128","0.0-204.0-0.0","17850026","wem/bandit_party_2","AK1Y09TWU3IQ6","either","6","5","","","","","","","0","1","0","","0.4632532181","0.4","0.8","0.2","0.6","0.4632532181","0.860239847","0.866861138","0.4560534757","","","","","","","","","","","","","","72","H","0","img/none_selected.jpg","","163","main_expt","",""
"","bandit","245","794693","0.0-205.0-0.0","17850026","wem/bandit_party_2","AK1Y09TWU3IQ6","either","6","44","","","","","","","1","0","0","0.4338988853","","0.4","0.8","0.2","0.6","","","","","0.469091439","0.8327160304","0.8621839131","0.4338988853","","","","","","","","","","76","L","3","","","164","main_expt","",""
"","bandit","246","796281","0.0-206.0-0.0","17850026","wem/bandit_party_2","AK1Y09TWU3IQ6","either","6","71","","","","","","","0","1","0","","0.8368369455","0.4","0.8","0.2","0.6","0.4691854483","0.8780399083","0.8368369455","0.3640020004","","","","","","","","","","","","","","75","K","2","","","165","main_expt","",""
"","bandit","247","797851","0.0-207.0-0.0","17850026","wem/bandit_party_2","AK1Y09TWU3IQ6","either","6","50","","","","","","","0","1","0","","0.424594696","0.4","0.8","0.2","0.6","0.424594696","0.8659509199","0.8543831227","0.4433911144","","","","","","","","","","","","","","72","H","0","img/none_selected.jpg","","166","main_expt","",""
"","bandit","248","799374","0.0-208.0-0.0","17850026","wem/bandit_party_2","AK1Y09TWU3IQ6","either","6","2","","","","","","","1","0","0","0.8458676595","","0.4","0.8","0.2","0.6","","","","","0.4691217736","0.8458676595","0.8444257961","0.4852122499","","","","","","","","","","74","J","1","","","167","main_expt","",""
"","bandit","249","801011","0.0-209.0-0.0","17850026","wem/bandit_party_2","AK1Y09TWU3IQ6","either","6","117","","","","","","","0","1","0","","0.4605946041","0.4","0.8","0.2","0.6","0.4605946041","0.7368025647","0.8895061166","0.4829488348","","","","","","","","","","","","","","72","H","0","img/none_selected.jpg","","168","main_expt","",""
"","bandit","250","802658","0.0-210.0-0.0","17850026","wem/bandit_party_2","AK1Y09TWU3IQ6","either","6","127","","","","","","","0","0","1","","0.8980662015","0.4","0.8","0.2","0.6","0.4302520818","0.6811301937","0.8980662015","0.467087579","","","","","","","","","","","","","","75","K","2","","","169","main_expt","",""
"","bandit","251","804339","0.0-211.0-0.0","17850026","wem/bandit_party_2","AK1Y09TWU3IQ6","either","6","163","","","","","","","0","0","1","0.3846086554","","0.4","0.8","0.2","0.6","","","","","0.3846086554","0.6781719117","0.9399190154","0.3575164989","","","","","","","","","","72","H","0","img/none_selected.jpg","","170","main_expt","",""
"","bandit","252","805899","0.0-212.0-0.0","17850026","wem/bandit_party_2","AK1Y09TWU3IQ6","either","6","39","","","","","","","0","1","0","","0.9199626721","0.4","0.8","0.2","0.6","0.4938912128","0.5779776893","0.9199626721","0.3433755155","","","","","","","","","","","","","","75","K","2","","","171","main_expt","",""
"","bandit","253","807578","0.0-213.0-0.0","17850026","wem/bandit_party_2","AK1Y09TWU3IQ6","either","6","159","","","","","","","0","0","1","0.2921203137","","0.4","0.8","0.2","0.6","","","","","0.5409242696","0.5461867433","0.8885959212","0.2921203137","","","","","","","","","","76","L","3","","","172","main_expt","",""
"","bandit","254","809571","0.0-214.0-0.0","17850026","wem/bandit_party_2","AK1Y09TWU3IQ6","either","6","474","","","","","","","0","0","1","","0.4899310385","0.4","0.8","0.2","0.6","0.4899310385","0.5898781272","0.8502068985","0.3237382503","","","","","","","","","","","","","","72","H","0","img/none_selected.jpg","","173","main_expt","",""
"","bandit","255","811091","0.0-215.0-0.0","17850026","wem/bandit_party_2","AK1Y09TWU3IQ6","either","6","2","","","","","","","1","0","0","0.4464532747","","0.4","0.8","0.2","0.6","","","","","0.4464532747","0.5990225055","0.9054067092","0.2935635685","","","","","","","","","","72","H","0","img/none_selected.jpg","","174","main_expt","",""
"","bandit","256","812605","0.0-216.0-0.0","17850026","wem/bandit_party_2","AK1Y09TWU3IQ6","either","6","1","","","","","","","0","0","1","","0.4363040476","0.4","0.8","0.2","0.6","0.4363040476","0.6129624105","0.9096893241","0.2797951809","","","","","","","","","","","","","","72","H","0","img/none_selected.jpg","","175","main_expt","",""
"","bandit","257","814223","0.0-217.0-0.0","17850026","wem/bandit_party_2","AK1Y09TWU3IQ6","either","6","100","","","","","","","0","0","1","","0.4198776974","0.4","0.8","0.2","0.6","0.4198776974","0.5434192492","0.9081003197","0.2067270565","","","","","","","","","","","","","","72","H","0","img/none_selected.jpg","","176","main_expt","",""
"","bandit","258","815892","0.0-218.0-0.0","17850026","wem/bandit_party_2","AK1Y09TWU3IQ6","either","6","147","","","","","","","0","0","1","","0.4001478854","0.4","0.8","0.2","0.6","0.4001478854","0.5893108522","0.8417535431","0.19266164","","","","","","","","","","","","","","72","H","0","img/none_selected.jpg","","177","main_expt","",""
"","bandit","259","817412","0.0-219.0-0.0","17850026","wem/bandit_party_2","AK1Y09TWU3IQ6","either","6","2","","","","","","","0","0","1","0.3015477047","","0.4","0.8","0.2","0.6","","","","","0.3015477047","0.4862463398","0.8045518304","0.1393448617","","","","","","","","","","72","H","0","img/none_selected.jpg","","178","main_expt","",""
"","bandit","260","819010","0.0-220.0-0.0","17850026","wem/bandit_party_2","AK1Y09TWU3IQ6","either","6","86","","","","","","","0","1","0","","0.8250115846","0.4","0.8","0.2","0.6","0.2700131006","0.4227787996","0.8250115846","0.1149816072","","","","","","","","","","","","","","75","K","2","","","179","main_expt","",""
"","bandit","261","820546","0.0-221.0-0.0","17850026","wem/bandit_party_2","AK1Y09TWU3IQ6","either","6","16","","","","","","","0","0","1","","0.3473069","0.4","0.8","0.2","0.6","0.3473069","0.3583368423","0.7418096358","0.1231561222","","","","","","","","","","","","","","72","H","0","img/none_selected.jpg","","180","main_expt","",""
"","bandit","262","822193","0.0-222.0-0.0","17850026","wem/bandit_party_2","AK1Y09TWU3IQ6","either","6","128","","","","","","","1","0","0","0.3820052134","","0.4","0.8","0.2","0.6","","","","","0.3478804011","0.3820052134","0.7180260456","0.1134989143","","","","","","","","","","74","J","1","","","181","main_expt","",""
"","bandit","263","823717","0.0-223.0-0.0","17850026","wem/bandit_party_2","AK1Y09TWU3IQ6","either","6","4","","","","","","","0","1","0","","0.6777378447","0.4","0.8","0.2","0.6","0.3304981007","0.437769555","0.6777378447","0.07317944644","","","","","","","","","","","","","","75","K","2","","","182","main_expt","",""
"","bandit","264","825274","0.0-224.0-0.0","17850026","wem/bandit_party_2","AK1Y09TWU3IQ6","either","6","38","","","","","","","0","0","1","0.2578466268","","0.4","0.8","0.2","0.6","","","","","0.2578466268","0.3951330089","0.6331465848","0.05085611098","","","","","","","","","","72","H","0","img/none_selected.jpg","","183","main_expt","",""
"","bandit","265","826858","0.0-225.0-0.0","17850026","wem/bandit_party_2","AK1Y09TWU3IQ6","either","6","65","","","","","","","1","0","0","0.3550464129","","0.4","0.8","0.2","0.6","","","","","0.3550464129","0.4062376343","0.6578519513","0.07152820202","","","","","","","","","","72","H","0","img/none_selected.jpg","","184","main_expt","",""
"","bandit","266","829107","0.0-226.0-0.0","17850026","wem/bandit_party_2","AK1Y09TWU3IQ6","either","6","737","","","","","","","0","0","1","","0.2993299556","0.4","0.8","0.2","0.6","0.2993299556","0.4035727276","0.7160298793","0.08814522307","","","","","","","","","","","","","","72","H","0","img/none_selected.jpg","","185","main_expt","",""
"","bandit","267","834636","0.0-227.0-0.0","17850026","wem/bandit_party_2","AK1Y09TWU3IQ6","either","6","4017","","","","","","","0","0","1","","0.0931487442","0.4","0.8","0.2","0.6","0.3985972224","0.4595565904","0.7081703269","0.0931487442","","","","","","","","","","","","","","76","L","3","","","186","main_expt","",""
"","bandit","268","836298","0.0-228.0-0.0","17850026","wem/bandit_party_2","AK1Y09TWU3IQ6","either","6","143","","","","","","","0","0","1","0.4563810555","","0.4","0.8","0.2","0.6","","","","","0.4563810555","0.4956959756","0.7670757258","0.05847154344","","","","","","","","","","72","H","0","img/none_selected.jpg","","187","main_expt","",""
"","bandit","269","849592","0.0-229.0-0.0","17850026","wem/bandit_party_2","AK1Y09TWU3IQ6","either","6","11775","","","","","","","0","0","1","","0.05005107021","0.4","0.8","0.2","0.6","0.4621092719","0.4295585103","0.7986884496","0.05005107021","","","","","","","","","","","","","","76","L","3","","","188","main_expt","",""
"","bandit","270","856365","0.0-230.0-0.0","17850026","wem/bandit_party_2","AK1Y09TWU3IQ6","either","6","5253","","","","","","","0","0","1","0.05158958255","","0.4","0.8","0.2","0.6","","","","","0.4214675273","0.4121259827","0.8113194514","0.05158958255","","","","","","","","","","76","L","3","","","189","main_expt","",""
"","bandit","271","857970","0.0-231.0-0.0","17850026","wem/bandit_party_2","AK1Y09TWU3IQ6","either","6","84","","","","","","","0","0","1","0.0530996007","","0.4","0.8","0.2","0.6","","","","","0.4445162903","0.40505342","0.8311477635","0.0530996007","","","","","","","","","","76","L","3","","","190","main_expt","",""
"","bandit","272","859779","0.0-232.0-0.0","17850026","wem/bandit_party_2","AK1Y09TWU3IQ6","either","6","289","","","","","","","1","0","0","0.3671493273","","0.4","0.8","0.2","0.6","","","","","0.4077799102","0.3671493273","0.7941336253","0.05342003941","","","","","","","","","","74","J","1","","","191","main_expt","",""
"","bandit","273","861314","0.0-233.0-0.0","17850026","wem/bandit_party_2","AK1Y09TWU3IQ6","either","6","16","","","","","","","0","0","1","0.05264216412","","0.4","0.8","0.2","0.6","","","","","0.413117206","0.3367263454","0.841847859","0.05264216412","","","","","","","","","","76","L","3","","","192","main_expt","",""
"","bandit","274","866901","0.0-234.0-0.0","17850026","wem/bandit_party_2","AK1Y09TWU3IQ6","either","6","4075","","","","","","","0","1","0","","0.374663265","0.4","0.8","0.2","0.6","0.374663265","0.2587514209","0.865127625","0.07418965368","","","","","","","","","","","","","","72","H","0","img/none_selected.jpg","","193","main_expt","",""
"","bandit","275","868602","0.0-235.0-0.0","17850026","wem/bandit_party_2","AK1Y09TWU3IQ6","either","6","179","","","","","","","0","1","0","","0.8369883383","0.4","0.8","0.2","0.6","0.2792309937","0.2123696513","0.8369883383","0.1148515542","","","","","","","","","","","","","","75","K","2","","","194","main_expt","",""
"","bandit","276","871426","0.0-236.0-0.0","17850026","wem/bandit_party_2","AK1Y09TWU3IQ6","either","6","1314","","","","","","","0","0","1","0.2551117677","","0.4","0.8","0.2","0.6","","","","","0.3090424304","0.2551117677","0.8226177272","0.1102075851","","","","","","","","","","74","J","1","","","195","main_expt","",""
"","bandit","277","873370","0.0-237.0-0.0","17850026","wem/bandit_party_2","AK1Y09TWU3IQ6","either","6","434","","","","","","","0","0","1","","0.2948177706","0.4","0.8","0.2","0.6","0.2254203465","0.2948177706","0.8759919892","0.09307195637","","","","","","","","","","","","","","74","J","1","","","196","main_expt","",""
"","bandit","278","875052","0.0-238.0-0.0","17850026","wem/bandit_party_2","AK1Y09TWU3IQ6","either","6","159","","","","","","","0","0","1","0.08341332984","","0.4","0.8","0.2","0.6","","","","","0.2104085952","0.2864074111","0.9413038234","0.08341332984","","","","","","","","","","76","L","3","","","197","main_expt","",""
"","bandit","279","876577","0.0-239.0-0.0","17850026","wem/bandit_party_2","AK1Y09TWU3IQ6","either","6","9","","","","","","","0","1","0","","0.9384937307","0.4","0.8","0.2","0.6","0.1686499416","0.3044962429","0.9384937307","0.06206278739","","","","","","","","","","","","","","75","K","2","","","198","main_expt","",""
"","bandit","280","878446","0.0-240.0-0.0","17850026","wem/bandit_party_2","AK1Y09TWU3IQ6","either","6","351","","","","","","","0","0","1","0.1015706687","","0.4","0.8","0.2","0.6","","","","","0.1696058054","0.2804127106","0.927250614","0.1015706687","","","","","","","","","","76","L","3","","","199","main_expt","",""
"","bandit","281","880210","0.0-241.0-0.0","17850026","wem/bandit_party_2","AK1Y09TWU3IQ6","either","6","250","","","","","","","0","0","1","0.07348353789","","0.4","0.8","0.2","0.6","","","","","0.1940139532","0.3151112274","0.8840406778","0.07348353789","","","","","","","","","","76","L","3","","","200","main_expt","",""
"","bandit","282","881851","0.0-242.0-0.0","17850026","wem/bandit_party_2","AK1Y09TWU3IQ6","either","6","116","","","","","","","0","1","0","","0.2384341862","0.4","0.8","0.2","0.6","0.2384341862","0.3124471347","0.8866639954","0.09218994405","","","","","","","","","","","","","","72","H","0","img/none_selected.jpg","","201","main_expt","",""
"","bandit","283","883695","0.0-243.0-0.0","17850026","wem/bandit_party_2","AK1Y09TWU3IQ6","either","6","325","","","","","","","0","0","1","","0.2069173963","0.4","0.8","0.2","0.6","0.2069173963","0.3418115628","0.8188103646","0.1662378481","","","","","","","","","","","","","","72","H","0","img/none_selected.jpg","","202","main_expt","",""
"","bandit","284","885498","0.0-244.0-0.0","17850026","wem/bandit_party_2","AK1Y09TWU3IQ6","either","6","282","","","","","","","0","1","0","","0.2502389624","0.4","0.8","0.2","0.6","0.2502389624","0.2676578736","0.8026106274","0.1808123801","","","","","","","","","","","","","","72","H","0","img/none_selected.jpg","","203","main_expt","",""
"","bandit","285","887074","0.0-245.0-0.0","17850026","wem/bandit_party_2","AK1Y09TWU3IQ6","either","6","55","","","","","","","0","0","1","","0.2226806","0.4","0.8","0.2","0.6","0.2226806","0.2513587973","0.6613987003","0.2011980288","","","","","","","","","","","","","","72","H","0","img/none_selected.jpg","","204","main_expt","",""
"","bandit","286","888659","0.0-246.0-0.0","17850026","wem/bandit_party_2","AK1Y09TWU3IQ6","either","6","63","","","","","","","1","0","0","0.1877492959","","0.4","0.8","0.2","0.6","","","","","0.2327973494","0.2733703365","0.7402115251","0.1877492959","","","","","","","","","","76","L","3","","","205","main_expt","",""
"","bandit","287","890328","0.0-247.0-0.0","17850026","wem/bandit_party_2","AK1Y09TWU3IQ6","either","6","150","","","","","","","0","0","1","","0.1891298069","0.4","0.8","0.2","0.6","0.3134624789","0.3212331514","0.6792505986","0.1891298069","","","","","","","","","","","","","","76","L","3","","","206","main_expt","",""
"","bandit","288","892066","0.0-248.0-0.0","17850026","wem/bandit_party_2","AK1Y09TWU3IQ6","either","6","217","","","","","","","1","0","0","0.3381772831","","0.4","0.8","0.2","0.6","","","","","0.3808856429","0.3381772831","0.6510378203","0.2092890992","","","","","","","","","","74","J","1","","","207","main_expt","",""
"","bandit","289","893655","0.0-249.0-0.0","17850026","wem/bandit_party_2","AK1Y09TWU3IQ6","either","6","69","","","","","","","0","0","1","0.2563161799","","0.4","0.8","0.2","0.6","","","","","0.318509643","0.2370260631","0.5971377862","0.2563161799","","","","","","","","","","76","L","3","","","208","main_expt","",""
"","bandit","290","895290","0.0-250.0-0.0","17850026","wem/bandit_party_2","AK1Y09TWU3IQ6","either","6","123","","","","","","","0","0","1","0.2157004535","","0.4","0.8","0.2","0.6","","","","","0.2932847295","0.2157004535","0.6040603887","0.2643940457","","","","","","","","","","74","J","1","","","209","main_expt","",""
"","bandit","291","896874","0.0-251.0-0.0","17850026","wem/bandit_party_2","AK1Y09TWU3IQ6","either","6","64","","","","","","","0","0","1","0.2710870001","","0.4","0.8","0.2","0.6","","","","","0.2230023122","0.2655169153","0.7794442159","0.2710870001","","","","","","","","","","76","L","3","","","210","main_expt","",""
"","bandit","292","898473","0.0-252.0-0.0","17850026","wem/bandit_party_2","AK1Y09TWU3IQ6","either","6","78","","","","","","","1","0","0","0.2056380183","","0.4","0.8","0.2","0.6","","","","","0.1899351836","0.2359505063","0.8397026392","0.2056380183","","","","","","","","","","76","L","3","","","211","main_expt","",""
"","bandit","293","899996","0.0-253.0-0.0","17850026","wem/bandit_party_2","AK1Y09TWU3IQ6","either","6","1","","","","","","","0","1","0","","0.2487045614","0.4","0.8","0.2","0.6","0.2593929449","0.2431981852","0.7883870126","0.2487045614","","","","","","","","","","","","","","76","L","3","","","212","main_expt","",""
"","bandit","294","902191","0.0-254.0-0.0","17850026","wem/bandit_party_2","AK1Y09TWU3IQ6","either","6","676","","","","","","","0","0","1","","0.2304425673","0.4","0.8","0.2","0.6","0.2304425673","0.3385658967","0.7160446845","0.3520378668","","","","","","","","","","","","","","72","H","0","img/none_selected.jpg","","213","main_expt","",""
"","bandit","295","903800","0.0-255.0-0.0","17850026","wem/bandit_party_2","AK1Y09TWU3IQ6","either","6","99","","","","","","","0","1","0","","0.7501162241","0.4","0.8","0.2","0.6","0.2849244028","0.445002088","0.7501162241","0.3455661114","","","","","","","","","","","","","","75","K","2","","","214","main_expt","",""
"","bandit","296","905704","0.0-256.0-0.0","17850026","wem/bandit_party_2","AK1Y09TWU3IQ6","either","6","383","","","","","","","1","0","0","0.3290646698","","0.4","0.8","0.2","0.6","","","","","0.3184819088","0.4340580748","0.7574589115","0.3290646698","","","","","","","","","","76","L","3","","","215","main_expt","",""
"","bandit","297","907257","0.0-257.0-0.0","17850026","wem/bandit_party_2","AK1Y09TWU3IQ6","either","6","33","","","","","","","0","1","0","","0.3996931216","0.4","0.8","0.2","0.6","0.2989728513","0.3996931216","0.7376674805","0.2737258078","","","","","","","","","","","","","","74","J","1","","","216","main_expt","",""
"","bandit","298","908773","0.0-258.0-0.0","17850026","wem/bandit_party_2","AK1Y09TWU3IQ6","either","6","1","","","","","","","1","0","0","0.2401291484","","0.4","0.8","0.2","0.6","","","","","0.5538830624","0.453570069","0.67262171","0.2401291484","","","","","","","","","","76","L","3","","","217","main_expt","",""
"","bandit","299","910433","0.0-259.0-0.0","17850026","wem/bandit_party_2","AK1Y09TWU3IQ6","either","6","138","","","","","","","0","0","1","","0.5331458927","0.4","0.8","0.2","0.6","0.5331458927","0.3566620654","0.6309662891","0.2395298113","","","","","","","","","","","","","","72","H","0","img/none_selected.jpg","","218","main_expt","",""
"","bandit","300","912257","0.0-260.0-0.0","17850026","wem/bandit_party_2","AK1Y09TWU3IQ6","either","6","303","","","","","","","0","0","1","0.2333127667","","0.4","0.8","0.2","0.6","","","","","0.409279481","0.3114207129","0.610488243","0.2333127667","","","","","","","","","","76","L","3","","","219","main_expt","",""
"","bandit","301","913968","0.0-261.0-0.0","17850026","wem/bandit_party_2","AK1Y09TWU3IQ6","either","6","191","","","","","","","0","1","0","","0.3910907299","0.4","0.8","0.2","0.6","0.3910907299","0.348491043","0.6741838821","0.2097963002","","","","","","","","","","","","","","72","H","0","img/none_selected.jpg","","220","main_expt","",""
"","bandit","302","915744","0.0-262.0-0.0","17850026","wem/bandit_party_2","AK1Y09TWU3IQ6","either","6","263","","","","","","","0","1","0","","0.1761429423","0.4","0.8","0.2","0.6","0.37386253","0.325682353","0.6938787555","0.1761429423","","","","","","","","","","","","","","76","L","3","","","221","main_expt","",""
"","bandit","303","918130","0.0-263.0-0.0","17850026","wem/bandit_party_2","AK1Y09TWU3IQ6","either","6","871","","","","","","","0","0","1","","0.622086605","0.4","0.8","0.2","0.6","0.5460784034","0.3582518194","0.622086605","0.1770547834","","","","","","","","","","","","","","75","K","2","","","222","main_expt","",""
"","bandit","304","919946","0.0-264.0-0.0","17850026","wem/bandit_party_2","AK1Y09TWU3IQ6","either","6","294","","","","","","","0","0","1","","0.1494166006","0.4","0.8","0.2","0.6","0.5484594206","0.3596631187","0.6190419158","0.1494166006","","","","","","","","","","","","","","76","L","3","","","223","main_expt","",""
"","bandit","305","921545","0.0-265.0-0.0","17850026","wem/bandit_party_2","AK1Y09TWU3IQ6","either","6","86","","","","","","","1","0","0","0.1444184755","","0.4","0.8","0.2","0.6","","","","","0.5156266917","0.4757784632","0.6525227655","0.1444184755","","","","","","","","","","76","L","3","","","224","main_expt","",""
"","bandit","306","924728","0.0-266.0-0.0","17850026","wem/bandit_party_2","AK1Y09TWU3IQ6","either","6","1663","","","","","","","0","0","1","0.5384710229","","0.4","0.8","0.2","0.6","","","","","0.5120039273","0.5384710229","0.5739960468","0.2381889698","","","","","","","","","","74","J","1","","","225","main_expt","",""
"","bandit","307","926425","0.0-267.0-0.0","17850026","wem/bandit_party_2","AK1Y09TWU3IQ6","either","6","187","","","","","","","1","0","0","0.5308581489","","0.4","0.8","0.2","0.6","","","","","0.5568413113","0.5308581489","0.6038380469","0.1429230379","","","","","","","","","","74","J","1","","","226","main_expt","",""
"","bandit","308","929020","0.0-268.0-0.0","17850026","wem/bandit_party_2","AK1Y09TWU3IQ6","either","6","1074","","","","","","","0","0","1","0.5277183188","","0.4","0.8","0.2","0.6","","","","","0.5277183188","0.488482713","0.5203417309","0.124100867","","","","","","","","","","72","H","0","img/none_selected.jpg","","227","main_expt","",""
"","bandit","309","930970","0.0-269.0-0.0","17850026","wem/bandit_party_2","AK1Y09TWU3IQ6","either","6","429","","","","","","","0","0","1","","0.5041270258","0.4","0.8","0.2","0.6","0.5041270258","0.4406219513","0.4263922038","0.1762219884","","","","","","","","","","","","","","72","H","0","img/none_selected.jpg","","228","main_expt","",""
"","bandit","310","932499","0.0-270.0-0.0","17850026","wem/bandit_party_2","AK1Y09TWU3IQ6","either","6","5","","","","","","","0","0","1","0.4892119921","","0.4","0.8","0.2","0.6","","","","","0.4541369304","0.4892119921","0.3475105047","0.1910325121","","","","","","","","","","74","J","1","","","229","main_expt","",""
"","bandit","311","941323","0.0-271.0-0.0","17850026","wem/bandit_party_2","AK1Y09TWU3IQ6","either","6","7307","","","","","","","0","0","1","0.5129573662","","0.4","0.8","0.2","0.6","","","","","0.4504381994","0.5129573662","0.3353007417","0.2571549068","","","","","","","","","","74","J","1","","","230","main_expt","",""
"","bandit","312","949040","0.0-272.0-0.0","17850026","wem/bandit_party_2","AK1Y09TWU3IQ6","either","6","6205","","","","","","","1","0","0","0.4382888871","","0.4","0.8","0.2","0.6","","","","","0.4698668598","0.4382888871","0.2870546929","0.1781345747","","","","","","","","","","74","J","1","","","231","main_expt","",""
"","bandit","313","950723","0.0-273.0-0.0","17850026","wem/bandit_party_2","AK1Y09TWU3IQ6","either","6","160","","","","","","","0","0","1","","0.42174841","0.4","0.8","0.2","0.6","0.5460008395","0.42174841","0.3092655517","0.1748933913","","","","","","","","","","","","","","74","J","1","","","232","main_expt","",""
"","bandit","314","956771","0.0-274.0-0.0","17850026","wem/bandit_party_2","AK1Y09TWU3IQ6","either","6","4528","","","","","","","0","0","1","0.5345299581","","0.4","0.8","0.2","0.6","","","","","0.5345299581","0.4297142637","0.4231157335","0.2196371411","","","","","","","","","","72","H","0","img/none_selected.jpg","","233","main_expt","",""
"","bandit","315","958657","0.0-275.0-0.0","17850026","wem/bandit_party_2","AK1Y09TWU3IQ6","either","6","369","","","","","","","0","0","1","0.3016140143","","0.4","0.8","0.2","0.6","","","","","0.508060833","0.3016140143","0.5525929145","0.2052749597","","","","","","","","","","74","J","1","","","234","main_expt","",""
