"consent","trial_type","trial_index","time_elapsed","internal_node_id","subjID","study","MID","cond","drift","rt","responses","button_pressed","key_press","like","value","connected","gems","bombs","no_reward","GemPrChosen","BombPrChosen","GainOverPainPr_0","GainOverPainPr_1","GainOverPainPr_2","GainOverPainPr_3","LosePr_0","LosePr_1","LosePr_2","LosePr_3","WinPr_0","WinPr_1","WinPr_2","WinPr_3","Q0","Q1","Q2","gender","age","ethnicity","label","expt_phase","target","respCharCode","respKey","respChoiceNum","respChoice","practice","trial_counter","trial_label","Q0_index"
"GDM/GDM_behavioral_consent_30min_online.html","consent","0","6605","0.0-0.0","18981015","wem/bandit_party_2","A360G5G0DVWU7X","either","4","","","","","","","","","","","","","","","","","","","","","","","","","","","","","","","","","","","","","","","","",""
"","survey-text","1","10077","0.0-1.0","18981015","wem/bandit_party_2","A360G5G0DVWU7X","either","4","2463","{""Q0"":""A360G5G0DVWU7X""}","","","","","","","","","","","","","","","","","","","","","","","","","","","","","","","","","","","","","","",""
"","button-response","2","12811","0.0-2.0","18981015","wem/bandit_party_2","A360G5G0DVWU7X","either","4","1729","","1","","","","","","","","","","","","","","","","","","","","","","","","","","","","","","","","","","","","","",""
"","text-replacement","3","27171","0.0-3.0","18981015","wem/bandit_party_2","A360G5G0DVWU7X","either","4","13354","","","32","","","","","","","","","","","","","","","","","","","","","","","","","","","","","","","","","","","","",""
"","text-replacement","4","33384","0.0-4.0","18981015","wem/bandit_party_2","A360G5G0DVWU7X","either","4","6213","","","32","","","","","","","","","","","","","","","","","","","","","","","","","","","","","","","","","","","","",""
"","identification","5","41394","0.0-6.0-0.0","18981015","wem/bandit_party_2","A360G5G0DVWU7X","either","4","7998","","","","3","2","0","","","","","","","","","","","","","","","","","","","","","","","","pre","identification_pre","the Republican Party","","","","","","","",""
"","identification","6","51489","0.0-6.0-1.0","18981015","wem/bandit_party_2","A360G5G0DVWU7X","either","4","9080","","","","5","5","6","","","","","","","","","","","","","","","","","","","","","","","","pre","identification_pre","the Democratic Party","","","","","","","",""
"","text-replacement","7","165076","0.0-7.0","18981015","wem/bandit_party_2","A360G5G0DVWU7X","either","4","112582","","","32","","","","","","","","","","","","","","","","","","","","","","","","","","","","","","","","","","","","",""
"","text-replacement","8","165265","0.0-8.0","18981015","wem/bandit_party_2","A360G5G0DVWU7X","either","4","189","","","32","","","","","","","","","","","","","","","","","","","","","","","","","","","","","","","","","","","","",""
"","text-replacement","9","176243","0.0-9.0","18981015","wem/bandit_party_2","A360G5G0DVWU7X","either","4","10977","","","32","","","","","","","","","","","","","","","","","","","","","","","","","","","","","","","","","","","","",""
"","text-replacement","10","178451","0.0-10.0","18981015","wem/bandit_party_2","A360G5G0DVWU7X","either","4","2207","","","32","","","","","","","","","","","","","","","","","","","","","","","","","","","","","","","","","","","","",""
"","text-replacement","11","180652","0.0-11.0","18981015","wem/bandit_party_2","A360G5G0DVWU7X","either","4","2201","","","32","","","","","","","","","","","","","","","","","","","","","","","","","","","","","","","","","","","","",""
"","bandit","12","184337","0.0-12.0-0.0","18981015","wem/bandit_party_2","A360G5G0DVWU7X","either","4","2174","","","","","","","0","0","1","0","0","","","","","0","","","","0","","","","","","","","","","","","","74","J","0","img/none_selected_demo.jpg","true","0","",""
"","bandit","13","187290","0.0-13.0-0.0","18981015","wem/bandit_party_2","A360G5G0DVWU7X","either","4","1447","","","","","","","0","0","1","0","0","","","","","0","","","","0","","","","","","","","","","","","","75","K","0","img/none_selected_demo.jpg","true","0","",""
"","text-replacement","14","190832","0.0-14.0","18981015","wem/bandit_party_2","A360G5G0DVWU7X","either","4","3540","","","32","","","","","","","","","","","","","","","","","","","","","","","","","","","","","","","","","","","","",""
"","text-replacement","15","191847","0.0-15.0","18981015","wem/bandit_party_2","A360G5G0DVWU7X","either","4","1015","","","32","","","","","","","","","","","","","","","","","","","","","","","","","","","","","","","","","","","","",""
"","text-replacement","16","192538","0.0-16.0","18981015","wem/bandit_party_2","A360G5G0DVWU7X","either","4","690","","","32","","","","","","","","","","","","","","","","","","","","","","","","","","","","","","","","","","","","",""
"","text-replacement","17","195136","0.0-17.0","18981015","wem/bandit_party_2","A360G5G0DVWU7X","either","4","2598","","","32","","","","","","","","","","","","","","","","","","","","","","","","","","","","","","","","","","","","",""
"","bandit","18","197652","0.0-18.0-0.0","18981015","wem/bandit_party_2","A360G5G0DVWU7X","either","4","1004","","","","","","","1","0","0","0.2","","0.5","0.5","","","","","","","0.8","0.2","","","","","","","","","","","","75","K","1","","true","0","80_20_practice",""
"","bandit","19","200564","0.0-18.0-1.0","18981015","wem/bandit_party_2","A360G5G0DVWU7X","either","4","1405","","","","","","","1","0","0","0.8","","0.5","0.5","","","","","","","0.8","0.2","","","","","","","","","","","","74","J","0","img/none_selected_demo.jpg","true","0","80_20_practice",""
"","bandit","20","203240","0.0-18.0-2.0","18981015","wem/bandit_party_2","A360G5G0DVWU7X","either","4","1168","","","","","","","0","1","0","","0.8","0.5","0.5","","","0.8","0.2","","","","","","","","","","","","","","","","74","J","0","img/none_selected_demo.jpg","true","0","80_20_practice",""
"","bandit","21","205133","0.0-18.0-3.0","18981015","wem/bandit_party_2","A360G5G0DVWU7X","either","4","387","","","","","","","1","0","0","0.2","","0.5","0.5","","","","","","","0.8","0.2","","","","","","","","","","","","75","K","1","","true","0","80_20_practice",""
"","bandit","22","207138","0.0-18.0-4.0","18981015","wem/bandit_party_2","A360G5G0DVWU7X","either","4","494","","","","","","","1","0","0","0.2","","0.5","0.5","","","","","","","0.8","0.2","","","","","","","","","","","","75","K","1","","true","0","80_20_practice",""
"","bandit","23","209047","0.0-18.0-5.0","18981015","wem/bandit_party_2","A360G5G0DVWU7X","either","4","401","","","","","","","0","0","1","","0.2","0.5","0.5","","","0.8","0.2","","","","","","","","","","","","","","","","75","K","1","","true","0","80_20_practice",""
"","bandit","24","211430","0.0-18.0-6.0","18981015","wem/bandit_party_2","A360G5G0DVWU7X","either","4","874","","","","","","","0","1","0","","0.8","0.5","0.5","","","0.8","0.2","","","","","","","","","","","","","","","","74","J","0","img/none_selected_demo.jpg","true","0","80_20_practice",""
"","bandit","25","213702","0.0-18.0-7.0","18981015","wem/bandit_party_2","A360G5G0DVWU7X","either","4","766","","","","","","","0","0","1","","0.2","0.5","0.5","","","0.8","0.2","","","","","","","","","","","","","","","","75","K","1","","true","0","80_20_practice",""
"","bandit","26","215955","0.0-18.0-8.0","18981015","wem/bandit_party_2","A360G5G0DVWU7X","either","4","744","","","","","","","1","0","0","0.2","","0.5","0.5","","","","","","","0.8","0.2","","","","","","","","","","","","75","K","1","","true","0","80_20_practice",""
"","bandit","27","217903","0.0-18.0-9.0","18981015","wem/bandit_party_2","A360G5G0DVWU7X","either","4","441","","","","","","","0","1","0","","0.8","0.5","0.5","","","0.8","0.2","","","","","","","","","","","","","","","","74","J","0","img/none_selected_demo.jpg","true","0","80_20_practice",""
"","bandit","28","219977","0.0-18.0-10.0","18981015","wem/bandit_party_2","A360G5G0DVWU7X","either","4","563","","","","","","","0","1","0","","0.8","0.5","0.5","","","0.8","0.2","","","","","","","","","","","","","","","","74","J","0","img/none_selected_demo.jpg","true","0","80_20_practice",""
"","bandit","29","221775","0.0-18.0-11.0","18981015","wem/bandit_party_2","A360G5G0DVWU7X","either","4","285","","","","","","","0","0","1","","0.2","0.5","0.5","","","0.8","0.2","","","","","","","","","","","","","","","","75","K","1","","true","0","80_20_practice",""
"","bandit","30","224292","0.0-18.0-12.0","18981015","wem/bandit_party_2","A360G5G0DVWU7X","either","4","1009","","","","","","","0","0","1","0.2","","0.5","0.5","","","","","","","0.8","0.2","","","","","","","","","","","","75","K","1","","true","0","80_20_practice",""
"","bandit","31","226338","0.0-18.0-13.0","18981015","wem/bandit_party_2","A360G5G0DVWU7X","either","4","539","","","","","","","0","0","1","","0.2","0.5","0.5","","","0.8","0.2","","","","","","","","","","","","","","","","75","K","1","","true","0","80_20_practice",""
"","bandit","32","228153","0.0-18.0-14.0","18981015","wem/bandit_party_2","A360G5G0DVWU7X","either","4","308","","","","","","","0","1","0","","0.2","0.5","0.5","","","0.8","0.2","","","","","","","","","","","","","","","","75","K","1","","true","0","80_20_practice",""
"","bandit","33","230236","0.0-18.0-15.0","18981015","wem/bandit_party_2","A360G5G0DVWU7X","either","4","574","","","","","","","0","1","0","","0.8","0.5","0.5","","","0.8","0.2","","","","","","","","","","","","","","","","74","J","0","img/none_selected_demo.jpg","true","0","80_20_practice",""
"","bandit","34","231989","0.0-18.0-16.0","18981015","wem/bandit_party_2","A360G5G0DVWU7X","either","4","247","","","","","","","1","0","0","0.2","","0.5","0.5","","","","","","","0.8","0.2","","","","","","","","","","","","75","K","1","","true","0","80_20_practice",""
"","bandit","35","233712","0.0-18.0-17.0","18981015","wem/bandit_party_2","A360G5G0DVWU7X","either","4","220","","","","","","","0","0","1","","0.2","0.5","0.5","","","0.8","0.2","","","","","","","","","","","","","","","","75","K","1","","true","0","80_20_practice",""
"","bandit","36","235479","0.0-18.0-18.0","18981015","wem/bandit_party_2","A360G5G0DVWU7X","either","4","259","","","","","","","0","1","0","","0.8","0.5","0.5","","","0.8","0.2","","","","","","","","","","","","","","","","74","J","0","img/none_selected_demo.jpg","true","0","80_20_practice",""
"","bandit","37","237198","0.0-18.0-19.0","18981015","wem/bandit_party_2","A360G5G0DVWU7X","either","4","214","","","","","","","0","0","1","","0.2","0.5","0.5","","","0.8","0.2","","","","","","","","","","","","","","","","75","K","1","","true","0","80_20_practice",""
"","text-replacement","38","242543","0.0-19.0","18981015","wem/bandit_party_2","A360G5G0DVWU7X","either","4","5345","","","32","","","","","","","","","","","","","","","","","","","","","","","","","","","","","","","","","","","","",""
"","bandit","39","244767","0.0-20.0-0.0","18981015","wem/bandit_party_2","A360G5G0DVWU7X","either","4","718","","","","","","","0","1","0","0","1","","","","","0","1","","","1","0","","","","","","","","","","","","75","K","1","","true","0","",""
"","text-replacement","40","250422","0.0-21.0","18981015","wem/bandit_party_2","A360G5G0DVWU7X","either","4","5655","","","74","","","","","","","","","","","","","","","","","","","","","","","","","","","","","","","","","","","","",""
"","text-replacement","41","253320","0.0-22.0","18981015","wem/bandit_party_2","A360G5G0DVWU7X","either","4","2898","","","32","","","","","","","","","","","","","","","","","","","","","","","","","","","","","","","","","","","","",""
"","text-replacement","42","254788","0.0-23.0","18981015","wem/bandit_party_2","A360G5G0DVWU7X","either","4","1468","","","32","","","","","","","","","","","","","","","","","","","","","","","","","","","","","","","","","","","","",""
"","text-replacement","43","257484","0.0-24.0","18981015","wem/bandit_party_2","A360G5G0DVWU7X","either","4","2692","","","32","","","","","","","","","","","","","","","","","","","","","","","","","","","","","","","","","","","","",""
"","text-replacement","44","258643","0.0-25.0","18981015","wem/bandit_party_2","A360G5G0DVWU7X","either","4","1159","","","32","","","","","","","","","","","","","","","","","","","","","","","","","","","","","","","","","","","","",""
"","text-replacement","45","259921","0.0-26.0","18981015","wem/bandit_party_2","A360G5G0DVWU7X","either","4","1274","","","32","","","","","","","","","","","","","","","","","","","","","","","","","","","","","","","","","","","","",""
"","text-replacement","46","261275","0.0-27.0","18981015","wem/bandit_party_2","A360G5G0DVWU7X","either","4","1350","","","32","","","","","","","","","","","","","","","","","","","","","","","","","","","","","","","","","","","","",""
"","text-replacement","47","262247","0.0-28.0","18981015","wem/bandit_party_2","A360G5G0DVWU7X","either","4","972","","","32","","","","","","","","","","","","","","","","","","","","","","","","","","","","","","","","","","","","",""
"","text-replacement","48","262776","0.0-29.0","18981015","wem/bandit_party_2","A360G5G0DVWU7X","either","4","525","","","32","","","","","","","","","","","","","","","","","","","","","","","","","","","","","","","","","","","","",""
"","text-replacement","49","263727","0.0-30.0","18981015","wem/bandit_party_2","A360G5G0DVWU7X","either","4","951","","","32","","","","","","","","","","","","","","","","","","","","","","","","","","","","","","","","","","","","",""
"","text-replacement","50","266675","0.0-31.0","18981015","wem/bandit_party_2","A360G5G0DVWU7X","either","4","2946","","","32","","","","","","","","","","","","","","","","","","","","","","","","","","","","","","","","","","","","",""
"","bandit","51","270063","0.0-32.0-0.0","18981015","wem/bandit_party_2","A360G5G0DVWU7X","either","4","1878","","","","","","","0","0","1","","0.2","0.5","0.5","0.5","0.5","0.8","0.2","0.6","0.2","","","","","","","","","","","","","","74","J","1","","true","0","full_practice",""
"","bandit","52","273297","0.0-32.0-1.0","18981015","wem/bandit_party_2","A360G5G0DVWU7X","either","4","1729","","","","","","","0","0","1","","0.2","0.5","0.5","0.5","0.5","0.8","0.2","0.6","0.2","","","","","","","","","","","","","","76","L","3","","true","0","full_practice",""
"","bandit","53","275673","0.0-32.0-2.0","18981015","wem/bandit_party_2","A360G5G0DVWU7X","either","4","873","","","","","","","1","0","0","0.8","","0.5","0.5","0.5","0.5","","","","","0.8","0.2","0.6","0.2","","","","","","","","","","72","H","0","img/none_selected.jpg","true","0","full_practice",""
"","bandit","54","277533","0.0-32.0-3.0","18981015","wem/bandit_party_2","A360G5G0DVWU7X","either","4","350","","","","","","","0","0","1","","0.6","0.5","0.5","0.5","0.5","0.8","0.2","0.6","0.2","","","","","","","","","","","","","","75","K","2","","true","0","full_practice",""
"","bandit","55","279383","0.0-32.0-4.0","18981015","wem/bandit_party_2","A360G5G0DVWU7X","either","4","344","","","","","","","1","0","0","0.8","","0.5","0.5","0.5","0.5","","","","","0.8","0.2","0.6","0.2","","","","","","","","","","72","H","0","img/none_selected.jpg","true","0","full_practice",""
"","bandit","56","281436","0.0-32.0-5.0","18981015","wem/bandit_party_2","A360G5G0DVWU7X","either","4","543","","","","","","","0","0","1","0.2","","0.5","0.5","0.5","0.5","","","","","0.8","0.2","0.6","0.2","","","","","","","","","","76","L","3","","true","0","full_practice",""
"","bandit","57","283187","0.0-32.0-6.0","18981015","wem/bandit_party_2","A360G5G0DVWU7X","either","4","247","","","","","","","0","1","0","","0.8","0.5","0.5","0.5","0.5","0.8","0.2","0.6","0.2","","","","","","","","","","","","","","72","H","0","img/none_selected.jpg","true","0","full_practice",""
"","bandit","58","284958","0.0-32.0-7.0","18981015","wem/bandit_party_2","A360G5G0DVWU7X","either","4","261","","","","","","","0","0","1","","0.2","0.5","0.5","0.5","0.5","0.8","0.2","0.6","0.2","","","","","","","","","","","","","","74","J","1","","true","0","full_practice",""
"","bandit","59","286721","0.0-32.0-8.0","18981015","wem/bandit_party_2","A360G5G0DVWU7X","either","4","251","","","","","","","0","0","1","","0.6","0.5","0.5","0.5","0.5","0.8","0.2","0.6","0.2","","","","","","","","","","","","","","75","K","2","","true","0","full_practice",""
"","bandit","60","288374","0.0-32.0-9.0","18981015","wem/bandit_party_2","A360G5G0DVWU7X","either","4","144","","","","","","","0","0","1","0.2","","0.5","0.5","0.5","0.5","","","","","0.8","0.2","0.6","0.2","","","","","","","","","","74","J","1","","true","0","full_practice",""
"","bandit","61","290074","0.0-32.0-10.0","18981015","wem/bandit_party_2","A360G5G0DVWU7X","either","4","195","","","","","","","0","1","0","","0.8","0.5","0.5","0.5","0.5","0.8","0.2","0.6","0.2","","","","","","","","","","","","","","72","H","0","img/none_selected.jpg","true","0","full_practice",""
"","bandit","62","291945","0.0-32.0-11.0","18981015","wem/bandit_party_2","A360G5G0DVWU7X","either","4","361","","","","","","","0","0","1","0.2","","0.5","0.5","0.5","0.5","","","","","0.8","0.2","0.6","0.2","","","","","","","","","","76","L","3","","true","0","full_practice",""
"","bandit","63","293474","0.0-32.0-12.0","18981015","wem/bandit_party_2","A360G5G0DVWU7X","either","4","24","","","","","","","1","0","0","0.6","","0.5","0.5","0.5","0.5","","","","","0.8","0.2","0.6","0.2","","","","","","","","","","75","K","2","","true","0","full_practice",""
"","bandit","64","296355","0.0-32.0-13.0","18981015","wem/bandit_party_2","A360G5G0DVWU7X","either","4","1376","","","","","","","0","0","1","","0.2","0.5","0.5","0.5","0.5","0.8","0.2","0.6","0.2","","","","","","","","","","","","","","74","J","1","","true","0","full_practice",""
"","bandit","65","297863","0.0-32.0-14.0","18981015","wem/bandit_party_2","A360G5G0DVWU7X","either","4","0","","","","","","","0","0","1","0.2","","0.5","0.5","0.5","0.5","","","","","0.8","0.2","0.6","0.2","","","","","","","","","","76","L","3","","true","0","full_practice",""
"","bandit","66","299769","0.0-32.0-15.0","18981015","wem/bandit_party_2","A360G5G0DVWU7X","either","4","395","","","","","","","0","1","0","","0.6","0.5","0.5","0.5","0.5","0.8","0.2","0.6","0.2","","","","","","","","","","","","","","75","K","2","","true","0","full_practice",""
"","bandit","67","301315","0.0-32.0-16.0","18981015","wem/bandit_party_2","A360G5G0DVWU7X","either","4","39","","","","","","","0","0","1","","0.2","0.5","0.5","0.5","0.5","0.8","0.2","0.6","0.2","","","","","","","","","","","","","","74","J","1","","true","0","full_practice",""
"","bandit","68","303173","0.0-32.0-17.0","18981015","wem/bandit_party_2","A360G5G0DVWU7X","either","4","352","","","","","","","1","0","0","0.8","","0.5","0.5","0.5","0.5","","","","","0.8","0.2","0.6","0.2","","","","","","","","","","72","H","0","img/none_selected.jpg","true","0","full_practice",""
"","bandit","69","304872","0.0-32.0-18.0","18981015","wem/bandit_party_2","A360G5G0DVWU7X","either","4","196","","","","","","","0","0","1","0.2","","0.5","0.5","0.5","0.5","","","","","0.8","0.2","0.6","0.2","","","","","","","","","","74","J","1","","true","0","full_practice",""
"","bandit","70","306532","0.0-32.0-19.0","18981015","wem/bandit_party_2","A360G5G0DVWU7X","either","4","149","","","","","","","1","0","0","0.8","","0.5","0.5","0.5","0.5","","","","","0.8","0.2","0.6","0.2","","","","","","","","","","72","H","0","img/none_selected.jpg","true","0","full_practice",""
"","text","71","309145","0.0-33.0","18981015","wem/bandit_party_2","A360G5G0DVWU7X","either","4","2610","","","32","","","","","","","","","","","","","","","","","","","","","","","","","","","","","","","","","","","","",""
"","text-replacement","72","316182","0.0-34.0","18981015","wem/bandit_party_2","A360G5G0DVWU7X","either","4","6032","","","32","","","","","","","","","","","","","","","","","","","","","","","","","","","","","","","","","","","","",""
"","text-replacement","73","318532","0.0-35.0","18981015","wem/bandit_party_2","A360G5G0DVWU7X","either","4","2350","","","32","","","","","","","","","","","","","","","","","","","","","","","","","","","","","","","","","","","","",""
"","text-replacement","74","322559","0.0-36.0","18981015","wem/bandit_party_2","A360G5G0DVWU7X","either","4","4023","","","32","","","","","","","","","","","","","","","","","","","","","","","","","","","","","","","","","","","","",""
"","text-replacement","75","323616","0.0-37.0","18981015","wem/bandit_party_2","A360G5G0DVWU7X","either","4","1053","","","32","","","","","","","","","","","","","","","","","","","","","","","","","","","","","","","","","","","","",""
"","text-replacement","76","326361","0.0-38.0","18981015","wem/bandit_party_2","A360G5G0DVWU7X","either","4","2745","","","32","","","","","","","","","","","","","","","","","","","","","","","","","","","","","","","","","","","","",""
"","survey-multi-choice-replacement","77","333571","0.0-39.0-0.0","18981015","wem/bandit_party_2","A360G5G0DVWU7X","either","4","7202","","","","","","","","","","","","","","","","","","","","","","","","Money will be added to the pool for <span style='color:blue;'>DEMOCRATS</span>","","","","","","","attn_check","","","","","","","","","0"
"","survey-multi-choice-replacement","78","347131","0.0-40.0-0.0","18981015","wem/bandit_party_2","A360G5G0DVWU7X","either","4","12548","","","","","","","","","","","","","","","","","","","","","","","","Equal amounts of money will be added to the pool for <span style='color:blue;'>DEMOCRATS</span> and subtracted from the pool for <span style='color:red;'>REPUBLICANS</span>","","","","","","","attn_check","","","","","","","","","2"
"","survey-multi-choice-replacement","79","427483","0.0-41.0-0.0","18981015","wem/bandit_party_2","A360G5G0DVWU7X","either","4","79345","","","","","","","","","","","","","","","","","","","","","","","","No money will be added to either pool","","","","","","","attn_check","","","","","","","","","3"
"","bandit","80","431543","0.0-42.0-0.0","18981015","wem/bandit_party_2","A360G5G0DVWU7X","either","4","1554","","","","","","","0","0","1","","0.2887693562","0.4","0.6","0.8","0.2","0.2887693562","0.7267404998","0.8209843215","0.9858900825","","","","","","","","","","","","","","72","H","0","img/none_selected.jpg","","1","main_expt",""
"","bandit","81","433456","0.0-43.0-0.0","18981015","wem/bandit_party_2","A360G5G0DVWU7X","either","4","401","","","","","","","0","0","1","","0.7034907646","0.4","0.6","0.8","0.2","0.2986217167","0.7034907646","0.8179122382","0.9854924354","","","","","","","","","","","","","","74","J","1","","","2","main_expt",""
"","bandit","82","435328","0.0-44.0-0.0","18981015","wem/bandit_party_2","A360G5G0DVWU7X","either","4","366","","","","","","","0","1","0","","0.261346942","0.4","0.6","0.8","0.2","0.261346942","0.6574847675","0.8301291561","0.9789624529","","","","","","","","","","","","","","72","H","0","img/none_selected.jpg","","3","main_expt",""
"","bandit","83","438628","0.0-45.0-0.0","18981015","wem/bandit_party_2","A360G5G0DVWU7X","either","4","1795","","","","","","","0","1","0","","0.9565345184","0.4","0.6","0.8","0.2","0.2757740293","0.5092805277","0.8219157537","0.9565345184","","","","","","","","","","","","","","76","L","3","","","4","main_expt",""
"","bandit","84","440635","0.0-46.0-0.0","18981015","wem/bandit_party_2","A360G5G0DVWU7X","either","4","494","","","","","","","0","0","1","","0.3329857669","0.4","0.6","0.8","0.2","0.3329857669","0.5952926025","0.7759220463","0.941194936","","","","","","","","","","","","","","72","H","0","img/none_selected.jpg","","5","main_expt",""
"","bandit","85","442644","0.0-47.0-0.0","18981015","wem/bandit_party_2","A360G5G0DVWU7X","either","4","497","","","","","","","0","0","1","0.7495930044","","0.4","0.6","0.8","0.2","","","","","0.331878758","0.6160758637","0.7495930044","0.9305219143","","","","","","","","","","75","K","2","","","6","main_expt",""
"","bandit","86","444982","0.0-48.0-0.0","18981015","wem/bandit_party_2","A360G5G0DVWU7X","either","4","825","","","","","","","1","0","0","0.6381806331","","0.4","0.6","0.8","0.2","","","","","0.3863389794","0.6381806331","0.7078030286","0.937738562","","","","","","","","","","74","J","1","","","7","main_expt",""
"","bandit","87","447050","0.0-49.0-0.0","18981015","wem/bandit_party_2","A360G5G0DVWU7X","either","4","559","","","","","","","1","0","0","0.689407674","","0.4","0.6","0.8","0.2","","","","","0.4242016385","0.7047831713","0.689407674","0.8269671957","","","","","","","","","","75","K","2","","","8","main_expt",""
"","bandit","88","448615","0.0-50.0-0.0","18981015","wem/bandit_party_2","A360G5G0DVWU7X","either","4","56","","","","","","","0","1","0","","0.7696709776","0.4","0.6","0.8","0.2","0.379169242","0.6222923336","0.7848236408","0.7696709776","","","","","","","","","","","","","","76","L","3","","","9","main_expt",""
"","bandit","89","450874","0.0-51.0-0.0","18981015","wem/bandit_party_2","A360G5G0DVWU7X","either","4","752","","","","","","","0","0","1","","0.40569916","0.4","0.6","0.8","0.2","0.40569916","0.5629201009","0.791363481","0.7313552403","","","","","","","","","","","","","","72","H","0","img/none_selected.jpg","","10","main_expt",""
"","bandit","90","453316","0.0-52.0-0.0","18981015","wem/bandit_party_2","A360G5G0DVWU7X","either","4","931","","","","","","","1","0","0","0.644159789","","0.4","0.6","0.8","0.2","","","","","0.4188021694","0.644159789","0.7800632456","0.8129169819","","","","","","","","","","74","J","1","","","11","main_expt",""
"","bandit","91","456152","0.0-53.0-0.0","18981015","wem/bandit_party_2","A360G5G0DVWU7X","either","4","1322","","","","","","","0","0","1","","0.3689559917","0.4","0.6","0.8","0.2","0.3689559917","0.6840372722","0.7559884596","0.7611571711","","","","","","","","","","","","","","72","H","0","img/none_selected.jpg","","12","main_expt",""
"","bandit","92","457882","0.0-54.0-0.0","18981015","wem/bandit_party_2","A360G5G0DVWU7X","either","4","226","","","","","","","1","0","0","0.7695577991","","0.4","0.6","0.8","0.2","","","","","0.4584943612","0.6236151953","0.7695577991","0.7628417147","","","","","","","","","","75","K","2","","","13","main_expt",""
"","bandit","93","459453","0.0-55.0-0.0","18981015","wem/bandit_party_2","A360G5G0DVWU7X","either","4","62","","","","","","","1","0","0","0.7436451733","","0.4","0.6","0.8","0.2","","","","","0.455083938","0.5388331182","0.8509931145","0.7436451733","","","","","","","","","","76","L","3","","","14","main_expt",""
"","bandit","94","462023","0.0-56.0-0.0","18981015","wem/bandit_party_2","A360G5G0DVWU7X","either","4","1058","","","","","","","1","0","0","0.5360112786","","0.4","0.6","0.8","0.2","","","","","0.5360112786","0.4802769188","0.7745856811","0.8256008488","","","","","","","","","","72","H","0","img/none_selected.jpg","","15","main_expt",""
"","bandit","95","463847","0.0-57.0-0.0","18981015","wem/bandit_party_2","A360G5G0DVWU7X","either","4","316","","","","","","","0","0","1","0.7576521113","","0.4","0.6","0.8","0.2","","","","","0.4791571541","0.4688000192","0.7576521113","0.7683027423","","","","","","","","","","75","K","2","","","16","main_expt",""
"","bandit","96","465944","0.0-58.0-0.0","18981015","wem/bandit_party_2","A360G5G0DVWU7X","either","4","582","","","","","","","0","1","0","","0.7857675768","0.4","0.6","0.8","0.2","0.5263630166","0.6000602573","0.8099558365","0.7857675768","","","","","","","","","","","","","","76","L","3","","","17","main_expt",""
"","bandit","97","468232","0.0-59.0-0.0","18981015","wem/bandit_party_2","A360G5G0DVWU7X","either","4","777","","","","","","","0","0","1","0.6046592687","","0.4","0.6","0.8","0.2","","","","","0.543945959","0.6046592687","0.7535280451","0.7303419725","","","","","","","","","","74","J","1","","","18","main_expt",""
"","bandit","98","470061","0.0-60.0-0.0","18981015","wem/bandit_party_2","A360G5G0DVWU7X","either","4","319","","","","","","","0","0","1","0.7206444799","","0.4","0.6","0.8","0.2","","","","","0.4579801682","0.6177236116","0.7206444799","0.7243255268","","","","","","","","","","75","K","2","","","19","main_expt",""
"","bandit","99","472693","0.0-61.0-0.0","18981015","wem/bandit_party_2","A360G5G0DVWU7X","either","4","1120","","","","","","","0","1","0","","0.5439896582","0.4","0.6","0.8","0.2","0.5439896582","0.5484637992","0.6388551968","0.7691283854","","","","","","","","","","","","","","72","H","0","img/none_selected.jpg","","20","main_expt",""
"","bandit","100","474356","0.0-62.0-0.0","18981015","wem/bandit_party_2","A360G5G0DVWU7X","either","4","153","","","","","","","0","0","1","","0.6646151354","0.4","0.6","0.8","0.2","0.5796019833","0.6646151354","0.4956822649","0.7068464658","","","","","","","","","","","","","","74","J","1","","","21","main_expt",""
"","bandit","101","475975","0.0-63.0-0.0","18981015","wem/bandit_party_2","A360G5G0DVWU7X","either","4","111","","","","","","","0","0","1","0.4316307404","","0.4","0.6","0.8","0.2","","","","","0.5885929095","0.7223938077","0.4316307404","0.7407239748","","","","","","","","","","75","K","2","","","22","main_expt",""
"","bandit","102","478887","0.0-64.0-0.0","18981015","wem/bandit_party_2","A360G5G0DVWU7X","either","4","1395","","","","","","","1","0","0","0.4158022912","","0.4","0.6","0.8","0.2","","","","","0.4899642796","0.7548690184","0.4158022912","0.7300920021","","","","","","","","","","75","K","2","","","23","main_expt",""
"","bandit","103","481915","0.0-65.0-0.0","18981015","wem/bandit_party_2","A360G5G0DVWU7X","either","4","1517","","","","","","","0","1","0","","0.4984159311","0.4","0.6","0.8","0.2","0.4984159311","0.7794954679","0.4099928258","0.7074307303","","","","","","","","","","","","","","72","H","0","img/none_selected.jpg","","24","main_expt",""
"","bandit","104","483632","0.0-66.0-0.0","18981015","wem/bandit_party_2","A360G5G0DVWU7X","either","4","203","","","","","","","0","0","1","","0.4303724308","0.4","0.6","0.8","0.2","0.5885503773","0.8029664172","0.4303724308","0.6228099684","","","","","","","","","","","","","","75","K","2","","","25","main_expt",""
"","bandit","105","486990","0.0-67.0-0.0","18981015","wem/bandit_party_2","A360G5G0DVWU7X","either","4","1846","","","","","","","0","1","0","","0.5588879168","0.4","0.6","0.8","0.2","0.6978100054","0.6980766755","0.3291624114","0.5588879168","","","","","","","","","","","","","","76","L","3","","","26","main_expt",""
"","bandit","106","489634","0.0-68.0-0.0","18981015","wem/bandit_party_2","A360G5G0DVWU7X","either","4","1130","","","","","","","0","0","1","0.7021498626","","0.4","0.6","0.8","0.2","","","","","0.6442468271","0.7021498626","0.3795789415","0.5033257713","","","","","","","","","","74","J","1","","","27","main_expt",""
"","bandit","107","491672","0.0-69.0-0.0","18981015","wem/bandit_party_2","A360G5G0DVWU7X","either","4","529","","","","","","","1","0","0","0.7399213538","","0.4","0.6","0.8","0.2","","","","","0.7399213538","0.7802436781","0.3208573938","0.4915102133","","","","","","","","","","72","H","0","img/none_selected.jpg","","28","main_expt",""
"","bandit","108","494103","0.0-70.0-0.0","18981015","wem/bandit_party_2","A360G5G0DVWU7X","either","4","927","","","","","","","0","1","0","","0.4291187576","0.4","0.6","0.8","0.2","0.7520253205","0.6907923131","0.3352919619","0.4291187576","","","","","","","","","","","","","","76","L","3","","","29","main_expt",""
"","bandit","109","495683","0.0-71.0-0.0","18981015","wem/bandit_party_2","A360G5G0DVWU7X","either","4","72","","","","","","","1","0","0","0.3452717309","","0.4","0.6","0.8","0.2","","","","","0.7528469829","0.6771306444","0.3452717309","0.5379907803","","","","","","","","","","75","K","2","","","30","main_expt",""
"","bandit","110","497615","0.0-72.0-0.0","18981015","wem/bandit_party_2","A360G5G0DVWU7X","either","4","425","","","","","","","0","0","1","0.7130915948","","0.4","0.6","0.8","0.2","","","","","0.7571908429","0.7130915948","0.2967094522","0.646046857","","","","","","","","","","74","J","1","","","31","main_expt",""
"","bandit","111","499896","0.0-73.0-0.0","18981015","wem/bandit_party_2","A360G5G0DVWU7X","either","4","773","","","","","","","1","0","0","0.7530934884","","0.4","0.6","0.8","0.2","","","","","0.7530934884","0.6849190202","0.255781972","0.5608885347","","","","","","","","","","72","H","0","img/none_selected.jpg","","32","main_expt",""
"","bandit","112","502053","0.0-74.0-0.0","18981015","wem/bandit_party_2","A360G5G0DVWU7X","either","4","639","","","","","","","0","0","1","0.2703771925","","0.4","0.6","0.8","0.2","","","","","0.7163673585","0.7392612035","0.2703771925","0.5952322697","","","","","","","","","","75","K","2","","","33","main_expt",""
"","bandit","113","504033","0.0-75.0-0.0","18981015","wem/bandit_party_2","A360G5G0DVWU7X","either","4","468","","","","","","","0","0","1","","0.6206609301","0.4","0.6","0.8","0.2","0.6817248107","0.7026009082","0.3572673824","0.6206609301","","","","","","","","","","","","","","76","L","3","","","34","main_expt",""
"","bandit","114","505797","0.0-76.0-0.0","18981015","wem/bandit_party_2","A360G5G0DVWU7X","either","4","254","","","","","","","0","1","0","","0.6903641832","0.4","0.6","0.8","0.2","0.6903641832","0.632003728","0.3237575066","0.6223058769","","","","","","","","","","","","","","72","H","0","img/none_selected.jpg","","35","main_expt",""
"","bandit","115","508016","0.0-77.0-0.0","18981015","wem/bandit_party_2","A360G5G0DVWU7X","either","4","707","","","","","","","0","1","0","","0.7266912659","0.4","0.6","0.8","0.2","0.6953747248","0.7266912659","0.3724209237","0.7304722347","","","","","","","","","","","","","","74","J","1","","","36","main_expt",""
"","bandit","116","509540","0.0-78.0-0.0","18981015","wem/bandit_party_2","A360G5G0DVWU7X","either","4","4","","","","","","","0","0","1","","0.3848591071","0.4","0.6","0.8","0.2","0.7552078918","0.5512211225","0.3848591071","0.6789706255","","","","","","","","","","","","","","75","K","2","","","37","main_expt",""
"","bandit","117","511151","0.0-79.0-0.0","18981015","wem/bandit_party_2","A360G5G0DVWU7X","either","4","98","","","","","","","0","0","1","","0.6758320082","0.4","0.6","0.8","0.2","0.7095976639","0.5888446875","0.4026628424","0.6758320082","","","","","","","","","","","","","","76","L","3","","","38","main_expt",""
"","bandit","118","514375","0.0-80.0-0.0","18981015","wem/bandit_party_2","A360G5G0DVWU7X","either","4","1717","","","","","","","0","0","1","","0.7349010221","0.4","0.6","0.8","0.2","0.7813817897","0.7349010221","0.460229008","0.753286291","","","","","","","","","","","","","","74","J","1","","","39","main_expt",""
"","bandit","119","516220","0.0-81.0-0.0","18981015","wem/bandit_party_2","A360G5G0DVWU7X","either","4","335","","","","","","","0","1","0","","0.7604460558","0.4","0.6","0.8","0.2","0.7604460558","0.6715391024","0.3392787789","0.7527041006","","","","","","","","","","","","","","72","H","0","img/none_selected.jpg","","40","main_expt",""
"","bandit","120","517779","0.0-82.0-0.0","18981015","wem/bandit_party_2","A360G5G0DVWU7X","either","4","52","","","","","","","0","0","1","0.7900808451","","0.4","0.6","0.8","0.2","","","","","0.7588214983","0.688235262","0.2983701942","0.7900808451","","","","","","","","","","76","L","3","","","41","main_expt",""
"","bandit","121","519336","0.0-83.0-0.0","18981015","wem/bandit_party_2","A360G5G0DVWU7X","either","4","42","","","","","","","0","0","1","","0.2390858253","0.4","0.6","0.8","0.2","0.8204813903","0.750516412","0.2390858253","0.7261157662","","","","","","","","","","","","","","75","K","2","","","42","main_expt",""
"","bandit","122","520994","0.0-84.0-0.0","18981015","wem/bandit_party_2","A360G5G0DVWU7X","either","4","148","","","","","","","1","0","0","0.775378891","","0.4","0.6","0.8","0.2","","","","","0.8310219988","0.775378891","0.1877526289","0.772887471","","","","","","","","","","74","J","1","","","43","main_expt",""
"","bandit","123","523131","0.0-85.0-0.0","18981015","wem/bandit_party_2","A360G5G0DVWU7X","either","4","625","","","","","","","0","0","1","","0.7359848823","0.4","0.6","0.8","0.2","0.8165903167","0.5983035632","0.2713877418","0.7359848823","","","","","","","","","","","","","","76","L","3","","","44","main_expt",""
"","bandit","124","525703","0.0-86.0-0.0","18981015","wem/bandit_party_2","A360G5G0DVWU7X","either","4","1064","","","","","","","0","1","0","","0.6765015189","0.4","0.6","0.8","0.2","0.6765015189","0.6453890447","0.2600408605","0.6223954065","","","","","","","","","","","","","","72","H","0","img/none_selected.jpg","","45","main_expt",""
"","bandit","125","527730","0.0-87.0-0.0","18981015","wem/bandit_party_2","A360G5G0DVWU7X","either","4","521","","","","","","","1","0","0","0.4979639723","","0.4","0.6","0.8","0.2","","","","","0.6613510417","0.4979639723","0.2435580982","0.5963379238","","","","","","","","","","74","J","1","","","46","main_expt",""
"","bandit","126","529843","0.0-88.0-0.0","18981015","wem/bandit_party_2","A360G5G0DVWU7X","either","4","599","","","","","","","0","1","0","","0.6161308884","0.4","0.6","0.8","0.2","0.7373034573","0.4475739324","0.3258971046","0.6161308884","","","","","","","","","","","","","","76","L","3","","","47","main_expt",""
"","bandit","127","531868","0.0-89.0-0.0","18981015","wem/bandit_party_2","A360G5G0DVWU7X","either","4","512","","","","","","","0","0","1","0.6580913366","","0.4","0.6","0.8","0.2","","","","","0.6580913366","0.570942939","0.2934977076","0.6354722558","","","","","","","","","","72","H","0","img/none_selected.jpg","","48","main_expt",""
"","bandit","128","533677","0.0-90.0-0.0","18981015","wem/bandit_party_2","A360G5G0DVWU7X","either","4","298","","","","","","","0","1","0","","0.5941747261","0.4","0.6","0.8","0.2","0.6518545324","0.5943858444","0.3381222087","0.5941747261","","","","","","","","","","","","","","76","L","3","","","49","main_expt",""
"","bandit","129","535440","0.0-91.0-0.0","18981015","wem/bandit_party_2","A360G5G0DVWU7X","either","4","256","","","","","","","0","0","1","","0.72156704","0.4","0.6","0.8","0.2","0.6362385309","0.72156704","0.4149653651","0.5510631732","","","","","","","","","","","","","","74","J","1","","","50","main_expt",""
"","bandit","130","537047","0.0-92.0-0.0","18981015","wem/bandit_party_2","A360G5G0DVWU7X","either","4","92","","","","","","","1","0","0","0.6673370403","","0.4","0.6","0.8","0.2","","","","","0.6673370403","0.6453884322","0.315936401","0.5580995271","","","","","","","","","","72","H","0","img/none_selected.jpg","","51","main_expt",""
"","bandit","131","539572","0.0-93.0-0.0","18981015","wem/bandit_party_2","A360G5G0DVWU7X","either","4","1015","","","","","","","1","0","0","0.34776451","","0.4","0.6","0.8","0.2","","","","","0.6614759556","0.635653338","0.34776451","0.4492126091","","","","","","","","","","75","K","2","","","52","main_expt",""
"","bandit","132","541144","0.0-94.0-0.0","18981015","wem/bandit_party_2","A360G5G0DVWU7X","either","4","56","","","","","","","1","0","0","0.2946288454","","0.4","0.6","0.8","0.2","","","","","0.5099009019","0.5700640027","0.2946288454","0.4600129001","","","","","","","","","","75","K","2","","","53","main_expt",""
"","bandit","133","543032","0.0-95.0-0.0","18981015","wem/bandit_party_2","A360G5G0DVWU7X","either","4","377","","","","","","","0","0","1","","0.5323874036","0.4","0.6","0.8","0.2","0.5323874036","0.4535518587","0.3757560715","0.4005354829","","","","","","","","","","","","","","72","H","0","img/none_selected.jpg","","54","main_expt",""
"","bandit","134","544803","0.0-96.0-0.0","18981015","wem/bandit_party_2","A360G5G0DVWU7X","either","4","252","","","","","","","0","0","1","0.3258455482","","0.4","0.6","0.8","0.2","","","","","0.5410243768","0.4271895083","0.3258455482","0.3305694417","","","","","","","","","","75","K","2","","","55","main_expt",""
"","bandit","135","546942","0.0-97.0-0.0","18981015","wem/bandit_party_2","A360G5G0DVWU7X","either","4","629","","","","","","","0","0","1","","0.3506641683","0.4","0.6","0.8","0.2","0.5594159285","0.3506641683","0.4350401219","0.3443449075","","","","","","","","","","","","","","74","J","1","","","56","main_expt",""
"","bandit","136","549453","0.0-98.0-0.0","18981015","wem/bandit_party_2","A360G5G0DVWU7X","either","4","1005","","","","","","","0","1","0","","0.3719720486","0.4","0.6","0.8","0.2","0.5057935102","0.3266461122","0.3707313189","0.3719720486","","","","","","","","","","","","","","76","L","3","","","57","main_expt",""
"","bandit","137","551099","0.0-99.0-0.0","18981015","wem/bandit_party_2","A360G5G0DVWU7X","either","4","137","","","","","","","0","0","1","0.4921421838","","0.4","0.6","0.8","0.2","","","","","0.4921421838","0.3024401834","0.5588799977","0.2230753252","","","","","","","","","","72","H","0","img/none_selected.jpg","","58","main_expt",""
"","bandit","138","553196","0.0-100.0-0.0","18981015","wem/bandit_party_2","A360G5G0DVWU7X","either","4","587","","","","","","","0","0","1","","0.4306619987","0.4","0.6","0.8","0.2","0.4740341295","0.4306619987","0.6863198467","0.2255195526","","","","","","","","","","","","","","74","J","1","","","59","main_expt",""
"","bandit","139","555227","0.0-101.0-0.0","18981015","wem/bandit_party_2","A360G5G0DVWU7X","either","4","521","","","","","","","1","0","0","0.6998437478","","0.4","0.6","0.8","0.2","","","","","0.4853159436","0.4710521126","0.6998437478","0.2150487889","","","","","","","","","","75","K","2","","","60","main_expt",""
"","bandit","140","557029","0.0-102.0-0.0","18981015","wem/bandit_party_2","A360G5G0DVWU7X","either","4","298","","","","","","","0","0","1","","0.4843563089","0.4","0.6","0.8","0.2","0.4843563089","0.4797168847","0.7027468204","0.2670703017","","","","","","","","","","","","","","72","H","0","img/none_selected.jpg","","61","main_expt",""
"","bandit","141","558897","0.0-103.0-0.0","18981015","wem/bandit_party_2","A360G5G0DVWU7X","either","4","361","","","","","","","0","1","0","","0.441351191","0.4","0.6","0.8","0.2","0.4970562682","0.441351191","0.7461433662","0.1622034337","","","","","","","","","","","","","","74","J","1","","","62","main_expt",""
"","bandit","142","560535","0.0-104.0-0.0","18981015","wem/bandit_party_2","A360G5G0DVWU7X","either","4","127","","","","","","","1","0","0","0.7956877632","","0.4","0.6","0.8","0.2","","","","","0.4870743105","0.6405696824","0.7956877632","0.1872430185","","","","","","","","","","75","K","2","","","63","main_expt",""
"","bandit","143","562847","0.0-105.0-0.0","18981015","wem/bandit_party_2","A360G5G0DVWU7X","either","4","803","","","","","","","1","0","0","0.1921602407","","0.4","0.6","0.8","0.2","","","","","0.5297884171","0.5093225209","0.7533911137","0.1921602407","","","","","","","","","","76","L","3","","","64","main_expt",""
"","bandit","144","564379","0.0-106.0-0.0","18981015","wem/bandit_party_2","A360G5G0DVWU7X","either","4","23","","","","","","","0","1","0","","0.5510281753","0.4","0.6","0.8","0.2","0.5510281753","0.5190422554","0.8407665504","0.1747679693","","","","","","","","","","","","","","72","H","0","img/none_selected.jpg","","65","main_expt",""
"","bandit","145","566598","0.0-107.0-0.0","18981015","wem/bandit_party_2","A360G5G0DVWU7X","either","4","713","","","","","","","1","0","0","0.8392190168","","0.4","0.6","0.8","0.2","","","","","0.6548378986","0.4367989657","0.8392190168","0.149475979","","","","","","","","","","75","K","2","","","66","main_expt",""
"","bandit","146","568224","0.0-108.0-0.0","18981015","wem/bandit_party_2","A360G5G0DVWU7X","either","4","118","","","","","","","0","0","1","0.4515976155","","0.4","0.6","0.8","0.2","","","","","0.7873643744","0.4515976155","0.7998105719","0.1340316754","","","","","","","","","","74","J","1","","","67","main_expt",""
"","bandit","147","570237","0.0-109.0-0.0","18981015","wem/bandit_party_2","A360G5G0DVWU7X","either","4","502","","","","","","","0","0","1","","0.1635100664","0.4","0.6","0.8","0.2","0.8374830125","0.4605235732","0.8055175736","0.1635100664","","","","","","","","","","","","","","76","L","3","","","68","main_expt",""
"","bandit","148","572465","0.0-110.0-0.0","18981015","wem/bandit_party_2","A360G5G0DVWU7X","either","4","721","","","","","","","1","0","0","0.9157616325","","0.4","0.6","0.8","0.2","","","","","0.7948054761","0.3799115548","0.9157616325","0.1227365859","","","","","","","","","","75","K","2","","","69","main_expt",""
"","bandit","149","574281","0.0-111.0-0.0","18981015","wem/bandit_party_2","A360G5G0DVWU7X","either","4","306","","","","","","","0","0","1","","0.4215965018","0.4","0.6","0.8","0.2","0.8257183208","0.4215965018","0.9575411193","0.1248437045","","","","","","","","","","","","","","74","J","1","","","70","main_expt",""
"","bandit","150","576501","0.0-112.0-0.0","18981015","wem/bandit_party_2","A360G5G0DVWU7X","either","4","706","","","","","","","0","0","1","0.7378076352","","0.4","0.6","0.8","0.2","","","","","0.7378076352","0.4069040491","0.9604429572","0.1153860856","","","","","","","","","","72","H","0","img/none_selected.jpg","","71","main_expt",""
"","bandit","151","578485","0.0-113.0-0.0","18981015","wem/bandit_party_2","A360G5G0DVWU7X","either","4","478","","","","","","","1","0","0","0.9598545795","","0.4","0.6","0.8","0.2","","","","","0.7402058239","0.4396577013","0.9598545795","0.1355011504","","","","","","","","","","75","K","2","","","72","main_expt",""
"","bandit","152","580380","0.0-114.0-0.0","18981015","wem/bandit_party_2","A360G5G0DVWU7X","either","4","387","","","","","","","0","1","0","","0.6562772762","0.4","0.6","0.8","0.2","0.6976791507","0.6562772762","0.944667289","0.05996807606","","","","","","","","","","","","","","74","J","1","","","73","main_expt",""
"","bandit","153","582173","0.0-115.0-0.0","18981015","wem/bandit_party_2","A360G5G0DVWU7X","either","4","285","","","","","","","0","1","0","","0.7918365236","0.4","0.6","0.8","0.2","0.7918365236","0.6973429816","0.9226304804","0.05405538329","","","","","","","","","","","","","","72","H","0","img/none_selected.jpg","","74","main_expt",""
"","bandit","154","584159","0.0-116.0-0.0","18981015","wem/bandit_party_2","A360G5G0DVWU7X","either","4","472","","","","","","","0","0","1","","0.02989929625","0.4","0.6","0.8","0.2","0.7822783488","0.7736122178","0.9398646798","0.02989929625","","","","","","","","","","","","","","76","L","3","","","75","main_expt",""
"","bandit","155","586466","0.0-117.0-0.0","18981015","wem/bandit_party_2","A360G5G0DVWU7X","either","4","798","","","","","","","0","1","0","","0.9344412274","0.4","0.6","0.8","0.2","0.7290889389","0.8130420724","0.9344412274","0.0563551135","","","","","","","","","","","","","","75","K","2","","","76","main_expt",""
"","bandit","156","588305","0.0-118.0-0.0","18981015","wem/bandit_party_2","A360G5G0DVWU7X","either","4","329","","","","","","","0","1","0","","0.7903383215","0.4","0.6","0.8","0.2","0.7903383215","0.8182773084","0.9512527415","0.0510075381","","","","","","","","","","","","","","72","H","0","img/none_selected.jpg","","77","main_expt",""
"","bandit","157","590108","0.0-119.0-0.0","18981015","wem/bandit_party_2","A360G5G0DVWU7X","either","4","298","","","","","","","1","0","0","0.910984946","","0.4","0.6","0.8","0.2","","","","","0.8093770606","0.910984946","0.945324638","0.07280641377","","","","","","","","","","74","J","1","","","78","main_expt",""
"","bandit","158","591982","0.0-120.0-0.0","18981015","wem/bandit_party_2","A360G5G0DVWU7X","either","4","361","","","","","","","0","1","0","","0.7310189459","0.4","0.6","0.8","0.2","0.7310189459","0.9303795674","0.9313693401","0.06591604593","","","","","","","","","","","","","","72","H","0","img/none_selected.jpg","","79","main_expt",""
"","bandit","159","603935","0.0-121.0-0.0","18981015","wem/bandit_party_2","A360G5G0DVWU7X","either","4","10443","","","","","","","0","1","0","","0.7915113188","0.4","0.6","0.8","0.2","0.7915113188","0.9581515868","0.9272018461","0.02790121052","","","","","","","","","","","","","","72","H","0","img/none_selected.jpg","","80","main_expt",""
"","bandit","160","605870","0.0-122.0-0.0","18981015","wem/bandit_party_2","A360G5G0DVWU7X","either","4","425","","","","","","","1","0","0","0.9107397581","","0.4","0.6","0.8","0.2","","","","","0.8463201033","0.9107397581","0.9340165544","0.03997429631","","","","","","","","","","74","J","1","","","81","main_expt",""
"","bandit","161","607477","0.0-123.0-0.0","18981015","wem/bandit_party_2","A360G5G0DVWU7X","either","4","99","","","","","","","1","0","0","0.9778602254","","0.4","0.6","0.8","0.2","","","","","0.9043915002","0.9531247327","0.9778602254","0.03692483048","","","","","","","","","","75","K","2","","","82","main_expt",""
"","bandit","162","609343","0.0-124.0-0.0","18981015","wem/bandit_party_2","A360G5G0DVWU7X","either","4","353","","","","","","","0","1","0","","0.91574064","0.4","0.6","0.8","0.2","0.922294541","0.91574064","0.9593015187","0.04167024954","","","","","","","","","","","","","","74","J","1","","","83","main_expt",""
"","bandit","163","610871","0.0-125.0-0.0","18981015","wem/bandit_party_2","A360G5G0DVWU7X","either","4","16","","","","","","","0","1","0","","0.9398758864","0.4","0.6","0.8","0.2","0.9079954767","0.9287460716","0.9398758864","0.03449326924","","","","","","","","","","","","","","75","K","2","","","84","main_expt",""
"","bandit","164","612951","0.0-126.0-0.0","18981015","wem/bandit_party_2","A360G5G0DVWU7X","either","4","570","","","","","","","0","0","1","","0.07382848834","0.4","0.6","0.8","0.2","0.92293493","0.9817994773","0.9256746213","0.07382848834","","","","","","","","","","","","","","76","L","3","","","85","main_expt",""
"","bandit","165","614486","0.0-127.0-0.0","18981015","wem/bandit_party_2","A360G5G0DVWU7X","either","4","28","","","","","","","1","0","0","0.8831043051","","0.4","0.6","0.8","0.2","","","","","0.8831043051","0.9651028603","0.8910640916","0.08839198485","","","","","","","","","","72","H","0","img/none_selected.jpg","","86","main_expt",""
"","bandit","166","616103","0.0-128.0-0.0","18981015","wem/bandit_party_2","A360G5G0DVWU7X","either","4","106","","","","","","","1","0","0","0.9364705545","","0.4","0.6","0.8","0.2","","","","","0.876749115","0.9364705545","0.8729480744","0.08767612821","","","","","","","","","","74","J","1","","","87","main_expt",""
"","bandit","167","617890","0.0-129.0-0.0","18981015","wem/bandit_party_2","A360G5G0DVWU7X","either","4","276","","","","","","","0","0","1","","0.1606359608","0.4","0.6","0.8","0.2","0.9189432589","0.9235767634","0.8780151739","0.1606359608","","","","","","","","","","","","","","76","L","3","","","88","main_expt",""
"","bandit","168","620018","0.0-130.0-0.0","18981015","wem/bandit_party_2","A360G5G0DVWU7X","either","4","617","","","","","","","0","1","0","","0.8770582065","0.4","0.6","0.8","0.2","0.8770582065","0.9375107972","0.8856980863","0.2051996915","","","","","","","","","","","","","","72","H","0","img/none_selected.jpg","","89","main_expt",""
"","bandit","169","621915","0.0-131.0-0.0","18981015","wem/bandit_party_2","A360G5G0DVWU7X","either","4","388","","","","","","","1","0","0","0.8828292745","","0.4","0.6","0.8","0.2","","","","","0.9303780437","0.9201099193","0.8828292745","0.1757431166","","","","","","","","","","75","K","2","","","90","main_expt",""
"","bandit","170","623799","0.0-132.0-0.0","18981015","wem/bandit_party_2","A360G5G0DVWU7X","either","4","372","","","","","","","1","0","0","0.9416722714","","0.4","0.6","0.8","0.2","","","","","0.8870296602","0.9416722714","0.9016480115","0.3470073597","","","","","","","","","","74","J","1","","","91","main_expt",""
"","bandit","171","626660","0.0-133.0-0.0","18981015","wem/bandit_party_2","A360G5G0DVWU7X","either","4","1350","","","","","","","1","0","0","0.4969118024","","0.4","0.6","0.8","0.2","","","","","0.8466670433","0.943817784","0.9077272713","0.4969118024","","","","","","","","","","76","L","3","","","92","main_expt",""
"","bandit","172","628883","0.0-134.0-0.0","18981015","wem/bandit_party_2","A360G5G0DVWU7X","either","4","710","","","","","","","1","0","0","0.875936713","","0.4","0.6","0.8","0.2","","","","","0.850017275","0.9078517942","0.875936713","0.5773598144","","","","","","","","","","75","K","2","","","93","main_expt",""
"","bandit","173","631003","0.0-135.0-0.0","18981015","wem/bandit_party_2","A360G5G0DVWU7X","either","4","607","","","","","","","0","1","0","","0.5513550223","0.4","0.6","0.8","0.2","0.6893652978","0.8983200186","0.8089346838","0.5513550223","","","","","","","","","","","","","","76","L","3","","","94","main_expt",""
"","bandit","174","633291","0.0-136.0-0.0","18981015","wem/bandit_party_2","A360G5G0DVWU7X","either","4","778","","","","","","","0","1","0","","0.5461825447","0.4","0.6","0.8","0.2","0.6025630118","0.8744309931","0.7472177953","0.5461825447","","","","","","","","","","","","","","76","L","3","","","95","main_expt",""
"","bandit","175","635482","0.0-137.0-0.0","18981015","wem/bandit_party_2","A360G5G0DVWU7X","either","4","671","","","","","","","1","0","0","0.8894212924","","0.4","0.6","0.8","0.2","","","","","0.5565182624","0.8894212924","0.631257407","0.5564841108","","","","","","","","","","74","J","1","","","96","main_expt",""
"","bandit","176","637362","0.0-138.0-0.0","18981015","wem/bandit_party_2","A360G5G0DVWU7X","either","4","365","","","","","","","0","1","0","","0.4820287155","0.4","0.6","0.8","0.2","0.4820287155","0.891162681","0.7474787878","0.6513715187","","","","","","","","","","","","","","72","H","0","img/none_selected.jpg","","97","main_expt",""
"","bandit","177","639280","0.0-139.0-0.0","18981015","wem/bandit_party_2","A360G5G0DVWU7X","either","4","408","","","","","","","1","0","0","0.7004254565","","0.4","0.6","0.8","0.2","","","","","0.4599621431","0.8495400438","0.7753317291","0.7004254565","","","","","","","","","","76","L","3","","","98","main_expt",""
"","bandit","178","640973","0.0-140.0-0.0","18981015","wem/bandit_party_2","A360G5G0DVWU7X","either","4","185","","","","","","","0","1","0","","0.8671572546","0.4","0.6","0.8","0.2","0.4109144258","0.8671572546","0.7088399779","0.6473310623","","","","","","","","","","","","","","74","J","1","","","99","main_expt",""
"","bandit","179","643139","0.0-141.0-0.0","18981015","wem/bandit_party_2","A360G5G0DVWU7X","either","4","657","","","","","","","0","0","1","","0.3466085394","0.4","0.6","0.8","0.2","0.3466085394","0.8312294914","0.7328055719","0.6160818326","","","","","","","","","","","","","","72","H","0","img/none_selected.jpg","","100","main_expt",""
"","bandit","180","645048","0.0-142.0-0.0","18981015","wem/bandit_party_2","A360G5G0DVWU7X","either","4","401","","","","","","","1","0","0","0.8183789849","","0.4","0.6","0.8","0.2","","","","","0.3712289037","0.8135240708","0.8183789849","0.6963675268","","","","","","","","","","75","K","2","","","101","main_expt",""
"","bandit","181","647026","0.0-143.0-0.0","18981015","wem/bandit_party_2","A360G5G0DVWU7X","either","4","467","","","","","","","0","1","0","","0.8556055773","0.4","0.6","0.8","0.2","0.3626324234","0.8556055773","0.7854635714","0.6339579424","","","","","","","","","","","","","","74","J","1","","","102","main_expt",""
"","bandit","182","648985","0.0-144.0-0.0","18981015","wem/bandit_party_2","A360G5G0DVWU7X","either","4","449","","","","","","","0","1","0","","0.6908430899","0.4","0.6","0.8","0.2","0.2748825764","0.7632006143","0.8481411385","0.6908430899","","","","","","","","","","","","","","76","L","3","","","103","main_expt",""
"","bandit","183","650797","0.0-145.0-0.0","18981015","wem/bandit_party_2","A360G5G0DVWU7X","either","4","304","","","","","","","0","1","0","","0.2381725209","0.4","0.6","0.8","0.2","0.2381725209","0.8273213265","0.8129446485","0.6866318891","","","","","","","","","","","","","","72","H","0","img/none_selected.jpg","","104","main_expt",""
"","bandit","184","652653","0.0-146.0-0.0","18981015","wem/bandit_party_2","A360G5G0DVWU7X","either","4","347","","","","","","","0","1","0","","0.7930501456","0.4","0.6","0.8","0.2","0.1939551764","0.7930501456","0.7898688037","0.6749941214","","","","","","","","","","","","","","74","J","1","","","105","main_expt",""
"","bandit","185","654324","0.0-147.0-0.0","18981015","wem/bandit_party_2","A360G5G0DVWU7X","either","4","162","","","","","","","1","0","0","0.7810744832","","0.4","0.6","0.8","0.2","","","","","0.1884153881","0.7186603115","0.7810744832","0.7300347885","","","","","","","","","","75","K","2","","","106","main_expt",""
"","bandit","186","656172","0.0-148.0-0.0","18981015","wem/bandit_party_2","A360G5G0DVWU7X","either","4","336","","","","","","","0","1","0","","0.8133516847","0.4","0.6","0.8","0.2","0.1011451677","0.7155595947","0.7837395221","0.8133516847","","","","","","","","","","","","","","76","L","3","","","107","main_expt",""
"","bandit","187","657805","0.0-149.0-0.0","18981015","wem/bandit_party_2","A360G5G0DVWU7X","either","4","121","","","","","","","0","0","1","","0.1500242655","0.4","0.6","0.8","0.2","0.1500242655","0.7654707556","0.787971135","0.8009432675","","","","","","","","","","","","","","72","H","0","img/none_selected.jpg","","108","main_expt",""
"","bandit","188","659434","0.0-150.0-0.0","18981015","wem/bandit_party_2","A360G5G0DVWU7X","either","4","113","","","","","","","1","0","0","0.6288612937","","0.4","0.6","0.8","0.2","","","","","0.1285750889","0.6288612937","0.6866525704","0.7379370491","","","","","","","","","","74","J","1","","","109","main_expt",""
"","bandit","189","661252","0.0-151.0-0.0","18981015","wem/bandit_party_2","A360G5G0DVWU7X","either","4","309","","","","","","","1","0","0","0.5824748378","","0.4","0.6","0.8","0.2","","","","","0.06279291231","0.6309058105","0.5824748378","0.7379992527","","","","","","","","","","75","K","2","","","110","main_expt",""
"","bandit","190","663036","0.0-152.0-0.0","18981015","wem/bandit_party_2","A360G5G0DVWU7X","either","4","272","","","","","","","0","0","1","0.07144278273","","0.4","0.6","0.8","0.2","","","","","0.07144278273","0.6218965746","0.659702805","0.7464430213","","","","","","","","","","72","H","0","img/none_selected.jpg","","111","main_expt",""
"","bandit","191","665031","0.0-153.0-0.0","18981015","wem/bandit_party_2","A360G5G0DVWU7X","either","4","487","","","","","","","0","1","0","","0.6741482942","0.4","0.6","0.8","0.2","0.06013221683","0.6741482942","0.5111205641","0.7736339118","","","","","","","","","","","","","","74","J","1","","","112","main_expt",""
"","bandit","192","667238","0.0-154.0-0.0","18981015","wem/bandit_party_2","A360G5G0DVWU7X","either","4","695","","","","","","","0","1","0","","0.8480767854","0.4","0.6","0.8","0.2","0.1442356489","0.7405202534","0.4852392648","0.8480767854","","","","","","","","","","","","","","76","L","3","","","113","main_expt",""
"","bandit","193","669094","0.0-155.0-0.0","18981015","wem/bandit_party_2","A360G5G0DVWU7X","either","4","348","","","","","","","0","0","1","0.3531287621","","0.4","0.6","0.8","0.2","","","","","0.1733870882","0.743157628","0.3531287621","0.8016933152","","","","","","","","","","75","K","2","","","114","main_expt",""
"","bandit","194","670989","0.0-156.0-0.0","18981015","wem/bandit_party_2","A360G5G0DVWU7X","either","4","384","","","","","","","0","0","1","","0.2198725907","0.4","0.6","0.8","0.2","0.2198725907","0.7732583829","0.4090792957","0.8200260584","","","","","","","","","","","","","","72","H","0","img/none_selected.jpg","","115","main_expt",""
"","bandit","195","672831","0.0-157.0-0.0","18981015","wem/bandit_party_2","A360G5G0DVWU7X","either","4","332","","","","","","","0","1","0","","0.2116870815","0.4","0.6","0.8","0.2","0.2116870815","0.6224016225","0.4927933112","0.7761954976","","","","","","","","","","","","","","72","H","0","img/none_selected.jpg","","116","main_expt",""
"","bandit","196","674499","0.0-158.0-0.0","18981015","wem/bandit_party_2","A360G5G0DVWU7X","either","4","157","","","","","","","1","0","0","0.6784399158","","0.4","0.6","0.8","0.2","","","","","0.1293815938","0.6784399158","0.4255499736","0.7722233998","","","","","","","","","","74","J","1","","","117","main_expt",""
"","bandit","197","676287","0.0-159.0-0.0","18981015","wem/bandit_party_2","A360G5G0DVWU7X","either","4","275","","","","","","","1","0","0","0.7499631032","","0.4","0.6","0.8","0.2","","","","","0.1442073762","0.7499631032","0.4073726931","0.8049831996","","","","","","","","","","74","J","1","","","118","main_expt",""
"","bandit","198","677877","0.0-160.0-0.0","18981015","wem/bandit_party_2","A360G5G0DVWU7X","either","4","79","","","","","","","0","0","1","0.5447318884","","0.4","0.6","0.8","0.2","","","","","0.2098334931","0.6258432538","0.5447318884","0.8469405197","","","","","","","","","","75","K","2","","","119","main_expt",""
"","bandit","199","679728","0.0-161.0-0.0","18981015","wem/bandit_party_2","A360G5G0DVWU7X","either","4","341","","","","","","","0","0","1","0.5336717705","","0.4","0.6","0.8","0.2","","","","","0.243218138","0.5602994123","0.5336717705","0.783925966","","","","","","","","","","75","K","2","","","120","main_expt",""
"","bandit","200","681594","0.0-162.0-0.0","18981015","wem/bandit_party_2","A360G5G0DVWU7X","either","4","355","","","","","","","0","0","1","","0.8031476983","0.4","0.6","0.8","0.2","0.1595445902","0.5850644561","0.5621279662","0.8031476983","","","","","","","","","","","","","","76","L","3","","","121","main_expt",""
"","bandit","201","683669","0.0-163.0-0.0","18981015","wem/bandit_party_2","A360G5G0DVWU7X","either","4","560","","","","","","","1","0","0","0.776878313","","0.4","0.6","0.8","0.2","","","","","0.1939767007","0.6205732407","0.5664238538","0.776878313","","","","","","","","","","76","L","3","","","122","main_expt",""
"","bandit","202","685686","0.0-164.0-0.0","18981015","wem/bandit_party_2","A360G5G0DVWU7X","either","4","500","","","","","","","0","1","0","","0.6501842916","0.4","0.6","0.8","0.2","0.2265728871","0.7954206102","0.6501842916","0.7695343448","","","","","","","","","","","","","","75","K","2","","","123","main_expt",""
"","bandit","203","687481","0.0-165.0-0.0","18981015","wem/bandit_party_2","A360G5G0DVWU7X","either","4","285","","","","","","","0","0","1","0.5413703051","","0.4","0.6","0.8","0.2","","","","","0.2027469411","0.881213352","0.5413703051","0.6154230174","","","","","","","","","","75","K","2","","","124","main_expt",""
"","bandit","204","689391","0.0-166.0-0.0","18981015","wem/bandit_party_2","A360G5G0DVWU7X","either","4","396","","","","","","","1","0","0","0.8598562332","","0.4","0.6","0.8","0.2","","","","","0.1506135949","0.8598562332","0.5191338098","0.4710930195","","","","","","","","","","74","J","1","","","125","main_expt",""
"","bandit","205","691141","0.0-167.0-0.0","18981015","wem/bandit_party_2","A360G5G0DVWU7X","either","4","240","","","","","","","1","0","0","0.867144728","","0.4","0.6","0.8","0.2","","","","","0.1875851228","0.867144728","0.6232591378","0.5258886302","","","","","","","","","","74","J","1","","","126","main_expt",""
"","bandit","206","693010","0.0-168.0-0.0","18981015","wem/bandit_party_2","A360G5G0DVWU7X","either","4","357","","","","","","","0","0","1","","0.2106184636","0.4","0.6","0.8","0.2","0.2106184636","0.8677917819","0.601333273","0.3996486754","","","","","","","","","","","","","","72","H","0","img/none_selected.jpg","","127","main_expt",""
"","bandit","207","694750","0.0-169.0-0.0","18981015","wem/bandit_party_2","A360G5G0DVWU7X","either","4","228","","","","","","","0","0","1","0.1276240755","","0.4","0.6","0.8","0.2","","","","","0.1276240755","0.8194058857","0.6312294041","0.3557241191","","","","","","","","","","72","H","0","img/none_selected.jpg","","128","main_expt",""
"","bandit","208","696907","0.0-170.0-0.0","18981015","wem/bandit_party_2","A360G5G0DVWU7X","either","4","644","","","","","","","1","0","0","0.6655034733","","0.4","0.6","0.8","0.2","","","","","0.2163335705","0.813940224","0.6655034733","0.2432070908","","","","","","","","","","75","K","2","","","129","main_expt",""
"","bandit","209","699670","0.0-171.0-0.0","18981015","wem/bandit_party_2","A360G5G0DVWU7X","either","4","1253","","","","","","","1","0","0","0.7296764962","","0.4","0.6","0.8","0.2","","","","","0.2448863899","0.7296764962","0.6882303755","0.1722843937","","","","","","","","","","74","J","1","","","130","main_expt",""
"","bandit","210","701427","0.0-172.0-0.0","18981015","wem/bandit_party_2","A360G5G0DVWU7X","either","4","247","","","","","","","1","0","0","0.614258276","","0.4","0.6","0.8","0.2","","","","","0.3447645787","0.614258276","0.6772884453","0.1336027919","","","","","","","","","","74","J","1","","","131","main_expt",""
"","bandit","211","703244","0.0-173.0-0.0","18981015","wem/bandit_party_2","A360G5G0DVWU7X","either","4","305","","","","","","","0","0","1","0.1351629047","","0.4","0.6","0.8","0.2","","","","","0.3622527956","0.5349540706","0.6773684555","0.1351629047","","","","","","","","","","76","L","3","","","132","main_expt",""
"","bandit","212","705070","0.0-174.0-0.0","18981015","wem/bandit_party_2","A360G5G0DVWU7X","either","4","315","","","","","","","0","0","1","","0.2495029","0.4","0.6","0.8","0.2","0.2961885878","0.5449090787","0.7437755928","0.2495029","","","","","","","","","","","","","","76","L","3","","","133","main_expt",""
"","bandit","213","707054","0.0-175.0-0.0","18981015","wem/bandit_party_2","A360G5G0DVWU7X","either","4","467","","","","","","","1","0","0","0.7423545867","","0.4","0.6","0.8","0.2","","","","","0.2932126781","0.5037108559","0.7423545867","0.2118512663","","","","","","","","","","75","K","2","","","134","main_expt",""
"","bandit","214","708819","0.0-176.0-0.0","18981015","wem/bandit_party_2","A360G5G0DVWU7X","either","4","254","","","","","","","1","0","0","0.7462440124","","0.4","0.6","0.8","0.2","","","","","0.2836439675","0.5131336393","0.7462440124","0.2474577379","","","","","","","","","","75","K","2","","","135","main_expt",""
"","bandit","215","710624","0.0-177.0-0.0","18981015","wem/bandit_party_2","A360G5G0DVWU7X","either","4","293","","","","","","","1","0","0","0.5847952324","","0.4","0.6","0.8","0.2","","","","","0.1985775905","0.5847952324","0.6372772774","0.1496333288","","","","","","","","","","74","J","1","","","136","main_expt",""
"","bandit","216","712398","0.0-178.0-0.0","18981015","wem/bandit_party_2","A360G5G0DVWU7X","either","4","261","","","","","","","1","0","0","0.5191620222","","0.4","0.6","0.8","0.2","","","","","0.2655975","0.5191620222","0.6587707878","0.164835495","","","","","","","","","","74","J","1","","","137","main_expt",""
"","bandit","217","713998","0.0-179.0-0.0","18981015","wem/bandit_party_2","A360G5G0DVWU7X","either","4","92","","","","","","","0","1","0","","0.4066298912","0.4","0.6","0.8","0.2","0.4066298912","0.3830682141","0.6545472314","0.1629561883","","","","","","","","","","","","","","72","H","0","img/none_selected.jpg","","138","main_expt",""
"","bandit","218","715710","0.0-180.0-0.0","18981015","wem/bandit_party_2","A360G5G0DVWU7X","either","4","200","","","","","","","0","1","0","","0.4537429859","0.4","0.6","0.8","0.2","0.4537429859","0.3036015776","0.5773899651","0.1162724323","","","","","","","","","","","","","","72","H","0","img/none_selected.jpg","","139","main_expt",""
"","bandit","219","717472","0.0-181.0-0.0","18981015","wem/bandit_party_2","A360G5G0DVWU7X","either","4","252","","","","","","","0","0","1","","0.2541790234","0.4","0.6","0.8","0.2","0.410026376","0.2541790234","0.5786924042","0.1262651596","","","","","","","","","","","","","","74","J","1","","","140","main_expt",""
"","bandit","220","719267","0.0-182.0-0.0","18981015","wem/bandit_party_2","A360G5G0DVWU7X","either","4","289","","","","","","","0","0","1","0.1899663758","","0.4","0.6","0.8","0.2","","","","","0.3978668086","0.1899663758","0.4589731036","0.1258799353","","","","","","","","","","74","J","1","","","141","main_expt",""
"","bandit","221","721040","0.0-183.0-0.0","18981015","wem/bandit_party_2","A360G5G0DVWU7X","either","4","263","","","","","","","0","0","1","","0.1220135665","0.4","0.6","0.8","0.2","0.4096738096","0.214868544","0.3667804619","0.1220135665","","","","","","","","","","","","","","76","L","3","","","142","main_expt",""
"","bandit","222","722820","0.0-184.0-0.0","18981015","wem/bandit_party_2","A360G5G0DVWU7X","either","4","273","","","","","","","0","0","1","0.1600355681","","0.4","0.6","0.8","0.2","","","","","0.5422751762","0.1549416237","0.3563831379","0.1600355681","","","","","","","","","","76","L","3","","","143","main_expt",""
"","bandit","223","724575","0.0-185.0-0.0","18981015","wem/bandit_party_2","A360G5G0DVWU7X","either","4","245","","","","","","","0","0","1","","0.3675361202","0.4","0.6","0.8","0.2","0.6045197677","0.2142728447","0.3675361202","0.103653669","","","","","","","","","","","","","","75","K","2","","","144","main_expt",""
"","bandit","224","726376","0.0-186.0-0.0","18981015","wem/bandit_party_2","A360G5G0DVWU7X","either","4","289","","","","","","","0","0","1","0.3266856562","","0.4","0.6","0.8","0.2","","","","","0.6140727406","0.2166472609","0.3266856562","0.1417267119","","","","","","","","","","75","K","2","","","145","main_expt",""
"","bandit","225","728880","0.0-187.0-0.0","18981015","wem/bandit_party_2","A360G5G0DVWU7X","either","4","995","","","","","","","0","0","1","0.1508894681","","0.4","0.6","0.8","0.2","","","","","0.5553742365","0.2446047688","0.2815179259","0.1508894681","","","","","","","","","","76","L","3","","","146","main_expt",""
"","bandit","226","731140","0.0-188.0-0.0","18981015","wem/bandit_party_2","A360G5G0DVWU7X","either","4","749","","","","","","","0","1","0","","0.1207147728","0.4","0.6","0.8","0.2","0.52787167","0.3011136322","0.3560244833","0.1207147728","","","","","","","","","","","","","","76","L","3","","","147","main_expt",""
"","bandit","227","733375","0.0-189.0-0.0","18981015","wem/bandit_party_2","A360G5G0DVWU7X","either","4","723","","","","","","","1","0","0","0.2519777133","","0.4","0.6","0.8","0.2","","","","","0.5053851794","0.2519777133","0.3585854149","0.1362234148","","","","","","","","","","74","J","1","","","148","main_expt",""
"","bandit","228","735556","0.0-190.0-0.0","18981015","wem/bandit_party_2","A360G5G0DVWU7X","either","4","671","","","","","","","0","0","1","0.2996109941","","0.4","0.6","0.8","0.2","","","","","0.5431256022","0.2996109941","0.284478414","0.1244444975","","","","","","","","","","74","J","1","","","149","main_expt",""
"","bandit","229","738488","0.0-191.0-0.0","18981015","wem/bandit_party_2","A360G5G0DVWU7X","either","4","1417","","","","","","","0","0","1","0.2963563975","","0.4","0.6","0.8","0.2","","","","","0.422574086","0.2963563975","0.2617238314","0.1109305632","","","","","","","","","","74","J","1","","","150","main_expt",""
"","bandit","230","740293","0.0-192.0-0.0","18981015","wem/bandit_party_2","A360G5G0DVWU7X","either","4","297","","","","","","","0","0","1","0.4327396174","","0.4","0.6","0.8","0.2","","","","","0.3907227364","0.4327396174","0.2709462114","0.11412436","","","","","","","","","","74","J","1","","","151","main_expt",""
"","bandit","231","741964","0.0-193.0-0.0","18981015","wem/bandit_party_2","A360G5G0DVWU7X","either","4","160","","","","","","","0","0","1","","0.2993716907","0.4","0.6","0.8","0.2","0.5580814469","0.4303068123","0.2993716907","0.1469045903","","","","","","","","","","","","","","75","K","2","","","152","main_expt",""
"","bandit","232","743517","0.0-194.0-0.0","18981015","wem/bandit_party_2","A360G5G0DVWU7X","either","4","39","","","","","","","0","0","1","0.2733354782","","0.4","0.6","0.8","0.2","","","","","0.51223936","0.455197397","0.2733354782","0.1633028487","","","","","","","","","","75","K","2","","","153","main_expt",""
"","bandit","233","745345","0.0-195.0-0.0","18981015","wem/bandit_party_2","A360G5G0DVWU7X","either","4","314","","","","","","","0","0","1","","0.1340882311","0.4","0.6","0.8","0.2","0.4811601507","0.6184454144","0.3264007987","0.1340882311","","","","","","","","","","","","","","76","L","3","","","154","main_expt",""
"","bandit","234","747214","0.0-196.0-0.0","18981015","wem/bandit_party_2","A360G5G0DVWU7X","either","4","353","","","","","","","0","0","1","","0.1041462846","0.4","0.6","0.8","0.2","0.575425417","0.5833601464","0.204433578","0.1041462846","","","","","","","","","","","","","","76","L","3","","","155","main_expt",""
"","bandit","235","750974","0.0-197.0-0.0","18981015","wem/bandit_party_2","A360G5G0DVWU7X","either","4","2250","","","","","","","0","1","0","","0.6109018817","0.4","0.6","0.8","0.2","0.6109018817","0.646897734","0.07451572188","0.08564190031","","","","","","","","","","","","","","72","H","0","img/none_selected.jpg","","156","main_expt",""
"","bandit","236","752857","0.0-198.0-0.0","18981015","wem/bandit_party_2","A360G5G0DVWU7X","either","4","370","","","","","","","0","0","1","0.6812883852","","0.4","0.6","0.8","0.2","","","","","0.6812883852","0.6912470103","0.1251686374","0.06977116317","","","","","","","","","","72","H","0","img/none_selected.jpg","","157","main_expt",""
"","bandit","237","754865","0.0-199.0-0.0","18981015","wem/bandit_party_2","A360G5G0DVWU7X","either","4","491","","","","","","","1","0","0","0.7865398282","","0.4","0.6","0.8","0.2","","","","","0.73777041","0.7865398282","0.1292052795","0.1504927074","","","","","","","","","","74","J","1","","","158","main_expt",""
"","bandit","238","756656","0.0-200.0-0.0","18981015","wem/bandit_party_2","A360G5G0DVWU7X","either","4","281","","","","","","","0","0","1","0.7220910122","","0.4","0.6","0.8","0.2","","","","","0.8388849062","0.7220910122","0.1200050714","0.1429264201","","","","","","","","","","74","J","1","","","159","main_expt",""
"","bandit","239","758463","0.0-201.0-0.0","18981015","wem/bandit_party_2","A360G5G0DVWU7X","either","4","293","","","","","","","0","0","1","0.1156014834","","0.4","0.6","0.8","0.2","","","","","0.8006667519","0.710563805","0.1156014834","0.1832893837","","","","","","","","","","75","K","2","","","160","main_expt",""
"","bandit","240","760346","0.0-202.0-0.0","18981015","wem/bandit_party_2","A360G5G0DVWU7X","either","4","370","","","","","","","1","0","0","0.2337310763","","0.4","0.6","0.8","0.2","","","","","0.7406956812","0.6205281072","0.1425751263","0.2337310763","","","","","","","","","","76","L","3","","","161","main_expt",""
"","bandit","241","762038","0.0-203.0-0.0","18981015","wem/bandit_party_2","A360G5G0DVWU7X","either","4","179","","","","","","","0","0","1","0.2108345254","","0.4","0.6","0.8","0.2","","","","","0.775259894","0.5246840185","0.2108345254","0.2326198937","","","","","","","","","","75","K","2","","","162","main_expt",""
"","bandit","242","763704","0.0-204.0-0.0","18981015","wem/bandit_party_2","A360G5G0DVWU7X","either","4","145","","","","","","","0","0","1","0.1664621688","","0.4","0.6","0.8","0.2","","","","","0.6539471222","0.569340372","0.1664621688","0.1584290897","","","","","","","","","","75","K","2","","","163","main_expt",""
"","bandit","243","765577","0.0-205.0-0.0","18981015","wem/bandit_party_2","A360G5G0DVWU7X","either","4","357","","","","","","","1","0","0","0.5688323765","","0.4","0.6","0.8","0.2","","","","","0.7914062868","0.5688323765","0.1741279052","0.1417900361","","","","","","","","","","74","J","1","","","164","main_expt",""
"","bandit","244","767319","0.0-206.0-0.0","18981015","wem/bandit_party_2","A360G5G0DVWU7X","either","4","229","","","","","","","1","0","0","0.5195648955","","0.4","0.6","0.8","0.2","","","","","0.8415061218","0.5195648955","0.1891196979","0.08849486786","","","","","","","","","","74","J","1","","","165","main_expt",""
"","bandit","245","769072","0.0-207.0-0.0","18981015","wem/bandit_party_2","A360G5G0DVWU7X","either","4","236","","","","","","","0","0","1","","0.1010416226","0.4","0.6","0.8","0.2","0.9084068317","0.536500984","0.3016440744","0.1010416226","","","","","","","","","","","","","","76","L","3","","","166","main_expt",""
"","bandit","246","770892","0.0-208.0-0.0","18981015","wem/bandit_party_2","A360G5G0DVWU7X","either","4","303","","","","","","","0","0","1","","0.1506776516","0.4","0.6","0.8","0.2","0.8857506799","0.4243381616","0.3427468607","0.1506776516","","","","","","","","","","","","","","76","L","3","","","167","main_expt",""
"","bandit","247","773083","0.0-209.0-0.0","18981015","wem/bandit_party_2","A360G5G0DVWU7X","either","4","681","","","","","","","0","1","0","","0.9247721234","0.4","0.6","0.8","0.2","0.9247721234","0.4877327119","0.3759001064","0.2532220847","","","","","","","","","","","","","","72","H","0","img/none_selected.jpg","","168","main_expt",""
"","bandit","248","774876","0.0-210.0-0.0","18981015","wem/bandit_party_2","A360G5G0DVWU7X","either","4","281","","","","","","","1","0","0","0.8870410368","","0.4","0.6","0.8","0.2","","","","","0.8870410368","0.5096331713","0.3824832387","0.2223654062","","","","","","","","","","72","H","0","img/none_selected.jpg","","169","main_expt",""
"","bandit","249","777535","0.0-211.0-0.0","18981015","wem/bandit_party_2","A360G5G0DVWU7X","either","4","1144","","","","","","","0","0","1","0.3257043992","","0.4","0.6","0.8","0.2","","","","","0.8782412079","0.6111595203","0.3257043992","0.2161840498","","","","","","","","","","75","K","2","","","170","main_expt",""
"","bandit","250","779164","0.0-212.0-0.0","18981015","wem/bandit_party_2","A360G5G0DVWU7X","either","4","111","","","","","","","1","0","0","0.2943589708","","0.4","0.6","0.8","0.2","","","","","0.7978982074","0.5888321224","0.2943589708","0.1996440145","","","","","","","","","","75","K","2","","","171","main_expt",""
"","bandit","251","781072","0.0-213.0-0.0","18981015","wem/bandit_party_2","A360G5G0DVWU7X","either","4","393","","","","","","","0","0","1","0.6295404033","","0.4","0.6","0.8","0.2","","","","","0.7896885826","0.6295404033","0.4298537702","0.275753823","","","","","","","","","","74","J","1","","","172","main_expt",""
"","bandit","252","782900","0.0-214.0-0.0","18981015","wem/bandit_party_2","A360G5G0DVWU7X","either","4","312","","","","","","","0","1","0","","0.5976712981","0.4","0.6","0.8","0.2","0.7771385218","0.5976712981","0.4196262671","0.2850946521","","","","","","","","","","","","","","74","J","1","","","173","main_expt",""
"","bandit","253","784880","0.0-215.0-0.0","18981015","wem/bandit_party_2","A360G5G0DVWU7X","either","4","466","","","","","","","0","1","0","","0.8412209493","0.4","0.6","0.8","0.2","0.8412209493","0.5936331925","0.4056978145","0.2836726952","","","","","","","","","","","","","","72","H","0","img/none_selected.jpg","","174","main_expt",""
"","bandit","254","786955","0.0-216.0-0.0","18981015","wem/bandit_party_2","A360G5G0DVWU7X","either","4","559","","","","","","","0","1","0","","0.8433491626","0.4","0.6","0.8","0.2","0.8433491626","0.544145328","0.3323311207","0.27413619","","","","","","","","","","","","","","72","H","0","img/none_selected.jpg","","175","main_expt",""
"","bandit","255","792057","0.0-217.0-0.0","18981015","wem/bandit_party_2","A360G5G0DVWU7X","either","4","3584","","","","","","","0","0","1","","0.2369491767","0.4","0.6","0.8","0.2","0.778586436","0.3584947592","0.3087900888","0.2369491767","","","","","","","","","","","","","","76","L","3","","","176","main_expt",""
"","bandit","256","794207","0.0-218.0-0.0","18981015","wem/bandit_party_2","A360G5G0DVWU7X","either","4","642","","","","","","","0","0","1","","0.3440943848","0.4","0.6","0.8","0.2","0.7488794252","0.436171931","0.3898613412","0.3440943848","","","","","","","","","","","","","","76","L","3","","","177","main_expt",""
"","bandit","257","795991","0.0-219.0-0.0","18981015","wem/bandit_party_2","A360G5G0DVWU7X","either","4","274","","","","","","","1","0","0","0.5236321052","","0.4","0.6","0.8","0.2","","","","","0.7738581751","0.5193680035","0.5236321052","0.3529135521","","","","","","","","","","75","K","2","","","178","main_expt",""
"","bandit","258","797768","0.0-220.0-0.0","18981015","wem/bandit_party_2","A360G5G0DVWU7X","either","4","261","","","","","","","0","0","1","0.2955080601","","0.4","0.6","0.8","0.2","","","","","0.7527820287","0.3957798075","0.2955080601","0.3787243664","","","","","","","","","","75","K","2","","","179","main_expt",""
"","bandit","259","799518","0.0-221.0-0.0","18981015","wem/bandit_party_2","A360G5G0DVWU7X","either","4","239","","","","","","","0","0","1","0.4249873197","","0.4","0.6","0.8","0.2","","","","","0.8022950929","0.4249873197","0.3174151272","0.3092677326","","","","","","","","","","74","J","1","","","180","main_expt",""
"","bandit","260","801330","0.0-222.0-0.0","18981015","wem/bandit_party_2","A360G5G0DVWU7X","either","4","300","","","","","","","0","0","1","","0.4260342439","0.4","0.6","0.8","0.2","0.7505347306","0.4260342439","0.3560995969","0.3701559146","","","","","","","","","","","","","","74","J","1","","","181","main_expt",""
"","bandit","261","803000","0.0-223.0-0.0","18981015","wem/bandit_party_2","A360G5G0DVWU7X","either","4","160","","","","","","","0","0","1","","0.603349844","0.4","0.6","0.8","0.2","0.603349844","0.4305619521","0.4649908644","0.2672844749","","","","","","","","","","","","","","72","H","0","img/none_selected.jpg","","182","main_expt",""
"","bandit","262","806415","0.0-224.0-0.0","18981015","wem/bandit_party_2","A360G5G0DVWU7X","either","4","1904","","","","","","","0","1","0","","0.6464544124","0.4","0.6","0.8","0.2","0.6464544124","0.4638513582","0.4588174784","0.3046315644","","","","","","","","","","","","","","72","H","0","img/none_selected.jpg","","183","main_expt",""
"","bandit","263","810169","0.0-225.0-0.0","18981015","wem/bandit_party_2","A360G5G0DVWU7X","either","4","2244","","","","","","","0","0","1","0.6606024443","","0.4","0.6","0.8","0.2","","","","","0.6606024443","0.5084330557","0.509799977","0.3507685813","","","","","","","","","","72","H","0","img/none_selected.jpg","","184","main_expt",""
"","bandit","264","811875","0.0-226.0-0.0","18981015","wem/bandit_party_2","A360G5G0DVWU7X","either","4","192","","","","","","","1","0","0","0.7034535028","","0.4","0.6","0.8","0.2","","","","","0.7034535028","0.5853778332","0.4557178443","0.3250269766","","","","","","","","","","72","H","0","img/none_selected.jpg","","185","main_expt",""
"","bandit","265","813792","0.0-227.0-0.0","18981015","wem/bandit_party_2","A360G5G0DVWU7X","either","4","404","","","","","","","0","0","1","","0.3250172706","0.4","0.6","0.8","0.2","0.7672503758","0.5009207633","0.3250172706","0.3636669497","","","","","","","","","","","","","","75","K","2","","","186","main_expt",""
"","bandit","266","816097","0.0-228.0-0.0","18981015","wem/bandit_party_2","A360G5G0DVWU7X","either","4","792","","","","","","","0","0","1","0.2982192525","","0.4","0.6","0.8","0.2","","","","","0.7505037824","0.4376492532","0.2982192525","0.4095027401","","","","","","","","","","75","K","2","","","187","main_expt",""
"","bandit","267","818753","0.0-229.0-0.0","18981015","wem/bandit_party_2","A360G5G0DVWU7X","either","4","1134","","","","","","","1","0","0","0.2647713636","","0.4","0.6","0.8","0.2","","","","","0.7458261356","0.317868257","0.2647713636","0.3356624093","","","","","","","","","","75","K","2","","","188","main_expt",""
"","bandit","268","820537","0.0-230.0-0.0","18981015","wem/bandit_party_2","A360G5G0DVWU7X","either","4","271","","","","","","","0","0","1","0.3700786551","","0.4","0.6","0.8","0.2","","","","","0.747965221","0.3700786551","0.2798663258","0.3717951419","","","","","","","","","","74","J","1","","","189","main_expt",""
"","bandit","269","823156","0.0-231.0-0.0","18981015","wem/bandit_party_2","A360G5G0DVWU7X","either","4","1107","","","","","","","0","1","0","","0.3266606931","0.4","0.6","0.8","0.2","0.7459095382","0.3423477616","0.2146362806","0.3266606931","","","","","","","","","","","","","","76","L","3","","","190","main_expt",""
"","bandit","270","824771","0.0-232.0-0.0","18981015","wem/bandit_party_2","A360G5G0DVWU7X","either","4","102","","","","","","","0","1","0","","0.4206899072","0.4","0.6","0.8","0.2","0.6299055833","0.2488230813","0.3132783624","0.4206899072","","","","","","","","","","","","","","76","L","3","","","191","main_expt",""
"","bandit","271","827301","0.0-233.0-0.0","18981015","wem/bandit_party_2","A360G5G0DVWU7X","either","4","1013","","","","","","","0","1","0","","0.688533977","0.4","0.6","0.8","0.2","0.688533977","0.2193108308","0.2488083766","0.4982817076","","","","","","","","","","","","","","72","H","0","img/none_selected.jpg","","192","main_expt",""
"","bandit","272","829419","0.0-234.0-0.0","18981015","wem/bandit_party_2","A360G5G0DVWU7X","either","4","605","","","","","","","1","0","0","0.7176496952","","0.4","0.6","0.8","0.2","","","","","0.7176496952","0.4057276106","0.225611763","0.4820211017","","","","","","","","","","72","H","0","img/none_selected.jpg","","193","main_expt",""
"","bandit","273","831795","0.0-235.0-0.0","18981015","wem/bandit_party_2","A360G5G0DVWU7X","either","4","866","","","","","","","1","0","0","0.2159393038","","0.4","0.6","0.8","0.2","","","","","0.746212457","0.3826056333","0.2159393038","0.5373891537","","","","","","","","","","75","K","2","","","194","main_expt",""
"","bandit","274","833566","0.0-236.0-0.0","18981015","wem/bandit_party_2","A360G5G0DVWU7X","either","4","261","","","","","","","0","0","1","","0.3112228701","0.4","0.6","0.8","0.2","0.6800784202","0.4922935908","0.3112228701","0.3890275207","","","","","","","","","","","","","","75","K","2","","","195","main_expt",""
"","bandit","275","836012","0.0-237.0-0.0","18981015","wem/bandit_party_2","A360G5G0DVWU7X","either","4","932","","","","","","","0","1","0","","0.5986295964","0.4","0.6","0.8","0.2","0.5986295964","0.5475793877","0.3249051539","0.4329462643","","","","","","","","","","","","","","72","H","0","img/none_selected.jpg","","196","main_expt",""
"","bandit","276","838495","0.0-238.0-0.0","18981015","wem/bandit_party_2","A360G5G0DVWU7X","either","4","969","","","","","","","0","1","0","","0.5323622673","0.4","0.6","0.8","0.2","0.5323622673","0.6069385875","0.2985018541","0.416825946","","","","","","","","","","","","","","72","H","0","img/none_selected.jpg","","197","main_expt",""
"","bandit","277","840496","0.0-239.0-0.0","18981015","wem/bandit_party_2","A360G5G0DVWU7X","either","4","490","","","","","","","0","1","0","","0.5348043844","0.4","0.6","0.8","0.2","0.5348043844","0.4946816555","0.3109366799","0.4063336836","","","","","","","","","","","","","","72","H","0","img/none_selected.jpg","","198","main_expt",""
"","bandit","278","842729","0.0-240.0-0.0","18981015","wem/bandit_party_2","A360G5G0DVWU7X","either","4","719","","","","","","","0","0","1","","0.4534403339","0.4","0.6","0.8","0.2","0.4534403339","0.479635203","0.3143364341","0.361264989","","","","","","","","","","","","","","72","H","0","img/none_selected.jpg","","199","main_expt",""
"","bandit","279","844628","0.0-241.0-0.0","18981015","wem/bandit_party_2","A360G5G0DVWU7X","either","4","389","","","","","","","0","1","0","","0.4185876589","0.4","0.6","0.8","0.2","0.4185876589","0.4969837249","0.3176919365","0.4700223374","","","","","","","","","","","","","","72","H","0","img/none_selected.jpg","","200","main_expt",""
"","bandit","280","846248","0.0-242.0-0.0","18981015","wem/bandit_party_2","A360G5G0DVWU7X","either","4","108","","","","","","","1","0","0","0.4751543938","","0.4","0.6","0.8","0.2","","","","","0.3812211227","0.4548125401","0.2848283651","0.4751543938","","","","","","","","","","76","L","3","","","201","main_expt",""
"","bandit","281","847787","0.0-243.0-0.0","18981015","wem/bandit_party_2","A360G5G0DVWU7X","either","4","24","","","","","","","0","0","1","0.4044794657","","0.4","0.6","0.8","0.2","","","","","0.4414728031","0.5767771981","0.2439676923","0.4044794657","","","","","","","","","","76","L","3","","","202","main_expt",""
"","bandit","282","849510","0.0-244.0-0.0","18981015","wem/bandit_party_2","A360G5G0DVWU7X","either","4","210","","","","","","","0","0","1","0.2582922662","","0.4","0.6","0.8","0.2","","","","","0.3698030662","0.6118171827","0.2582922662","0.3321077444","","","","","","","","","","75","K","2","","","203","main_expt",""
"","bandit","283","851215","0.0-245.0-0.0","18981015","wem/bandit_party_2","A360G5G0DVWU7X","either","4","196","","","","","","","1","0","0","0.3799793739","","0.4","0.6","0.8","0.2","","","","","0.4899087748","0.5373194108","0.3799793739","0.3697340749","","","","","","","","","","75","K","2","","","204","main_expt",""
"","bandit","284","852822","0.0-246.0-0.0","18981015","wem/bandit_party_2","A360G5G0DVWU7X","either","4","92","","","","","","","1","0","0","0.5501461309","","0.4","0.6","0.8","0.2","","","","","0.4310108402","0.5501461309","0.4441528059","0.3998168993","","","","","","","","","","74","J","1","","","205","main_expt",""
"","bandit","285","854722","0.0-247.0-0.0","18981015","wem/bandit_party_2","A360G5G0DVWU7X","either","4","393","","","","","","","0","0","1","","0.5094027242","0.4","0.6","0.8","0.2","0.3912115078","0.5094027242","0.4468516792","0.4929909192","","","","","","","","","","","","","","74","J","1","","","206","main_expt",""
"","bandit","286","856593","0.0-248.0-0.0","18981015","wem/bandit_party_2","A360G5G0DVWU7X","either","4","357","","","","","","","0","0","1","0.3195818707","","0.4","0.6","0.8","0.2","","","","","0.3195818707","0.6449696869","0.399366085","0.4960693894","","","","","","","","","","72","H","0","img/none_selected.jpg","","207","main_expt",""
"","bandit","287","858394","0.0-249.0-0.0","18981015","wem/bandit_party_2","A360G5G0DVWU7X","either","4","290","","","","","","","0","0","1","0.2378171997","","0.4","0.6","0.8","0.2","","","","","0.2378171997","0.549996868","0.4206610772","0.3912862986","","","","","","","","","","72","H","0","img/none_selected.jpg","","208","main_expt",""
"","bandit","288","863234","0.0-250.0-0.0","18981015","wem/bandit_party_2","A360G5G0DVWU7X","either","4","3327","","","","","","","0","1","0","","0.5145499259","0.4","0.6","0.8","0.2","0.2339104391","0.5258833792","0.5145499259","0.4218938049","","","","","","","","","","","","","","75","K","2","","","209","main_expt",""
"","bandit","289","865069","0.0-251.0-0.0","18981015","wem/bandit_party_2","A360G5G0DVWU7X","either","4","325","","","","","","","0","1","0","","0.3497539355","0.4","0.6","0.8","0.2","0.2506558306","0.5453980868","0.3497539355","0.6003160005","","","","","","","","","","","","","","75","K","2","","","210","main_expt",""
"","bandit","290","866998","0.0-252.0-0.0","18981015","wem/bandit_party_2","A360G5G0DVWU7X","either","4","410","","","","","","","1","0","0","0.5481562991","","0.4","0.6","0.8","0.2","","","","","0.3466578502","0.5370950561","0.3335821388","0.5481562991","","","","","","","","","","76","L","3","","","211","main_expt",""
"","bandit","291","868825","0.0-253.0-0.0","18981015","wem/bandit_party_2","A360G5G0DVWU7X","either","4","313","","","","","","","0","1","0","","0.6210595125","0.4","0.6","0.8","0.2","0.4162959965","0.5774996514","0.2778022227","0.6210595125","","","","","","","","","","","","","","76","L","3","","","212","main_expt",""
"","bandit","292","870764","0.0-254.0-0.0","18981015","wem/bandit_party_2","A360G5G0DVWU7X","either","4","421","","","","","","","0","1","0","","0.545788555","0.4","0.6","0.8","0.2","0.545788555","0.4826056363","0.2949104287","0.7732161257","","","","","","","","","","","","","","72","H","0","img/none_selected.jpg","","213","main_expt",""
"","bandit","293","872620","0.0-255.0-0.0","18981015","wem/bandit_party_2","A360G5G0DVWU7X","either","4","337","","","","","","","0","1","0","","0.6077749924","0.4","0.6","0.8","0.2","0.6077749924","0.4913277851","0.2443343027","0.7689771773","","","","","","","","","","","","","","72","H","0","img/none_selected.jpg","","214","main_expt",""
"","bandit","294","874164","0.0-256.0-0.0","18981015","wem/bandit_party_2","A360G5G0DVWU7X","either","4","29","","","","","","","1","0","0","0.5415006571","","0.4","0.6","0.8","0.2","","","","","0.4883429648","0.5415006571","0.2232989174","0.6841712945","","","","","","","","","","74","J","1","","","215","main_expt",""
"","bandit","295","876181","0.0-257.0-0.0","18981015","wem/bandit_party_2","A360G5G0DVWU7X","either","4","502","","","","","","","0","0","1","0.5198015267","","0.4","0.6","0.8","0.2","","","","","0.3309854328","0.5198015267","0.2918619336","0.7019934296","","","","","","","","","","74","J","1","","","216","main_expt",""
"","bandit","296","878077","0.0-258.0-0.0","18981015","wem/bandit_party_2","A360G5G0DVWU7X","either","4","385","","","","","","","0","0","1","0.3571058798","","0.4","0.6","0.8","0.2","","","","","0.3310528633","0.545097872","0.3571058798","0.7537099884","","","","","","","","","","75","K","2","","","217","main_expt",""
"","bandit","297","879732","0.0-259.0-0.0","18981015","wem/bandit_party_2","A360G5G0DVWU7X","either","4","140","","","","","","","0","0","1","","0.3738303097","0.4","0.6","0.8","0.2","0.4147218791","0.5776025334","0.3738303097","0.8428980993","","","","","","","","","","","","","","75","K","2","","","218","main_expt",""
"","bandit","298","881255","0.0-260.0-0.0","18981015","wem/bandit_party_2","A360G5G0DVWU7X","either","4","0","","","","","","","0","1","0","","0.8007326434","0.4","0.6","0.8","0.2","0.3402104323","0.5616346574","0.4832874948","0.8007326434","","","","","","","","","","","","","","76","L","3","","","219","main_expt",""
"","bandit","299","883094","0.0-261.0-0.0","18981015","wem/bandit_party_2","A360G5G0DVWU7X","either","4","329","","","","","","","0","1","0","","0.8518850648","0.4","0.6","0.8","0.2","0.3448871422","0.6261942659","0.475455537","0.8518850648","","","","","","","","","","","","","","76","L","3","","","220","main_expt",""
"","bandit","300","884717","0.0-262.0-0.0","18981015","wem/bandit_party_2","A360G5G0DVWU7X","either","4","108","","","","","","","0","0","1","0.4438284365","","0.4","0.6","0.8","0.2","","","","","0.4438284365","0.6533416475","0.3849790123","0.8488451861","","","","","","","","","","72","H","0","img/none_selected.jpg","","221","main_expt",""
"","bandit","301","887027","0.0-263.0-0.0","18981015","wem/bandit_party_2","A360G5G0DVWU7X","either","4","801","","","","","","","1","0","0","0.3768672835","","0.4","0.6","0.8","0.2","","","","","0.3768672835","0.6780524799","0.2708628555","0.8202185963","","","","","","","","","","72","H","0","img/none_selected.jpg","","222","main_expt",""
"","bandit","302","889172","0.0-264.0-0.0","18981015","wem/bandit_party_2","A360G5G0DVWU7X","either","4","635","","","","","","","0","0","1","0.638470603","","0.4","0.6","0.8","0.2","","","","","0.4599748191","0.638470603","0.3886191555","0.839196386","","","","","","","","","","74","J","1","","","223","main_expt",""
"","bandit","303","891325","0.0-265.0-0.0","18981015","wem/bandit_party_2","A360G5G0DVWU7X","either","4","641","","","","","","","1","0","0","0.560582988","","0.4","0.6","0.8","0.2","","","","","0.5868274652","0.560582988","0.3352763987","0.8340435664","","","","","","","","","","74","J","1","","","224","main_expt",""
"","bandit","304","893245","0.0-266.0-0.0","18981015","wem/bandit_party_2","A360G5G0DVWU7X","either","4","408","","","","","","","0","0","1","0.3948846532","","0.4","0.6","0.8","0.2","","","","","0.510759767","0.5004803289","0.3948846532","0.8229669419","","","","","","","","","","75","K","2","","","225","main_expt",""
"","bandit","305","895104","0.0-267.0-0.0","18981015","wem/bandit_party_2","A360G5G0DVWU7X","either","4","348","","","","","","","0","0","1","0.385279681","","0.4","0.6","0.8","0.2","","","","","0.6026028704","0.5109709899","0.385279681","0.8326575293","","","","","","","","","","75","K","2","","","226","main_expt",""
"","bandit","306","896776","0.0-268.0-0.0","18981015","wem/bandit_party_2","A360G5G0DVWU7X","either","4","163","","","","","","","0","1","0","","0.8904476858","0.4","0.6","0.8","0.2","0.588132951","0.4271661703","0.3296530349","0.8904476858","","","","","","","","","","","","","","76","L","3","","","227","main_expt",""
"","bandit","307","898811","0.0-269.0-0.0","18981015","wem/bandit_party_2","A360G5G0DVWU7X","either","4","524","","","","","","","0","1","0","","0.8877596604","0.4","0.6","0.8","0.2","0.5754590721","0.374673526","0.4227788413","0.8877596604","","","","","","","","","","","","","","76","L","3","","","228","main_expt",""
"","bandit","308","900581","0.0-270.0-0.0","18981015","wem/bandit_party_2","A360G5G0DVWU7X","either","4","257","","","","","","","0","0","1","0.6311951266","","0.4","0.6","0.8","0.2","","","","","0.6311951266","0.393435759","0.4470353227","0.8647697669","","","","","","","","","","72","H","0","img/none_selected.jpg","","229","main_expt",""
"","bandit","309","902374","0.0-271.0-0.0","18981015","wem/bandit_party_2","A360G5G0DVWU7X","either","4","281","","","","","","","0","1","0","","0.6164228117","0.4","0.6","0.8","0.2","0.6164228117","0.3299431778","0.2986819632","0.8704214291","","","","","","","","","","","","","","72","H","0","img/none_selected.jpg","","230","main_expt",""
"","bandit","310","904346","0.0-272.0-0.0","18981015","wem/bandit_party_2","A360G5G0DVWU7X","either","4","463","","","","","","","0","0","1","","0.3477061432","0.4","0.6","0.8","0.2","0.5943568022","0.3477061432","0.4508866759","0.8598686354","","","","","","","","","","","","","","74","J","1","","","231","main_expt",""
"","bandit","311","906229","0.0-273.0-0.0","18981015","wem/bandit_party_2","A360G5G0DVWU7X","either","4","372","","","","","","","0","0","1","","0.3430234075","0.4","0.6","0.8","0.2","0.6032910051","0.3430234075","0.5125968159","0.7939027672","","","","","","","","","","","","","","74","J","1","","","232","main_expt",""
"","bandit","312","907980","0.0-274.0-0.0","18981015","wem/bandit_party_2","A360G5G0DVWU7X","either","4","242","","","","","","","0","0","1","0.2812772396","","0.4","0.6","0.8","0.2","","","","","0.7225660168","0.2812772396","0.6020802482","0.7930400566","","","","","","","","","","74","J","1","","","233","main_expt",""
"","bandit","313","912184","0.0-275.0-0.0","18981015","wem/bandit_party_2","A360G5G0DVWU7X","either","4","2693","","","","","","","1","0","0","0.5927943616","","0.4","0.6","0.8","0.2","","","","","0.6718439238","0.2049555934","0.5927943616","0.7549101179","","","","","","","","","","75","K","2","","","234","main_expt",""
"","bandit","314","913884","0.0-276.0-0.0","18981015","wem/bandit_party_2","A360G5G0DVWU7X","either","4","189","","","","","","","0","1","0","","0.5814417759","0.4","0.6","0.8","0.2","0.6025803433","0.144612338","0.5814417759","0.7654291135","","","","","","","","","","","","","","75","K","2","","","235","main_expt",""
"","bandit","315","915483","0.0-277.0-0.0","18981015","wem/bandit_party_2","A360G5G0DVWU7X","either","4","91","","","","","","","1","0","0","0.6530024001","","0.4","0.6","0.8","0.2","","","","","0.6170166349","0.1509581517","0.6530024001","0.6965918162","","","","","","","","","","75","K","2","","","236","main_expt",""
"","bandit","316","917351","0.0-278.0-0.0","18981015","wem/bandit_party_2","A360G5G0DVWU7X","either","4","354","","","","","","","1","0","0","0.5861490443","","0.4","0.6","0.8","0.2","","","","","0.6426153702","0.2267465707","0.5861490443","0.8151927982","","","","","","","","","","75","K","2","","","237","main_expt",""
"","bandit","317","919057","0.0-279.0-0.0","18981015","wem/bandit_party_2","A360G5G0DVWU7X","either","4","192","","","","","","","0","0","1","0.6086881899","","0.4","0.6","0.8","0.2","","","","","0.5421138037","0.1651127221","0.6086881899","0.7696745118","","","","","","","","","","75","K","2","","","238","main_expt",""
