"consent","trial_type","trial_index","time_elapsed","internal_node_id","subjID","study","MID","cond","drift","rt","responses","button_pressed","key_press","like","value","connected","gems","bombs","no_reward","GemPrChosen","BombPrChosen","GainOverPainPr_0","GainOverPainPr_1","GainOverPainPr_2","GainOverPainPr_3","LosePr_0","LosePr_1","LosePr_2","LosePr_3","WinPr_0","WinPr_1","WinPr_2","WinPr_3","Q0","Q1","Q2","gender","age","ethnicity","label","expt_phase","target","respCharCode","respKey","respChoiceNum","respChoice","practice","trial_counter","trial_label","Q0_index"
"GDM/GDM_behavioral_consent_30min_online.html","consent","0","13015","0.0-0.0","19283408","wem/bandit_party_2","A3L5XFNSOY6QET","either","4","","","","","","","","","","","","","","","","","","","","","","","","","","","","","","","","","","","","","","","","",""
"","survey-text","1","17471","0.0-1.0","19283408","wem/bandit_party_2","A3L5XFNSOY6QET","either","4","3447","{""Q0"":""A3L5XFNSOY6QET""}","","","","","","","","","","","","","","","","","","","","","","","","","","","","","","","","","","","","","","",""
"","button-response","2","19821","0.0-2.0","19283408","wem/bandit_party_2","A3L5XFNSOY6QET","either","4","1343","","1","","","","","","","","","","","","","","","","","","","","","","","","","","","","","","","","","","","","","",""
"","text-replacement","3","27499","0.0-3.0","19283408","wem/bandit_party_2","A3L5XFNSOY6QET","either","4","6666","","","32","","","","","","","","","","","","","","","","","","","","","","","","","","","","","","","","","","","","",""
"","text-replacement","4","34441","0.0-4.0","19283408","wem/bandit_party_2","A3L5XFNSOY6QET","either","4","6940","","","32","","","","","","","","","","","","","","","","","","","","","","","","","","","","","","","","","","","","",""
"","identification","5","38942","0.0-6.0-0.0","19283408","wem/bandit_party_2","A3L5XFNSOY6QET","either","4","4479","","","","6","6","6","","","","","","","","","","","","","","","","","","","","","","","","pre","identification_pre","the Democratic Party","","","","","","","",""
"","identification","6","42134","0.0-6.0-1.0","19283408","wem/bandit_party_2","A3L5XFNSOY6QET","either","4","2173","","","","0","0","0","","","","","","","","","","","","","","","","","","","","","","","","pre","identification_pre","the Republican Party","","","","","","","",""
"","text-replacement","7","52714","0.0-7.0","19283408","wem/bandit_party_2","A3L5XFNSOY6QET","either","4","9577","","","32","","","","","","","","","","","","","","","","","","","","","","","","","","","","","","","","","","","","",""
"","text-replacement","8","59114","0.0-8.0","19283408","wem/bandit_party_2","A3L5XFNSOY6QET","either","4","6398","","","32","","","","","","","","","","","","","","","","","","","","","","","","","","","","","","","","","","","","",""
"","text-replacement","9","65313","0.0-9.0","19283408","wem/bandit_party_2","A3L5XFNSOY6QET","either","4","6196","","","32","","","","","","","","","","","","","","","","","","","","","","","","","","","","","","","","","","","","",""
"","text-replacement","10","67721","0.0-10.0","19283408","wem/bandit_party_2","A3L5XFNSOY6QET","either","4","2406","","","32","","","","","","","","","","","","","","","","","","","","","","","","","","","","","","","","","","","","",""
"","text-replacement","11","73153","0.0-11.0","19283408","wem/bandit_party_2","A3L5XFNSOY6QET","either","4","5430","","","32","","","","","","","","","","","","","","","","","","","","","","","","","","","","","","","","","","","","",""
"","bandit","12","77802","0.0-12.0-0.0","19283408","wem/bandit_party_2","A3L5XFNSOY6QET","either","4","3138","","","","","","","0","0","1","0","0","","","","","0","","","","0","","","","","","","","","","","","","74","J","0","img/none_selected_demo.jpg","true","0","",""
"","bandit","13","80841","0.0-13.0-0.0","19283408","wem/bandit_party_2","A3L5XFNSOY6QET","either","4","1531","","","","","","","0","0","1","0","0","","","","","0","","","","0","","","","","","","","","","","","","75","K","0","img/none_selected_demo.jpg","true","0","",""
"","text-replacement","14","86377","0.0-14.0","19283408","wem/bandit_party_2","A3L5XFNSOY6QET","either","4","5533","","","32","","","","","","","","","","","","","","","","","","","","","","","","","","","","","","","","","","","","",""
"","text-replacement","15","89848","0.0-15.0","19283408","wem/bandit_party_2","A3L5XFNSOY6QET","either","4","3469","","","32","","","","","","","","","","","","","","","","","","","","","","","","","","","","","","","","","","","","",""
"","text-replacement","16","94977","0.0-16.0","19283408","wem/bandit_party_2","A3L5XFNSOY6QET","either","4","5127","","","32","","","","","","","","","","","","","","","","","","","","","","","","","","","","","","","","","","","","",""
"","text-replacement","17","96633","0.0-17.0","19283408","wem/bandit_party_2","A3L5XFNSOY6QET","either","4","1654","","","32","","","","","","","","","","","","","","","","","","","","","","","","","","","","","","","","","","","","",""
"","bandit","18","98649","0.0-18.0-0.0","19283408","wem/bandit_party_2","A3L5XFNSOY6QET","either","4","509","","","","","","","1","0","0","0.8","","0.5","0.5","","","","","","","0.8","0.2","","","","","","","","","","","","74","J","0","img/none_selected_demo.jpg","true","0","80_20_practice",""
"","bandit","19","100499","0.0-18.0-1.0","19283408","wem/bandit_party_2","A3L5XFNSOY6QET","either","4","339","","","","","","","0","0","1","0.8","","0.5","0.5","","","","","","","0.8","0.2","","","","","","","","","","","","74","J","0","img/none_selected_demo.jpg","true","0","80_20_practice",""
"","bandit","20","102352","0.0-18.0-2.0","19283408","wem/bandit_party_2","A3L5XFNSOY6QET","either","4","345","","","","","","","0","0","1","","0.8","0.5","0.5","","","0.8","0.2","","","","","","","","","","","","","","","","74","J","0","img/none_selected_demo.jpg","true","0","80_20_practice",""
"","bandit","21","104209","0.0-18.0-3.0","19283408","wem/bandit_party_2","A3L5XFNSOY6QET","either","4","348","","","","","","","1","0","0","0.8","","0.5","0.5","","","","","","","0.8","0.2","","","","","","","","","","","","74","J","0","img/none_selected_demo.jpg","true","0","80_20_practice",""
"","bandit","22","106056","0.0-18.0-4.0","19283408","wem/bandit_party_2","A3L5XFNSOY6QET","either","4","339","","","","","","","0","1","0","","0.8","0.5","0.5","","","0.8","0.2","","","","","","","","","","","","","","","","74","J","0","img/none_selected_demo.jpg","true","0","80_20_practice",""
"","bandit","23","109481","0.0-18.0-5.0","19283408","wem/bandit_party_2","A3L5XFNSOY6QET","either","4","1916","","","","","","","0","1","0","","0.8","0.5","0.5","","","0.8","0.2","","","","","","","","","","","","","","","","74","J","0","img/none_selected_demo.jpg","true","0","80_20_practice",""
"","bandit","24","111257","0.0-18.0-6.0","19283408","wem/bandit_party_2","A3L5XFNSOY6QET","either","4","266","","","","","","","0","0","1","","0.8","0.5","0.5","","","0.8","0.2","","","","","","","","","","","","","","","","74","J","0","img/none_selected_demo.jpg","true","0","80_20_practice",""
"","bandit","25","113328","0.0-18.0-7.0","19283408","wem/bandit_party_2","A3L5XFNSOY6QET","either","4","563","","","","","","","0","1","0","","0.8","0.5","0.5","","","0.8","0.2","","","","","","","","","","","","","","","","74","J","0","img/none_selected_demo.jpg","true","0","80_20_practice",""
"","bandit","26","115160","0.0-18.0-8.0","19283408","wem/bandit_party_2","A3L5XFNSOY6QET","either","4","324","","","","","","","0","1","0","","0.8","0.5","0.5","","","0.8","0.2","","","","","","","","","","","","","","","","74","J","0","img/none_selected_demo.jpg","true","0","80_20_practice",""
"","bandit","27","117032","0.0-18.0-9.0","19283408","wem/bandit_party_2","A3L5XFNSOY6QET","either","4","365","","","","","","","1","0","0","0.8","","0.5","0.5","","","","","","","0.8","0.2","","","","","","","","","","","","74","J","0","img/none_selected_demo.jpg","true","0","80_20_practice",""
"","bandit","28","118920","0.0-18.0-10.0","19283408","wem/bandit_party_2","A3L5XFNSOY6QET","either","4","378","","","","","","","0","1","0","","0.8","0.5","0.5","","","0.8","0.2","","","","","","","","","","","","","","","","74","J","0","img/none_selected_demo.jpg","true","0","80_20_practice",""
"","bandit","29","120729","0.0-18.0-11.0","19283408","wem/bandit_party_2","A3L5XFNSOY6QET","either","4","299","","","","","","","1","0","0","0.8","","0.5","0.5","","","","","","","0.8","0.2","","","","","","","","","","","","74","J","0","img/none_selected_demo.jpg","true","0","80_20_practice",""
"","bandit","30","122632","0.0-18.0-12.0","19283408","wem/bandit_party_2","A3L5XFNSOY6QET","either","4","396","","","","","","","0","1","0","","0.8","0.5","0.5","","","0.8","0.2","","","","","","","","","","","","","","","","74","J","0","img/none_selected_demo.jpg","true","0","80_20_practice",""
"","bandit","31","124793","0.0-18.0-13.0","19283408","wem/bandit_party_2","A3L5XFNSOY6QET","either","4","652","","","","","","","1","0","0","0.8","","0.5","0.5","","","","","","","0.8","0.2","","","","","","","","","","","","74","J","0","img/none_selected_demo.jpg","true","0","80_20_practice",""
"","bandit","32","126776","0.0-18.0-14.0","19283408","wem/bandit_party_2","A3L5XFNSOY6QET","either","4","474","","","","","","","1","0","0","0.8","","0.5","0.5","","","","","","","0.8","0.2","","","","","","","","","","","","74","J","0","img/none_selected_demo.jpg","true","0","80_20_practice",""
"","bandit","33","128600","0.0-18.0-15.0","19283408","wem/bandit_party_2","A3L5XFNSOY6QET","either","4","316","","","","","","","0","0","1","0.8","","0.5","0.5","","","","","","","0.8","0.2","","","","","","","","","","","","74","J","0","img/none_selected_demo.jpg","true","0","80_20_practice",""
"","bandit","34","130434","0.0-18.0-16.0","19283408","wem/bandit_party_2","A3L5XFNSOY6QET","either","4","324","","","","","","","0","0","1","","0.2","0.5","0.5","","","0.8","0.2","","","","","","","","","","","","","","","","75","K","1","","true","0","80_20_practice",""
"","bandit","35","132239","0.0-18.0-17.0","19283408","wem/bandit_party_2","A3L5XFNSOY6QET","either","4","297","","","","","","","0","0","1","0.2","","0.5","0.5","","","","","","","0.8","0.2","","","","","","","","","","","","75","K","1","","true","0","80_20_practice",""
"","bandit","36","134088","0.0-18.0-18.0","19283408","wem/bandit_party_2","A3L5XFNSOY6QET","either","4","340","","","","","","","0","0","1","","0.2","0.5","0.5","","","0.8","0.2","","","","","","","","","","","","","","","","75","K","1","","true","0","80_20_practice",""
"","bandit","37","135921","0.0-18.0-19.0","19283408","wem/bandit_party_2","A3L5XFNSOY6QET","either","4","324","","","","","","","0","0","1","","0.8","0.5","0.5","","","0.8","0.2","","","","","","","","","","","","","","","","74","J","0","img/none_selected_demo.jpg","true","0","80_20_practice",""
"","text-replacement","38","141496","0.0-19.0","19283408","wem/bandit_party_2","A3L5XFNSOY6QET","either","4","5572","","","32","","","","","","","","","","","","","","","","","","","","","","","","","","","","","","","","","","","","",""
"","bandit","39","143587","0.0-20.0-0.0","19283408","wem/bandit_party_2","A3L5XFNSOY6QET","either","4","580","","","","","","","1","0","0","1","0","","","","","0","1","","","1","0","","","","","","","","","","","","74","J","0","img/none_selected_demo.jpg","true","0","",""
"","text-replacement","40","148392","0.0-21.0","19283408","wem/bandit_party_2","A3L5XFNSOY6QET","either","4","4801","","","74","","","","","","","","","","","","","","","","","","","","","","","","","","","","","","","","","","","","",""
"","text-replacement","41","151202","0.0-22.0","19283408","wem/bandit_party_2","A3L5XFNSOY6QET","either","4","2807","","","32","","","","","","","","","","","","","","","","","","","","","","","","","","","","","","","","","","","","",""
"","text-replacement","42","153672","0.0-23.0","19283408","wem/bandit_party_2","A3L5XFNSOY6QET","either","4","2469","","","32","","","","","","","","","","","","","","","","","","","","","","","","","","","","","","","","","","","","",""
"","text-replacement","43","156408","0.0-24.0","19283408","wem/bandit_party_2","A3L5XFNSOY6QET","either","4","2733","","","32","","","","","","","","","","","","","","","","","","","","","","","","","","","","","","","","","","","","",""
"","text-replacement","44","164112","0.0-25.0","19283408","wem/bandit_party_2","A3L5XFNSOY6QET","either","4","7701","","","32","","","","","","","","","","","","","","","","","","","","","","","","","","","","","","","","","","","","",""
"","text-replacement","45","166480","0.0-26.0","19283408","wem/bandit_party_2","A3L5XFNSOY6QET","either","4","2365","","","32","","","","","","","","","","","","","","","","","","","","","","","","","","","","","","","","","","","","",""
"","text-replacement","46","169983","0.0-27.0","19283408","wem/bandit_party_2","A3L5XFNSOY6QET","either","4","3501","","","32","","","","","","","","","","","","","","","","","","","","","","","","","","","","","","","","","","","","",""
"","text-replacement","47","173424","0.0-28.0","19283408","wem/bandit_party_2","A3L5XFNSOY6QET","either","4","3437","","","32","","","","","","","","","","","","","","","","","","","","","","","","","","","","","","","","","","","","",""
"","text-replacement","48","178008","0.0-29.0","19283408","wem/bandit_party_2","A3L5XFNSOY6QET","either","4","4582","","","32","","","","","","","","","","","","","","","","","","","","","","","","","","","","","","","","","","","","",""
"","text-replacement","49","180968","0.0-30.0","19283408","wem/bandit_party_2","A3L5XFNSOY6QET","either","4","2956","","","32","","","","","","","","","","","","","","","","","","","","","","","","","","","","","","","","","","","","",""
"","text-replacement","50","183513","0.0-31.0","19283408","wem/bandit_party_2","A3L5XFNSOY6QET","either","4","2542","","","32","","","","","","","","","","","","","","","","","","","","","","","","","","","","","","","","","","","","",""
"","bandit","51","185635","0.0-32.0-0.0","19283408","wem/bandit_party_2","A3L5XFNSOY6QET","either","4","611","","","","","","","0","0","1","","0.2","0.5","0.5","0.5","0.5","0.8","0.2","0.6","0.2","","","","","","","","","","","","","","74","J","1","","true","0","full_practice",""
"","bandit","52","187593","0.0-32.0-1.0","19283408","wem/bandit_party_2","A3L5XFNSOY6QET","either","4","450","","","","","","","0","0","1","","0.2","0.5","0.5","0.5","0.5","0.8","0.2","0.6","0.2","","","","","","","","","","","","","","74","J","1","","true","0","full_practice",""
"","bandit","53","189337","0.0-32.0-2.0","19283408","wem/bandit_party_2","A3L5XFNSOY6QET","either","4","234","","","","","","","0","0","1","0.6","","0.5","0.5","0.5","0.5","","","","","0.8","0.2","0.6","0.2","","","","","","","","","","75","K","2","","true","0","full_practice",""
"","bandit","54","191002","0.0-32.0-3.0","19283408","wem/bandit_party_2","A3L5XFNSOY6QET","either","4","154","","","","","","","0","0","1","","0.2","0.5","0.5","0.5","0.5","0.8","0.2","0.6","0.2","","","","","","","","","","","","","","76","L","3","","true","0","full_practice",""
"","bandit","55","193912","0.0-32.0-4.0","19283408","wem/bandit_party_2","A3L5XFNSOY6QET","either","4","1402","","","","","","","0","0","1","0.8","","0.5","0.5","0.5","0.5","","","","","0.8","0.2","0.6","0.2","","","","","","","","","","72","H","0","img/none_selected.jpg","true","0","full_practice",""
"","bandit","56","196023","0.0-32.0-5.0","19283408","wem/bandit_party_2","A3L5XFNSOY6QET","either","4","603","","","","","","","0","0","1","0.2","","0.5","0.5","0.5","0.5","","","","","0.8","0.2","0.6","0.2","","","","","","","","","","74","J","1","","true","0","full_practice",""
"","bandit","57","197865","0.0-32.0-6.0","19283408","wem/bandit_party_2","A3L5XFNSOY6QET","either","4","332","","","","","","","1","0","0","0.8","","0.5","0.5","0.5","0.5","","","","","0.8","0.2","0.6","0.2","","","","","","","","","","72","H","0","img/none_selected.jpg","true","0","full_practice",""
"","bandit","58","199697","0.0-32.0-7.0","19283408","wem/bandit_party_2","A3L5XFNSOY6QET","either","4","322","","","","","","","1","0","0","0.8","","0.5","0.5","0.5","0.5","","","","","0.8","0.2","0.6","0.2","","","","","","","","","","72","H","0","img/none_selected.jpg","true","0","full_practice",""
"","bandit","59","201464","0.0-32.0-8.0","19283408","wem/bandit_party_2","A3L5XFNSOY6QET","either","4","259","","","","","","","1","0","0","0.8","","0.5","0.5","0.5","0.5","","","","","0.8","0.2","0.6","0.2","","","","","","","","","","72","H","0","img/none_selected.jpg","true","0","full_practice",""
"","bandit","60","203224","0.0-32.0-9.0","19283408","wem/bandit_party_2","A3L5XFNSOY6QET","either","4","252","","","","","","","0","1","0","","0.8","0.5","0.5","0.5","0.5","0.8","0.2","0.6","0.2","","","","","","","","","","","","","","72","H","0","img/none_selected.jpg","true","0","full_practice",""
"","bandit","61","204994","0.0-32.0-10.0","19283408","wem/bandit_party_2","A3L5XFNSOY6QET","either","4","260","","","","","","","1","0","0","0.8","","0.5","0.5","0.5","0.5","","","","","0.8","0.2","0.6","0.2","","","","","","","","","","72","H","0","img/none_selected.jpg","true","0","full_practice",""
"","bandit","62","206735","0.0-32.0-11.0","19283408","wem/bandit_party_2","A3L5XFNSOY6QET","either","4","232","","","","","","","1","0","0","0.8","","0.5","0.5","0.5","0.5","","","","","0.8","0.2","0.6","0.2","","","","","","","","","","72","H","0","img/none_selected.jpg","true","0","full_practice",""
"","bandit","63","208751","0.0-32.0-12.0","19283408","wem/bandit_party_2","A3L5XFNSOY6QET","either","4","508","","","","","","","1","0","0","0.8","","0.5","0.5","0.5","0.5","","","","","0.8","0.2","0.6","0.2","","","","","","","","","","72","H","0","img/none_selected.jpg","true","0","full_practice",""
"","bandit","64","210562","0.0-32.0-13.0","19283408","wem/bandit_party_2","A3L5XFNSOY6QET","either","4","301","","","","","","","0","1","0","","0.8","0.5","0.5","0.5","0.5","0.8","0.2","0.6","0.2","","","","","","","","","","","","","","72","H","0","img/none_selected.jpg","true","0","full_practice",""
"","bandit","65","212305","0.0-32.0-14.0","19283408","wem/bandit_party_2","A3L5XFNSOY6QET","either","4","234","","","","","","","0","0","1","0.8","","0.5","0.5","0.5","0.5","","","","","0.8","0.2","0.6","0.2","","","","","","","","","","72","H","0","img/none_selected.jpg","true","0","full_practice",""
"","bandit","66","214112","0.0-32.0-15.0","19283408","wem/bandit_party_2","A3L5XFNSOY6QET","either","4","296","","","","","","","0","1","0","","0.8","0.5","0.5","0.5","0.5","0.8","0.2","0.6","0.2","","","","","","","","","","","","","","72","H","0","img/none_selected.jpg","true","0","full_practice",""
"","bandit","67","215962","0.0-32.0-16.0","19283408","wem/bandit_party_2","A3L5XFNSOY6QET","either","4","338","","","","","","","1","0","0","0.8","","0.5","0.5","0.5","0.5","","","","","0.8","0.2","0.6","0.2","","","","","","","","","","72","H","0","img/none_selected.jpg","true","0","full_practice",""
"","bandit","68","217849","0.0-32.0-17.0","19283408","wem/bandit_party_2","A3L5XFNSOY6QET","either","4","377","","","","","","","0","0","1","","0.8","0.5","0.5","0.5","0.5","0.8","0.2","0.6","0.2","","","","","","","","","","","","","","72","H","0","img/none_selected.jpg","true","0","full_practice",""
"","bandit","69","219648","0.0-32.0-18.0","19283408","wem/bandit_party_2","A3L5XFNSOY6QET","either","4","289","","","","","","","1","0","0","0.8","","0.5","0.5","0.5","0.5","","","","","0.8","0.2","0.6","0.2","","","","","","","","","","72","H","0","img/none_selected.jpg","true","0","full_practice",""
"","bandit","70","221415","0.0-32.0-19.0","19283408","wem/bandit_party_2","A3L5XFNSOY6QET","either","4","258","","","","","","","0","1","0","","0.8","0.5","0.5","0.5","0.5","0.8","0.2","0.6","0.2","","","","","","","","","","","","","","72","H","0","img/none_selected.jpg","true","0","full_practice",""
"","text","71","225328","0.0-33.0","19283408","wem/bandit_party_2","A3L5XFNSOY6QET","either","4","3899","","","32","","","","","","","","","","","","","","","","","","","","","","","","","","","","","","","","","","","","",""
"","text-replacement","72","238944","0.0-34.0","19283408","wem/bandit_party_2","A3L5XFNSOY6QET","either","4","12610","","","32","","","","","","","","","","","","","","","","","","","","","","","","","","","","","","","","","","","","",""
"","text-replacement","73","251336","0.0-35.0","19283408","wem/bandit_party_2","A3L5XFNSOY6QET","either","4","12389","","","32","","","","","","","","","","","","","","","","","","","","","","","","","","","","","","","","","","","","",""
"","text-replacement","74","255079","0.0-36.0","19283408","wem/bandit_party_2","A3L5XFNSOY6QET","either","4","3740","","","32","","","","","","","","","","","","","","","","","","","","","","","","","","","","","","","","","","","","",""
"","text-replacement","75","260055","0.0-37.0","19283408","wem/bandit_party_2","A3L5XFNSOY6QET","either","4","4973","","","32","","","","","","","","","","","","","","","","","","","","","","","","","","","","","","","","","","","","",""
"","text-replacement","76","264103","0.0-38.0","19283408","wem/bandit_party_2","A3L5XFNSOY6QET","either","4","4045","","","32","","","","","","","","","","","","","","","","","","","","","","","","","","","","","","","","","","","","",""
"","survey-multi-choice-replacement","77","268267","0.0-39.0-0.0","19283408","wem/bandit_party_2","A3L5XFNSOY6QET","either","4","4152","","","","","","","","","","","","","","","","","","","","","","","","Money will be added to the pool for <span style='color:blue;'>DEMOCRATS</span>","","","","","","","attn_check","","","","","","","","","0"
"","survey-multi-choice-replacement","78","271890","0.0-40.0-0.0","19283408","wem/bandit_party_2","A3L5XFNSOY6QET","either","4","2608","","","","","","","","","","","","","","","","","","","","","","","","Equal amounts of money will be added to the pool for <span style='color:blue;'>DEMOCRATS</span> and subtracted from the pool for <span style='color:red;'>REPUBLICANS</span>","","","","","","","attn_check","","","","","","","","","2"
"","survey-multi-choice-replacement","79","276785","0.0-41.0-0.0","19283408","wem/bandit_party_2","A3L5XFNSOY6QET","either","4","3883","","","","","","","","","","","","","","","","","","","","","","","","No money will be added to either pool","","","","","","","attn_check","","","","","","","","","3"
"","bandit","80","281088","0.0-42.0-0.0","19283408","wem/bandit_party_2","A3L5XFNSOY6QET","either","4","1790","","","","","","","1","0","0","0.9858900825","","0.8","0.4","0.2","0.6","","","","","0.9858900825","0.2887693562","0.7267404998","0.8209843215","","","","","","","","","","72","H","0","img/none_selected.jpg","","1","main_expt",""
"","bandit","81","282870","0.0-43.0-0.0","19283408","wem/bandit_party_2","A3L5XFNSOY6QET","either","4","271","","","","","","","1","0","0","0.9854924354","","0.8","0.4","0.2","0.6","","","","","0.9854924354","0.2986217167","0.7034907646","0.8179122382","","","","","","","","","","72","H","0","img/none_selected.jpg","","2","main_expt",""
"","bandit","82","284863","0.0-44.0-0.0","19283408","wem/bandit_party_2","A3L5XFNSOY6QET","either","4","483","","","","","","","1","0","0","0.9789624529","","0.8","0.4","0.2","0.6","","","","","0.9789624529","0.261346942","0.6574847675","0.8301291561","","","","","","","","","","72","H","0","img/none_selected.jpg","","3","main_expt",""
"","bandit","83","286623","0.0-45.0-0.0","19283408","wem/bandit_party_2","A3L5XFNSOY6QET","either","4","250","","","","","","","1","0","0","0.9565345184","","0.8","0.4","0.2","0.6","","","","","0.9565345184","0.2757740293","0.5092805277","0.8219157537","","","","","","","","","","72","H","0","img/none_selected.jpg","","4","main_expt",""
"","bandit","84","288487","0.0-46.0-0.0","19283408","wem/bandit_party_2","A3L5XFNSOY6QET","either","4","354","","","","","","","1","0","0","0.941194936","","0.8","0.4","0.2","0.6","","","","","0.941194936","0.3329857669","0.5952926025","0.7759220463","","","","","","","","","","72","H","0","img/none_selected.jpg","","5","main_expt",""
"","bandit","85","290134","0.0-47.0-0.0","19283408","wem/bandit_party_2","A3L5XFNSOY6QET","either","4","137","","","","","","","1","0","0","0.9305219143","","0.8","0.4","0.2","0.6","","","","","0.9305219143","0.331878758","0.6160758637","0.7495930044","","","","","","","","","","72","H","0","img/none_selected.jpg","","6","main_expt",""
"","bandit","86","291862","0.0-48.0-0.0","19283408","wem/bandit_party_2","A3L5XFNSOY6QET","either","4","218","","","","","","","1","0","0","0.937738562","","0.8","0.4","0.2","0.6","","","","","0.937738562","0.3863389794","0.6381806331","0.7078030286","","","","","","","","","","72","H","0","img/none_selected.jpg","","7","main_expt",""
"","bandit","87","293656","0.0-49.0-0.0","19283408","wem/bandit_party_2","A3L5XFNSOY6QET","either","4","283","","","","","","","1","0","0","0.8269671957","","0.8","0.4","0.2","0.6","","","","","0.8269671957","0.4242016385","0.7047831713","0.689407674","","","","","","","","","","72","H","0","img/none_selected.jpg","","8","main_expt",""
"","bandit","88","295447","0.0-50.0-0.0","19283408","wem/bandit_party_2","A3L5XFNSOY6QET","either","4","279","","","","","","","1","0","0","0.7696709776","","0.8","0.4","0.2","0.6","","","","","0.7696709776","0.379169242","0.6222923336","0.7848236408","","","","","","","","","","72","H","0","img/none_selected.jpg","","9","main_expt",""
"","bandit","89","297720","0.0-51.0-0.0","19283408","wem/bandit_party_2","A3L5XFNSOY6QET","either","4","758","","","","","","","0","0","1","0.7313552403","","0.8","0.4","0.2","0.6","","","","","0.7313552403","0.40569916","0.5629201009","0.791363481","","","","","","","","","","72","H","0","img/none_selected.jpg","","10","main_expt",""
"","bandit","90","299888","0.0-52.0-0.0","19283408","wem/bandit_party_2","A3L5XFNSOY6QET","either","4","656","","","","","","","0","0","1","0.8129169819","","0.8","0.4","0.2","0.6","","","","","0.8129169819","0.4188021694","0.644159789","0.7800632456","","","","","","","","","","72","H","0","img/none_selected.jpg","","11","main_expt",""
"","bandit","91","301726","0.0-53.0-0.0","19283408","wem/bandit_party_2","A3L5XFNSOY6QET","either","4","326","","","","","","","1","0","0","0.7611571711","","0.8","0.4","0.2","0.6","","","","","0.7611571711","0.3689559917","0.6840372722","0.7559884596","","","","","","","","","","72","H","0","img/none_selected.jpg","","12","main_expt",""
"","bandit","92","303511","0.0-54.0-0.0","19283408","wem/bandit_party_2","A3L5XFNSOY6QET","either","4","274","","","","","","","0","1","0","","0.7628417147","0.8","0.4","0.2","0.6","0.7628417147","0.4584943612","0.6236151953","0.7695577991","","","","","","","","","","","","","","72","H","0","img/none_selected.jpg","","13","main_expt",""
"","bandit","93","305312","0.0-55.0-0.0","19283408","wem/bandit_party_2","A3L5XFNSOY6QET","either","4","289","","","","","","","1","0","0","0.7436451733","","0.8","0.4","0.2","0.6","","","","","0.7436451733","0.455083938","0.5388331182","0.8509931145","","","","","","","","","","72","H","0","img/none_selected.jpg","","14","main_expt",""
"","bandit","94","307117","0.0-56.0-0.0","19283408","wem/bandit_party_2","A3L5XFNSOY6QET","either","4","296","","","","","","","0","1","0","","0.8256008488","0.8","0.4","0.2","0.6","0.8256008488","0.5360112786","0.4802769188","0.7745856811","","","","","","","","","","","","","","72","H","0","img/none_selected.jpg","","15","main_expt",""
"","bandit","95","308870","0.0-57.0-0.0","19283408","wem/bandit_party_2","A3L5XFNSOY6QET","either","4","242","","","","","","","0","1","0","","0.7683027423","0.8","0.4","0.2","0.6","0.7683027423","0.4791571541","0.4688000192","0.7576521113","","","","","","","","","","","","","","72","H","0","img/none_selected.jpg","","16","main_expt",""
"","bandit","96","310646","0.0-58.0-0.0","19283408","wem/bandit_party_2","A3L5XFNSOY6QET","either","4","266","","","","","","","0","0","1","0.7857675768","","0.8","0.4","0.2","0.6","","","","","0.7857675768","0.5263630166","0.6000602573","0.8099558365","","","","","","","","","","72","H","0","img/none_selected.jpg","","17","main_expt",""
"","bandit","97","312434","0.0-59.0-0.0","19283408","wem/bandit_party_2","A3L5XFNSOY6QET","either","4","274","","","","","","","1","0","0","0.7303419725","","0.8","0.4","0.2","0.6","","","","","0.7303419725","0.543945959","0.6046592687","0.7535280451","","","","","","","","","","72","H","0","img/none_selected.jpg","","18","main_expt",""
"","bandit","98","314237","0.0-60.0-0.0","19283408","wem/bandit_party_2","A3L5XFNSOY6QET","either","4","294","","","","","","","1","0","0","0.7243255268","","0.8","0.4","0.2","0.6","","","","","0.7243255268","0.4579801682","0.6177236116","0.7206444799","","","","","","","","","","72","H","0","img/none_selected.jpg","","19","main_expt",""
"","bandit","99","316070","0.0-61.0-0.0","19283408","wem/bandit_party_2","A3L5XFNSOY6QET","either","4","323","","","","","","","1","0","0","0.7691283854","","0.8","0.4","0.2","0.6","","","","","0.7691283854","0.5439896582","0.5484637992","0.6388551968","","","","","","","","","","72","H","0","img/none_selected.jpg","","20","main_expt",""
"","bandit","100","317878","0.0-62.0-0.0","19283408","wem/bandit_party_2","A3L5XFNSOY6QET","either","4","297","","","","","","","0","0","1","0.7068464658","","0.8","0.4","0.2","0.6","","","","","0.7068464658","0.5796019833","0.6646151354","0.4956822649","","","","","","","","","","72","H","0","img/none_selected.jpg","","21","main_expt",""
"","bandit","101","319600","0.0-63.0-0.0","19283408","wem/bandit_party_2","A3L5XFNSOY6QET","either","4","209","","","","","","","1","0","0","0.7407239748","","0.8","0.4","0.2","0.6","","","","","0.7407239748","0.5885929095","0.7223938077","0.4316307404","","","","","","","","","","72","H","0","img/none_selected.jpg","","22","main_expt",""
"","bandit","102","321374","0.0-64.0-0.0","19283408","wem/bandit_party_2","A3L5XFNSOY6QET","either","4","264","","","","","","","1","0","0","0.7300920021","","0.8","0.4","0.2","0.6","","","","","0.7300920021","0.4899642796","0.7548690184","0.4158022912","","","","","","","","","","72","H","0","img/none_selected.jpg","","23","main_expt",""
"","bandit","103","323102","0.0-65.0-0.0","19283408","wem/bandit_party_2","A3L5XFNSOY6QET","either","4","218","","","","","","","0","0","1","0.7074307303","","0.8","0.4","0.2","0.6","","","","","0.7074307303","0.4984159311","0.7794954679","0.4099928258","","","","","","","","","","72","H","0","img/none_selected.jpg","","24","main_expt",""
"","bandit","104","324774","0.0-66.0-0.0","19283408","wem/bandit_party_2","A3L5XFNSOY6QET","either","4","162","","","","","","","0","0","1","0.6228099684","","0.8","0.4","0.2","0.6","","","","","0.6228099684","0.5885503773","0.8029664172","0.4303724308","","","","","","","","","","72","H","0","img/none_selected.jpg","","25","main_expt",""
"","bandit","105","326464","0.0-67.0-0.0","19283408","wem/bandit_party_2","A3L5XFNSOY6QET","either","4","177","","","","","","","0","0","1","","0.6978100054","0.8","0.4","0.2","0.6","0.5588879168","0.6978100054","0.6980766755","0.3291624114","","","","","","","","","","","","","","74","J","1","","","26","main_expt",""
"","bandit","106","328158","0.0-68.0-0.0","19283408","wem/bandit_party_2","A3L5XFNSOY6QET","either","4","184","","","","","","","0","0","1","","0.7021498626","0.8","0.4","0.2","0.6","0.5033257713","0.6442468271","0.7021498626","0.3795789415","","","","","","","","","","","","","","75","K","2","","","27","main_expt",""
"","bandit","107","330174","0.0-69.0-0.0","19283408","wem/bandit_party_2","A3L5XFNSOY6QET","either","4","507","","","","","","","1","0","0","0.3208573938","","0.8","0.4","0.2","0.6","","","","","0.4915102133","0.7399213538","0.7802436781","0.3208573938","","","","","","","","","","76","L","3","","","28","main_expt",""
"","bandit","108","331710","0.0-70.0-0.0","19283408","wem/bandit_party_2","A3L5XFNSOY6QET","either","4","26","","","","","","","0","0","1","","0.3352919619","0.8","0.4","0.2","0.6","0.4291187576","0.7520253205","0.6907923131","0.3352919619","","","","","","","","","","","","","","76","L","3","","","29","main_expt",""
"","bandit","109","333494","0.0-71.0-0.0","19283408","wem/bandit_party_2","A3L5XFNSOY6QET","either","4","274","","","","","","","1","0","0","0.3452717309","","0.8","0.4","0.2","0.6","","","","","0.5379907803","0.7528469829","0.6771306444","0.3452717309","","","","","","","","","","76","L","3","","","30","main_expt",""
"","bandit","110","335381","0.0-72.0-0.0","19283408","wem/bandit_party_2","A3L5XFNSOY6QET","either","4","378","","","","","","","0","0","1","","0.2967094522","0.8","0.4","0.2","0.6","0.646046857","0.7571908429","0.7130915948","0.2967094522","","","","","","","","","","","","","","76","L","3","","","31","main_expt",""
"","bandit","111","337270","0.0-73.0-0.0","19283408","wem/bandit_party_2","A3L5XFNSOY6QET","either","4","377","","","","","","","0","0","1","0.255781972","","0.8","0.4","0.2","0.6","","","","","0.5608885347","0.7530934884","0.6849190202","0.255781972","","","","","","","","","","76","L","3","","","32","main_expt",""
"","bandit","112","339157","0.0-74.0-0.0","19283408","wem/bandit_party_2","A3L5XFNSOY6QET","either","4","376","","","","","","","0","0","1","0.5952322697","","0.8","0.4","0.2","0.6","","","","","0.5952322697","0.7163673585","0.7392612035","0.2703771925","","","","","","","","","","72","H","0","img/none_selected.jpg","","33","main_expt",""
"","bandit","113","340846","0.0-75.0-0.0","19283408","wem/bandit_party_2","A3L5XFNSOY6QET","either","4","180","","","","","","","0","0","1","","0.7026009082","0.8","0.4","0.2","0.6","0.6206609301","0.6817248107","0.7026009082","0.3572673824","","","","","","","","","","","","","","75","K","2","","","34","main_expt",""
"","bandit","114","342608","0.0-76.0-0.0","19283408","wem/bandit_party_2","A3L5XFNSOY6QET","either","4","243","","","","","","","0","1","0","","0.6903641832","0.8","0.4","0.2","0.6","0.6223058769","0.6903641832","0.632003728","0.3237575066","","","","","","","","","","","","","","74","J","1","","","35","main_expt",""
"","bandit","115","344445","0.0-77.0-0.0","19283408","wem/bandit_party_2","A3L5XFNSOY6QET","either","4","327","","","","","","","0","1","0","","0.6953747248","0.8","0.4","0.2","0.6","0.7304722347","0.6953747248","0.7266912659","0.3724209237","","","","","","","","","","","","","","74","J","1","","","36","main_expt",""
"","bandit","116","346278","0.0-78.0-0.0","19283408","wem/bandit_party_2","A3L5XFNSOY6QET","either","4","322","","","","","","","1","0","0","0.7552078918","","0.8","0.4","0.2","0.6","","","","","0.6789706255","0.7552078918","0.5512211225","0.3848591071","","","","","","","","","","74","J","1","","","37","main_expt",""
"","bandit","117","348066","0.0-79.0-0.0","19283408","wem/bandit_party_2","A3L5XFNSOY6QET","either","4","273","","","","","","","0","1","0","","0.7095976639","0.8","0.4","0.2","0.6","0.6758320082","0.7095976639","0.5888446875","0.4026628424","","","","","","","","","","","","","","74","J","1","","","38","main_expt",""
"","bandit","118","349831","0.0-80.0-0.0","19283408","wem/bandit_party_2","A3L5XFNSOY6QET","either","4","254","","","","","","","0","1","0","","0.7813817897","0.8","0.4","0.2","0.6","0.753286291","0.7813817897","0.7349010221","0.460229008","","","","","","","","","","","","","","74","J","1","","","39","main_expt",""
"","bandit","119","351632","0.0-81.0-0.0","19283408","wem/bandit_party_2","A3L5XFNSOY6QET","either","4","289","","","","","","","0","0","1","","0.7604460558","0.8","0.4","0.2","0.6","0.7527041006","0.7604460558","0.6715391024","0.3392787789","","","","","","","","","","","","","","74","J","1","","","40","main_expt",""
"","bandit","120","353469","0.0-82.0-0.0","19283408","wem/bandit_party_2","A3L5XFNSOY6QET","either","4","326","","","","","","","0","0","1","","0.7588214983","0.8","0.4","0.2","0.6","0.7900808451","0.7588214983","0.688235262","0.2983701942","","","","","","","","","","","","","","74","J","1","","","41","main_expt",""
"","bandit","121","355208","0.0-83.0-0.0","19283408","wem/bandit_party_2","A3L5XFNSOY6QET","either","4","225","","","","","","","0","0","1","0.7261157662","","0.8","0.4","0.2","0.6","","","","","0.7261157662","0.8204813903","0.750516412","0.2390858253","","","","","","","","","","72","H","0","img/none_selected.jpg","","42","main_expt",""
"","bandit","122","356886","0.0-84.0-0.0","19283408","wem/bandit_party_2","A3L5XFNSOY6QET","either","4","166","","","","","","","0","1","0","","0.775378891","0.8","0.4","0.2","0.6","0.772887471","0.8310219988","0.775378891","0.1877526289","","","","","","","","","","","","","","75","K","2","","","43","main_expt",""
"","bandit","123","358688","0.0-85.0-0.0","19283408","wem/bandit_party_2","A3L5XFNSOY6QET","either","4","289","","","","","","","1","0","0","0.5983035632","","0.8","0.4","0.2","0.6","","","","","0.7359848823","0.8165903167","0.5983035632","0.2713877418","","","","","","","","","","75","K","2","","","44","main_expt",""
"","bandit","124","360487","0.0-86.0-0.0","19283408","wem/bandit_party_2","A3L5XFNSOY6QET","either","4","284","","","","","","","0","1","0","","0.6453890447","0.8","0.4","0.2","0.6","0.6223954065","0.6765015189","0.6453890447","0.2600408605","","","","","","","","","","","","","","75","K","2","","","45","main_expt",""
"","bandit","125","362142","0.0-87.0-0.0","19283408","wem/bandit_party_2","A3L5XFNSOY6QET","either","4","143","","","","","","","0","1","0","","0.4979639723","0.8","0.4","0.2","0.6","0.5963379238","0.6613510417","0.4979639723","0.2435580982","","","","","","","","","","","","","","75","K","2","","","46","main_expt",""
"","bandit","126","363877","0.0-88.0-0.0","19283408","wem/bandit_party_2","A3L5XFNSOY6QET","either","4","224","","","","","","","0","1","0","","0.4475739324","0.8","0.4","0.2","0.6","0.6161308884","0.7373034573","0.4475739324","0.3258971046","","","","","","","","","","","","","","75","K","2","","","47","main_expt",""
"","bandit","127","365654","0.0-89.0-0.0","19283408","wem/bandit_party_2","A3L5XFNSOY6QET","either","4","264","","","","","","","0","1","0","","0.570942939","0.8","0.4","0.2","0.6","0.6354722558","0.6580913366","0.570942939","0.2934977076","","","","","","","","","","","","","","75","K","2","","","48","main_expt",""
"","bandit","128","367469","0.0-90.0-0.0","19283408","wem/bandit_party_2","A3L5XFNSOY6QET","either","4","304","","","","","","","0","0","1","0.5943858444","","0.8","0.4","0.2","0.6","","","","","0.5941747261","0.6518545324","0.5943858444","0.3381222087","","","","","","","","","","75","K","2","","","49","main_expt",""
"","bandit","129","369077","0.0-91.0-0.0","19283408","wem/bandit_party_2","A3L5XFNSOY6QET","either","4","98","","","","","","","0","1","0","","0.72156704","0.8","0.4","0.2","0.6","0.5510631732","0.6362385309","0.72156704","0.4149653651","","","","","","","","","","","","","","75","K","2","","","50","main_expt",""
"","bandit","130","370677","0.0-92.0-0.0","19283408","wem/bandit_party_2","A3L5XFNSOY6QET","either","4","89","","","","","","","0","1","0","","0.6453884322","0.8","0.4","0.2","0.6","0.5580995271","0.6673370403","0.6453884322","0.315936401","","","","","","","","","","","","","","75","K","2","","","51","main_expt",""
"","bandit","131","372456","0.0-93.0-0.0","19283408","wem/bandit_party_2","A3L5XFNSOY6QET","either","4","265","","","","","","","0","1","0","","0.635653338","0.8","0.4","0.2","0.6","0.4492126091","0.6614759556","0.635653338","0.34776451","","","","","","","","","","","","","","75","K","2","","","52","main_expt",""
"","bandit","132","374144","0.0-94.0-0.0","19283408","wem/bandit_party_2","A3L5XFNSOY6QET","either","4","175","","","","","","","0","0","1","","0.5700640027","0.8","0.4","0.2","0.6","0.4600129001","0.5099009019","0.5700640027","0.2946288454","","","","","","","","","","","","","","75","K","2","","","53","main_expt",""
"","bandit","133","375750","0.0-95.0-0.0","19283408","wem/bandit_party_2","A3L5XFNSOY6QET","either","4","97","","","","","","","0","0","1","0.4535518587","","0.8","0.4","0.2","0.6","","","","","0.4005354829","0.5323874036","0.4535518587","0.3757560715","","","","","","","","","","75","K","2","","","54","main_expt",""
"","bandit","134","377623","0.0-96.0-0.0","19283408","wem/bandit_party_2","A3L5XFNSOY6QET","either","4","361","","","","","","","0","0","1","0.3258455482","","0.8","0.4","0.2","0.6","","","","","0.3305694417","0.5410243768","0.4271895083","0.3258455482","","","","","","","","","","76","L","3","","","55","main_expt",""
"","bandit","135","379197","0.0-97.0-0.0","19283408","wem/bandit_party_2","A3L5XFNSOY6QET","either","4","64","","","","","","","1","0","0","0.3443449075","","0.8","0.4","0.2","0.6","","","","","0.3443449075","0.5594159285","0.3506641683","0.4350401219","","","","","","","","","","72","H","0","img/none_selected.jpg","","56","main_expt",""
"","bandit","136","381016","0.0-98.0-0.0","19283408","wem/bandit_party_2","A3L5XFNSOY6QET","either","4","308","","","","","","","1","0","0","0.3719720486","","0.8","0.4","0.2","0.6","","","","","0.3719720486","0.5057935102","0.3266461122","0.3707313189","","","","","","","","","","72","H","0","img/none_selected.jpg","","57","main_expt",""
"","bandit","137","382785","0.0-99.0-0.0","19283408","wem/bandit_party_2","A3L5XFNSOY6QET","either","4","255","","","","","","","0","0","1","","0.2230753252","0.8","0.4","0.2","0.6","0.2230753252","0.4921421838","0.3024401834","0.5588799977","","","","","","","","","","","","","","72","H","0","img/none_selected.jpg","","58","main_expt",""
"","bandit","138","384566","0.0-100.0-0.0","19283408","wem/bandit_party_2","A3L5XFNSOY6QET","either","4","270","","","","","","","0","0","1","0.2255195526","","0.8","0.4","0.2","0.6","","","","","0.2255195526","0.4740341295","0.4306619987","0.6863198467","","","","","","","","","","72","H","0","img/none_selected.jpg","","59","main_expt",""
"","bandit","139","386598","0.0-101.0-0.0","19283408","wem/bandit_party_2","A3L5XFNSOY6QET","either","4","520","","","","","","","0","0","1","0.4853159436","","0.8","0.4","0.2","0.6","","","","","0.2150487889","0.4853159436","0.4710521126","0.6998437478","","","","","","","","","","74","J","1","","","60","main_expt",""
"","bandit","140","388438","0.0-102.0-0.0","19283408","wem/bandit_party_2","A3L5XFNSOY6QET","either","4","330","","","","","","","0","1","0","","0.4797168847","0.8","0.4","0.2","0.6","0.2670703017","0.4843563089","0.4797168847","0.7027468204","","","","","","","","","","","","","","75","K","2","","","61","main_expt",""
"","bandit","141","390287","0.0-103.0-0.0","19283408","wem/bandit_party_2","A3L5XFNSOY6QET","either","4","336","","","","","","","0","0","1","","0.441351191","0.8","0.4","0.2","0.6","0.1622034337","0.4970562682","0.441351191","0.7461433662","","","","","","","","","","","","","","75","K","2","","","62","main_expt",""
"","bandit","142","392046","0.0-104.0-0.0","19283408","wem/bandit_party_2","A3L5XFNSOY6QET","either","4","247","","","","","","","0","0","1","","0.6405696824","0.8","0.4","0.2","0.6","0.1872430185","0.4870743105","0.6405696824","0.7956877632","","","","","","","","","","","","","","75","K","2","","","63","main_expt",""
"","bandit","143","394055","0.0-105.0-0.0","19283408","wem/bandit_party_2","A3L5XFNSOY6QET","either","4","496","","","","","","","1","0","0","0.7533911137","","0.8","0.4","0.2","0.6","","","","","0.1921602407","0.5297884171","0.5093225209","0.7533911137","","","","","","","","","","76","L","3","","","64","main_expt",""
"","bandit","144","395863","0.0-106.0-0.0","19283408","wem/bandit_party_2","A3L5XFNSOY6QET","either","4","293","","","","","","","1","0","0","0.8407665504","","0.8","0.4","0.2","0.6","","","","","0.1747679693","0.5510281753","0.5190422554","0.8407665504","","","","","","","","","","76","L","3","","","65","main_expt",""
"","bandit","145","397710","0.0-107.0-0.0","19283408","wem/bandit_party_2","A3L5XFNSOY6QET","either","4","335","","","","","","","1","0","0","0.8392190168","","0.8","0.4","0.2","0.6","","","","","0.149475979","0.6548378986","0.4367989657","0.8392190168","","","","","","","","","","76","L","3","","","66","main_expt",""
"","bandit","146","399520","0.0-108.0-0.0","19283408","wem/bandit_party_2","A3L5XFNSOY6QET","either","4","296","","","","","","","0","0","1","0.7998105719","","0.8","0.4","0.2","0.6","","","","","0.1340316754","0.7873643744","0.4515976155","0.7998105719","","","","","","","","","","76","L","3","","","67","main_expt",""
"","bandit","147","401310","0.0-109.0-0.0","19283408","wem/bandit_party_2","A3L5XFNSOY6QET","either","4","278","","","","","","","1","0","0","0.4605235732","","0.8","0.4","0.2","0.6","","","","","0.1635100664","0.8374830125","0.4605235732","0.8055175736","","","","","","","","","","75","K","2","","","68","main_expt",""
"","bandit","148","402958","0.0-110.0-0.0","19283408","wem/bandit_party_2","A3L5XFNSOY6QET","either","4","136","","","","","","","0","1","0","","0.7948054761","0.8","0.4","0.2","0.6","0.1227365859","0.7948054761","0.3799115548","0.9157616325","","","","","","","","","","","","","","74","J","1","","","69","main_expt",""
"","bandit","149","404728","0.0-111.0-0.0","19283408","wem/bandit_party_2","A3L5XFNSOY6QET","either","4","257","","","","","","","1","0","0","0.8257183208","","0.8","0.4","0.2","0.6","","","","","0.1248437045","0.8257183208","0.4215965018","0.9575411193","","","","","","","","","","74","J","1","","","70","main_expt",""
"","bandit","150","406536","0.0-112.0-0.0","19283408","wem/bandit_party_2","A3L5XFNSOY6QET","either","4","292","","","","","","","0","0","1","","0.7378076352","0.8","0.4","0.2","0.6","0.1153860856","0.7378076352","0.4069040491","0.9604429572","","","","","","","","","","","","","","74","J","1","","","71","main_expt",""
"","bandit","151","408451","0.0-113.0-0.0","19283408","wem/bandit_party_2","A3L5XFNSOY6QET","either","4","272","","","","","","","0","1","0","","0.7402058239","0.8","0.4","0.2","0.6","0.1355011504","0.7402058239","0.4396577013","0.9598545795","","","","","","","","","","","","","","74","J","1","","","72","main_expt",""
"","bandit","152","416389","0.0-114.0-0.0","19283408","wem/bandit_party_2","A3L5XFNSOY6QET","either","4","6428","","","","","","","0","1","0","","0.6562772762","0.8","0.4","0.2","0.6","0.05996807606","0.6976791507","0.6562772762","0.944667289","","","","","","","","","","","","","","75","K","2","","","73","main_expt",""
"","bandit","153","418105","0.0-115.0-0.0","19283408","wem/bandit_party_2","A3L5XFNSOY6QET","either","4","201","","","","","","","0","0","1","","0.7918365236","0.8","0.4","0.2","0.6","0.05405538329","0.7918365236","0.6973429816","0.9226304804","","","","","","","","","","","","","","74","J","1","","","74","main_expt",""
"","bandit","154","419815","0.0-116.0-0.0","19283408","wem/bandit_party_2","A3L5XFNSOY6QET","either","4","198","","","","","","","0","0","1","","0.7736122178","0.8","0.4","0.2","0.6","0.02989929625","0.7822783488","0.7736122178","0.9398646798","","","","","","","","","","","","","","75","K","2","","","75","main_expt",""
"","bandit","155","421566","0.0-117.0-0.0","19283408","wem/bandit_party_2","A3L5XFNSOY6QET","either","4","235","","","","","","","1","0","0","0.9344412274","","0.8","0.4","0.2","0.6","","","","","0.0563551135","0.7290889389","0.8130420724","0.9344412274","","","","","","","","","","76","L","3","","","76","main_expt",""
"","bandit","156","423343","0.0-118.0-0.0","19283408","wem/bandit_party_2","A3L5XFNSOY6QET","either","4","262","","","","","","","1","0","0","0.9512527415","","0.8","0.4","0.2","0.6","","","","","0.0510075381","0.7903383215","0.8182773084","0.9512527415","","","","","","","","","","76","L","3","","","77","main_expt",""
"","bandit","157","425199","0.0-119.0-0.0","19283408","wem/bandit_party_2","A3L5XFNSOY6QET","either","4","344","","","","","","","0","1","0","","0.945324638","0.8","0.4","0.2","0.6","0.07280641377","0.8093770606","0.910984946","0.945324638","","","","","","","","","","","","","","76","L","3","","","78","main_expt",""
"","bandit","158","427006","0.0-120.0-0.0","19283408","wem/bandit_party_2","A3L5XFNSOY6QET","either","4","294","","","","","","","1","0","0","0.9313693401","","0.8","0.4","0.2","0.6","","","","","0.06591604593","0.7310189459","0.9303795674","0.9313693401","","","","","","","","","","76","L","3","","","79","main_expt",""
"","bandit","159","428790","0.0-121.0-0.0","19283408","wem/bandit_party_2","A3L5XFNSOY6QET","either","4","272","","","","","","","0","0","1","0.9272018461","","0.8","0.4","0.2","0.6","","","","","0.02790121052","0.7915113188","0.9581515868","0.9272018461","","","","","","","","","","76","L","3","","","80","main_expt",""
"","bandit","160","430614","0.0-122.0-0.0","19283408","wem/bandit_party_2","A3L5XFNSOY6QET","either","4","311","","","","","","","0","1","0","","0.9340165544","0.8","0.4","0.2","0.6","0.03997429631","0.8463201033","0.9107397581","0.9340165544","","","","","","","","","","","","","","76","L","3","","","81","main_expt",""
"","bandit","161","432422","0.0-123.0-0.0","19283408","wem/bandit_party_2","A3L5XFNSOY6QET","either","4","297","","","","","","","1","0","0","0.9778602254","","0.8","0.4","0.2","0.6","","","","","0.03692483048","0.9043915002","0.9531247327","0.9778602254","","","","","","","","","","76","L","3","","","82","main_expt",""
"","bandit","162","434192","0.0-124.0-0.0","19283408","wem/bandit_party_2","A3L5XFNSOY6QET","either","4","254","","","","","","","1","0","0","0.9593015187","","0.8","0.4","0.2","0.6","","","","","0.04167024954","0.922294541","0.91574064","0.9593015187","","","","","","","","","","76","L","3","","","83","main_expt",""
"","bandit","163","435982","0.0-125.0-0.0","19283408","wem/bandit_party_2","A3L5XFNSOY6QET","either","4","277","","","","","","","1","0","0","0.9398758864","","0.8","0.4","0.2","0.6","","","","","0.03449326924","0.9079954767","0.9287460716","0.9398758864","","","","","","","","","","76","L","3","","","84","main_expt",""
"","bandit","164","437813","0.0-126.0-0.0","19283408","wem/bandit_party_2","A3L5XFNSOY6QET","either","4","319","","","","","","","1","0","0","0.9256746213","","0.8","0.4","0.2","0.6","","","","","0.07382848834","0.92293493","0.9817994773","0.9256746213","","","","","","","","","","76","L","3","","","85","main_expt",""
"","bandit","165","439615","0.0-127.0-0.0","19283408","wem/bandit_party_2","A3L5XFNSOY6QET","either","4","289","","","","","","","1","0","0","0.8910640916","","0.8","0.4","0.2","0.6","","","","","0.08839198485","0.8831043051","0.9651028603","0.8910640916","","","","","","","","","","76","L","3","","","86","main_expt",""
"","bandit","166","441398","0.0-128.0-0.0","19283408","wem/bandit_party_2","A3L5XFNSOY6QET","either","4","270","","","","","","","1","0","0","0.8729480744","","0.8","0.4","0.2","0.6","","","","","0.08767612821","0.876749115","0.9364705545","0.8729480744","","","","","","","","","","76","L","3","","","87","main_expt",""
"","bandit","167","443173","0.0-129.0-0.0","19283408","wem/bandit_party_2","A3L5XFNSOY6QET","either","4","263","","","","","","","1","0","0","0.8780151739","","0.8","0.4","0.2","0.6","","","","","0.1606359608","0.9189432589","0.9235767634","0.8780151739","","","","","","","","","","76","L","3","","","88","main_expt",""
"","bandit","168","444982","0.0-130.0-0.0","19283408","wem/bandit_party_2","A3L5XFNSOY6QET","either","4","296","","","","","","","1","0","0","0.8856980863","","0.8","0.4","0.2","0.6","","","","","0.2051996915","0.8770582065","0.9375107972","0.8856980863","","","","","","","","","","76","L","3","","","89","main_expt",""
"","bandit","169","446798","0.0-131.0-0.0","19283408","wem/bandit_party_2","A3L5XFNSOY6QET","either","4","303","","","","","","","1","0","0","0.8828292745","","0.8","0.4","0.2","0.6","","","","","0.1757431166","0.9303780437","0.9201099193","0.8828292745","","","","","","","","","","76","L","3","","","90","main_expt",""
"","bandit","170","448614","0.0-132.0-0.0","19283408","wem/bandit_party_2","A3L5XFNSOY6QET","either","4","302","","","","","","","1","0","0","0.9016480115","","0.8","0.4","0.2","0.6","","","","","0.3470073597","0.8870296602","0.9416722714","0.9016480115","","","","","","","","","","76","L","3","","","91","main_expt",""
"","bandit","171","450508","0.0-133.0-0.0","19283408","wem/bandit_party_2","A3L5XFNSOY6QET","either","4","382","","","","","","","1","0","0","0.9077272713","","0.8","0.4","0.2","0.6","","","","","0.4969118024","0.8466670433","0.943817784","0.9077272713","","","","","","","","","","76","L","3","","","92","main_expt",""
"","bandit","172","452268","0.0-134.0-0.0","19283408","wem/bandit_party_2","A3L5XFNSOY6QET","either","4","247","","","","","","","0","1","0","","0.875936713","0.8","0.4","0.2","0.6","0.5773598144","0.850017275","0.9078517942","0.875936713","","","","","","","","","","","","","","76","L","3","","","93","main_expt",""
"","bandit","173","454093","0.0-135.0-0.0","19283408","wem/bandit_party_2","A3L5XFNSOY6QET","either","4","311","","","","","","","1","0","0","0.8089346838","","0.8","0.4","0.2","0.6","","","","","0.5513550223","0.6893652978","0.8983200186","0.8089346838","","","","","","","","","","76","L","3","","","94","main_expt",""
"","bandit","174","455917","0.0-136.0-0.0","19283408","wem/bandit_party_2","A3L5XFNSOY6QET","either","4","311","","","","","","","0","1","0","","0.7472177953","0.8","0.4","0.2","0.6","0.5461825447","0.6025630118","0.8744309931","0.7472177953","","","","","","","","","","","","","","76","L","3","","","95","main_expt",""
"","bandit","175","457493","0.0-137.0-0.0","19283408","wem/bandit_party_2","A3L5XFNSOY6QET","either","4","62","","","","","","","0","1","0","","0.631257407","0.8","0.4","0.2","0.6","0.5564841108","0.5565182624","0.8894212924","0.631257407","","","","","","","","","","","","","","76","L","3","","","96","main_expt",""
"","bandit","176","459276","0.0-138.0-0.0","19283408","wem/bandit_party_2","A3L5XFNSOY6QET","either","4","271","","","","","","","1","0","0","0.7474787878","","0.8","0.4","0.2","0.6","","","","","0.6513715187","0.4820287155","0.891162681","0.7474787878","","","","","","","","","","76","L","3","","","97","main_expt",""
"","bandit","177","461020","0.0-139.0-0.0","19283408","wem/bandit_party_2","A3L5XFNSOY6QET","either","4","232","","","","","","","1","0","0","0.7753317291","","0.8","0.4","0.2","0.6","","","","","0.7004254565","0.4599621431","0.8495400438","0.7753317291","","","","","","","","","","76","L","3","","","98","main_expt",""
"","bandit","178","462797","0.0-140.0-0.0","19283408","wem/bandit_party_2","A3L5XFNSOY6QET","either","4","265","","","","","","","0","0","1","0.7088399779","","0.8","0.4","0.2","0.6","","","","","0.6473310623","0.4109144258","0.8671572546","0.7088399779","","","","","","","","","","76","L","3","","","99","main_expt",""
"","bandit","179","464732","0.0-141.0-0.0","19283408","wem/bandit_party_2","A3L5XFNSOY6QET","either","4","422","","","","","","","0","0","1","","0.8312294914","0.8","0.4","0.2","0.6","0.6160818326","0.3466085394","0.8312294914","0.7328055719","","","","","","","","","","","","","","75","K","2","","","100","main_expt",""
"","bandit","180","466300","0.0-142.0-0.0","19283408","wem/bandit_party_2","A3L5XFNSOY6QET","either","4","57","","","","","","","0","0","1","0.8183789849","","0.8","0.4","0.2","0.6","","","","","0.6963675268","0.3712289037","0.8135240708","0.8183789849","","","","","","","","","","76","L","3","","","101","main_expt",""
"","bandit","181","468037","0.0-143.0-0.0","19283408","wem/bandit_party_2","A3L5XFNSOY6QET","either","4","219","","","","","","","0","1","0","","0.7854635714","0.8","0.4","0.2","0.6","0.6339579424","0.3626324234","0.8556055773","0.7854635714","","","","","","","","","","","","","","76","L","3","","","102","main_expt",""
"","bandit","182","469805","0.0-144.0-0.0","19283408","wem/bandit_party_2","A3L5XFNSOY6QET","either","4","253","","","","","","","1","0","0","0.8481411385","","0.8","0.4","0.2","0.6","","","","","0.6908430899","0.2748825764","0.7632006143","0.8481411385","","","","","","","","","","76","L","3","","","103","main_expt",""
"","bandit","183","471717","0.0-145.0-0.0","19283408","wem/bandit_party_2","A3L5XFNSOY6QET","either","4","398","","","","","","","0","0","1","0.8129446485","","0.8","0.4","0.2","0.6","","","","","0.6866318891","0.2381725209","0.8273213265","0.8129446485","","","","","","","","","","76","L","3","","","104","main_expt",""
"","bandit","184","473620","0.0-146.0-0.0","19283408","wem/bandit_party_2","A3L5XFNSOY6QET","either","4","390","","","","","","","0","1","0","","0.1939551764","0.8","0.4","0.2","0.6","0.6749941214","0.1939551764","0.7930501456","0.7898688037","","","","","","","","","","","","","","74","J","1","","","105","main_expt",""
"","bandit","185","475429","0.0-147.0-0.0","19283408","wem/bandit_party_2","A3L5XFNSOY6QET","either","4","295","","","","","","","0","0","1","","0.1884153881","0.8","0.4","0.2","0.6","0.7300347885","0.1884153881","0.7186603115","0.7810744832","","","","","","","","","","","","","","74","J","1","","","106","main_expt",""
"","bandit","186","477166","0.0-148.0-0.0","19283408","wem/bandit_party_2","A3L5XFNSOY6QET","either","4","224","","","","","","","1","0","0","0.1011451677","","0.8","0.4","0.2","0.6","","","","","0.8133516847","0.1011451677","0.7155595947","0.7837395221","","","","","","","","","","74","J","1","","","107","main_expt",""
"","bandit","187","478948","0.0-149.0-0.0","19283408","wem/bandit_party_2","A3L5XFNSOY6QET","either","4","271","","","","","","","0","0","1","","0.1500242655","0.8","0.4","0.2","0.6","0.8009432675","0.1500242655","0.7654707556","0.787971135","","","","","","","","","","","","","","74","J","1","","","108","main_expt",""
"","bandit","188","480687","0.0-150.0-0.0","19283408","wem/bandit_party_2","A3L5XFNSOY6QET","either","4","224","","","","","","","0","0","1","","0.1285750889","0.8","0.4","0.2","0.6","0.7379370491","0.1285750889","0.6288612937","0.6866525704","","","","","","","","","","","","","","74","J","1","","","109","main_expt",""
"","bandit","189","482511","0.0-151.0-0.0","19283408","wem/bandit_party_2","A3L5XFNSOY6QET","either","4","310","","","","","","","0","0","1","","0.7379992527","0.8","0.4","0.2","0.6","0.7379992527","0.06279291231","0.6309058105","0.5824748378","","","","","","","","","","","","","","72","H","0","img/none_selected.jpg","","110","main_expt",""
"","bandit","190","484412","0.0-152.0-0.0","19283408","wem/bandit_party_2","A3L5XFNSOY6QET","either","4","389","","","","","","","0","0","1","","0.6218965746","0.8","0.4","0.2","0.6","0.7464430213","0.07144278273","0.6218965746","0.659702805","","","","","","","","","","","","","","75","K","2","","","111","main_expt",""
"","bandit","191","486053","0.0-153.0-0.0","19283408","wem/bandit_party_2","A3L5XFNSOY6QET","either","4","127","","","","","","","1","0","0","0.5111205641","","0.8","0.4","0.2","0.6","","","","","0.7736339118","0.06013221683","0.6741482942","0.5111205641","","","","","","","","","","76","L","3","","","112","main_expt",""
"","bandit","192","487868","0.0-154.0-0.0","19283408","wem/bandit_party_2","A3L5XFNSOY6QET","either","4","302","","","","","","","0","1","0","","0.4852392648","0.8","0.4","0.2","0.6","0.8480767854","0.1442356489","0.7405202534","0.4852392648","","","","","","","","","","","","","","76","L","3","","","113","main_expt",""
"","bandit","193","489492","0.0-155.0-0.0","19283408","wem/bandit_party_2","A3L5XFNSOY6QET","either","4","112","","","","","","","0","0","1","0.3531287621","","0.8","0.4","0.2","0.6","","","","","0.8016933152","0.1733870882","0.743157628","0.3531287621","","","","","","","","","","76","L","3","","","114","main_expt",""
"","bandit","194","491149","0.0-156.0-0.0","19283408","wem/bandit_party_2","A3L5XFNSOY6QET","either","4","141","","","","","","","1","0","0","0.4090792957","","0.8","0.4","0.2","0.6","","","","","0.8200260584","0.2198725907","0.7732583829","0.4090792957","","","","","","","","","","76","L","3","","","115","main_expt",""
"","bandit","195","493012","0.0-157.0-0.0","19283408","wem/bandit_party_2","A3L5XFNSOY6QET","either","4","351","","","","","","","0","0","1","0.4927933112","","0.8","0.4","0.2","0.6","","","","","0.7761954976","0.2116870815","0.6224016225","0.4927933112","","","","","","","","","","76","L","3","","","116","main_expt",""
"","bandit","196","494830","0.0-158.0-0.0","19283408","wem/bandit_party_2","A3L5XFNSOY6QET","either","4","303","","","","","","","1","0","0","0.4255499736","","0.8","0.4","0.2","0.6","","","","","0.7722233998","0.1293815938","0.6784399158","0.4255499736","","","","","","","","","","76","L","3","","","117","main_expt",""
"","bandit","197","496621","0.0-159.0-0.0","19283408","wem/bandit_party_2","A3L5XFNSOY6QET","either","4","278","","","","","","","0","0","1","0.4073726931","","0.8","0.4","0.2","0.6","","","","","0.8049831996","0.1442073762","0.7499631032","0.4073726931","","","","","","","","","","76","L","3","","","118","main_expt",""
"","bandit","198","498325","0.0-160.0-0.0","19283408","wem/bandit_party_2","A3L5XFNSOY6QET","either","4","190","","","","","","","0","1","0","","0.6258432538","0.8","0.4","0.2","0.6","0.8469405197","0.2098334931","0.6258432538","0.5447318884","","","","","","","","","","","","","","75","K","2","","","119","main_expt",""
"","bandit","199","500101","0.0-161.0-0.0","19283408","wem/bandit_party_2","A3L5XFNSOY6QET","either","4","262","","","","","","","0","0","1","","0.5602994123","0.8","0.4","0.2","0.6","0.783925966","0.243218138","0.5602994123","0.5336717705","","","","","","","","","","","","","","75","K","2","","","120","main_expt",""
"","bandit","200","501972","0.0-162.0-0.0","19283408","wem/bandit_party_2","A3L5XFNSOY6QET","either","4","357","","","","","","","0","1","0","","0.5850644561","0.8","0.4","0.2","0.6","0.8031476983","0.1595445902","0.5850644561","0.5621279662","","","","","","","","","","","","","","75","K","2","","","121","main_expt",""
"","bandit","201","503772","0.0-163.0-0.0","19283408","wem/bandit_party_2","A3L5XFNSOY6QET","either","4","287","","","","","","","0","0","1","","0.6205732407","0.8","0.4","0.2","0.6","0.776878313","0.1939767007","0.6205732407","0.5664238538","","","","","","","","","","","","","","75","K","2","","","122","main_expt",""
"","bandit","202","505555","0.0-164.0-0.0","19283408","wem/bandit_party_2","A3L5XFNSOY6QET","either","4","271","","","","","","","0","1","0","","0.7954206102","0.8","0.4","0.2","0.6","0.7695343448","0.2265728871","0.7954206102","0.6501842916","","","","","","","","","","","","","","75","K","2","","","123","main_expt",""
"","bandit","203","507270","0.0-165.0-0.0","19283408","wem/bandit_party_2","A3L5XFNSOY6QET","either","4","200","","","","","","","1","0","0","0.881213352","","0.8","0.4","0.2","0.6","","","","","0.6154230174","0.2027469411","0.881213352","0.5413703051","","","","","","","","","","75","K","2","","","124","main_expt",""
"","bandit","204","508853","0.0-166.0-0.0","19283408","wem/bandit_party_2","A3L5XFNSOY6QET","either","4","68","","","","","","","1","0","0","0.8598562332","","0.8","0.4","0.2","0.6","","","","","0.4710930195","0.1506135949","0.8598562332","0.5191338098","","","","","","","","","","75","K","2","","","125","main_expt",""
"","bandit","205","511141","0.0-167.0-0.0","19283408","wem/bandit_party_2","A3L5XFNSOY6QET","either","4","774","","","","","","","0","0","1","0.867144728","","0.8","0.4","0.2","0.6","","","","","0.5258886302","0.1875851228","0.867144728","0.6232591378","","","","","","","","","","75","K","2","","","126","main_expt",""
"","bandit","206","512820","0.0-168.0-0.0","19283408","wem/bandit_party_2","A3L5XFNSOY6QET","either","4","166","","","","","","","0","0","1","","0.2106184636","0.8","0.4","0.2","0.6","0.3996486754","0.2106184636","0.8677917819","0.601333273","","","","","","","","","","","","","","74","J","1","","","127","main_expt",""
"","bandit","207","514622","0.0-169.0-0.0","19283408","wem/bandit_party_2","A3L5XFNSOY6QET","either","4","287","","","","","","","1","0","0","0.3557241191","","0.8","0.4","0.2","0.6","","","","","0.3557241191","0.1276240755","0.8194058857","0.6312294041","","","","","","","","","","72","H","0","img/none_selected.jpg","","128","main_expt",""
"","bandit","208","516380","0.0-170.0-0.0","19283408","wem/bandit_party_2","A3L5XFNSOY6QET","either","4","244","","","","","","","0","0","1","0.2432070908","","0.8","0.4","0.2","0.6","","","","","0.2432070908","0.2163335705","0.813940224","0.6655034733","","","","","","","","","","72","H","0","img/none_selected.jpg","","129","main_expt",""
"","bandit","209","518156","0.0-171.0-0.0","19283408","wem/bandit_party_2","A3L5XFNSOY6QET","either","4","264","","","","","","","0","0","1","0.1722843937","","0.8","0.4","0.2","0.6","","","","","0.1722843937","0.2448863899","0.7296764962","0.6882303755","","","","","","","","","","72","H","0","img/none_selected.jpg","","130","main_expt",""
"","bandit","210","519918","0.0-172.0-0.0","19283408","wem/bandit_party_2","A3L5XFNSOY6QET","either","4","247","","","","","","","0","1","0","","0.3447645787","0.8","0.4","0.2","0.6","0.1336027919","0.3447645787","0.614258276","0.6772884453","","","","","","","","","","","","","","74","J","1","","","131","main_expt",""
"","bandit","211","521565","0.0-173.0-0.0","19283408","wem/bandit_party_2","A3L5XFNSOY6QET","either","4","132","","","","","","","0","0","1","","0.3622527956","0.8","0.4","0.2","0.6","0.1351629047","0.3622527956","0.5349540706","0.6773684555","","","","","","","","","","","","","","74","J","1","","","132","main_expt",""
"","bandit","212","523219","0.0-174.0-0.0","19283408","wem/bandit_party_2","A3L5XFNSOY6QET","either","4","138","","","","","","","0","1","0","","0.5449090787","0.8","0.4","0.2","0.6","0.2495029","0.2961885878","0.5449090787","0.7437755928","","","","","","","","","","","","","","75","K","2","","","133","main_expt",""
"","bandit","213","524829","0.0-175.0-0.0","19283408","wem/bandit_party_2","A3L5XFNSOY6QET","either","4","96","","","","","","","0","1","0","","0.5037108559","0.8","0.4","0.2","0.6","0.2118512663","0.2932126781","0.5037108559","0.7423545867","","","","","","","","","","","","","","75","K","2","","","134","main_expt",""
"","bandit","214","526565","0.0-176.0-0.0","19283408","wem/bandit_party_2","A3L5XFNSOY6QET","either","4","222","","","","","","","0","0","1","","0.5131336393","0.8","0.4","0.2","0.6","0.2474577379","0.2836439675","0.5131336393","0.7462440124","","","","","","","","","","","","","","75","K","2","","","135","main_expt",""
"","bandit","215","528252","0.0-177.0-0.0","19283408","wem/bandit_party_2","A3L5XFNSOY6QET","either","4","175","","","","","","","1","0","0","0.6372772774","","0.8","0.4","0.2","0.6","","","","","0.1496333288","0.1985775905","0.5847952324","0.6372772774","","","","","","","","","","76","L","3","","","136","main_expt",""
"","bandit","216","530036","0.0-178.0-0.0","19283408","wem/bandit_party_2","A3L5XFNSOY6QET","either","4","270","","","","","","","1","0","0","0.6587707878","","0.8","0.4","0.2","0.6","","","","","0.164835495","0.2655975","0.5191620222","0.6587707878","","","","","","","","","","76","L","3","","","137","main_expt",""
"","bandit","217","531899","0.0-179.0-0.0","19283408","wem/bandit_party_2","A3L5XFNSOY6QET","either","4","351","","","","","","","0","0","1","0.6545472314","","0.8","0.4","0.2","0.6","","","","","0.1629561883","0.4066298912","0.3830682141","0.6545472314","","","","","","","","","","76","L","3","","","138","main_expt",""
"","bandit","218","533684","0.0-180.0-0.0","19283408","wem/bandit_party_2","A3L5XFNSOY6QET","either","4","272","","","","","","","0","0","1","","0.3036015776","0.8","0.4","0.2","0.6","0.1162724323","0.4537429859","0.3036015776","0.5773899651","","","","","","","","","","","","","","75","K","2","","","139","main_expt",""
"","bandit","219","535396","0.0-181.0-0.0","19283408","wem/bandit_party_2","A3L5XFNSOY6QET","either","4","199","","","","","","","0","0","1","0.410026376","","0.8","0.4","0.2","0.6","","","","","0.1262651596","0.410026376","0.2541790234","0.5786924042","","","","","","","","","","74","J","1","","","140","main_expt",""
"","bandit","220","537421","0.0-182.0-0.0","19283408","wem/bandit_party_2","A3L5XFNSOY6QET","either","4","508","","","","","","","0","0","1","0.1258799353","","0.8","0.4","0.2","0.6","","","","","0.1258799353","0.3978668086","0.1899663758","0.4589731036","","","","","","","","","","72","H","0","img/none_selected.jpg","","141","main_expt",""
"","bandit","221","539133","0.0-183.0-0.0","19283408","wem/bandit_party_2","A3L5XFNSOY6QET","either","4","198","","","","","","","0","1","0","","0.214868544","0.8","0.4","0.2","0.6","0.1220135665","0.4096738096","0.214868544","0.3667804619","","","","","","","","","","","","","","75","K","2","","","142","main_expt",""
"","bandit","222","540916","0.0-184.0-0.0","19283408","wem/bandit_party_2","A3L5XFNSOY6QET","either","4","269","","","","","","","0","0","1","","0.1549416237","0.8","0.4","0.2","0.6","0.1600355681","0.5422751762","0.1549416237","0.3563831379","","","","","","","","","","","","","","75","K","2","","","143","main_expt",""
"","bandit","223","542475","0.0-185.0-0.0","19283408","wem/bandit_party_2","A3L5XFNSOY6QET","either","4","47","","","","","","","0","0","1","","0.2142728447","0.8","0.4","0.2","0.6","0.103653669","0.6045197677","0.2142728447","0.3675361202","","","","","","","","","","","","","","75","K","2","","","144","main_expt",""
"","bandit","224","544195","0.0-186.0-0.0","19283408","wem/bandit_party_2","A3L5XFNSOY6QET","either","4","207","","","","","","","1","0","0","0.6140727406","","0.8","0.4","0.2","0.6","","","","","0.1417267119","0.6140727406","0.2166472609","0.3266856562","","","","","","","","","","74","J","1","","","145","main_expt",""
"","bandit","225","545852","0.0-187.0-0.0","19283408","wem/bandit_party_2","A3L5XFNSOY6QET","either","4","142","","","","","","","0","1","0","","0.5553742365","0.8","0.4","0.2","0.6","0.1508894681","0.5553742365","0.2446047688","0.2815179259","","","","","","","","","","","","","","74","J","1","","","146","main_expt",""
"","bandit","226","547530","0.0-188.0-0.0","19283408","wem/bandit_party_2","A3L5XFNSOY6QET","either","4","169","","","","","","","1","0","0","0.52787167","","0.8","0.4","0.2","0.6","","","","","0.1207147728","0.52787167","0.3011136322","0.3560244833","","","","","","","","","","74","J","1","","","147","main_expt",""
"","bandit","227","549204","0.0-189.0-0.0","19283408","wem/bandit_party_2","A3L5XFNSOY6QET","either","4","162","","","","","","","1","0","0","0.5053851794","","0.8","0.4","0.2","0.6","","","","","0.1362234148","0.5053851794","0.2519777133","0.3585854149","","","","","","","","","","74","J","1","","","148","main_expt",""
"","bandit","228","550946","0.0-190.0-0.0","19283408","wem/bandit_party_2","A3L5XFNSOY6QET","either","4","230","","","","","","","0","0","1","","0.5431256022","0.8","0.4","0.2","0.6","0.1244444975","0.5431256022","0.2996109941","0.284478414","","","","","","","","","","","","","","74","J","1","","","149","main_expt",""
"","bandit","229","552637","0.0-191.0-0.0","19283408","wem/bandit_party_2","A3L5XFNSOY6QET","either","4","176","","","","","","","1","0","0","0.2617238314","","0.8","0.4","0.2","0.6","","","","","0.1109305632","0.422574086","0.2963563975","0.2617238314","","","","","","","","","","76","L","3","","","150","main_expt",""
"","bandit","230","554357","0.0-192.0-0.0","19283408","wem/bandit_party_2","A3L5XFNSOY6QET","either","4","204","","","","","","","0","0","1","0.2709462114","","0.8","0.4","0.2","0.6","","","","","0.11412436","0.3907227364","0.4327396174","0.2709462114","","","","","","","","","","76","L","3","","","151","main_expt",""
"","bandit","231","556028","0.0-193.0-0.0","19283408","wem/bandit_party_2","A3L5XFNSOY6QET","either","4","158","","","","","","","0","0","1","","0.4303068123","0.8","0.4","0.2","0.6","0.1469045903","0.5580814469","0.4303068123","0.2993716907","","","","","","","","","","","","","","75","K","2","","","152","main_expt",""
"","bandit","232","557818","0.0-194.0-0.0","19283408","wem/bandit_party_2","A3L5XFNSOY6QET","either","4","280","","","","","","","0","1","0","","0.51223936","0.8","0.4","0.2","0.6","0.1633028487","0.51223936","0.455197397","0.2733354782","","","","","","","","","","","","","","74","J","1","","","153","main_expt",""
"","bandit","233","559603","0.0-195.0-0.0","19283408","wem/bandit_party_2","A3L5XFNSOY6QET","either","4","271","","","","","","","0","1","0","","0.4811601507","0.8","0.4","0.2","0.6","0.1340882311","0.4811601507","0.6184454144","0.3264007987","","","","","","","","","","","","","","74","J","1","","","154","main_expt",""
"","bandit","234","561514","0.0-196.0-0.0","19283408","wem/bandit_party_2","A3L5XFNSOY6QET","either","4","397","","","","","","","0","1","0","","0.575425417","0.8","0.4","0.2","0.6","0.1041462846","0.575425417","0.5833601464","0.204433578","","","","","","","","","","","","","","74","J","1","","","155","main_expt",""
"","bandit","235","566396","0.0-197.0-0.0","19283408","wem/bandit_party_2","A3L5XFNSOY6QET","either","4","3370","","","","","","","0","1","0","","0.6109018817","0.8","0.4","0.2","0.6","0.08564190031","0.6109018817","0.646897734","0.07451572188","","","","","","","","","","","","","","74","J","1","","","156","main_expt",""
"","bandit","236","568212","0.0-198.0-0.0","19283408","wem/bandit_party_2","A3L5XFNSOY6QET","either","4","302","","","","","","","0","0","1","","0.6812883852","0.8","0.4","0.2","0.6","0.06977116317","0.6812883852","0.6912470103","0.1251686374","","","","","","","","","","","","","","74","J","1","","","157","main_expt",""
"","bandit","237","569981","0.0-199.0-0.0","19283408","wem/bandit_party_2","A3L5XFNSOY6QET","either","4","254","","","","","","","0","1","0","","0.73777041","0.8","0.4","0.2","0.6","0.1504927074","0.73777041","0.7865398282","0.1292052795","","","","","","","","","","","","","","74","J","1","","","158","main_expt",""
"","bandit","238","571677","0.0-200.0-0.0","19283408","wem/bandit_party_2","A3L5XFNSOY6QET","either","4","181","","","","","","","1","0","0","0.8388849062","","0.8","0.4","0.2","0.6","","","","","0.1429264201","0.8388849062","0.7220910122","0.1200050714","","","","","","","","","","74","J","1","","","159","main_expt",""
"","bandit","239","573507","0.0-201.0-0.0","19283408","wem/bandit_party_2","A3L5XFNSOY6QET","either","4","316","","","","","","","1","0","0","0.8006667519","","0.8","0.4","0.2","0.6","","","","","0.1832893837","0.8006667519","0.710563805","0.1156014834","","","","","","","","","","74","J","1","","","160","main_expt",""
"","bandit","240","575298","0.0-202.0-0.0","19283408","wem/bandit_party_2","A3L5XFNSOY6QET","either","4","278","","","","","","","1","0","0","0.7406956812","","0.8","0.4","0.2","0.6","","","","","0.2337310763","0.7406956812","0.6205281072","0.1425751263","","","","","","","","","","74","J","1","","","161","main_expt",""
"","bandit","241","577107","0.0-203.0-0.0","19283408","wem/bandit_party_2","A3L5XFNSOY6QET","either","4","296","","","","","","","0","1","0","","0.775259894","0.8","0.4","0.2","0.6","0.2326198937","0.775259894","0.5246840185","0.2108345254","","","","","","","","","","","","","","74","J","1","","","162","main_expt",""
"","bandit","242","578956","0.0-204.0-0.0","19283408","wem/bandit_party_2","A3L5XFNSOY6QET","either","4","333","","","","","","","0","0","1","","0.6539471222","0.8","0.4","0.2","0.6","0.1584290897","0.6539471222","0.569340372","0.1664621688","","","","","","","","","","","","","","74","J","1","","","163","main_expt",""
"","bandit","243","580723","0.0-205.0-0.0","19283408","wem/bandit_party_2","A3L5XFNSOY6QET","either","4","253","","","","","","","0","0","1","","0.5688323765","0.8","0.4","0.2","0.6","0.1417900361","0.7914062868","0.5688323765","0.1741279052","","","","","","","","","","","","","","75","K","2","","","164","main_expt",""
"","bandit","244","582431","0.0-206.0-0.0","19283408","wem/bandit_party_2","A3L5XFNSOY6QET","either","4","189","","","","","","","0","0","1","0.1891196979","","0.8","0.4","0.2","0.6","","","","","0.08849486786","0.8415061218","0.5195648955","0.1891196979","","","","","","","","","","76","L","3","","","165","main_expt",""
"","bandit","245","584268","0.0-207.0-0.0","19283408","wem/bandit_party_2","A3L5XFNSOY6QET","either","4","324","","","","","","","0","0","1","0.1010416226","","0.8","0.4","0.2","0.6","","","","","0.1010416226","0.9084068317","0.536500984","0.3016440744","","","","","","","","","","72","H","0","img/none_selected.jpg","","166","main_expt",""
"","bandit","246","585923","0.0-208.0-0.0","19283408","wem/bandit_party_2","A3L5XFNSOY6QET","either","4","141","","","","","","","0","0","1","","0.8857506799","0.8","0.4","0.2","0.6","0.1506776516","0.8857506799","0.4243381616","0.3427468607","","","","","","","","","","","","","","74","J","1","","","167","main_expt",""
"","bandit","247","587852","0.0-209.0-0.0","19283408","wem/bandit_party_2","A3L5XFNSOY6QET","either","4","414","","","","","","","0","0","1","","0.4877327119","0.8","0.4","0.2","0.6","0.2532220847","0.9247721234","0.4877327119","0.3759001064","","","","","","","","","","","","","","75","K","2","","","168","main_expt",""
"","bandit","248","589661","0.0-210.0-0.0","19283408","wem/bandit_party_2","A3L5XFNSOY6QET","either","4","294","","","","","","","0","0","1","","0.8870410368","0.8","0.4","0.2","0.6","0.2223654062","0.8870410368","0.5096331713","0.3824832387","","","","","","","","","","","","","","74","J","1","","","169","main_expt",""
"","bandit","249","591372","0.0-211.0-0.0","19283408","wem/bandit_party_2","A3L5XFNSOY6QET","either","4","197","","","","","","","0","0","1","","0.3257043992","0.8","0.4","0.2","0.6","0.2161840498","0.8782412079","0.6111595203","0.3257043992","","","","","","","","","","","","","","76","L","3","","","170","main_expt",""
"","bandit","250","593147","0.0-212.0-0.0","19283408","wem/bandit_party_2","A3L5XFNSOY6QET","either","4","261","","","","","","","0","1","0","","0.5888321224","0.8","0.4","0.2","0.6","0.1996440145","0.7978982074","0.5888321224","0.2943589708","","","","","","","","","","","","","","75","K","2","","","171","main_expt",""
"","bandit","251","595011","0.0-213.0-0.0","19283408","wem/bandit_party_2","A3L5XFNSOY6QET","either","4","349","","","","","","","0","1","0","","0.6295404033","0.8","0.4","0.2","0.6","0.275753823","0.7896885826","0.6295404033","0.4298537702","","","","","","","","","","","","","","75","K","2","","","172","main_expt",""
"","bandit","252","596867","0.0-214.0-0.0","19283408","wem/bandit_party_2","A3L5XFNSOY6QET","either","4","342","","","","","","","0","1","0","","0.5976712981","0.8","0.4","0.2","0.6","0.2850946521","0.7771385218","0.5976712981","0.4196262671","","","","","","","","","","","","","","75","K","2","","","173","main_expt",""
"","bandit","253","598611","0.0-215.0-0.0","19283408","wem/bandit_party_2","A3L5XFNSOY6QET","either","4","226","","","","","","","1","0","0","0.5936331925","","0.8","0.4","0.2","0.6","","","","","0.2836726952","0.8412209493","0.5936331925","0.4056978145","","","","","","","","","","75","K","2","","","174","main_expt",""
"","bandit","254","600315","0.0-216.0-0.0","19283408","wem/bandit_party_2","A3L5XFNSOY6QET","either","4","188","","","","","","","1","0","0","0.544145328","","0.8","0.4","0.2","0.6","","","","","0.27413619","0.8433491626","0.544145328","0.3323311207","","","","","","","","","","75","K","2","","","175","main_expt",""
"","bandit","255","602141","0.0-217.0-0.0","19283408","wem/bandit_party_2","A3L5XFNSOY6QET","either","4","309","","","","","","","1","0","0","0.3584947592","","0.8","0.4","0.2","0.6","","","","","0.2369491767","0.778586436","0.3584947592","0.3087900888","","","","","","","","","","75","K","2","","","176","main_expt",""
"","bandit","256","603883","0.0-218.0-0.0","19283408","wem/bandit_party_2","A3L5XFNSOY6QET","either","4","227","","","","","","","0","0","1","0.436171931","","0.8","0.4","0.2","0.6","","","","","0.3440943848","0.7488794252","0.436171931","0.3898613412","","","","","","","","","","75","K","2","","","177","main_expt",""
"","bandit","257","605676","0.0-219.0-0.0","19283408","wem/bandit_party_2","A3L5XFNSOY6QET","either","4","275","","","","","","","0","1","0","","0.7738581751","0.8","0.4","0.2","0.6","0.3529135521","0.7738581751","0.5193680035","0.5236321052","","","","","","","","","","","","","","74","J","1","","","178","main_expt",""
"","bandit","258","607340","0.0-220.0-0.0","19283408","wem/bandit_party_2","A3L5XFNSOY6QET","either","4","148","","","","","","","1","0","0","0.7527820287","","0.8","0.4","0.2","0.6","","","","","0.3787243664","0.7527820287","0.3957798075","0.2955080601","","","","","","","","","","74","J","1","","","179","main_expt",""
"","bandit","259","609148","0.0-221.0-0.0","19283408","wem/bandit_party_2","A3L5XFNSOY6QET","either","4","292","","","","","","","1","0","0","0.8022950929","","0.8","0.4","0.2","0.6","","","","","0.3092677326","0.8022950929","0.4249873197","0.3174151272","","","","","","","","","","74","J","1","","","180","main_expt",""
"","bandit","260","610860","0.0-222.0-0.0","19283408","wem/bandit_party_2","A3L5XFNSOY6QET","either","4","195","","","","","","","1","0","0","0.7505347306","","0.8","0.4","0.2","0.6","","","","","0.3701559146","0.7505347306","0.4260342439","0.3560995969","","","","","","","","","","74","J","1","","","181","main_expt",""
"","bandit","261","612636","0.0-223.0-0.0","19283408","wem/bandit_party_2","A3L5XFNSOY6QET","either","4","260","","","","","","","0","1","0","","0.603349844","0.8","0.4","0.2","0.6","0.2672844749","0.603349844","0.4305619521","0.4649908644","","","","","","","","","","","","","","74","J","1","","","182","main_expt",""
"","bandit","262","615787","0.0-224.0-0.0","19283408","wem/bandit_party_2","A3L5XFNSOY6QET","either","4","1634","","","","","","","0","0","1","","0.6464544124","0.8","0.4","0.2","0.6","0.3046315644","0.6464544124","0.4638513582","0.4588174784","","","","","","","","","","","","","","74","J","1","","","183","main_expt",""
"","bandit","263","617642","0.0-225.0-0.0","19283408","wem/bandit_party_2","A3L5XFNSOY6QET","either","4","340","","","","","","","0","1","0","","0.5084330557","0.8","0.4","0.2","0.6","0.3507685813","0.6606024443","0.5084330557","0.509799977","","","","","","","","","","","","","","75","K","2","","","184","main_expt",""
"","bandit","264","619456","0.0-226.0-0.0","19283408","wem/bandit_party_2","A3L5XFNSOY6QET","either","4","294","","","","","","","0","0","1","","0.5853778332","0.8","0.4","0.2","0.6","0.3250269766","0.7034535028","0.5853778332","0.4557178443","","","","","","","","","","","","","","75","K","2","","","185","main_expt",""
"","bandit","265","650234","0.0-227.0-0.0","19283408","wem/bandit_party_2","A3L5XFNSOY6QET","either","4","29260","","","","","","","1","0","0","0.7672503758","","0.8","0.4","0.2","0.6","","","","","0.3636669497","0.7672503758","0.5009207633","0.3250172706","","","","","","","","","","74","J","1","","","186","main_expt",""
"","bandit","266","652018","0.0-228.0-0.0","19283408","wem/bandit_party_2","A3L5XFNSOY6QET","either","4","268","","","","","","","0","1","0","","0.7505037824","0.8","0.4","0.2","0.6","0.4095027401","0.7505037824","0.4376492532","0.2982192525","","","","","","","","","","","","","","74","J","1","","","187","main_expt",""
"","bandit","267","653796","0.0-229.0-0.0","19283408","wem/bandit_party_2","A3L5XFNSOY6QET","either","4","261","","","","","","","0","0","1","","0.7458261356","0.8","0.4","0.2","0.6","0.3356624093","0.7458261356","0.317868257","0.2647713636","","","","","","","","","","","","","","74","J","1","","","188","main_expt",""
"","bandit","268","655627","0.0-230.0-0.0","19283408","wem/bandit_party_2","A3L5XFNSOY6QET","either","4","316","","","","","","","0","0","1","","0.3700786551","0.8","0.4","0.2","0.6","0.3717951419","0.747965221","0.3700786551","0.2798663258","","","","","","","","","","","","","","75","K","2","","","189","main_expt",""
"","bandit","269","657426","0.0-231.0-0.0","19283408","wem/bandit_party_2","A3L5XFNSOY6QET","either","4","284","","","","","","","0","0","1","0.7459095382","","0.8","0.4","0.2","0.6","","","","","0.3266606931","0.7459095382","0.3423477616","0.2146362806","","","","","","","","","","74","J","1","","","190","main_expt",""
"","bandit","270","659243","0.0-232.0-0.0","19283408","wem/bandit_party_2","A3L5XFNSOY6QET","either","4","300","","","","","","","0","0","1","","0.3132783624","0.8","0.4","0.2","0.6","0.4206899072","0.6299055833","0.2488230813","0.3132783624","","","","","","","","","","","","","","76","L","3","","","191","main_expt",""
"","bandit","271","660922","0.0-233.0-0.0","19283408","wem/bandit_party_2","A3L5XFNSOY6QET","either","4","163","","","","","","","1","0","0","0.4982817076","","0.8","0.4","0.2","0.6","","","","","0.4982817076","0.688533977","0.2193108308","0.2488083766","","","","","","","","","","72","H","0","img/none_selected.jpg","","192","main_expt",""
"","bandit","272","662682","0.0-234.0-0.0","19283408","wem/bandit_party_2","A3L5XFNSOY6QET","either","4","244","","","","","","","0","0","1","0.4820211017","","0.8","0.4","0.2","0.6","","","","","0.4820211017","0.7176496952","0.4057276106","0.225611763","","","","","","","","","","72","H","0","img/none_selected.jpg","","193","main_expt",""
"","bandit","273","664338","0.0-235.0-0.0","19283408","wem/bandit_party_2","A3L5XFNSOY6QET","either","4","141","","","","","","","0","0","1","","0.746212457","0.8","0.4","0.2","0.6","0.5373891537","0.746212457","0.3826056333","0.2159393038","","","","","","","","","","","","","","74","J","1","","","194","main_expt",""
"","bandit","274","666217","0.0-236.0-0.0","19283408","wem/bandit_party_2","A3L5XFNSOY6QET","either","4","364","","","","","","","0","0","1","","0.4922935908","0.8","0.4","0.2","0.6","0.3890275207","0.6800784202","0.4922935908","0.3112228701","","","","","","","","","","","","","","75","K","2","","","195","main_expt",""
"","bandit","275","668042","0.0-237.0-0.0","19283408","wem/bandit_party_2","A3L5XFNSOY6QET","either","4","309","","","","","","","1","0","0","0.5986295964","","0.8","0.4","0.2","0.6","","","","","0.4329462643","0.5986295964","0.5475793877","0.3249051539","","","","","","","","","","74","J","1","","","196","main_expt",""
"","bandit","276","669787","0.0-238.0-0.0","19283408","wem/bandit_party_2","A3L5XFNSOY6QET","either","4","229","","","","","","","0","1","0","","0.5323622673","0.8","0.4","0.2","0.6","0.416825946","0.5323622673","0.6069385875","0.2985018541","","","","","","","","","","","","","","74","J","1","","","197","main_expt",""
"","bandit","277","671489","0.0-239.0-0.0","19283408","wem/bandit_party_2","A3L5XFNSOY6QET","either","4","187","","","","","","","0","0","1","","0.5348043844","0.8","0.4","0.2","0.6","0.4063336836","0.5348043844","0.4946816555","0.3109366799","","","","","","","","","","","","","","74","J","1","","","198","main_expt",""
"","bandit","278","673322","0.0-240.0-0.0","19283408","wem/bandit_party_2","A3L5XFNSOY6QET","either","4","315","","","","","","","1","0","0","0.361264989","","0.8","0.4","0.2","0.6","","","","","0.361264989","0.4534403339","0.479635203","0.3143364341","","","","","","","","","","72","H","0","img/none_selected.jpg","","199","main_expt",""
"","bandit","279","675098","0.0-241.0-0.0","19283408","wem/bandit_party_2","A3L5XFNSOY6QET","either","4","260","","","","","","","0","0","1","","0.4700223374","0.8","0.4","0.2","0.6","0.4700223374","0.4185876589","0.4969837249","0.3176919365","","","","","","","","","","","","","","72","H","0","img/none_selected.jpg","","200","main_expt",""
"","bandit","280","677076","0.0-242.0-0.0","19283408","wem/bandit_party_2","A3L5XFNSOY6QET","either","4","460","","","","","","","0","0","1","0.3812211227","","0.8","0.4","0.2","0.6","","","","","0.4751543938","0.3812211227","0.4548125401","0.2848283651","","","","","","","","","","74","J","1","","","201","main_expt",""
"","bandit","281","678796","0.0-243.0-0.0","19283408","wem/bandit_party_2","A3L5XFNSOY6QET","either","4","203","","","","","","","1","0","0","0.4414728031","","0.8","0.4","0.2","0.6","","","","","0.4044794657","0.4414728031","0.5767771981","0.2439676923","","","","","","","","","","74","J","1","","","202","main_expt",""
"","bandit","282","680615","0.0-244.0-0.0","19283408","wem/bandit_party_2","A3L5XFNSOY6QET","either","4","298","","","","","","","0","1","0","","0.6118171827","0.8","0.4","0.2","0.6","0.3321077444","0.3698030662","0.6118171827","0.2582922662","","","","","","","","","","","","","","75","K","2","","","203","main_expt",""
"","bandit","283","682314","0.0-245.0-0.0","19283408","wem/bandit_party_2","A3L5XFNSOY6QET","either","4","183","","","","","","","0","1","0","","0.5373194108","0.8","0.4","0.2","0.6","0.3697340749","0.4899087748","0.5373194108","0.3799793739","","","","","","","","","","","","","","75","K","2","","","204","main_expt",""
"","bandit","284","684174","0.0-246.0-0.0","19283408","wem/bandit_party_2","A3L5XFNSOY6QET","either","4","341","","","","","","","0","1","0","","0.5501461309","0.8","0.4","0.2","0.6","0.3998168993","0.4310108402","0.5501461309","0.4441528059","","","","","","","","","","","","","","75","K","2","","","205","main_expt",""
"","bandit","285","685907","0.0-247.0-0.0","19283408","wem/bandit_party_2","A3L5XFNSOY6QET","either","4","218","","","","","","","0","0","1","","0.5094027242","0.8","0.4","0.2","0.6","0.4929909192","0.3912115078","0.5094027242","0.4468516792","","","","","","","","","","","","","","75","K","2","","","206","main_expt",""
"","bandit","286","687692","0.0-248.0-0.0","19283408","wem/bandit_party_2","A3L5XFNSOY6QET","either","4","268","","","","","","","0","1","0","","0.6449696869","0.8","0.4","0.2","0.6","0.4960693894","0.3195818707","0.6449696869","0.399366085","","","","","","","","","","","","","","75","K","2","","","207","main_expt",""
"","bandit","287","689402","0.0-249.0-0.0","19283408","wem/bandit_party_2","A3L5XFNSOY6QET","either","4","195","","","","","","","0","1","0","","0.549996868","0.8","0.4","0.2","0.6","0.3912862986","0.2378171997","0.549996868","0.4206610772","","","","","","","","","","","","","","75","K","2","","","208","main_expt",""
"","bandit","288","694981","0.0-250.0-0.0","19283408","wem/bandit_party_2","A3L5XFNSOY6QET","either","4","4061","","","","","","","0","0","1","","0.5258833792","0.8","0.4","0.2","0.6","0.4218938049","0.2339104391","0.5258833792","0.5145499259","","","","","","","","","","","","","","75","K","2","","","209","main_expt",""
"","bandit","289","696599","0.0-251.0-0.0","19283408","wem/bandit_party_2","A3L5XFNSOY6QET","either","4","98","","","","","","","0","1","0","","0.5453980868","0.8","0.4","0.2","0.6","0.6003160005","0.2506558306","0.5453980868","0.3497539355","","","","","","","","","","","","","","75","K","2","","","210","main_expt",""
"","bandit","290","698370","0.0-252.0-0.0","19283408","wem/bandit_party_2","A3L5XFNSOY6QET","either","4","255","","","","","","","0","1","0","","0.5370950561","0.8","0.4","0.2","0.6","0.5481562991","0.3466578502","0.5370950561","0.3335821388","","","","","","","","","","","","","","75","K","2","","","211","main_expt",""
"","bandit","291","700157","0.0-253.0-0.0","19283408","wem/bandit_party_2","A3L5XFNSOY6QET","either","4","269","","","","","","","0","1","0","","0.5774996514","0.8","0.4","0.2","0.6","0.6210595125","0.4162959965","0.5774996514","0.2778022227","","","","","","","","","","","","","","75","K","2","","","212","main_expt",""
"","bandit","292","701691","0.0-254.0-0.0","19283408","wem/bandit_party_2","A3L5XFNSOY6QET","either","4","19","","","","","","","0","1","0","","0.4826056363","0.8","0.4","0.2","0.6","0.7732161257","0.545788555","0.4826056363","0.2949104287","","","","","","","","","","","","","","75","K","2","","","213","main_expt",""
"","bandit","293","703450","0.0-255.0-0.0","19283408","wem/bandit_party_2","A3L5XFNSOY6QET","either","4","243","","","","","","","0","0","1","","0.4913277851","0.8","0.4","0.2","0.6","0.7689771773","0.6077749924","0.4913277851","0.2443343027","","","","","","","","","","","","","","75","K","2","","","214","main_expt",""
"","bandit","294","705283","0.0-256.0-0.0","19283408","wem/bandit_party_2","A3L5XFNSOY6QET","either","4","317","","","","","","","0","0","1","0.5415006571","","0.8","0.4","0.2","0.6","","","","","0.6841712945","0.4883429648","0.5415006571","0.2232989174","","","","","","","","","","75","K","2","","","215","main_expt",""
"","bandit","295","707010","0.0-257.0-0.0","19283408","wem/bandit_party_2","A3L5XFNSOY6QET","either","4","212","","","","","","","0","1","0","","0.3309854328","0.8","0.4","0.2","0.6","0.7019934296","0.3309854328","0.5198015267","0.2918619336","","","","","","","","","","","","","","74","J","1","","","216","main_expt",""
"","bandit","296","708730","0.0-258.0-0.0","19283408","wem/bandit_party_2","A3L5XFNSOY6QET","either","4","205","","","","","","","0","0","1","","0.3310528633","0.8","0.4","0.2","0.6","0.7537099884","0.3310528633","0.545097872","0.3571058798","","","","","","","","","","","","","","74","J","1","","","217","main_expt",""
"","bandit","297","710435","0.0-259.0-0.0","19283408","wem/bandit_party_2","A3L5XFNSOY6QET","either","4","189","","","","","","","0","0","1","","0.4147218791","0.8","0.4","0.2","0.6","0.8428980993","0.4147218791","0.5776025334","0.3738303097","","","","","","","","","","","","","","74","J","1","","","218","main_expt",""
"","bandit","298","712332","0.0-260.0-0.0","19283408","wem/bandit_party_2","A3L5XFNSOY6QET","either","4","380","","","","","","","0","0","1","0.8007326434","","0.8","0.4","0.2","0.6","","","","","0.8007326434","0.3402104323","0.5616346574","0.4832874948","","","","","","","","","","72","H","0","img/none_selected.jpg","","219","main_expt",""
"","bandit","299","713965","0.0-261.0-0.0","19283408","wem/bandit_party_2","A3L5XFNSOY6QET","either","4","115","","","","","","","1","0","0","0.475455537","","0.8","0.4","0.2","0.6","","","","","0.8518850648","0.3448871422","0.6261942659","0.475455537","","","","","","","","","","76","L","3","","","220","main_expt",""
"","bandit","300","715521","0.0-262.0-0.0","19283408","wem/bandit_party_2","A3L5XFNSOY6QET","either","4","42","","","","","","","0","1","0","","0.3849790123","0.8","0.4","0.2","0.6","0.8488451861","0.4438284365","0.6533416475","0.3849790123","","","","","","","","","","","","","","76","L","3","","","221","main_expt",""
"","bandit","301","717155","0.0-263.0-0.0","19283408","wem/bandit_party_2","A3L5XFNSOY6QET","either","4","117","","","","","","","0","0","1","","0.2708628555","0.8","0.4","0.2","0.6","0.8202185963","0.3768672835","0.6780524799","0.2708628555","","","","","","","","","","","","","","76","L","3","","","222","main_expt",""
"","bandit","302","718883","0.0-264.0-0.0","19283408","wem/bandit_party_2","A3L5XFNSOY6QET","either","4","211","","","","","","","0","1","0","","0.638470603","0.8","0.4","0.2","0.6","0.839196386","0.4599748191","0.638470603","0.3886191555","","","","","","","","","","","","","","75","K","2","","","223","main_expt",""
"","bandit","303","720635","0.0-265.0-0.0","19283408","wem/bandit_party_2","A3L5XFNSOY6QET","either","4","235","","","","","","","0","0","1","","0.560582988","0.8","0.4","0.2","0.6","0.8340435664","0.5868274652","0.560582988","0.3352763987","","","","","","","","","","","","","","75","K","2","","","224","main_expt",""
"","bandit","304","722315","0.0-266.0-0.0","19283408","wem/bandit_party_2","A3L5XFNSOY6QET","either","4","164","","","","","","","0","1","0","","0.510759767","0.8","0.4","0.2","0.6","0.8229669419","0.510759767","0.5004803289","0.3948846532","","","","","","","","","","","","","","74","J","1","","","225","main_expt",""
"","bandit","305","724107","0.0-267.0-0.0","19283408","wem/bandit_party_2","A3L5XFNSOY6QET","either","4","275","","","","","","","0","1","0","","0.6026028704","0.8","0.4","0.2","0.6","0.8326575293","0.6026028704","0.5109709899","0.385279681","","","","","","","","","","","","","","74","J","1","","","226","main_expt",""
"","bandit","306","725883","0.0-268.0-0.0","19283408","wem/bandit_party_2","A3L5XFNSOY6QET","either","4","259","","","","","","","1","0","0","0.588132951","","0.8","0.4","0.2","0.6","","","","","0.8904476858","0.588132951","0.4271661703","0.3296530349","","","","","","","","","","74","J","1","","","227","main_expt",""
"","bandit","307","727677","0.0-269.0-0.0","19283408","wem/bandit_party_2","A3L5XFNSOY6QET","either","4","273","","","","","","","1","0","0","0.5754590721","","0.8","0.4","0.2","0.6","","","","","0.8877596604","0.5754590721","0.374673526","0.4227788413","","","","","","","","","","74","J","1","","","228","main_expt",""
"","bandit","308","729329","0.0-270.0-0.0","19283408","wem/bandit_party_2","A3L5XFNSOY6QET","either","4","137","","","","","","","0","1","0","","0.393435759","0.8","0.4","0.2","0.6","0.8647697669","0.6311951266","0.393435759","0.4470353227","","","","","","","","","","","","","","75","K","2","","","229","main_expt",""
"","bandit","309","731035","0.0-271.0-0.0","19283408","wem/bandit_party_2","A3L5XFNSOY6QET","either","4","185","","","","","","","0","0","1","","0.3299431778","0.8","0.4","0.2","0.6","0.8704214291","0.6164228117","0.3299431778","0.2986819632","","","","","","","","","","","","","","75","K","2","","","230","main_expt",""
"","bandit","310","732877","0.0-272.0-0.0","19283408","wem/bandit_party_2","A3L5XFNSOY6QET","either","4","323","","","","","","","0","0","1","0.5943568022","","0.8","0.4","0.2","0.6","","","","","0.8598686354","0.5943568022","0.3477061432","0.4508866759","","","","","","","","","","74","J","1","","","231","main_expt",""
"","bandit","311","734740","0.0-273.0-0.0","19283408","wem/bandit_party_2","A3L5XFNSOY6QET","either","4","345","","","","","","","0","0","1","","0.6032910051","0.8","0.4","0.2","0.6","0.7939027672","0.6032910051","0.3430234075","0.5125968159","","","","","","","","","","","","","","74","J","1","","","232","main_expt",""
"","bandit","312","736594","0.0-274.0-0.0","19283408","wem/bandit_party_2","A3L5XFNSOY6QET","either","4","337","","","","","","","0","0","1","","0.2812772396","0.8","0.4","0.2","0.6","0.7930400566","0.7225660168","0.2812772396","0.6020802482","","","","","","","","","","","","","","75","K","2","","","233","main_expt",""
"","bandit","313","738291","0.0-275.0-0.0","19283408","wem/bandit_party_2","A3L5XFNSOY6QET","either","4","181","","","","","","","0","0","1","0.5927943616","","0.8","0.4","0.2","0.6","","","","","0.7549101179","0.6718439238","0.2049555934","0.5927943616","","","","","","","","","","76","L","3","","","234","main_expt",""
"","bandit","314","740106","0.0-276.0-0.0","19283408","wem/bandit_party_2","A3L5XFNSOY6QET","either","4","300","","","","","","","1","0","0","0.7654291135","","0.8","0.4","0.2","0.6","","","","","0.7654291135","0.6025803433","0.144612338","0.5814417759","","","","","","","","","","72","H","0","img/none_selected.jpg","","235","main_expt",""
"","bandit","315","741819","0.0-277.0-0.0","19283408","wem/bandit_party_2","A3L5XFNSOY6QET","either","4","196","","","","","","","1","0","0","0.6965918162","","0.8","0.4","0.2","0.6","","","","","0.6965918162","0.6170166349","0.1509581517","0.6530024001","","","","","","","","","","72","H","0","img/none_selected.jpg","","236","main_expt",""
"","bandit","316","743604","0.0-278.0-0.0","19283408","wem/bandit_party_2","A3L5XFNSOY6QET","either","4","265","","","","","","","0","0","1","0.8151927982","","0.8","0.4","0.2","0.6","","","","","0.8151927982","0.6426153702","0.2267465707","0.5861490443","","","","","","","","","","72","H","0","img/none_selected.jpg","","237","main_expt",""
