"consent","trial_type","trial_index","time_elapsed","internal_node_id","subjID","study","MID","cond","drift","rt","responses","button_pressed","key_press","like","value","connected","gems","bombs","no_reward","GemPrChosen","BombPrChosen","GainOverPainPr_0","GainOverPainPr_1","GainOverPainPr_2","GainOverPainPr_3","LosePr_0","LosePr_1","LosePr_2","LosePr_3","WinPr_0","WinPr_1","WinPr_2","WinPr_3","Q0","Q1","Q2","gender","age","ethnicity","label","expt_phase","target","respCharCode","respKey","respChoiceNum","respChoice","practice","trial_counter","trial_label","Q0_index"
"GDM/GDM_behavioral_consent_30min_online.html","consent","0","9100","0.0-0.0","19884327","wem/bandit_party_2","A1YQYMEN76HNIE","either","7","","","","","","","","","","","","","","","","","","","","","","","","","","","","","","","","","","","","","","","","",""
"","survey-text","1","15175","0.0-1.0","19884327","wem/bandit_party_2","A1YQYMEN76HNIE","either","7","5062","{""Q0"":""A1YQYMEN76HNIE""}","","","","","","","","","","","","","","","","","","","","","","","","","","","","","","","","","","","","","","",""
"","button-response","2","19129","0.0-2.0","19884327","wem/bandit_party_2","A1YQYMEN76HNIE","either","7","2945","","2","","","","","","","","","","","","","","","","","","","","","","","","","","","","","","","","","","","","","",""
"","text-replacement","3","28756","0.0-3.0","19884327","wem/bandit_party_2","A1YQYMEN76HNIE","either","7","8621","","","32","","","","","","","","","","","","","","","","","","","","","","","","","","","","","","","","","","","","",""
"","text-replacement","4","37603","0.0-4.0","19884327","wem/bandit_party_2","A1YQYMEN76HNIE","either","7","8846","","","32","","","","","","","","","","","","","","","","","","","","","","","","","","","","","","","","","","","","",""
"","text-replacement","5","50215","0.0-5.0-0.0","19884327","wem/bandit_party_2","A1YQYMEN76HNIE","either","7","12607","","","32","","","","","","","","","","","","","","","","","","","","","","","","","","","","","","","","","","","","",""
"","identification","6","59499","0.0-6.0-0.0","19884327","wem/bandit_party_2","A1YQYMEN76HNIE","either","7","9255","","","","5","3","3","","","","","","","","","","","","","","","","","","","","","","","","pre","identification_pre","the Democratic Party","","","","","","","",""
"","identification","7","64693","0.0-6.0-1.0","19884327","wem/bandit_party_2","A1YQYMEN76HNIE","either","7","4171","","","","0","0","0","","","","","","","","","","","","","","","","","","","","","","","","pre","identification_pre","the Republican Party","","","","","","","",""
"","text-replacement","8","71988","0.0-7.0","19884327","wem/bandit_party_2","A1YQYMEN76HNIE","either","7","6289","","","32","","","","","","","","","","","","","","","","","","","","","","","","","","","","","","","","","","","","",""
"","text-replacement","9","77140","0.0-8.0","19884327","wem/bandit_party_2","A1YQYMEN76HNIE","either","7","5150","","","32","","","","","","","","","","","","","","","","","","","","","","","","","","","","","","","","","","","","",""
"","text-replacement","10","83340","0.0-9.0","19884327","wem/bandit_party_2","A1YQYMEN76HNIE","either","7","6197","","","32","","","","","","","","","","","","","","","","","","","","","","","","","","","","","","","","","","","","",""
"","text-replacement","11","86667","0.0-10.0","19884327","wem/bandit_party_2","A1YQYMEN76HNIE","either","7","3325","","","32","","","","","","","","","","","","","","","","","","","","","","","","","","","","","","","","","","","","",""
"","text-replacement","12","90636","0.0-11.0","19884327","wem/bandit_party_2","A1YQYMEN76HNIE","either","7","3967","","","32","","","","","","","","","","","","","","","","","","","","","","","","","","","","","","","","","","","","",""
"","bandit","13","96985","0.0-12.0-0.0","19884327","wem/bandit_party_2","A1YQYMEN76HNIE","either","7","4832","","","","","","","0","0","1","0","0","","","","","0","","","","0","","","","","","","","","","","","","74","J","0","img/none_selected_demo.jpg","true","0","",""
"","bandit","14","99256","0.0-13.0-0.0","19884327","wem/bandit_party_2","A1YQYMEN76HNIE","either","7","759","","","","","","","0","0","1","0","0","","","","","0","","","","0","","","","","","","","","","","","","75","K","0","img/none_selected_demo.jpg","true","0","",""
"","text-replacement","15","107454","0.0-14.0","19884327","wem/bandit_party_2","A1YQYMEN76HNIE","either","7","8195","","","32","","","","","","","","","","","","","","","","","","","","","","","","","","","","","","","","","","","","",""
"","text-replacement","16","112744","0.0-15.0","19884327","wem/bandit_party_2","A1YQYMEN76HNIE","either","7","5284","","","32","","","","","","","","","","","","","","","","","","","","","","","","","","","","","","","","","","","","",""
"","text-replacement","17","119861","0.0-16.0","19884327","wem/bandit_party_2","A1YQYMEN76HNIE","either","7","7114","","","32","","","","","","","","","","","","","","","","","","","","","","","","","","","","","","","","","","","","",""
"","text-replacement","18","124437","0.0-17.0","19884327","wem/bandit_party_2","A1YQYMEN76HNIE","either","7","4572","","","32","","","","","","","","","","","","","","","","","","","","","","","","","","","","","","","","","","","","",""
"","bandit","19","127971","0.0-18.0-0.0","19884327","wem/bandit_party_2","A1YQYMEN76HNIE","either","7","2017","","","","","","","0","0","1","0.8","","0.5","0.5","","","","","","","0.8","0.2","","","","","","","","","","","","74","J","0","img/none_selected_demo.jpg","true","0","80_20_practice",""
"","bandit","20","130282","0.0-18.0-1.0","19884327","wem/bandit_party_2","A1YQYMEN76HNIE","either","7","796","","","","","","","0","1","0","","0.8","0.5","0.5","","","0.8","0.2","","","","","","","","","","","","","","","","74","J","0","img/none_selected_demo.jpg","true","0","80_20_practice",""
"","bandit","21","132610","0.0-18.0-2.0","19884327","wem/bandit_party_2","A1YQYMEN76HNIE","either","7","815","","","","","","","1","0","0","0.8","","0.5","0.5","","","","","","","0.8","0.2","","","","","","","","","","","","74","J","0","img/none_selected_demo.jpg","true","0","80_20_practice",""
"","bandit","22","135240","0.0-18.0-3.0","19884327","wem/bandit_party_2","A1YQYMEN76HNIE","either","7","1118","","","","","","","0","0","1","0.8","","0.5","0.5","","","","","","","0.8","0.2","","","","","","","","","","","","74","J","0","img/none_selected_demo.jpg","true","0","80_20_practice",""
"","bandit","23","137489","0.0-18.0-4.0","19884327","wem/bandit_party_2","A1YQYMEN76HNIE","either","7","738","","","","","","","0","0","1","0.8","","0.5","0.5","","","","","","","0.8","0.2","","","","","","","","","","","","74","J","0","img/none_selected_demo.jpg","true","0","80_20_practice",""
"","bandit","24","139064","0.0-18.0-5.0","19884327","wem/bandit_party_2","A1YQYMEN76HNIE","either","7","63","","","","","","","0","0","1","0.8","","0.5","0.5","","","","","","","0.8","0.2","","","","","","","","","","","","74","J","0","img/none_selected_demo.jpg","true","0","80_20_practice",""
"","bandit","25","141033","0.0-18.0-6.0","19884327","wem/bandit_party_2","A1YQYMEN76HNIE","either","7","457","","","","","","","0","1","0","","0.8","0.5","0.5","","","0.8","0.2","","","","","","","","","","","","","","","","74","J","0","img/none_selected_demo.jpg","true","0","80_20_practice",""
"","bandit","26","143537","0.0-18.0-7.0","19884327","wem/bandit_party_2","A1YQYMEN76HNIE","either","7","991","","","","","","","0","1","0","","0.8","0.5","0.5","","","0.8","0.2","","","","","","","","","","","","","","","","74","J","0","img/none_selected_demo.jpg","true","0","80_20_practice",""
"","bandit","27","146095","0.0-18.0-8.0","19884327","wem/bandit_party_2","A1YQYMEN76HNIE","either","7","1048","","","","","","","1","0","0","0.8","","0.5","0.5","","","","","","","0.8","0.2","","","","","","","","","","","","74","J","0","img/none_selected_demo.jpg","true","0","80_20_practice",""
"","bandit","28","148120","0.0-18.0-9.0","19884327","wem/bandit_party_2","A1YQYMEN76HNIE","either","7","512","","","","","","","1","0","0","0.8","","0.5","0.5","","","","","","","0.8","0.2","","","","","","","","","","","","74","J","0","img/none_selected_demo.jpg","true","0","80_20_practice",""
"","bandit","29","150368","0.0-18.0-10.0","19884327","wem/bandit_party_2","A1YQYMEN76HNIE","either","7","735","","","","","","","0","0","1","0.2","","0.5","0.5","","","","","","","0.8","0.2","","","","","","","","","","","","75","K","1","","true","0","80_20_practice",""
"","bandit","30","152393","0.0-18.0-11.0","19884327","wem/bandit_party_2","A1YQYMEN76HNIE","either","7","513","","","","","","","0","0","1","","0.2","0.5","0.5","","","0.8","0.2","","","","","","","","","","","","","","","","75","K","1","","true","0","80_20_practice",""
"","bandit","31","154280","0.0-18.0-12.0","19884327","wem/bandit_party_2","A1YQYMEN76HNIE","either","7","376","","","","","","","0","0","1","","0.2","0.5","0.5","","","0.8","0.2","","","","","","","","","","","","","","","","75","K","1","","true","0","80_20_practice",""
"","bandit","32","156288","0.0-18.0-13.0","19884327","wem/bandit_party_2","A1YQYMEN76HNIE","either","7","497","","","","","","","0","0","1","","0.2","0.5","0.5","","","0.8","0.2","","","","","","","","","","","","","","","","75","K","1","","true","0","80_20_practice",""
"","bandit","33","158952","0.0-18.0-14.0","19884327","wem/bandit_party_2","A1YQYMEN76HNIE","either","7","1152","","","","","","","1","0","0","0.2","","0.5","0.5","","","","","","","0.8","0.2","","","","","","","","","","","","75","K","1","","true","0","80_20_practice",""
"","bandit","34","161513","0.0-18.0-15.0","19884327","wem/bandit_party_2","A1YQYMEN76HNIE","either","7","1049","","","","","","","0","0","1","","0.2","0.5","0.5","","","0.8","0.2","","","","","","","","","","","","","","","","75","K","1","","true","0","80_20_practice",""
"","bandit","35","163481","0.0-18.0-16.0","19884327","wem/bandit_party_2","A1YQYMEN76HNIE","either","7","456","","","","","","","1","0","0","0.2","","0.5","0.5","","","","","","","0.8","0.2","","","","","","","","","","","","75","K","1","","true","0","80_20_practice",""
"","bandit","36","165713","0.0-18.0-17.0","19884327","wem/bandit_party_2","A1YQYMEN76HNIE","either","7","720","","","","","","","0","0","1","","0.2","0.5","0.5","","","0.8","0.2","","","","","","","","","","","","","","","","75","K","1","","true","0","80_20_practice",""
"","bandit","37","169801","0.0-18.0-18.0","19884327","wem/bandit_party_2","A1YQYMEN76HNIE","either","7","2576","","","","","","","0","1","0","","0.8","0.5","0.5","","","0.8","0.2","","","","","","","","","","","","","","","","74","J","0","img/none_selected_demo.jpg","true","0","80_20_practice",""
"","bandit","38","171715","0.0-18.0-19.0","19884327","wem/bandit_party_2","A1YQYMEN76HNIE","either","7","394","","","","","","","0","0","1","","0.8","0.5","0.5","","","0.8","0.2","","","","","","","","","","","","","","","","74","J","0","img/none_selected_demo.jpg","true","0","80_20_practice",""
"","text-replacement","39","176630","0.0-19.0","19884327","wem/bandit_party_2","A1YQYMEN76HNIE","either","7","4912","","","32","","","","","","","","","","","","","","","","","","","","","","","","","","","","","","","","","","","","",""
"","bandit","40","179258","0.0-20.0-0.0","19884327","wem/bandit_party_2","A1YQYMEN76HNIE","either","7","1117","","","","","","","1","0","0","1","0","","","","","0","1","","","1","0","","","","","","","","","","","","74","J","0","img/none_selected_demo.jpg","true","0","",""
"","text-replacement","41","183094","0.0-21.0","19884327","wem/bandit_party_2","A1YQYMEN76HNIE","either","7","3833","","","32","","","","","","","","","","","","","","","","","","","","","","","","","","","","","","","","","","","","",""
"","text-replacement","42","186006","0.0-22.0","19884327","wem/bandit_party_2","A1YQYMEN76HNIE","either","7","2911","","","32","","","","","","","","","","","","","","","","","","","","","","","","","","","","","","","","","","","","",""
"","text-replacement","43","188143","0.0-23.0","19884327","wem/bandit_party_2","A1YQYMEN76HNIE","either","7","2135","","","32","","","","","","","","","","","","","","","","","","","","","","","","","","","","","","","","","","","","",""
"","text-replacement","44","190902","0.0-24.0","19884327","wem/bandit_party_2","A1YQYMEN76HNIE","either","7","2758","","","32","","","","","","","","","","","","","","","","","","","","","","","","","","","","","","","","","","","","",""
"","text-replacement","45","199815","0.0-25.0","19884327","wem/bandit_party_2","A1YQYMEN76HNIE","either","7","8910","","","32","","","","","","","","","","","","","","","","","","","","","","","","","","","","","","","","","","","","",""
"","text-replacement","46","202759","0.0-26.0","19884327","wem/bandit_party_2","A1YQYMEN76HNIE","either","7","2942","","","32","","","","","","","","","","","","","","","","","","","","","","","","","","","","","","","","","","","","",""
"","text-replacement","47","206694","0.0-27.0","19884327","wem/bandit_party_2","A1YQYMEN76HNIE","either","7","3934","","","32","","","","","","","","","","","","","","","","","","","","","","","","","","","","","","","","","","","","",""
"","text-replacement","48","211599","0.0-28.0","19884327","wem/bandit_party_2","A1YQYMEN76HNIE","either","7","4903","","","32","","","","","","","","","","","","","","","","","","","","","","","","","","","","","","","","","","","","",""
"","text-replacement","49","215231","0.0-29.0","19884327","wem/bandit_party_2","A1YQYMEN76HNIE","either","7","3630","","","32","","","","","","","","","","","","","","","","","","","","","","","","","","","","","","","","","","","","",""
"","text-replacement","50","233247","0.0-30.0","19884327","wem/bandit_party_2","A1YQYMEN76HNIE","either","7","18015","","","32","","","","","","","","","","","","","","","","","","","","","","","","","","","","","","","","","","","","",""
"","text-replacement","51","237551","0.0-31.0","19884327","wem/bandit_party_2","A1YQYMEN76HNIE","either","7","4302","","","32","","","","","","","","","","","","","","","","","","","","","","","","","","","","","","","","","","","","",""
"","bandit","52","240715","0.0-32.0-0.0","19884327","wem/bandit_party_2","A1YQYMEN76HNIE","either","7","1652","","","","","","","0","1","0","","0.8","0.5","0.5","0.5","0.5","0.8","0.2","0.6","0.2","","","","","","","","","","","","","","72","H","0","img/none_selected.jpg","true","0","full_practice",""
"","bandit","53","242706","0.0-32.0-1.0","19884327","wem/bandit_party_2","A1YQYMEN76HNIE","either","7","480","","","","","","","0","1","0","","0.8","0.5","0.5","0.5","0.5","0.8","0.2","0.6","0.2","","","","","","","","","","","","","","72","H","0","img/none_selected.jpg","true","0","full_practice",""
"","bandit","54","244611","0.0-32.0-2.0","19884327","wem/bandit_party_2","A1YQYMEN76HNIE","either","7","392","","","","","","","0","1","0","","0.8","0.5","0.5","0.5","0.5","0.8","0.2","0.6","0.2","","","","","","","","","","","","","","72","H","0","img/none_selected.jpg","true","0","full_practice",""
"","bandit","55","246483","0.0-32.0-3.0","19884327","wem/bandit_party_2","A1YQYMEN76HNIE","either","7","361","","","","","","","0","1","0","","0.8","0.5","0.5","0.5","0.5","0.8","0.2","0.6","0.2","","","","","","","","","","","","","","72","H","0","img/none_selected.jpg","true","0","full_practice",""
"","bandit","56","248323","0.0-32.0-4.0","19884327","wem/bandit_party_2","A1YQYMEN76HNIE","either","7","329","","","","","","","1","0","0","0.8","","0.5","0.5","0.5","0.5","","","","","0.8","0.2","0.6","0.2","","","","","","","","","","72","H","0","img/none_selected.jpg","true","0","full_practice",""
"","bandit","57","250139","0.0-32.0-5.0","19884327","wem/bandit_party_2","A1YQYMEN76HNIE","either","7","304","","","","","","","0","0","1","","0.8","0.5","0.5","0.5","0.5","0.8","0.2","0.6","0.2","","","","","","","","","","","","","","72","H","0","img/none_selected.jpg","true","0","full_practice",""
"","bandit","58","253242","0.0-32.0-6.0","19884327","wem/bandit_party_2","A1YQYMEN76HNIE","either","7","1592","","","","","","","0","0","1","","0.2","0.5","0.5","0.5","0.5","0.8","0.2","0.6","0.2","","","","","","","","","","","","","","74","J","1","","true","0","full_practice",""
"","bandit","59","255147","0.0-32.0-7.0","19884327","wem/bandit_party_2","A1YQYMEN76HNIE","either","7","394","","","","","","","1","0","0","0.2","","0.5","0.5","0.5","0.5","","","","","0.8","0.2","0.6","0.2","","","","","","","","","","74","J","1","","true","0","full_practice",""
"","bandit","60","256971","0.0-32.0-8.0","19884327","wem/bandit_party_2","A1YQYMEN76HNIE","either","7","311","","","","","","","0","0","1","0.2","","0.5","0.5","0.5","0.5","","","","","0.8","0.2","0.6","0.2","","","","","","","","","","74","J","1","","true","0","full_practice",""
"","bandit","61","258795","0.0-32.0-9.0","19884327","wem/bandit_party_2","A1YQYMEN76HNIE","either","7","313","","","","","","","0","0","1","0.2","","0.5","0.5","0.5","0.5","","","","","0.8","0.2","0.6","0.2","","","","","","","","","","74","J","1","","true","0","full_practice",""
"","bandit","62","260635","0.0-32.0-10.0","19884327","wem/bandit_party_2","A1YQYMEN76HNIE","either","7","328","","","","","","","0","0","1","0.6","","0.5","0.5","0.5","0.5","","","","","0.8","0.2","0.6","0.2","","","","","","","","","","75","K","2","","true","0","full_practice",""
"","bandit","63","262458","0.0-32.0-11.0","19884327","wem/bandit_party_2","A1YQYMEN76HNIE","either","7","312","","","","","","","0","1","0","","0.6","0.5","0.5","0.5","0.5","0.8","0.2","0.6","0.2","","","","","","","","","","","","","","75","K","2","","true","0","full_practice",""
"","bandit","64","265042","0.0-32.0-12.0","19884327","wem/bandit_party_2","A1YQYMEN76HNIE","either","7","1073","","","","","","","1","0","0","0.6","","0.5","0.5","0.5","0.5","","","","","0.8","0.2","0.6","0.2","","","","","","","","","","75","K","2","","true","0","full_practice",""
"","bandit","65","266995","0.0-32.0-13.0","19884327","wem/bandit_party_2","A1YQYMEN76HNIE","either","7","441","","","","","","","0","1","0","","0.6","0.5","0.5","0.5","0.5","0.8","0.2","0.6","0.2","","","","","","","","","","","","","","75","K","2","","true","0","full_practice",""
"","bandit","66","268978","0.0-32.0-14.0","19884327","wem/bandit_party_2","A1YQYMEN76HNIE","either","7","474","","","","","","","0","0","1","","0.2","0.5","0.5","0.5","0.5","0.8","0.2","0.6","0.2","","","","","","","","","","","","","","76","L","3","","true","0","full_practice",""
"","bandit","67","270859","0.0-32.0-15.0","19884327","wem/bandit_party_2","A1YQYMEN76HNIE","either","7","370","","","","","","","1","0","0","0.2","","0.5","0.5","0.5","0.5","","","","","0.8","0.2","0.6","0.2","","","","","","","","","","76","L","3","","true","0","full_practice",""
"","bandit","68","272713","0.0-32.0-16.0","19884327","wem/bandit_party_2","A1YQYMEN76HNIE","either","7","335","","","","","","","1","0","0","0.2","","0.5","0.5","0.5","0.5","","","","","0.8","0.2","0.6","0.2","","","","","","","","","","76","L","3","","true","0","full_practice",""
"","bandit","69","274731","0.0-32.0-17.0","19884327","wem/bandit_party_2","A1YQYMEN76HNIE","either","7","505","","","","","","","0","0","1","","0.2","0.5","0.5","0.5","0.5","0.8","0.2","0.6","0.2","","","","","","","","","","","","","","76","L","3","","true","0","full_practice",""
"","bandit","70","277130","0.0-32.0-18.0","19884327","wem/bandit_party_2","A1YQYMEN76HNIE","either","7","889","","","","","","","0","1","0","","0.8","0.5","0.5","0.5","0.5","0.8","0.2","0.6","0.2","","","","","","","","","","","","","","72","H","0","img/none_selected.jpg","true","0","full_practice",""
"","bandit","71","279123","0.0-32.0-19.0","19884327","wem/bandit_party_2","A1YQYMEN76HNIE","either","7","482","","","","","","","1","0","0","0.8","","0.5","0.5","0.5","0.5","","","","","0.8","0.2","0.6","0.2","","","","","","","","","","72","H","0","img/none_selected.jpg","true","0","full_practice",""
"","text","72","282160","0.0-33.0","19884327","wem/bandit_party_2","A1YQYMEN76HNIE","either","7","3031","","","32","","","","","","","","","","","","","","","","","","","","","","","","","","","","","","","","","","","","",""
"","text-replacement","73","294048","0.0-34.0","19884327","wem/bandit_party_2","A1YQYMEN76HNIE","either","7","10884","","","32","","","","","","","","","","","","","","","","","","","","","","","","","","","","","","","","","","","","",""
"","text-replacement","74","299992","0.0-35.0","19884327","wem/bandit_party_2","A1YQYMEN76HNIE","either","7","5941","","","32","","","","","","","","","","","","","","","","","","","","","","","","","","","","","","","","","","","","",""
"","text-replacement","75","303528","0.0-36.0","19884327","wem/bandit_party_2","A1YQYMEN76HNIE","either","7","3534","","","32","","","","","","","","","","","","","","","","","","","","","","","","","","","","","","","","","","","","",""
"","text-replacement","76","306824","0.0-37.0","19884327","wem/bandit_party_2","A1YQYMEN76HNIE","either","7","3295","","","32","","","","","","","","","","","","","","","","","","","","","","","","","","","","","","","","","","","","",""
"","text-replacement","77","310728","0.0-38.0","19884327","wem/bandit_party_2","A1YQYMEN76HNIE","either","7","3902","","","32","","","","","","","","","","","","","","","","","","","","","","","","","","","","","","","","","","","","",""
"","survey-multi-choice-replacement","78","320282","0.0-39.0-0.0","19884327","wem/bandit_party_2","A1YQYMEN76HNIE","either","7","9541","","","","","","","","","","","","","","","","","","","","","","","","Money will be added to the pool for <span style='color:red;'>REPUBLICANS</span>","","","","","","","attn_check","","","","","","","","","0"
"","survey-multi-choice-replacement","79","326375","0.0-40.0-0.0","19884327","wem/bandit_party_2","A1YQYMEN76HNIE","either","7","5077","","","","","","","","","","","","","","","","","","","","","","","","Equal amounts of money will be added to the pool for <span style='color:red;'>REPUBLICANS</span> and subtracted from the pool for <span style='color:blue;'>DEMOCRATS</span>","","","","","","","attn_check","","","","","","","","","2"
"","survey-multi-choice-replacement","80","330750","0.0-41.0-0.0","19884327","wem/bandit_party_2","A1YQYMEN76HNIE","either","7","3361","","","","","","","","","","","","","","","","","","","","","","","","No money will be added to either pool","","","","","","","attn_check","","","","","","","","","3"
"","bandit","81","335853","0.0-42.0-0.0","19884327","wem/bandit_party_2","A1YQYMEN76HNIE","either","7","2587","","","","","","","0","0","1","","0.2888626749","0.6","0.8","0.4","0.2","0.2888626749","0.1731741302","0.7088318221","0.5514722813","","","","","","","","","","","","","","72","H","0","img/none_selected.jpg","","1","main_expt",""
"","bandit","82","338059","0.0-43.0-0.0","19884327","wem/bandit_party_2","A1YQYMEN76HNIE","either","7","696","","","","","","","0","0","1","","0.3999538902","0.6","0.8","0.4","0.2","0.3999538902","0.2874485847","0.6292935488","0.5039303977","","","","","","","","","","","","","","72","H","0","img/none_selected.jpg","","2","main_expt",""
"","bandit","83","340043","0.0-44.0-0.0","19884327","wem/bandit_party_2","A1YQYMEN76HNIE","either","7","474","","","","","","","0","0","1","0.4126831114","","0.6","0.8","0.4","0.2","","","","","0.4126831114","0.2683250969","0.5285482983","0.5527877924","","","","","","","","","","72","H","0","img/none_selected.jpg","","3","main_expt",""
"","bandit","84","342076","0.0-45.0-0.0","19884327","wem/bandit_party_2","A1YQYMEN76HNIE","either","7","522","","","","","","","1","0","0","0.3988631097","","0.6","0.8","0.4","0.2","","","","","0.3923803367","0.3988631097","0.6744491701","0.6336700584","","","","","","","","","","74","J","1","","","4","main_expt",""
"","bandit","85","344078","0.0-46.0-0.0","19884327","wem/bandit_party_2","A1YQYMEN76HNIE","either","7","488","","","","","","","0","0","1","0.3568799457","","0.6","0.8","0.4","0.2","","","","","0.3803283439","0.3568799457","0.7922285807","0.6340088104","","","","","","","","","","74","J","1","","","5","main_expt",""
"","bandit","86","346052","0.0-47.0-0.0","19884327","wem/bandit_party_2","A1YQYMEN76HNIE","either","7","464","","","","","","","1","0","0","0.7459441126","","0.6","0.8","0.4","0.2","","","","","0.4214296899","0.3188731731","0.7459441126","0.5784181907","","","","","","","","","","75","K","2","","","6","main_expt",""
"","bandit","87","348008","0.0-48.0-0.0","19884327","wem/bandit_party_2","A1YQYMEN76HNIE","either","7","442","","","","","","","0","1","0","","0.7681481668","0.6","0.8","0.4","0.2","0.4755968838","0.4574196012","0.7681481668","0.6727083857","","","","","","","","","","","","","","75","K","2","","","7","main_expt",""
"","bandit","88","349902","0.0-49.0-0.0","19884327","wem/bandit_party_2","A1YQYMEN76HNIE","either","7","374","","","","","","","1","0","0","0.7251609313","","0.6","0.8","0.4","0.2","","","","","0.5353568537","0.5037884951","0.7251609313","0.7574508858","","","","","","","","","","75","K","2","","","8","main_expt",""
"","bandit","89","351749","0.0-50.0-0.0","19884327","wem/bandit_party_2","A1YQYMEN76HNIE","either","7","335","","","","","","","0","0","1","0.7403055102","","0.6","0.8","0.4","0.2","","","","","0.6246831942","0.5750013994","0.7403055102","0.8280759311","","","","","","","","","","75","K","2","","","9","main_expt",""
"","bandit","90","353686","0.0-51.0-0.0","19884327","wem/bandit_party_2","A1YQYMEN76HNIE","either","7","424","","","","","","","1","0","0","0.722944265","","0.6","0.8","0.4","0.2","","","","","0.4475954046","0.5399040382","0.722944265","0.859726102","","","","","","","","","","75","K","2","","","10","main_expt",""
"","bandit","91","355582","0.0-52.0-0.0","19884327","wem/bandit_party_2","A1YQYMEN76HNIE","either","7","384","","","","","","","0","1","0","","0.6833847698","0.6","0.8","0.4","0.2","0.4514702697","0.5181098662","0.6833847698","0.877956501","","","","","","","","","","","","","","75","K","2","","","11","main_expt",""
"","bandit","92","357469","0.0-53.0-0.0","19884327","wem/bandit_party_2","A1YQYMEN76HNIE","either","7","375","","","","","","","0","0","1","","0.689227163","0.6","0.8","0.4","0.2","0.4873058782","0.5489165229","0.689227163","0.8883669707","","","","","","","","","","","","","","75","K","2","","","12","main_expt",""
"","bandit","93","359302","0.0-54.0-0.0","19884327","wem/bandit_party_2","A1YQYMEN76HNIE","either","7","320","","","","","","","1","0","0","0.5178623456","","0.6","0.8","0.4","0.2","","","","","0.4862469224","0.6186986429","0.5178623456","0.817149195","","","","","","","","","","75","K","2","","","13","main_expt",""
"","bandit","94","361142","0.0-55.0-0.0","19884327","wem/bandit_party_2","A1YQYMEN76HNIE","either","7","327","","","","","","","0","1","0","","0.4768489018","0.6","0.8","0.4","0.2","0.360908092","0.4944095791","0.4768489018","0.8589139609","","","","","","","","","","","","","","75","K","2","","","14","main_expt",""
"","bandit","95","363090","0.0-56.0-0.0","19884327","wem/bandit_party_2","A1YQYMEN76HNIE","either","7","432","","","","","","","0","0","1","","0.5201849276","0.6","0.8","0.4","0.2","0.4126647893","0.4820951366","0.5201849276","0.7955781648","","","","","","","","","","","","","","75","K","2","","","15","main_expt",""
"","bandit","96","364951","0.0-57.0-0.0","19884327","wem/bandit_party_2","A1YQYMEN76HNIE","either","7","348","","","","","","","0","1","0","","0.8864445785","0.6","0.8","0.4","0.2","0.4930686601","0.4888848296","0.6862231469","0.8864445785","","","","","","","","","","","","","","76","L","3","","","16","main_expt",""
"","bandit","97","366806","0.0-58.0-0.0","19884327","wem/bandit_party_2","A1YQYMEN76HNIE","either","7","341","","","","","","","0","1","0","","0.8746062981","0.6","0.8","0.4","0.2","0.5162343008","0.381306026","0.7297328357","0.8746062981","","","","","","","","","","","","","","76","L","3","","","17","main_expt",""
"","bandit","98","368629","0.0-59.0-0.0","19884327","wem/bandit_party_2","A1YQYMEN76HNIE","either","7","311","","","","","","","0","1","0","","0.8910236512","0.6","0.8","0.4","0.2","0.5627456494","0.3537135189","0.6686287009","0.8910236512","","","","","","","","","","","","","","76","L","3","","","18","main_expt",""
"","bandit","99","370501","0.0-60.0-0.0","19884327","wem/bandit_party_2","A1YQYMEN76HNIE","either","7","361","","","","","","","0","1","0","","0.8932054573","0.6","0.8","0.4","0.2","0.4478227807","0.4891458502","0.7885428456","0.8932054573","","","","","","","","","","","","","","76","L","3","","","19","main_expt",""
"","bandit","100","372366","0.0-61.0-0.0","19884327","wem/bandit_party_2","A1YQYMEN76HNIE","either","7","353","","","","","","","0","1","0","","0.8900063933","0.6","0.8","0.4","0.2","0.5306796692","0.5440957398","0.7442236049","0.8900063933","","","","","","","","","","","","","","76","L","3","","","20","main_expt",""
"","bandit","101","374222","0.0-62.0-0.0","19884327","wem/bandit_party_2","A1YQYMEN76HNIE","either","7","344","","","","","","","1","0","0","0.8748704397","","0.6","0.8","0.4","0.2","","","","","0.5423611418","0.5621313733","0.7908218503","0.8748704397","","","","","","","","","","76","L","3","","","21","main_expt",""
"","bandit","102","376086","0.0-63.0-0.0","19884327","wem/bandit_party_2","A1YQYMEN76HNIE","either","7","353","","","","","","","1","0","0","0.8498769136","","0.6","0.8","0.4","0.2","","","","","0.4190568807","0.5296345876","0.7163236006","0.8498769136","","","","","","","","","","76","L","3","","","22","main_expt",""
"","bandit","103","377919","0.0-64.0-0.0","19884327","wem/bandit_party_2","A1YQYMEN76HNIE","either","7","317","","","","","","","0","1","0","","0.8357449374","0.6","0.8","0.4","0.2","0.4329937009","0.5187107172","0.7061190667","0.8357449374","","","","","","","","","","","","","","76","L","3","","","23","main_expt",""
"","bandit","104","379773","0.0-65.0-0.0","19884327","wem/bandit_party_2","A1YQYMEN76HNIE","either","7","343","","","","","","","0","1","0","","0.8431908073","0.6","0.8","0.4","0.2","0.4298879426","0.6000521927","0.7470556917","0.8431908073","","","","","","","","","","","","","","76","L","3","","","24","main_expt",""
"","bandit","105","381694","0.0-66.0-0.0","19884327","wem/bandit_party_2","A1YQYMEN76HNIE","either","7","408","","","","","","","0","1","0","","0.8741885854","0.6","0.8","0.4","0.2","0.2992323157","0.5443047256","0.8154180688","0.8741885854","","","","","","","","","","","","","","76","L","3","","","25","main_expt",""
"","bandit","106","383573","0.0-67.0-0.0","19884327","wem/bandit_party_2","A1YQYMEN76HNIE","either","7","369","","","","","","","0","1","0","","0.8940719671","0.6","0.8","0.4","0.2","0.3857263224","0.592493964","0.8395379789","0.8940719671","","","","","","","","","","","","","","76","L","3","","","26","main_expt",""
"","bandit","107","385573","0.0-68.0-0.0","19884327","wem/bandit_party_2","A1YQYMEN76HNIE","either","7","489","","","","","","","1","0","0","0.8733378856","","0.6","0.8","0.4","0.2","","","","","0.3715251318","0.5779569403","0.8023078409","0.8733378856","","","","","","","","","","76","L","3","","","27","main_expt",""
"","bandit","108","387495","0.0-69.0-0.0","19884327","wem/bandit_party_2","A1YQYMEN76HNIE","either","7","409","","","","","","","1","0","0","0.8695586723","","0.6","0.8","0.4","0.2","","","","","0.3387808014","0.7077223562","0.8248968235","0.8695586723","","","","","","","","","","76","L","3","","","28","main_expt",""
"","bandit","109","389437","0.0-70.0-0.0","19884327","wem/bandit_party_2","A1YQYMEN76HNIE","either","7","431","","","","","","","0","1","0","","0.7908290088","0.6","0.8","0.4","0.2","0.3737397218","0.7070353494","0.8621011303","0.7908290088","","","","","","","","","","","","","","76","L","3","","","29","main_expt",""
"","bandit","110","391607","0.0-71.0-0.0","19884327","wem/bandit_party_2","A1YQYMEN76HNIE","either","7","658","","","","","","","0","0","1","0.8518997755","","0.6","0.8","0.4","0.2","","","","","0.3232047389","0.6585428656","0.8873668535","0.8518997755","","","","","","","","","","76","L","3","","","30","main_expt",""
"","bandit","111","393751","0.0-72.0-0.0","19884327","wem/bandit_party_2","A1YQYMEN76HNIE","either","7","631","","","","","","","0","1","0","","0.8509842625","0.6","0.8","0.4","0.2","0.4130267239","0.6724088618","0.9318975106","0.8509842625","","","","","","","","","","","","","","76","L","3","","","31","main_expt",""
"","bandit","112","395718","0.0-73.0-0.0","19884327","wem/bandit_party_2","A1YQYMEN76HNIE","either","7","456","","","","","","","0","1","0","","0.872996121","0.6","0.8","0.4","0.2","0.4167758813","0.6416581209","0.9013609786","0.872996121","","","","","","","","","","","","","","76","L","3","","","32","main_expt",""
"","bandit","113","397631","0.0-74.0-0.0","19884327","wem/bandit_party_2","A1YQYMEN76HNIE","either","7","401","","","","","","","0","1","0","","0.8571046391","0.6","0.8","0.4","0.2","0.4546052232","0.7055802426","0.9041531295","0.8571046391","","","","","","","","","","","","","","76","L","3","","","33","main_expt",""
"","bandit","114","399542","0.0-75.0-0.0","19884327","wem/bandit_party_2","A1YQYMEN76HNIE","either","7","400","","","","","","","0","1","0","","0.9175819521","0.6","0.8","0.4","0.2","0.5231803088","0.7554114371","0.9386104272","0.9175819521","","","","","","","","","","","","","","76","L","3","","","34","main_expt",""
"","bandit","115","401406","0.0-76.0-0.0","19884327","wem/bandit_party_2","A1YQYMEN76HNIE","either","7","351","","","","","","","0","1","0","","0.9503165686","0.6","0.8","0.4","0.2","0.4661188593","0.8008095759","0.9180645683","0.9503165686","","","","","","","","","","","","","","76","L","3","","","35","main_expt",""
"","bandit","116","403276","0.0-77.0-0.0","19884327","wem/bandit_party_2","A1YQYMEN76HNIE","either","7","353","","","","","","","0","1","0","","0.9327615424","0.6","0.8","0.4","0.2","0.4106027186","0.6925109639","0.9095107155","0.9327615424","","","","","","","","","","","","","","76","L","3","","","36","main_expt",""
"","bandit","117","405109","0.0-78.0-0.0","19884327","wem/bandit_party_2","A1YQYMEN76HNIE","either","7","321","","","","","","","0","1","0","","0.9196494001","0.6","0.8","0.4","0.2","0.5021263718","0.7764255689","0.9405648028","0.9196494001","","","","","","","","","","","","","","76","L","3","","","37","main_expt",""
"","bandit","118","407023","0.0-79.0-0.0","19884327","wem/bandit_party_2","A1YQYMEN76HNIE","either","7","400","","","","","","","0","1","0","","0.928530414","0.6","0.8","0.4","0.2","0.5065313343","0.8392953971","0.9058459248","0.928530414","","","","","","","","","","","","","","76","L","3","","","38","main_expt",""
"","bandit","119","408950","0.0-80.0-0.0","19884327","wem/bandit_party_2","A1YQYMEN76HNIE","either","7","416","","","","","","","0","1","0","","0.9001545702","0.6","0.8","0.4","0.2","0.6098243774","0.7614495855","0.8784462517","0.9001545702","","","","","","","","","","","","","","76","L","3","","","39","main_expt",""
"","bandit","120","410870","0.0-81.0-0.0","19884327","wem/bandit_party_2","A1YQYMEN76HNIE","either","7","409","","","","","","","0","1","0","","0.8432481254","0.6","0.8","0.4","0.2","0.679699592","0.8060705796","0.8408568766","0.8432481254","","","","","","","","","","","","","","76","L","3","","","40","main_expt",""
"","bandit","121","412805","0.0-82.0-0.0","19884327","wem/bandit_party_2","A1YQYMEN76HNIE","either","7","425","","","","","","","0","0","1","","0.8326479564","0.6","0.8","0.4","0.2","0.616488607","0.7539991053","0.811342849","0.8326479564","","","","","","","","","","","","","","76","L","3","","","41","main_expt",""
"","bandit","122","414871","0.0-83.0-0.0","19884327","wem/bandit_party_2","A1YQYMEN76HNIE","either","7","552","","","","","","","1","0","0","0.8602810298","","0.6","0.8","0.4","0.2","","","","","0.6307104111","0.7717369324","0.8058808774","0.8602810298","","","","","","","","","","76","L","3","","","42","main_expt",""
"","bandit","123","416862","0.0-84.0-0.0","19884327","wem/bandit_party_2","A1YQYMEN76HNIE","either","7","480","","","","","","","0","1","0","","0.894365654","0.6","0.8","0.4","0.2","0.554567591","0.7625968551","0.7899844578","0.894365654","","","","","","","","","","","","","","76","L","3","","","43","main_expt",""
"","bandit","124","418765","0.0-85.0-0.0","19884327","wem/bandit_party_2","A1YQYMEN76HNIE","either","7","393","","","","","","","0","1","0","","0.9033664713","0.6","0.8","0.4","0.2","0.5281861223","0.8488621298","0.7654486741","0.9033664713","","","","","","","","","","","","","","76","L","3","","","44","main_expt",""
"","bandit","125","420879","0.0-86.0-0.0","19884327","wem/bandit_party_2","A1YQYMEN76HNIE","either","7","601","","","","","","","0","1","0","","0.8829964613","0.6","0.8","0.4","0.2","0.5043334007","0.8522077325","0.7674111825","0.8829964613","","","","","","","","","","","","","","76","L","3","","","45","main_expt",""
"","bandit","126","422917","0.0-87.0-0.0","19884327","wem/bandit_party_2","A1YQYMEN76HNIE","either","7","527","","","","","","","1","0","0","0.8674694879","","0.6","0.8","0.4","0.2","","","","","0.5426256613","0.8618589195","0.6301273516","0.8674694879","","","","","","","","","","76","L","3","","","46","main_expt",""
"","bandit","127","424910","0.0-88.0-0.0","19884327","wem/bandit_party_2","A1YQYMEN76HNIE","either","7","479","","","","","","","0","1","0","","0.8886720039","0.6","0.8","0.4","0.2","0.5024796093","0.905897833","0.7885969413","0.8886720039","","","","","","","","","","","","","","76","L","3","","","47","main_expt",""
"","bandit","128","426879","0.0-89.0-0.0","19884327","wem/bandit_party_2","A1YQYMEN76HNIE","either","7","455","","","","","","","0","0","1","","0.9229902905","0.6","0.8","0.4","0.2","0.4689138593","0.8929468812","0.7983786211","0.9229902905","","","","","","","","","","","","","","76","L","3","","","48","main_expt",""
"","bandit","129","429486","0.0-90.0-0.0","19884327","wem/bandit_party_2","A1YQYMEN76HNIE","either","7","1096","","","","","","","0","1","0","","0.4439560463","0.6","0.8","0.4","0.2","0.4439560463","0.854905512","0.8249867574","0.9141434128","","","","","","","","","","","","","","72","H","0","img/none_selected.jpg","","49","main_expt",""
"","bandit","130","431599","0.0-91.0-0.0","19884327","wem/bandit_party_2","A1YQYMEN76HNIE","either","7","600","","","","","","","1","0","0","0.4079842927","","0.6","0.8","0.4","0.2","","","","","0.4079842927","0.8363103738","0.7532301684","0.9181160336","","","","","","","","","","72","H","0","img/none_selected.jpg","","50","main_expt",""
"","bandit","131","433567","0.0-92.0-0.0","19884327","wem/bandit_party_2","A1YQYMEN76HNIE","either","7","455","","","","","","","0","0","1","","0.4675199832","0.6","0.8","0.4","0.2","0.4675199832","0.7168506975","0.6750909554","0.9266489825","","","","","","","","","","","","","","72","H","0","img/none_selected.jpg","","51","main_expt",""
"","bandit","132","435495","0.0-93.0-0.0","19884327","wem/bandit_party_2","A1YQYMEN76HNIE","either","7","415","","","","","","","1","0","0","0.9285581488","","0.6","0.8","0.4","0.2","","","","","0.4368052975","0.6507986152","0.6762079337","0.9285581488","","","","","","","","","","76","L","3","","","52","main_expt",""
"","bandit","133","437614","0.0-94.0-0.0","19884327","wem/bandit_party_2","A1YQYMEN76HNIE","either","7","609","","","","","","","0","1","0","","0.9171724481","0.6","0.8","0.4","0.2","0.4967902672","0.6531867096","0.7882030045","0.9171724481","","","","","","","","","","","","","","76","L","3","","","53","main_expt",""
"","bandit","134","439815","0.0-95.0-0.0","19884327","wem/bandit_party_2","A1YQYMEN76HNIE","either","7","689","","","","","","","0","1","0","","0.8709862684","0.6","0.8","0.4","0.2","0.5321533453","0.6178049746","0.8759533557","0.8709862684","","","","","","","","","","","","","","76","L","3","","","54","main_expt",""
"","bandit","135","441887","0.0-96.0-0.0","19884327","wem/bandit_party_2","A1YQYMEN76HNIE","either","7","560","","","","","","","0","0","1","","0.9016108676","0.6","0.8","0.4","0.2","0.593251847","0.5501477499","0.9307112091","0.9016108676","","","","","","","","","","","","","","76","L","3","","","55","main_expt",""
"","bandit","136","443822","0.0-97.0-0.0","19884327","wem/bandit_party_2","A1YQYMEN76HNIE","either","7","424","","","","","","","0","1","0","","0.9123335035","0.6","0.8","0.4","0.2","0.602347159","0.5181914202","0.9486344027","0.9123335035","","","","","","","","","","","","","","76","L","3","","","56","main_expt",""
"","bandit","137","445711","0.0-98.0-0.0","19884327","wem/bandit_party_2","A1YQYMEN76HNIE","either","7","377","","","","","","","0","1","0","","0.9338523698","0.6","0.8","0.4","0.2","0.736851976","0.5052283364","0.9450559811","0.9338523698","","","","","","","","","","","","","","76","L","3","","","57","main_expt",""
"","bandit","138","447632","0.0-99.0-0.0","19884327","wem/bandit_party_2","A1YQYMEN76HNIE","either","7","408","","","","","","","1","0","0","0.9023069914","","0.6","0.8","0.4","0.2","","","","","0.7112026436","0.4494585665","0.960587128","0.9023069914","","","","","","","","","","76","L","3","","","58","main_expt",""
"","bandit","139","449621","0.0-100.0-0.0","19884327","wem/bandit_party_2","A1YQYMEN76HNIE","either","7","479","","","","","","","0","1","0","","0.903153386","0.6","0.8","0.4","0.2","0.7605469626","0.4431029696","0.9272570312","0.903153386","","","","","","","","","","","","","","76","L","3","","","59","main_expt",""
"","bandit","140","451526","0.0-101.0-0.0","19884327","wem/bandit_party_2","A1YQYMEN76HNIE","either","7","394","","","","","","","0","1","0","","0.8975643475","0.6","0.8","0.4","0.2","0.6504737249","0.4213069188","0.9075075979","0.8975643475","","","","","","","","","","","","","","76","L","3","","","60","main_expt",""
"","bandit","141","453582","0.0-102.0-0.0","19884327","wem/bandit_party_2","A1YQYMEN76HNIE","either","7","545","","","","","","","0","1","0","","0.8455107238","0.6","0.8","0.4","0.2","0.7417300409","0.4735464544","0.9011961695","0.8455107238","","","","","","","","","","","","","","76","L","3","","","61","main_expt",""
"","bandit","142","455552","0.0-103.0-0.0","19884327","wem/bandit_party_2","A1YQYMEN76HNIE","either","7","457","","","","","","","0","1","0","","0.8423106617","0.6","0.8","0.4","0.2","0.6889655243","0.4260239588","0.9025442902","0.8423106617","","","","","","","","","","","","","","76","L","3","","","62","main_expt",""
"","bandit","143","457505","0.0-104.0-0.0","19884327","wem/bandit_party_2","A1YQYMEN76HNIE","either","7","439","","","","","","","0","1","0","","0.6997676278","0.6","0.8","0.4","0.2","0.7532165261","0.4048641732","0.900711875","0.6997676278","","","","","","","","","","","","","","76","L","3","","","63","main_expt",""
"","bandit","144","460440","0.0-105.0-0.0","19884327","wem/bandit_party_2","A1YQYMEN76HNIE","either","7","1422","","","","","","","0","0","1","","0.8033841581","0.6","0.8","0.4","0.2","0.7614619666","0.261135461","0.8445511995","0.8033841581","","","","","","","","","","","","","","76","L","3","","","64","main_expt",""
"","bandit","145","470799","0.0-106.0-0.0","19884327","wem/bandit_party_2","A1YQYMEN76HNIE","either","7","8847","","","","","","","1","0","0","0.7474824059","","0.6","0.8","0.4","0.2","","","","","0.7474824059","0.4398785507","0.7838665633","0.8458775523","","","","","","","","","","72","H","0","img/none_selected.jpg","","65","main_expt",""
"","bandit","146","472887","0.0-107.0-0.0","19884327","wem/bandit_party_2","A1YQYMEN76HNIE","either","7","576","","","","","","","1","0","0","0.7083026918","","0.6","0.8","0.4","0.2","","","","","0.7083026918","0.4549930047","0.8399866527","0.8612648572","","","","","","","","","","72","H","0","img/none_selected.jpg","","66","main_expt",""
"","bandit","147","475056","0.0-108.0-0.0","19884327","wem/bandit_party_2","A1YQYMEN76HNIE","either","7","657","","","","","","","0","0","1","0.6535093674","","0.6","0.8","0.4","0.2","","","","","0.6535093674","0.5565794079","0.9109535201","0.8686018104","","","","","","","","","","72","H","0","img/none_selected.jpg","","67","main_expt",""
"","bandit","148","477056","0.0-109.0-0.0","19884327","wem/bandit_party_2","A1YQYMEN76HNIE","either","7","488","","","","","","","0","1","0","","0.8693437115","0.6","0.8","0.4","0.2","0.4923739087","0.4211802827","0.9064065477","0.8693437115","","","","","","","","","","","","","","76","L","3","","","68","main_expt",""
"","bandit","149","479048","0.0-110.0-0.0","19884327","wem/bandit_party_2","A1YQYMEN76HNIE","either","7","480","","","","","","","0","0","1","","0.9168970181","0.6","0.8","0.4","0.2","0.4898097669","0.3687693293","0.9315833469","0.9168970181","","","","","","","","","","","","","","76","L","3","","","69","main_expt",""
"","bandit","150","480992","0.0-111.0-0.0","19884327","wem/bandit_party_2","A1YQYMEN76HNIE","either","7","432","","","","","","","0","1","0","","0.9293527272","0.6","0.8","0.4","0.2","0.4369614599","0.3460903474","0.9393923483","0.9293527272","","","","","","","","","","","","","","76","L","3","","","70","main_expt",""
"","bandit","151","482992","0.0-112.0-0.0","19884327","wem/bandit_party_2","A1YQYMEN76HNIE","either","7","487","","","","","","","0","1","0","","0.949087413","0.6","0.8","0.4","0.2","0.5031037484","0.3278112836","0.9568343035","0.949087413","","","","","","","","","","","","","","76","L","3","","","71","main_expt",""
"","bandit","152","484928","0.0-113.0-0.0","19884327","wem/bandit_party_2","A1YQYMEN76HNIE","either","7","424","","","","","","","0","0","1","","0.906373323","0.6","0.8","0.4","0.2","0.5397903688","0.2720469766","0.947758434","0.906373323","","","","","","","","","","","","","","76","L","3","","","72","main_expt",""
"","bandit","153","486912","0.0-114.0-0.0","19884327","wem/bandit_party_2","A1YQYMEN76HNIE","either","7","471","","","","","","","0","1","0","","0.93965919","0.6","0.8","0.4","0.2","0.5540652028","0.2451019773","0.9052010222","0.93965919","","","","","","","","","","","","","","76","L","3","","","73","main_expt",""
"","bandit","154","489048","0.0-115.0-0.0","19884327","wem/bandit_party_2","A1YQYMEN76HNIE","either","7","624","","","","","","","0","1","0","","0.9416319858","0.6","0.8","0.4","0.2","0.61733434","0.2645862521","0.927704936","0.9416319858","","","","","","","","","","","","","","76","L","3","","","74","main_expt",""
"","bandit","155","491007","0.0-116.0-0.0","19884327","wem/bandit_party_2","A1YQYMEN76HNIE","either","7","448","","","","","","","0","1","0","","0.9535384208","0.6","0.8","0.4","0.2","0.6341908543","0.2298582","0.8769567517","0.9535384208","","","","","","","","","","","","","","76","L","3","","","75","main_expt",""
"","bandit","156","492937","0.0-117.0-0.0","19884327","wem/bandit_party_2","A1YQYMEN76HNIE","either","7","416","","","","","","","0","1","0","","0.9585479729","0.6","0.8","0.4","0.2","0.6355577018","0.3460043445","0.8456064169","0.9585479729","","","","","","","","","","","","","","76","L","3","","","76","main_expt",""
"","bandit","157","495072","0.0-118.0-0.0","19884327","wem/bandit_party_2","A1YQYMEN76HNIE","either","7","623","","","","","","","0","1","0","","0.9610253773","0.6","0.8","0.4","0.2","0.7055426269","0.2526488818","0.8325595713","0.9610253773","","","","","","","","","","","","","","76","L","3","","","77","main_expt",""
"","bandit","158","497018","0.0-119.0-0.0","19884327","wem/bandit_party_2","A1YQYMEN76HNIE","either","7","431","","","","","","","0","1","0","","0.9580320452","0.6","0.8","0.4","0.2","0.6137882531","0.2625396382","0.9128982172","0.9580320452","","","","","","","","","","","","","","76","L","3","","","78","main_expt",""
"","bandit","159","499072","0.0-120.0-0.0","19884327","wem/bandit_party_2","A1YQYMEN76HNIE","either","7","542","","","","","","","1","0","0","0.9403834825","","0.6","0.8","0.4","0.2","","","","","0.668392527","0.2957535945","0.9213349282","0.9403834825","","","","","","","","","","76","L","3","","","79","main_expt",""
"","bandit","160","501208","0.0-121.0-0.0","19884327","wem/bandit_party_2","A1YQYMEN76HNIE","either","7","622","","","","","","","0","1","0","","0.946171157","0.6","0.8","0.4","0.2","0.7457361895","0.1831261498","0.8935563746","0.946171157","","","","","","","","","","","","","","76","L","3","","","80","main_expt",""
"","bandit","161","503192","0.0-122.0-0.0","19884327","wem/bandit_party_2","A1YQYMEN76HNIE","either","7","471","","","","","","","0","1","0","","0.9800092583","0.6","0.8","0.4","0.2","0.8028050151","0.1450659425","0.932831263","0.9800092583","","","","","","","","","","","","","","76","L","3","","","81","main_expt",""
"","bandit","162","505104","0.0-123.0-0.0","19884327","wem/bandit_party_2","A1YQYMEN76HNIE","either","7","400","","","","","","","0","1","0","","0.9666397243","0.6","0.8","0.4","0.2","0.8727424511","0.1486641529","0.9403650082","0.9666397243","","","","","","","","","","","","","","76","L","3","","","82","main_expt",""
"","bandit","163","507064","0.0-124.0-0.0","19884327","wem/bandit_party_2","A1YQYMEN76HNIE","either","7","447","","","","","","","0","1","0","","0.9637330664","0.6","0.8","0.4","0.2","0.8283068274","0.1567811066","0.9066396881","0.9637330664","","","","","","","","","","","","","","76","L","3","","","83","main_expt",""
"","bandit","164","509065","0.0-125.0-0.0","19884327","wem/bandit_party_2","A1YQYMEN76HNIE","either","7","487","","","","","","","0","0","1","","0.9617949183","0.6","0.8","0.4","0.2","0.8030064341","0.196091916","0.8962006295","0.9617949183","","","","","","","","","","","","","","76","L","3","","","84","main_expt",""
"","bandit","165","511040","0.0-126.0-0.0","19884327","wem/bandit_party_2","A1YQYMEN76HNIE","either","7","463","","","","","","","0","0","1","","0.9561985801","0.6","0.8","0.4","0.2","0.8622567251","0.1512390112","0.9093999993","0.9561985801","","","","","","","","","","","","","","76","L","3","","","85","main_expt",""
"","bandit","166","512960","0.0-127.0-0.0","19884327","wem/bandit_party_2","A1YQYMEN76HNIE","either","7","408","","","","","","","0","1","0","","0.896584634","0.6","0.8","0.4","0.2","0.896584634","0.1486491559","0.9326862648","0.9422505668","","","","","","","","","","","","","","72","H","0","img/none_selected.jpg","","86","main_expt",""
"","bandit","167","515360","0.0-128.0-0.0","19884327","wem/bandit_party_2","A1YQYMEN76HNIE","either","7","887","","","","","","","1","0","0","0.9208758521","","0.6","0.8","0.4","0.2","","","","","0.9208758521","0.1047878604","0.9039434857","0.926711091","","","","","","","","","","72","H","0","img/none_selected.jpg","","87","main_expt",""
"","bandit","168","517330","0.0-129.0-0.0","19884327","wem/bandit_party_2","A1YQYMEN76HNIE","either","7","456","","","","","","","1","0","0","0.9266301883","","0.6","0.8","0.4","0.2","","","","","0.9266301883","0.07038149384","0.9195127861","0.9092576496","","","","","","","","","","72","H","0","img/none_selected.jpg","","88","main_expt",""
"","bandit","169","519745","0.0-130.0-0.0","19884327","wem/bandit_party_2","A1YQYMEN76HNIE","either","7","903","","","","","","","1","0","0","0.9259215542","","0.6","0.8","0.4","0.2","","","","","0.9259215542","0.1311535074","0.9225053559","0.8948591238","","","","","","","","","","72","H","0","img/none_selected.jpg","","89","main_expt",""
"","bandit","170","521712","0.0-131.0-0.0","19884327","wem/bandit_party_2","A1YQYMEN76HNIE","either","7","455","","","","","","","0","1","0","","0.9400480964","0.6","0.8","0.4","0.2","0.9400480964","0.1241310956","0.9014563988","0.8716727139","","","","","","","","","","","","","","72","H","0","img/none_selected.jpg","","90","main_expt",""
"","bandit","171","524098","0.0-132.0-0.0","19884327","wem/bandit_party_2","A1YQYMEN76HNIE","either","7","872","","","","","","","0","0","1","","0.8961855863","0.6","0.8","0.4","0.2","0.8961855863","0.09664170694","0.9162570652","0.8969144331","","","","","","","","","","","","","","72","H","0","img/none_selected.jpg","","91","main_expt",""
"","bandit","172","526472","0.0-133.0-0.0","19884327","wem/bandit_party_2","A1YQYMEN76HNIE","either","7","863","","","","","","","0","1","0","","0.9211437923","0.6","0.8","0.4","0.2","0.9211437923","0.09586364307","0.9171553871","0.9171199264","","","","","","","","","","","","","","72","H","0","img/none_selected.jpg","","92","main_expt",""
"","bandit","173","528456","0.0-134.0-0.0","19884327","wem/bandit_party_2","A1YQYMEN76HNIE","either","7","472","","","","","","","1","0","0","0.8947860396","","0.6","0.8","0.4","0.2","","","","","0.8947860396","0.08304118766","0.9463284029","0.9593171332","","","","","","","","","","72","H","0","img/none_selected.jpg","","93","main_expt",""
"","bandit","174","530433","0.0-135.0-0.0","19884327","wem/bandit_party_2","A1YQYMEN76HNIE","either","7","465","","","","","","","0","0","1","","0.822540961","0.6","0.8","0.4","0.2","0.822540961","0.1222865453","0.9477079066","0.959226596","","","","","","","","","","","","","","72","H","0","img/none_selected.jpg","","94","main_expt",""
"","bandit","175","532760","0.0-136.0-0.0","19884327","wem/bandit_party_2","A1YQYMEN76HNIE","either","7","816","","","","","","","0","0","1","0.211460517","","0.6","0.8","0.4","0.2","","","","","0.8288041746","0.211460517","0.9474919074","0.947105423","","","","","","","","","","74","J","1","","","95","main_expt",""
"","bandit","176","534752","0.0-137.0-0.0","19884327","wem/bandit_party_2","A1YQYMEN76HNIE","either","7","480","","","","","","","0","0","1","0.2757920232","","0.6","0.8","0.4","0.2","","","","","0.8217366877","0.2757920232","0.9722490369","0.937205139","","","","","","","","","","74","J","1","","","96","main_expt",""
"","bandit","177","536736","0.0-138.0-0.0","19884327","wem/bandit_party_2","A1YQYMEN76HNIE","either","7","473","","","","","","","0","1","0","","0.980822097","0.6","0.8","0.4","0.2","0.725285089","0.2646876298","0.980822097","0.9472767204","","","","","","","","","","","","","","75","K","2","","","97","main_expt",""
"","bandit","178","538681","0.0-139.0-0.0","19884327","wem/bandit_party_2","A1YQYMEN76HNIE","either","7","433","","","","","","","1","0","0","0.9761591307","","0.6","0.8","0.4","0.2","","","","","0.7958966199","0.3278454636","0.9761591307","0.962959595","","","","","","","","","","75","K","2","","","98","main_expt",""
"","bandit","179","540665","0.0-140.0-0.0","19884327","wem/bandit_party_2","A1YQYMEN76HNIE","either","7","471","","","","","","","1","0","0","0.9597391097","","0.6","0.8","0.4","0.2","","","","","0.7741840332","0.4641870332","0.9597391097","0.9720903607","","","","","","","","","","75","K","2","","","99","main_expt",""
"","bandit","180","543537","0.0-141.0-0.0","19884327","wem/bandit_party_2","A1YQYMEN76HNIE","either","7","1360","","","","","","","0","0","1","","0.9557148533","0.6","0.8","0.4","0.2","0.7934767162","0.3972344865","0.9557148533","0.9737169538","","","","","","","","","","","","","","75","K","2","","","100","main_expt",""
"","bandit","181","545490","0.0-142.0-0.0","19884327","wem/bandit_party_2","A1YQYMEN76HNIE","either","7","439","","","","","","","1","0","0","0.9687934467","","0.6","0.8","0.4","0.2","","","","","0.8307638242","0.4395304924","0.9687934467","0.986468331","","","","","","","","","","75","K","2","","","101","main_expt",""
"","bandit","182","547554","0.0-143.0-0.0","19884327","wem/bandit_party_2","A1YQYMEN76HNIE","either","7","551","","","","","","","0","1","0","","0.9859557102","0.6","0.8","0.4","0.2","0.7737236933","0.5248298482","0.9713318577","0.9859557102","","","","","","","","","","","","","","76","L","3","","","102","main_expt",""
"","bandit","183","549585","0.0-144.0-0.0","19884327","wem/bandit_party_2","A1YQYMEN76HNIE","either","7","519","","","","","","","1","0","0","0.9828698412","","0.6","0.8","0.4","0.2","","","","","0.8168427084","0.6218364577","0.9768128314","0.9828698412","","","","","","","","","","76","L","3","","","103","main_expt",""
"","bandit","184","551809","0.0-145.0-0.0","19884327","wem/bandit_party_2","A1YQYMEN76HNIE","either","7","711","","","","","","","0","1","0","","0.9655029871","0.6","0.8","0.4","0.2","0.7020104164","0.5528563194","0.9566706727","0.9655029871","","","","","","","","","","","","","","76","L","3","","","104","main_expt",""
"","bandit","185","554177","0.0-146.0-0.0","19884327","wem/bandit_party_2","A1YQYMEN76HNIE","either","7","857","","","","","","","0","1","0","","0.9587067199","0.6","0.8","0.4","0.2","0.6750414237","0.515821512","0.9352711559","0.9587067199","","","","","","","","","","","","","","76","L","3","","","105","main_expt",""
"","bandit","186","556201","0.0-147.0-0.0","19884327","wem/bandit_party_2","A1YQYMEN76HNIE","either","7","512","","","","","","","0","1","0","","0.9358961366","0.6","0.8","0.4","0.2","0.5886413089","0.5380341879","0.8980036198","0.9358961366","","","","","","","","","","","","","","76","L","3","","","106","main_expt",""
"","bandit","187","558266","0.0-148.0-0.0","19884327","wem/bandit_party_2","A1YQYMEN76HNIE","either","7","552","","","","","","","0","1","0","","0.8829949032","0.6","0.8","0.4","0.2","0.5507707533","0.3291998873","0.9175797088","0.8829949032","","","","","","","","","","","","","","76","L","3","","","107","main_expt",""
"","bandit","188","560337","0.0-149.0-0.0","19884327","wem/bandit_party_2","A1YQYMEN76HNIE","either","7","558","","","","","","","0","1","0","","0.7668100276","0.6","0.8","0.4","0.2","0.4325904974","0.3608627265","0.8966825343","0.7668100276","","","","","","","","","","","","","","76","L","3","","","108","main_expt",""
"","bandit","189","562361","0.0-150.0-0.0","19884327","wem/bandit_party_2","A1YQYMEN76HNIE","either","7","512","","","","","","","0","1","0","","0.7652463225","0.6","0.8","0.4","0.2","0.3735159861","0.3837942066","0.8883819791","0.7652463225","","","","","","","","","","","","","","76","L","3","","","109","main_expt",""
"","bandit","190","564938","0.0-151.0-0.0","19884327","wem/bandit_party_2","A1YQYMEN76HNIE","either","7","1063","","","","","","","1","0","0","0.7974745759","","0.6","0.8","0.4","0.2","","","","","0.3704440872","0.3019365294","0.9087011364","0.7974745759","","","","","","","","","","76","L","3","","","110","main_expt",""
"","bandit","191","567138","0.0-152.0-0.0","19884327","wem/bandit_party_2","A1YQYMEN76HNIE","either","7","688","","","","","","","0","1","0","","0.812352323","0.6","0.8","0.4","0.2","0.2749067499","0.3483008865","0.9337026812","0.812352323","","","","","","","","","","","","","","76","L","3","","","111","main_expt",""
"","bandit","192","569123","0.0-153.0-0.0","19884327","wem/bandit_party_2","A1YQYMEN76HNIE","either","7","471","","","","","","","0","0","1","0.7428975936","","0.6","0.8","0.4","0.2","","","","","0.2734667401","0.4342302697","0.9113388615","0.7428975936","","","","","","","","","","76","L","3","","","112","main_expt",""
"","bandit","193","570993","0.0-154.0-0.0","19884327","wem/bandit_party_2","A1YQYMEN76HNIE","either","7","358","","","","","","","0","1","0","","0.7139653514","0.6","0.8","0.4","0.2","0.2291946885","0.5187246657","0.8980528729","0.7139653514","","","","","","","","","","","","","","76","L","3","","","113","main_expt",""
"","bandit","194","573009","0.0-155.0-0.0","19884327","wem/bandit_party_2","A1YQYMEN76HNIE","either","7","504","","","","","","","0","0","1","","0.7945657698","0.6","0.8","0.4","0.2","0.2413339081","0.5381742134","0.8036326458","0.7945657698","","","","","","","","","","","","","","76","L","3","","","114","main_expt",""
"","bandit","195","574971","0.0-156.0-0.0","19884327","wem/bandit_party_2","A1YQYMEN76HNIE","either","7","448","","","","","","","0","1","0","","0.8700945717","0.6","0.8","0.4","0.2","0.3092826039","0.4785029821","0.8700945717","0.8405588069","","","","","","","","","","","","","","75","K","2","","","115","main_expt",""
"","bandit","196","576938","0.0-157.0-0.0","19884327","wem/bandit_party_2","A1YQYMEN76HNIE","either","7","454","","","","","","","1","0","0","0.8895114993","","0.6","0.8","0.4","0.2","","","","","0.2361366225","0.4654757386","0.8895114993","0.8641798474","","","","","","","","","","75","K","2","","","116","main_expt",""
"","bandit","197","579314","0.0-158.0-0.0","19884327","wem/bandit_party_2","A1YQYMEN76HNIE","either","7","863","","","","","","","0","1","0","","0.8936856952","0.6","0.8","0.4","0.2","0.218402711","0.4578633225","0.8936856952","0.8756768431","","","","","","","","","","","","","","75","K","2","","","117","main_expt",""
"","bandit","198","581266","0.0-159.0-0.0","19884327","wem/bandit_party_2","A1YQYMEN76HNIE","either","7","439","","","","","","","0","1","0","","0.9015269718","0.6","0.8","0.4","0.2","0.2003641109","0.4773941538","0.8077127093","0.9015269718","","","","","","","","","","","","","","76","L","3","","","118","main_expt",""
"","bandit","199","583217","0.0-160.0-0.0","19884327","wem/bandit_party_2","A1YQYMEN76HNIE","either","7","439","","","","","","","0","1","0","","0.8709738884","0.6","0.8","0.4","0.2","0.1375137305","0.508374463","0.8901108642","0.8709738884","","","","","","","","","","","","","","76","L","3","","","119","main_expt",""
"","bandit","200","585122","0.0-161.0-0.0","19884327","wem/bandit_party_2","A1YQYMEN76HNIE","either","7","392","","","","","","","0","1","0","","0.8268338002","0.6","0.8","0.4","0.2","0.08656631556","0.4294310012","0.8731124259","0.8268338002","","","","","","","","","","","","","","76","L","3","","","120","main_expt",""
"","bandit","201","587419","0.0-162.0-0.0","19884327","wem/bandit_party_2","A1YQYMEN76HNIE","either","7","783","","","","","","","0","1","0","","0.8432616236","0.6","0.8","0.4","0.2","0.07812634859","0.3933985885","0.8509174952","0.8432616236","","","","","","","","","","","","","","76","L","3","","","121","main_expt",""
"","bandit","202","589586","0.0-163.0-0.0","19884327","wem/bandit_party_2","A1YQYMEN76HNIE","either","7","652","","","","","","","0","1","0","","0.8128728295","0.6","0.8","0.4","0.2","0.09046411854","0.2641409089","0.8707856005","0.8128728295","","","","","","","","","","","","","","76","L","3","","","122","main_expt",""
"","bandit","203","591938","0.0-164.0-0.0","19884327","wem/bandit_party_2","A1YQYMEN76HNIE","either","7","839","","","","","","","0","1","0","","0.752198112","0.6","0.8","0.4","0.2","0.1132512529","0.2491349268","0.7592524618","0.752198112","","","","","","","","","","","","","","76","L","3","","","123","main_expt",""
"","bandit","204","594331","0.0-165.0-0.0","19884327","wem/bandit_party_2","A1YQYMEN76HNIE","either","7","878","","","","","","","0","0","1","","0.7117781612","0.6","0.8","0.4","0.2","0.09419269712","0.2587226179","0.7330206325","0.7117781612","","","","","","","","","","","","","","76","L","3","","","124","main_expt",""
"","bandit","205","596202","0.0-166.0-0.0","19884327","wem/bandit_party_2","A1YQYMEN76HNIE","either","7","357","","","","","","","0","1","0","","0.6903693331","0.6","0.8","0.4","0.2","0.110513045","0.2925679814","0.6903693331","0.7177409252","","","","","","","","","","","","","","75","K","2","","","125","main_expt",""
"","bandit","206","598732","0.0-167.0-0.0","19884327","wem/bandit_party_2","A1YQYMEN76HNIE","either","7","1016","","","","","","","0","1","0","","0.6370641568","0.6","0.8","0.4","0.2","0.07088043536","0.3997536411","0.6370641568","0.7240917845","","","","","","","","","","","","","","75","K","2","","","126","main_expt",""
"","bandit","207","601492","0.0-168.0-0.0","19884327","wem/bandit_party_2","A1YQYMEN76HNIE","either","7","1246","","","","","","","1","0","0","0.6192694325","","0.6","0.8","0.4","0.2","","","","","0.1041728595","0.4120812041","0.6192694325","0.6788578752","","","","","","","","","","75","K","2","","","127","main_expt",""
"","bandit","208","603963","0.0-169.0-0.0","19884327","wem/bandit_party_2","A1YQYMEN76HNIE","either","7","958","","","","","","","0","1","0","","0.559348281","0.6","0.8","0.4","0.2","0.1006708935","0.3731276689","0.559348281","0.6257789885","","","","","","","","","","","","","","75","K","2","","","128","main_expt",""
"","bandit","209","605915","0.0-170.0-0.0","19884327","wem/bandit_party_2","A1YQYMEN76HNIE","either","7","439","","","","","","","1","0","0","0.610360397","","0.6","0.8","0.4","0.2","","","","","0.1336488566","0.3263017501","0.610360397","0.4761868647","","","","","","","","","","75","K","2","","","129","main_expt",""
"","bandit","210","608346","0.0-171.0-0.0","19884327","wem/bandit_party_2","A1YQYMEN76HNIE","either","7","919","","","","","","","1","0","0","0.5737783772","","0.6","0.8","0.4","0.2","","","","","0.1271550391","0.3226142564","0.5737783772","0.4745188583","","","","","","","","","","75","K","2","","","130","main_expt",""
"","bandit","211","610347","0.0-172.0-0.0","19884327","wem/bandit_party_2","A1YQYMEN76HNIE","either","7","487","","","","","","","1","0","0","0.6252154127","","0.6","0.8","0.4","0.2","","","","","0.1594360192","0.3907136596","0.6252154127","0.4674409752","","","","","","","","","","75","K","2","","","131","main_expt",""
"","bandit","212","612787","0.0-173.0-0.0","19884327","wem/bandit_party_2","A1YQYMEN76HNIE","either","7","926","","","","","","","1","0","0","0.6473056352","","0.6","0.8","0.4","0.2","","","","","0.1027658661","0.4983036492","0.6473056352","0.368649462","","","","","","","","","","75","K","2","","","132","main_expt",""
"","bandit","213","614714","0.0-174.0-0.0","19884327","wem/bandit_party_2","A1YQYMEN76HNIE","either","7","415","","","","","","","0","0","1","0.4595123468","","0.6","0.8","0.4","0.2","","","","","0.1223548883","0.6347393695","0.4595123468","0.4313577514","","","","","","","","","","75","K","2","","","133","main_expt",""
"","bandit","214","617316","0.0-175.0-0.0","19884327","wem/bandit_party_2","A1YQYMEN76HNIE","either","7","1087","","","","","","","0","0","1","0.3692150919","","0.6","0.8","0.4","0.2","","","","","0.1063029331","0.6037412299","0.3043385566","0.3692150919","","","","","","","","","","76","L","3","","","134","main_expt",""
"","bandit","215","618914","0.0-176.0-0.0","19884327","wem/bandit_party_2","A1YQYMEN76HNIE","either","7","84","","","","","","","0","1","0","","0.3077662431","0.6","0.8","0.4","0.2","0.080644856","0.5511090861","0.340857567","0.3077662431","","","","","","","","","","","","","","76","L","3","","","135","main_expt",""
"","bandit","216","620954","0.0-177.0-0.0","19884327","wem/bandit_party_2","A1YQYMEN76HNIE","either","7","528","","","","","","","0","1","0","","0.314969588","0.6","0.8","0.4","0.2","0.1359867045","0.585911414","0.2655810755","0.314969588","","","","","","","","","","","","","","76","L","3","","","136","main_expt",""
"","bandit","217","622995","0.0-178.0-0.0","19884327","wem/bandit_party_2","A1YQYMEN76HNIE","either","7","521","","","","","","","1","0","0","0.3590847215","","0.6","0.8","0.4","0.2","","","","","0.168344283","0.5805905743","0.3025530854","0.3590847215","","","","","","","","","","76","L","3","","","137","main_expt",""
"","bandit","218","625380","0.0-179.0-0.0","19884327","wem/bandit_party_2","A1YQYMEN76HNIE","either","7","871","","","","","","","0","1","0","","0.3588584756","0.6","0.8","0.4","0.2","0.1867455324","0.6357737786","0.2888348812","0.3588584756","","","","","","","","","","","","","","76","L","3","","","138","main_expt",""
"","bandit","219","628067","0.0-180.0-0.0","19884327","wem/bandit_party_2","A1YQYMEN76HNIE","either","7","1174","","","","","","","1","0","0","0.4289761638","","0.6","0.8","0.4","0.2","","","","","0.2277874407","0.66639317","0.2463208975","0.4289761638","","","","","","","","","","76","L","3","","","139","main_expt",""
"","bandit","220","630108","0.0-181.0-0.0","19884327","wem/bandit_party_2","A1YQYMEN76HNIE","either","7","527","","","","","","","0","0","1","","0.3801639999","0.6","0.8","0.4","0.2","0.2577820179","0.6365789307","0.273109751","0.3801639999","","","","","","","","","","","","","","76","L","3","","","140","main_expt",""
"","bandit","221","632237","0.0-182.0-0.0","19884327","wem/bandit_party_2","A1YQYMEN76HNIE","either","7","614","","","","","","","0","0","1","","0.3355442787","0.6","0.8","0.4","0.2","0.3674069736","0.6045632144","0.3355442787","0.2445936549","","","","","","","","","","","","","","75","K","2","","","141","main_expt",""
"","bandit","222","634163","0.0-183.0-0.0","19884327","wem/bandit_party_2","A1YQYMEN76HNIE","either","7","413","","","","","","","0","0","1","","0.3394066497","0.6","0.8","0.4","0.2","0.4345417514","0.5148607161","0.2781999234","0.3394066497","","","","","","","","","","","","","","76","L","3","","","142","main_expt",""
"","bandit","223","637139","0.0-184.0-0.0","19884327","wem/bandit_party_2","A1YQYMEN76HNIE","either","7","1462","","","","","","","0","0","1","0.3811672827","","0.6","0.8","0.4","0.2","","","","","0.3811672827","0.4754154836","0.2599467226","0.2899754881","","","","","","","","","","72","H","0","img/none_selected.jpg","","143","main_expt",""
"","bandit","224","639060","0.0-185.0-0.0","19884327","wem/bandit_party_2","A1YQYMEN76HNIE","either","7","407","","","","","","","0","0","1","0.516029258","","0.6","0.8","0.4","0.2","","","","","0.2754059391","0.516029258","0.2353144144","0.3701332444","","","","","","","","","","74","J","1","","","144","main_expt",""
"","bandit","225","641012","0.0-186.0-0.0","19884327","wem/bandit_party_2","A1YQYMEN76HNIE","either","7","437","","","","","","","0","0","1","0.2773400324","","0.6","0.8","0.4","0.2","","","","","0.2773400324","0.6646605279","0.2120114759","0.3322753171","","","","","","","","","","72","H","0","img/none_selected.jpg","","145","main_expt",""
"","bandit","226","643059","0.0-187.0-0.0","19884327","wem/bandit_party_2","A1YQYMEN76HNIE","either","7","534","","","","","","","0","1","0","","0.176067728","0.6","0.8","0.4","0.2","0.2780426824","0.6331546467","0.176067728","0.3203507811","","","","","","","","","","","","","","75","K","2","","","146","main_expt",""
"","bandit","227","645027","0.0-188.0-0.0","19884327","wem/bandit_party_2","A1YQYMEN76HNIE","either","7","456","","","","","","","0","0","1","","0.1329453439","0.6","0.8","0.4","0.2","0.3373608721","0.6356747602","0.1329453439","0.304761248","","","","","","","","","","","","","","75","K","2","","","147","main_expt",""
"","bandit","228","646924","0.0-189.0-0.0","19884327","wem/bandit_party_2","A1YQYMEN76HNIE","either","7","382","","","","","","","0","0","1","","0.3809280674","0.6","0.8","0.4","0.2","0.3529594122","0.6301772709","0.1465103875","0.3809280674","","","","","","","","","","","","","","76","L","3","","","148","main_expt",""
"","bandit","229","648931","0.0-190.0-0.0","19884327","wem/bandit_party_2","A1YQYMEN76HNIE","either","7","494","","","","","","","0","0","1","0.1190451538","","0.6","0.8","0.4","0.2","","","","","0.3878328211","0.6640591829","0.1190451538","0.3997986218","","","","","","","","","","75","K","2","","","149","main_expt",""
"","bandit","230","650891","0.0-191.0-0.0","19884327","wem/bandit_party_2","A1YQYMEN76HNIE","either","7","447","","","","","","","0","0","1","","0.3159341416","0.6","0.8","0.4","0.2","0.42943501","0.6592717552","0.1195570164","0.3159341416","","","","","","","","","","","","","","76","L","3","","","150","main_expt",""
"","bandit","231","652883","0.0-192.0-0.0","19884327","wem/bandit_party_2","A1YQYMEN76HNIE","either","7","480","","","","","","","1","0","0","0.5928743102","","0.6","0.8","0.4","0.2","","","","","0.5142681232","0.5928743102","0.100492686","0.3052853957","","","","","","","","","","74","J","1","","","151","main_expt",""
"","bandit","232","654876","0.0-193.0-0.0","19884327","wem/bandit_party_2","A1YQYMEN76HNIE","either","7","480","","","","","","","1","0","0","0.6822187145","","0.6","0.8","0.4","0.2","","","","","0.6321073962","0.6822187145","0.1030367897","0.1896018403","","","","","","","","","","74","J","1","","","152","main_expt",""
"","bandit","233","656765","0.0-194.0-0.0","19884327","wem/bandit_party_2","A1YQYMEN76HNIE","either","7","375","","","","","","","0","0","1","0.6832005509","","0.6","0.8","0.4","0.2","","","","","0.6965670792","0.6832005509","0.2059045691","0.2439656658","","","","","","","","","","74","J","1","","","153","main_expt",""
"","bandit","234","658739","0.0-195.0-0.0","19884327","wem/bandit_party_2","A1YQYMEN76HNIE","either","7","462","","","","","","","0","0","1","","0.6516005735","0.6","0.8","0.4","0.2","0.6516005735","0.7109729062","0.2921647579","0.3068434149","","","","","","","","","","","","","","72","H","0","img/none_selected.jpg","","154","main_expt",""
"","bandit","235","660747","0.0-196.0-0.0","19884327","wem/bandit_party_2","A1YQYMEN76HNIE","either","7","495","","","","","","","0","0","1","","0.2314644909","0.6","0.8","0.4","0.2","0.7291318088","0.6975465092","0.1789694193","0.2314644909","","","","","","","","","","","","","","76","L","3","","","155","main_expt",""
"","bandit","236","662636","0.0-197.0-0.0","19884327","wem/bandit_party_2","A1YQYMEN76HNIE","either","7","375","","","","","","","0","0","1","","0.2187195075","0.6","0.8","0.4","0.2","0.6273572288","0.6580608271","0.2187195075","0.2154001061","","","","","","","","","","","","","","75","K","2","","","156","main_expt",""
"","bandit","237","664660","0.0-198.0-0.0","19884327","wem/bandit_party_2","A1YQYMEN76HNIE","either","7","510","","","","","","","1","0","0","0.1648135251","","0.6","0.8","0.4","0.2","","","","","0.566197257","0.5695802138","0.2669834713","0.1648135251","","","","","","","","","","76","L","3","","","157","main_expt",""
"","bandit","238","666620","0.0-199.0-0.0","19884327","wem/bandit_party_2","A1YQYMEN76HNIE","either","7","447","","","","","","","0","0","1","","0.2215973425","0.6","0.8","0.4","0.2","0.4523642269","0.4733954301","0.4240307821","0.2215973425","","","","","","","","","","","","","","76","L","3","","","158","main_expt",""
"","bandit","239","668636","0.0-200.0-0.0","19884327","wem/bandit_party_2","A1YQYMEN76HNIE","either","7","502","","","","","","","0","1","0","","0.5619817243","0.6","0.8","0.4","0.2","0.3991212054","0.5619817243","0.3840951437","0.2243274726","","","","","","","","","","","","","","74","J","1","","","159","main_expt",""
"","bandit","240","670596","0.0-201.0-0.0","19884327","wem/bandit_party_2","A1YQYMEN76HNIE","either","7","446","","","","","","","0","0","1","","0.4701658979","0.6","0.8","0.4","0.2","0.3566558104","0.4701658979","0.4098147986","0.2061161075","","","","","","","","","","","","","","74","J","1","","","160","main_expt",""
"","bandit","241","672468","0.0-202.0-0.0","19884327","wem/bandit_party_2","A1YQYMEN76HNIE","either","7","358","","","","","","","0","1","0","","0.5673671472","0.6","0.8","0.4","0.2","0.4430908041","0.5673671472","0.4027252302","0.209200141","","","","","","","","","","","","","","74","J","1","","","161","main_expt",""
"","bandit","242","674500","0.0-203.0-0.0","19884327","wem/bandit_party_2","A1YQYMEN76HNIE","either","7","518","","","","","","","1","0","0","0.4921809208","","0.6","0.8","0.4","0.2","","","","","0.3966098285","0.4921809208","0.3824170733","0.1477343718","","","","","","","","","","74","J","1","","","162","main_expt",""
"","bandit","243","676451","0.0-204.0-0.0","19884327","wem/bandit_party_2","A1YQYMEN76HNIE","either","7","438","","","","","","","1","0","0","0.4204505308","","0.6","0.8","0.4","0.2","","","","","0.3455868331","0.4204505308","0.3352280924","0.1525050104","","","","","","","","","","74","J","1","","","163","main_expt",""
"","bandit","244","678380","0.0-205.0-0.0","19884327","wem/bandit_party_2","A1YQYMEN76HNIE","either","7","416","","","","","","","0","0","1","0.534748173","","0.6","0.8","0.4","0.2","","","","","0.3368969945","0.534748173","0.3379187571","0.08831047354","","","","","","","","","","74","J","1","","","164","main_expt",""
"","bandit","245","680260","0.0-206.0-0.0","19884327","wem/bandit_party_2","A1YQYMEN76HNIE","either","7","366","","","","","","","0","0","1","0.4724966102","","0.6","0.8","0.4","0.2","","","","","0.3767562303","0.4724966102","0.3160546663","0.1035482763","","","","","","","","","","74","J","1","","","165","main_expt",""
"","bandit","246","682173","0.0-207.0-0.0","19884327","wem/bandit_party_2","A1YQYMEN76HNIE","either","7","399","","","","","","","0","0","1","0.4727650462","","0.6","0.8","0.4","0.2","","","","","0.4727650462","0.5280505203","0.3058359067","0.06888190676","","","","","","","","","","72","H","0","img/none_selected.jpg","","166","main_expt",""
"","bandit","247","684093","0.0-208.0-0.0","19884327","wem/bandit_party_2","A1YQYMEN76HNIE","either","7","405","","","","","","","0","0","1","","0.2561334246","0.6","0.8","0.4","0.2","0.6140635231","0.589670135","0.2561334246","0.06051452263","","","","","","","","","","","","","","75","K","2","","","167","main_expt",""
"","bandit","248","686020","0.0-209.0-0.0","19884327","wem/bandit_party_2","A1YQYMEN76HNIE","either","7","413","","","","","","","0","0","1","","0.2459084815","0.6","0.8","0.4","0.2","0.5629225295","0.5058201204","0.2459084815","0.07905307949","","","","","","","","","","","","","","75","K","2","","","168","main_expt",""
"","bandit","249","687916","0.0-210.0-0.0","19884327","wem/bandit_party_2","A1YQYMEN76HNIE","either","7","383","","","","","","","0","0","1","0.07051596905","","0.6","0.8","0.4","0.2","","","","","0.6456076899","0.4102709571","0.2138460752","0.07051596905","","","","","","","","","","76","L","3","","","169","main_expt",""
"","bandit","250","689837","0.0-211.0-0.0","19884327","wem/bandit_party_2","A1YQYMEN76HNIE","either","7","407","","","","","","","0","0","1","","0.1056762318","0.6","0.8","0.4","0.2","0.719827795","0.5061826445","0.1642406351","0.1056762318","","","","","","","","","","","","","","76","L","3","","","170","main_expt",""
"","bandit","251","691372","0.0-212.0-0.0","19884327","wem/bandit_party_2","A1YQYMEN76HNIE","either","7","22","","","","","","","0","1","0","","0.6716280274","0.6","0.8","0.4","0.2","0.6716280274","0.6092158501","0.2337150112","0.1513980822","","","","","","","","","","","","","","72","H","0","img/none_selected.jpg","","171","main_expt",""
"","bandit","252","693780","0.0-213.0-0.0","19884327","wem/bandit_party_2","A1YQYMEN76HNIE","either","7","895","","","","","","","1","0","0","0.5683226388","","0.6","0.8","0.4","0.2","","","","","0.5683226388","0.691496366","0.3128682212","0.1552293495","","","","","","","","","","72","H","0","img/none_selected.jpg","","172","main_expt",""
"","bandit","253","696196","0.0-214.0-0.0","19884327","wem/bandit_party_2","A1YQYMEN76HNIE","either","7","903","","","","","","","0","1","0","","0.4581357746","0.6","0.8","0.4","0.2","0.4581357746","0.7402253768","0.2775517843","0.1325975083","","","","","","","","","","","","","","72","H","0","img/none_selected.jpg","","173","main_expt",""
"","bandit","254","698445","0.0-215.0-0.0","19884327","wem/bandit_party_2","A1YQYMEN76HNIE","either","7","735","","","","","","","0","0","1","","0.5903479164","0.6","0.8","0.4","0.2","0.5903479164","0.6601004511","0.4159305855","0.09024892351","","","","","","","","","","","","","","72","H","0","img/none_selected.jpg","","174","main_expt",""
"","bandit","255","701077","0.0-216.0-0.0","19884327","wem/bandit_party_2","A1YQYMEN76HNIE","either","7","1117","","","","","","","0","0","1","0.5658285383","","0.6","0.8","0.4","0.2","","","","","0.5658285383","0.6781732273","0.4471770837","0.06963745108","","","","","","","","","","72","H","0","img/none_selected.jpg","","175","main_expt",""
"","bandit","256","703381","0.0-217.0-0.0","19884327","wem/bandit_party_2","A1YQYMEN76HNIE","either","7","790","","","","","","","0","1","0","","0.6932650799","0.6","0.8","0.4","0.2","0.5313506173","0.6932650799","0.5162211083","0.07897043431","","","","","","","","","","","","","","74","J","1","","","176","main_expt",""
"","bandit","257","705764","0.0-218.0-0.0","19884327","wem/bandit_party_2","A1YQYMEN76HNIE","either","7","870","","","","","","","0","0","1","0.6803850572","","0.6","0.8","0.4","0.2","","","","","0.4231289234","0.6803850572","0.6372676231","0.09469685393","","","","","","","","","","74","J","1","","","177","main_expt",""
"","bandit","258","707740","0.0-219.0-0.0","19884327","wem/bandit_party_2","A1YQYMEN76HNIE","either","7","463","","","","","","","0","0","1","","0.580807006","0.6","0.8","0.4","0.2","0.580807006","0.5407017663","0.6295749113","0.1486386852","","","","","","","","","","","","","","72","H","0","img/none_selected.jpg","","178","main_expt",""
"","bandit","259","709677","0.0-220.0-0.0","19884327","wem/bandit_party_2","A1YQYMEN76HNIE","either","7","423","","","","","","","0","0","1","","0.1965095934","0.6","0.8","0.4","0.2","0.5499948007","0.5931576708","0.4126066341","0.1965095934","","","","","","","","","","","","","","76","L","3","","","179","main_expt",""
"","bandit","260","711821","0.0-221.0-0.0","19884327","wem/bandit_party_2","A1YQYMEN76HNIE","either","7","630","","","","","","","0","0","1","0.516991344","","0.6","0.8","0.4","0.2","","","","","0.4918200669","0.5390819372","0.516991344","0.1749048096","","","","","","","","","","75","K","2","","","180","main_expt",""
"","bandit","261","714381","0.0-222.0-0.0","19884327","wem/bandit_party_2","A1YQYMEN76HNIE","either","7","1047","","","","","","","0","0","1","0.5428702931","","0.6","0.8","0.4","0.2","","","","","0.5428702931","0.4929910299","0.4239603033","0.232896561","","","","","","","","","","72","H","0","img/none_selected.jpg","","181","main_expt",""
"","bandit","262","716277","0.0-223.0-0.0","19884327","wem/bandit_party_2","A1YQYMEN76HNIE","either","7","382","","","","","","","1","0","0","0.5870547156","","0.6","0.8","0.4","0.2","","","","","0.5870547156","0.458433212","0.3961891141","0.2561822725","","","","","","","","","","72","H","0","img/none_selected.jpg","","182","main_expt",""
"","bandit","263","718462","0.0-224.0-0.0","19884327","wem/bandit_party_2","A1YQYMEN76HNIE","either","7","671","","","","","","","0","1","0","","0.5031908535","0.6","0.8","0.4","0.2","0.5031908535","0.5725449786","0.4364601233","0.2713883962","","","","","","","","","","","","","","72","H","0","img/none_selected.jpg","","183","main_expt",""
"","bandit","264","721154","0.0-225.0-0.0","19884327","wem/bandit_party_2","A1YQYMEN76HNIE","either","7","1180","","","","","","","0","0","1","0.4239978994","","0.6","0.8","0.4","0.2","","","","","0.4239978994","0.4878383732","0.4826964198","0.3543557679","","","","","","","","","","72","H","0","img/none_selected.jpg","","184","main_expt",""
"","bandit","265","723042","0.0-226.0-0.0","19884327","wem/bandit_party_2","A1YQYMEN76HNIE","either","7","378","","","","","","","0","0","1","0.5189350158","","0.6","0.8","0.4","0.2","","","","","0.3425545299","0.5189350158","0.4448789548","0.2974533566","","","","","","","","","","74","J","1","","","185","main_expt",""
"","bandit","266","725242","0.0-227.0-0.0","19884327","wem/bandit_party_2","A1YQYMEN76HNIE","either","7","690","","","","","","","0","0","1","0.4310300585","","0.6","0.8","0.4","0.2","","","","","0.2594221554","0.4310300585","0.4585835861","0.3295130888","","","","","","","","","","74","J","1","","","186","main_expt",""
"","bandit","267","727122","0.0-228.0-0.0","19884327","wem/bandit_party_2","A1YQYMEN76HNIE","either","7","370","","","","","","","0","0","1","0.350747246","","0.6","0.8","0.4","0.2","","","","","0.350747246","0.4005994516","0.5470412386","0.3440574025","","","","","","","","","","72","H","0","img/none_selected.jpg","","187","main_expt",""
"","bandit","268","729011","0.0-229.0-0.0","19884327","wem/bandit_party_2","A1YQYMEN76HNIE","either","7","380","","","","","","","0","0","1","0.5485419855","","0.6","0.8","0.4","0.2","","","","","0.3667816541","0.5684333967","0.5485419855","0.3176863717","","","","","","","","","","75","K","2","","","188","main_expt",""
"","bandit","269","730868","0.0-230.0-0.0","19884327","wem/bandit_party_2","A1YQYMEN76HNIE","either","7","346","","","","","","","0","0","1","","0.3194332301","0.6","0.8","0.4","0.2","0.3129240978","0.5768443477","0.6161015427","0.3194332301","","","","","","","","","","","","","","76","L","3","","","189","main_expt",""
"","bandit","270","732747","0.0-231.0-0.0","19884327","wem/bandit_party_2","A1YQYMEN76HNIE","either","7","370","","","","","","","0","1","0","","0.3585260795","0.6","0.8","0.4","0.2","0.3681084497","0.6091254975","0.5145576236","0.3585260795","","","","","","","","","","","","","","76","L","3","","","190","main_expt",""
"","bandit","271","735083","0.0-232.0-0.0","19884327","wem/bandit_party_2","A1YQYMEN76HNIE","either","7","827","","","","","","","0","0","1","","0.4438822556","0.6","0.8","0.4","0.2","0.3284994938","0.6355225437","0.4447609651","0.4438822556","","","","","","","","","","","","","","76","L","3","","","191","main_expt",""
"","bandit","272","736987","0.0-233.0-0.0","19884327","wem/bandit_party_2","A1YQYMEN76HNIE","either","7","394","","","","","","","0","1","0","","0.6336907385","0.6","0.8","0.4","0.2","0.2913335268","0.7449996868","0.4273979598","0.6336907385","","","","","","","","","","","","","","76","L","3","","","192","main_expt",""
"","bandit","273","739250","0.0-234.0-0.0","19884327","wem/bandit_party_2","A1YQYMEN76HNIE","either","7","752","","","","","","","0","1","0","","0.5871300795","0.6","0.8","0.4","0.2","0.3614904019","0.7645281636","0.4382354048","0.5871300795","","","","","","","","","","","","","","76","L","3","","","193","main_expt",""
"","bandit","274","741339","0.0-235.0-0.0","19884327","wem/bandit_party_2","A1YQYMEN76HNIE","either","7","579","","","","","","","0","1","0","","0.5919999684","0.6","0.8","0.4","0.2","0.4180963095","0.7417458559","0.4367950698","0.5919999684","","","","","","","","","","","","","","76","L","3","","","194","main_expt",""
"","bandit","275","743315","0.0-236.0-0.0","19884327","wem/bandit_party_2","A1YQYMEN76HNIE","either","7","466","","","","","","","0","0","1","0.5599221581","","0.6","0.8","0.4","0.2","","","","","0.4129416526","0.7102393491","0.4306922929","0.5599221581","","","","","","","","","","76","L","3","","","195","main_expt",""
"","bandit","276","745179","0.0-237.0-0.0","19884327","wem/bandit_party_2","A1YQYMEN76HNIE","either","7","354","","","","","","","0","0","1","","0.4552797342","0.6","0.8","0.4","0.2","0.6027995291","0.6846894693","0.4436260943","0.4552797342","","","","","","","","","","","","","","76","L","3","","","196","main_expt",""
"","bandit","277","747020","0.0-238.0-0.0","19884327","wem/bandit_party_2","A1YQYMEN76HNIE","either","7","329","","","","","","","0","1","0","","0.4547077395","0.6","0.8","0.4","0.2","0.6174547511","0.6573901597","0.4547077395","0.3045440077","","","","","","","","","","","","","","75","K","2","","","197","main_expt",""
"","bandit","278","748914","0.0-239.0-0.0","19884327","wem/bandit_party_2","A1YQYMEN76HNIE","either","7","385","","","","","","","1","0","0","0.545148617","","0.6","0.8","0.4","0.2","","","","","0.5727893511","0.7020762336","0.545148617","0.4061180554","","","","","","","","","","75","K","2","","","198","main_expt",""
"","bandit","279","750851","0.0-240.0-0.0","19884327","wem/bandit_party_2","A1YQYMEN76HNIE","either","7","427","","","","","","","0","1","0","","0.5838562778","0.6","0.8","0.4","0.2","0.5803616598","0.7749867965","0.5838562778","0.3406873398","","","","","","","","","","","","","","75","K","2","","","199","main_expt",""
"","bandit","280","752803","0.0-241.0-0.0","19884327","wem/bandit_party_2","A1YQYMEN76HNIE","either","7","442","","","","","","","0","1","0","","0.6569131065","0.6","0.8","0.4","0.2","0.5109940584","0.7971262248","0.6569131065","0.2810551981","","","","","","","","","","","","","","75","K","2","","","200","main_expt",""
"","bandit","281","754780","0.0-242.0-0.0","19884327","wem/bandit_party_2","A1YQYMEN76HNIE","either","7","466","","","","","","","1","0","0","0.6559739125","","0.6","0.8","0.4","0.2","","","","","0.444158281","0.6431063495","0.6559739125","0.2295892347","","","","","","","","","","75","K","2","","","201","main_expt",""
"","bandit","282","756627","0.0-243.0-0.0","19884327","wem/bandit_party_2","A1YQYMEN76HNIE","either","7","338","","","","","","","1","0","0","0.5940698896","","0.6","0.8","0.4","0.2","","","","","0.3774362348","0.6153479028","0.5940698896","0.2134833186","","","","","","","","","","75","K","2","","","202","main_expt",""
"","bandit","283","758562","0.0-244.0-0.0","19884327","wem/bandit_party_2","A1YQYMEN76HNIE","either","7","426","","","","","","","0","1","0","","0.6288005559","0.6","0.8","0.4","0.2","0.2852638898","0.6107921693","0.6288005559","0.1538434825","","","","","","","","","","","","","","75","K","2","","","203","main_expt",""
"","bandit","284","760380","0.0-245.0-0.0","19884327","wem/bandit_party_2","A1YQYMEN76HNIE","either","7","307","","","","","","","0","0","1","","0.7483345684","0.6","0.8","0.4","0.2","0.3900316507","0.6364312764","0.7483345684","0.08629221539","","","","","","","","","","","","","","75","K","2","","","204","main_expt",""
"","bandit","285","762266","0.0-246.0-0.0","19884327","wem/bandit_party_2","A1YQYMEN76HNIE","either","7","377","","","","","","","0","0","1","","0.7823609999","0.6","0.8","0.4","0.2","0.3334674042","0.7098325313","0.7823609999","0.1303029892","","","","","","","","","","","","","","75","K","2","","","205","main_expt",""
"","bandit","286","764069","0.0-247.0-0.0","19884327","wem/bandit_party_2","A1YQYMEN76HNIE","either","7","294","","","","","","","0","0","1","","0.1290793888","0.6","0.8","0.4","0.2","0.3997779834","0.6423198407","0.7053347691","0.1290793888","","","","","","","","","","","","","","76","L","3","","","206","main_expt",""
"","bandit","287","765819","0.0-248.0-0.0","19884327","wem/bandit_party_2","A1YQYMEN76HNIE","either","7","240","","","","","","","1","0","0","0.7196337679","","0.6","0.8","0.4","0.2","","","","","0.2791746034","0.7196337679","0.692958529","0.1471003053","","","","","","","","","","74","J","1","","","207","main_expt",""
"","bandit","288","767636","0.0-249.0-0.0","19884327","wem/bandit_party_2","A1YQYMEN76HNIE","either","7","306","","","","","","","0","0","1","0.7273253538","","0.6","0.8","0.4","0.2","","","","","0.3447420344","0.7273253538","0.5726600787","0.1204476287","","","","","","","","","","74","J","1","","","208","main_expt",""
"","bandit","289","769483","0.0-250.0-0.0","19884327","wem/bandit_party_2","A1YQYMEN76HNIE","either","7","336","","","","","","","0","0","1","0.2106944101","","0.6","0.8","0.4","0.2","","","","","0.2106944101","0.7701678217","0.7193759884","0.1752658923","","","","","","","","","","72","H","0","img/none_selected.jpg","","209","main_expt",""
"","bandit","290","771436","0.0-251.0-0.0","19884327","wem/bandit_party_2","A1YQYMEN76HNIE","either","7","442","","","","","","","0","1","0","","0.2609791638","0.6","0.8","0.4","0.2","0.2609791638","0.7673062315","0.5469619257","0.2071456167","","","","","","","","","","","","","","72","H","0","img/none_selected.jpg","","210","main_expt",""
"","bandit","291","773468","0.0-252.0-0.0","19884327","wem/bandit_party_2","A1YQYMEN76HNIE","either","7","522","","","","","","","0","0","1","0.3702243554","","0.6","0.8","0.4","0.2","","","","","0.3702243554","0.7733207599","0.5432746348","0.1982577311","","","","","","","","","","72","H","0","img/none_selected.jpg","","211","main_expt",""
"","bandit","292","775114","0.0-253.0-0.0","19884327","wem/bandit_party_2","A1YQYMEN76HNIE","either","7","137","","","","","","","0","1","0","","0.4857525371","0.6","0.8","0.4","0.2","0.4070014152","0.7176010575","0.4857525371","0.2837026457","","","","","","","","","","","","","","75","K","2","","","212","main_expt",""
"","bandit","293","776948","0.0-254.0-0.0","19884327","wem/bandit_party_2","A1YQYMEN76HNIE","either","7","324","","","","","","","0","0","1","","0.4416723402","0.6","0.8","0.4","0.2","0.5001351259","0.7241732444","0.4416723402","0.2192955177","","","","","","","","","","","","","","75","K","2","","","213","main_expt",""
"","bandit","294","778860","0.0-255.0-0.0","19884327","wem/bandit_party_2","A1YQYMEN76HNIE","either","7","402","","","","","","","0","0","1","","0.4231083207","0.6","0.8","0.4","0.2","0.5667049056","0.6696022014","0.4231083207","0.2885853396","","","","","","","","","","","","","","75","K","2","","","214","main_expt",""
"","bandit","295","780860","0.0-256.0-0.0","19884327","wem/bandit_party_2","A1YQYMEN76HNIE","either","7","490","","","","","","","0","0","1","","0.2451296471","0.6","0.8","0.4","0.2","0.5259574602","0.6255990046","0.329019478","0.2451296471","","","","","","","","","","","","","","76","L","3","","","215","main_expt",""
"","bandit","296","782723","0.0-257.0-0.0","19884327","wem/bandit_party_2","A1YQYMEN76HNIE","either","7","352","","","","","","","0","0","1","","0.1946790852","0.6","0.8","0.4","0.2","0.5468860011","0.6771362935","0.3469743373","0.1946790852","","","","","","","","","","","","","","76","L","3","","","216","main_expt",""
"","bandit","297","784748","0.0-258.0-0.0","19884327","wem/bandit_party_2","A1YQYMEN76HNIE","either","7","515","","","","","","","1","0","0","0.6918953154","","0.6","0.8","0.4","0.2","","","","","0.6182745027","0.6918953154","0.3618740044","0.2497229096","","","","","","","","","","74","J","1","","","217","main_expt",""
"","bandit","298","786668","0.0-259.0-0.0","19884327","wem/bandit_party_2","A1YQYMEN76HNIE","either","7","409","","","","","","","1","0","0","0.5726390237","","0.6","0.8","0.4","0.2","","","","","0.5979125128","0.5726390237","0.3574217595","0.3076421025","","","","","","","","","","74","J","1","","","218","main_expt",""
"","bandit","299","788611","0.0-260.0-0.0","19884327","wem/bandit_party_2","A1YQYMEN76HNIE","either","7","434","","","","","","","1","0","0","0.5179196303","","0.6","0.8","0.4","0.2","","","","","0.5321687475","0.5179196303","0.3862686792","0.3488941347","","","","","","","","","","74","J","1","","","219","main_expt",""
"","bandit","300","790612","0.0-261.0-0.0","19884327","wem/bandit_party_2","A1YQYMEN76HNIE","either","7","491","","","","","","","1","0","0","0.5578222379","","0.6","0.8","0.4","0.2","","","","","0.6053830099","0.5578222379","0.4432846828","0.306784001","","","","","","","","","","74","J","1","","","220","main_expt",""
"","bandit","301","792149","0.0-262.0-0.0","19884327","wem/bandit_party_2","A1YQYMEN76HNIE","either","7","26","","","","","","","1","0","0","0.6640911266","","0.6","0.8","0.4","0.2","","","","","0.69383498","0.6640911266","0.432499938","0.3786925452","","","","","","","","","","74","J","1","","","221","main_expt",""
"","bandit","302","794124","0.0-263.0-0.0","19884327","wem/bandit_party_2","A1YQYMEN76HNIE","either","7","465","","","","","","","0","0","1","0.7340686256","","0.6","0.8","0.4","0.2","","","","","0.783375317","0.7340686256","0.4050903391","0.5014801557","","","","","","","","","","74","J","1","","","222","main_expt",""
"","bandit","303","796085","0.0-264.0-0.0","19884327","wem/bandit_party_2","A1YQYMEN76HNIE","either","7","449","","","","","","","1","0","0","0.852862777","","0.6","0.8","0.4","0.2","","","","","0.8374489269","0.852862777","0.3282593462","0.4081704387","","","","","","","","","","74","J","1","","","223","main_expt",""
"","bandit","304","798148","0.0-265.0-0.0","19884327","wem/bandit_party_2","A1YQYMEN76HNIE","either","7","551","","","","","","","1","0","0","0.7830506485","","0.6","0.8","0.4","0.2","","","","","0.7801262993","0.7830506485","0.2465370002","0.422296693","","","","","","","","","","74","J","1","","","224","main_expt",""
"","bandit","305","800036","0.0-266.0-0.0","19884327","wem/bandit_party_2","A1YQYMEN76HNIE","either","7","376","","","","","","","1","0","0","0.7447555501","","0.6","0.8","0.4","0.2","","","","","0.7438235551","0.7447555501","0.2260872052","0.3998144739","","","","","","","","","","74","J","1","","","225","main_expt",""
"","bandit","306","802060","0.0-267.0-0.0","19884327","wem/bandit_party_2","A1YQYMEN76HNIE","either","7","513","","","","","","","0","0","1","0.7331719472","","0.6","0.8","0.4","0.2","","","","","0.7561714458","0.7331719472","0.2573895518","0.2692780115","","","","","","","","","","74","J","1","","","226","main_expt",""
"","bandit","307","803901","0.0-268.0-0.0","19884327","wem/bandit_party_2","A1YQYMEN76HNIE","either","7","330","","","","","","","1","0","0","0.6417259928","","0.6","0.8","0.4","0.2","","","","","0.7527106072","0.6417259928","0.2134597582","0.268728261","","","","","","","","","","74","J","1","","","227","main_expt",""
"","bandit","308","805827","0.0-269.0-0.0","19884327","wem/bandit_party_2","A1YQYMEN76HNIE","either","7","417","","","","","","","1","0","0","0.6050549784","","0.6","0.8","0.4","0.2","","","","","0.6315627418","0.6050549784","0.348479141","0.2211951924","","","","","","","","","","74","J","1","","","228","main_expt",""
"","bandit","309","807692","0.0-270.0-0.0","19884327","wem/bandit_party_2","A1YQYMEN76HNIE","either","7","355","","","","","","","0","0","1","0.5962230341","","0.6","0.8","0.4","0.2","","","","","0.5564086662","0.5962230341","0.3250735223","0.219241791","","","","","","","","","","74","J","1","","","229","main_expt",""
"","bandit","310","809486","0.0-271.0-0.0","19884327","wem/bandit_party_2","A1YQYMEN76HNIE","either","7","282","","","","","","","0","0","1","0.5594933722","","0.6","0.8","0.4","0.2","","","","","0.5895813861","0.5594933722","0.3395219718","0.291585141","","","","","","","","","","74","J","1","","","230","main_expt",""
"","bandit","311","811324","0.0-272.0-0.0","19884327","wem/bandit_party_2","A1YQYMEN76HNIE","either","7","328","","","","","","","0","0","1","","0.3315483329","0.6","0.8","0.4","0.2","0.6148213975","0.6411036761","0.3315483329","0.2754541949","","","","","","","","","","","","","","75","K","2","","","231","main_expt",""
"","bandit","312","813125","0.0-273.0-0.0","19884327","wem/bandit_party_2","A1YQYMEN76HNIE","either","7","289","","","","","","","0","0","1","","0.3876030756","0.6","0.8","0.4","0.2","0.5176988489","0.6653930637","0.3876030756","0.3055336503","","","","","","","","","","","","","","75","K","2","","","232","main_expt",""
"","bandit","313","815077","0.0-274.0-0.0","19884327","wem/bandit_party_2","A1YQYMEN76HNIE","either","7","442","","","","","","","0","0","1","","0.3390100853","0.6","0.8","0.4","0.2","0.4505666118","0.5426719569","0.3696248546","0.3390100853","","","","","","","","","","","","","","76","L","3","","","233","main_expt",""
"","bandit","314","816908","0.0-275.0-0.0","19884327","wem/bandit_party_2","A1YQYMEN76HNIE","either","7","321","","","","","","","0","0","1","0.3165323161","","0.6","0.8","0.4","0.2","","","","","0.4393496879","0.5581360181","0.3927474605","0.3165323161","","","","","","","","","","76","L","3","","","234","main_expt",""
"","bandit","315","819678","0.0-276.0-0.0","19884327","wem/bandit_party_2","A1YQYMEN76HNIE","either","7","1258","","","","","","","0","0","1","0.3542725407","","0.6","0.8","0.4","0.2","","","","","0.3542725407","0.5299247183","0.4734072524","0.2944333127","","","","","","","","","","72","H","0","img/none_selected.jpg","","235","main_expt",""
"","bandit","316","821525","0.0-277.0-0.0","19884327","wem/bandit_party_2","A1YQYMEN76HNIE","either","7","336","","","","","","","1","0","0","0.4709954077","","0.6","0.8","0.4","0.2","","","","","0.452511288","0.4709954077","0.5857320117","0.4127469632","","","","","","","","","","74","J","1","","","236","main_expt",""
"","bandit","317","823397","0.0-278.0-0.0","19884327","wem/bandit_party_2","A1YQYMEN76HNIE","either","7","362","","","","","","","0","1","0","","0.4171051322","0.6","0.8","0.4","0.2","0.4743784035","0.4171051322","0.5208556897","0.4353664578","","","","","","","","","","","","","","74","J","1","","","237","main_expt",""
"","bandit","318","825445","0.0-279.0-0.0","19884327","wem/bandit_party_2","A1YQYMEN76HNIE","either","7","538","","","","","","","1","0","0","0.40722148","","0.6","0.8","0.4","0.2","","","","","0.4666998134","0.40722148","0.4551370454","0.3871798792","","","","","","","","","","74","J","1","","","238","main_expt",""
