"consent","trial_type","trial_index","time_elapsed","internal_node_id","subjID","study","MID","cond","drift","rt","responses","button_pressed","key_press","like","value","connected","gems","bombs","no_reward","GemPrChosen","BombPrChosen","GainOverPainPr_0","GainOverPainPr_1","GainOverPainPr_2","GainOverPainPr_3","LosePr_0","LosePr_1","LosePr_2","LosePr_3","WinPr_0","WinPr_1","WinPr_2","WinPr_3","Q0","Q1","Q2","gender","age","ethnicity","label","expt_phase","target","respCharCode","respKey","respChoiceNum","respChoice","practice","trial_counter","trial_label","Q0_index"
"GDM/GDM_behavioral_consent_30min_online.html","consent","0","12832","0.0-0.0","20099892","wem/bandit_party_2","A2DVRTL0JB0GT0","either","6","","","","","","","","","","","","","","","","","","","","","","","","","","","","","","","","","","","","","","","","",""
"","survey-text","1","27580","0.0-1.0","20099892","wem/bandit_party_2","A2DVRTL0JB0GT0","either","6","13725","{""Q0"":""A2DVRTL0JB0GT0""}","","","","","","","","","","","","","","","","","","","","","","","","","","","","","","","","","","","","","","",""
"","button-response","2","30940","0.0-2.0","20099892","wem/bandit_party_2","A2DVRTL0JB0GT0","either","6","2347","","1","","","","","","","","","","","","","","","","","","","","","","","","","","","","","","","","","","","","","",""
"","text-replacement","3","51556","0.0-3.0","20099892","wem/bandit_party_2","A2DVRTL0JB0GT0","either","6","19609","","","32","","","","","","","","","","","","","","","","","","","","","","","","","","","","","","","","","","","","",""
"","text-replacement","4","65109","0.0-4.0","20099892","wem/bandit_party_2","A2DVRTL0JB0GT0","either","6","13549","","","32","","","","","","","","","","","","","","","","","","","","","","","","","","","","","","","","","","","","",""
"","identification","5","86049","0.0-6.0-0.0","20099892","wem/bandit_party_2","A2DVRTL0JB0GT0","either","6","20896","","","","3","4","3","","","","","","","","","","","","","","","","","","","","","","","","pre","identification_pre","the Republican Party","","","","","","","",""
"","identification","6","97560","0.0-6.0-1.0","20099892","wem/bandit_party_2","A2DVRTL0JB0GT0","either","6","10472","","","","4","5","5","","","","","","","","","","","","","","","","","","","","","","","","pre","identification_pre","the Democratic Party","","","","","","","",""
"","text-replacement","7","107654","0.0-7.0","20099892","wem/bandit_party_2","A2DVRTL0JB0GT0","either","6","9089","","","32","","","","","","","","","","","","","","","","","","","","","","","","","","","","","","","","","","","","",""
"","text-replacement","8","119710","0.0-8.0","20099892","wem/bandit_party_2","A2DVRTL0JB0GT0","either","6","12052","","","32","","","","","","","","","","","","","","","","","","","","","","","","","","","","","","","","","","","","",""
"","text-replacement","9","131590","0.0-9.0","20099892","wem/bandit_party_2","A2DVRTL0JB0GT0","either","6","11874","","","32","","","","","","","","","","","","","","","","","","","","","","","","","","","","","","","","","","","","",""
"","text-replacement","10","137135","0.0-10.0","20099892","wem/bandit_party_2","A2DVRTL0JB0GT0","either","6","5541","","","32","","","","","","","","","","","","","","","","","","","","","","","","","","","","","","","","","","","","",""
"","text-replacement","11","148530","0.0-11.0","20099892","wem/bandit_party_2","A2DVRTL0JB0GT0","either","6","11392","","","32","","","","","","","","","","","","","","","","","","","","","","","","","","","","","","","","","","","","",""
"","bandit","12","153383","0.0-12.0-0.0","20099892","wem/bandit_party_2","A2DVRTL0JB0GT0","either","6","3339","","","","","","","0","0","1","0","0","","","","","0","","","","0","","","","","","","","","","","","","74","J","0","img/none_selected_demo.jpg","true","0","",""
"","bandit","13","157102","0.0-13.0-0.0","20099892","wem/bandit_party_2","A2DVRTL0JB0GT0","either","6","2206","","","","","","","0","0","1","0","0","","","","","0","","","","0","","","","","","","","","","","","","75","K","0","img/none_selected_demo.jpg","true","0","",""
"","text-replacement","14","167576","0.0-14.0","20099892","wem/bandit_party_2","A2DVRTL0JB0GT0","either","6","10469","","","32","","","","","","","","","","","","","","","","","","","","","","","","","","","","","","","","","","","","",""
"","text-replacement","15","176955","0.0-15.0","20099892","wem/bandit_party_2","A2DVRTL0JB0GT0","either","6","9374","","","32","","","","","","","","","","","","","","","","","","","","","","","","","","","","","","","","","","","","",""
"","text-replacement","16","190106","0.0-16.0","20099892","wem/bandit_party_2","A2DVRTL0JB0GT0","either","6","13148","","","32","","","","","","","","","","","","","","","","","","","","","","","","","","","","","","","","","","","","",""
"","text-replacement","17","197893","0.0-17.0","20099892","wem/bandit_party_2","A2DVRTL0JB0GT0","either","6","7784","","","32","","","","","","","","","","","","","","","","","","","","","","","","","","","","","","","","","","","","",""
"","bandit","18","201180","0.0-18.0-0.0","20099892","wem/bandit_party_2","A2DVRTL0JB0GT0","either","6","1779","","","","","","","1","0","0","0.8","","0.5","0.5","","","","","","","0.8","0.2","","","","","","","","","","","","74","J","0","img/none_selected_demo.jpg","true","0","80_20_practice",""
"","bandit","19","204205","0.0-18.0-1.0","20099892","wem/bandit_party_2","A2DVRTL0JB0GT0","either","6","1511","","","","","","","1","0","0","0.8","","0.5","0.5","","","","","","","0.8","0.2","","","","","","","","","","","","74","J","0","img/none_selected_demo.jpg","true","0","80_20_practice",""
"","bandit","20","206988","0.0-18.0-2.0","20099892","wem/bandit_party_2","A2DVRTL0JB0GT0","either","6","1270","","","","","","","0","1","0","","0.8","0.5","0.5","","","0.8","0.2","","","","","","","","","","","","","","","","74","J","0","img/none_selected_demo.jpg","true","0","80_20_practice",""
"","bandit","21","209804","0.0-18.0-3.0","20099892","wem/bandit_party_2","A2DVRTL0JB0GT0","either","6","1299","","","","","","","1","0","0","0.8","","0.5","0.5","","","","","","","0.8","0.2","","","","","","","","","","","","74","J","0","img/none_selected_demo.jpg","true","0","80_20_practice",""
"","bandit","22","212182","0.0-18.0-4.0","20099892","wem/bandit_party_2","A2DVRTL0JB0GT0","either","6","866","","","","","","","1","0","0","0.8","","0.5","0.5","","","","","","","0.8","0.2","","","","","","","","","","","","74","J","0","img/none_selected_demo.jpg","true","0","80_20_practice",""
"","bandit","23","214665","0.0-18.0-5.0","20099892","wem/bandit_party_2","A2DVRTL0JB0GT0","either","6","967","","","","","","","0","0","1","0.8","","0.5","0.5","","","","","","","0.8","0.2","","","","","","","","","","","","74","J","0","img/none_selected_demo.jpg","true","0","80_20_practice",""
"","bandit","24","217104","0.0-18.0-6.0","20099892","wem/bandit_party_2","A2DVRTL0JB0GT0","either","6","928","","","","","","","1","0","0","0.8","","0.5","0.5","","","","","","","0.8","0.2","","","","","","","","","","","","74","J","0","img/none_selected_demo.jpg","true","0","80_20_practice",""
"","bandit","25","219235","0.0-18.0-7.0","20099892","wem/bandit_party_2","A2DVRTL0JB0GT0","either","6","619","","","","","","","0","1","0","","0.8","0.5","0.5","","","0.8","0.2","","","","","","","","","","","","","","","","74","J","0","img/none_selected_demo.jpg","true","0","80_20_practice",""
"","bandit","26","221144","0.0-18.0-8.0","20099892","wem/bandit_party_2","A2DVRTL0JB0GT0","either","6","398","","","","","","","1","0","0","0.8","","0.5","0.5","","","","","","","0.8","0.2","","","","","","","","","","","","74","J","0","img/none_selected_demo.jpg","true","0","80_20_practice",""
"","bandit","27","223066","0.0-18.0-9.0","20099892","wem/bandit_party_2","A2DVRTL0JB0GT0","either","6","413","","","","","","","1","0","0","0.8","","0.5","0.5","","","","","","","0.8","0.2","","","","","","","","","","","","74","J","0","img/none_selected_demo.jpg","true","0","80_20_practice",""
"","bandit","28","224946","0.0-18.0-10.0","20099892","wem/bandit_party_2","A2DVRTL0JB0GT0","either","6","368","","","","","","","0","0","1","0.8","","0.5","0.5","","","","","","","0.8","0.2","","","","","","","","","","","","74","J","0","img/none_selected_demo.jpg","true","0","80_20_practice",""
"","bandit","29","227743","0.0-18.0-11.0","20099892","wem/bandit_party_2","A2DVRTL0JB0GT0","either","6","1285","","","","","","","0","0","1","","0.2","0.5","0.5","","","0.8","0.2","","","","","","","","","","","","","","","","75","K","1","","true","0","80_20_practice",""
"","bandit","30","229481","0.0-18.0-12.0","20099892","wem/bandit_party_2","A2DVRTL0JB0GT0","either","6","227","","","","","","","0","0","1","","0.2","0.5","0.5","","","0.8","0.2","","","","","","","","","","","","","","","","75","K","1","","true","0","80_20_practice",""
"","bandit","31","231172","0.0-18.0-13.0","20099892","wem/bandit_party_2","A2DVRTL0JB0GT0","either","6","169","","","","","","","0","0","1","","0.2","0.5","0.5","","","0.8","0.2","","","","","","","","","","","","","","","","75","K","1","","true","0","80_20_practice",""
"","bandit","32","233210","0.0-18.0-14.0","20099892","wem/bandit_party_2","A2DVRTL0JB0GT0","either","6","526","","","","","","","0","0","1","0.2","","0.5","0.5","","","","","","","0.8","0.2","","","","","","","","","","","","75","K","1","","true","0","80_20_practice",""
"","bandit","33","236709","0.0-18.0-15.0","20099892","wem/bandit_party_2","A2DVRTL0JB0GT0","either","6","1988","","","","","","","0","0","1","0.2","","0.5","0.5","","","","","","","0.8","0.2","","","","","","","","","","","","75","K","1","","true","0","80_20_practice",""
"","bandit","34","238315","0.0-18.0-16.0","20099892","wem/bandit_party_2","A2DVRTL0JB0GT0","either","6","95","","","","","","","0","0","1","0.2","","0.5","0.5","","","","","","","0.8","0.2","","","","","","","","","","","","75","K","1","","true","0","80_20_practice",""
"","bandit","35","240213","0.0-18.0-17.0","20099892","wem/bandit_party_2","A2DVRTL0JB0GT0","either","6","384","","","","","","","0","0","1","0.2","","0.5","0.5","","","","","","","0.8","0.2","","","","","","","","","","","","75","K","1","","true","0","80_20_practice",""
"","bandit","36","241825","0.0-18.0-18.0","20099892","wem/bandit_party_2","A2DVRTL0JB0GT0","either","6","99","","","","","","","0","0","1","0.2","","0.5","0.5","","","","","","","0.8","0.2","","","","","","","","","","","","75","K","1","","true","0","80_20_practice",""
"","bandit","37","243466","0.0-18.0-19.0","20099892","wem/bandit_party_2","A2DVRTL0JB0GT0","either","6","129","","","","","","","0","0","1","0.2","","0.5","0.5","","","","","","","0.8","0.2","","","","","","","","","","","","75","K","1","","true","0","80_20_practice",""
"","text-replacement","38","251676","0.0-19.0","20099892","wem/bandit_party_2","A2DVRTL0JB0GT0","either","6","8205","","","32","","","","","","","","","","","","","","","","","","","","","","","","","","","","","","","","","","","","",""
"","bandit","39","256258","0.0-20.0-0.0","20099892","wem/bandit_party_2","A2DVRTL0JB0GT0","either","6","3071","","","","","","","1","0","0","1","0","","","","","0","1","","","1","0","","","","","","","","","","","","74","J","0","img/none_selected_demo.jpg","true","0","",""
"","text-replacement","40","263806","0.0-21.0","20099892","wem/bandit_party_2","A2DVRTL0JB0GT0","either","6","7540","","","32","","","","","","","","","","","","","","","","","","","","","","","","","","","","","","","","","","","","",""
"","text-replacement","41","267524","0.0-22.0","20099892","wem/bandit_party_2","A2DVRTL0JB0GT0","either","6","3712","","","32","","","","","","","","","","","","","","","","","","","","","","","","","","","","","","","","","","","","",""
"","text-replacement","42","270840","0.0-23.0","20099892","wem/bandit_party_2","A2DVRTL0JB0GT0","either","6","3312","","","32","","","","","","","","","","","","","","","","","","","","","","","","","","","","","","","","","","","","",""
"","text-replacement","43","278625","0.0-24.0","20099892","wem/bandit_party_2","A2DVRTL0JB0GT0","either","6","7782","","","32","","","","","","","","","","","","","","","","","","","","","","","","","","","","","","","","","","","","",""
"","text-replacement","44","290070","0.0-25.0","20099892","wem/bandit_party_2","A2DVRTL0JB0GT0","either","6","11440","","","32","","","","","","","","","","","","","","","","","","","","","","","","","","","","","","","","","","","","",""
"","text-replacement","45","294633","0.0-26.0","20099892","wem/bandit_party_2","A2DVRTL0JB0GT0","either","6","4559","","","32","","","","","","","","","","","","","","","","","","","","","","","","","","","","","","","","","","","","",""
"","text-replacement","46","300896","0.0-27.0","20099892","wem/bandit_party_2","A2DVRTL0JB0GT0","either","6","6258","","","32","","","","","","","","","","","","","","","","","","","","","","","","","","","","","","","","","","","","",""
"","text-replacement","47","306132","0.0-28.0","20099892","wem/bandit_party_2","A2DVRTL0JB0GT0","either","6","5232","","","32","","","","","","","","","","","","","","","","","","","","","","","","","","","","","","","","","","","","",""
"","text-replacement","48","313983","0.0-29.0","20099892","wem/bandit_party_2","A2DVRTL0JB0GT0","either","6","7843","","","32","","","","","","","","","","","","","","","","","","","","","","","","","","","","","","","","","","","","",""
"","text-replacement","49","318172","0.0-30.0","20099892","wem/bandit_party_2","A2DVRTL0JB0GT0","either","6","4185","","","32","","","","","","","","","","","","","","","","","","","","","","","","","","","","","","","","","","","","",""
"","text-replacement","50","322273","0.0-31.0","20099892","wem/bandit_party_2","A2DVRTL0JB0GT0","either","6","4095","","","32","","","","","","","","","","","","","","","","","","","","","","","","","","","","","","","","","","","","",""
"","bandit","51","325182","0.0-32.0-0.0","20099892","wem/bandit_party_2","A2DVRTL0JB0GT0","either","6","1398","","","","","","","0","0","1","0.8","","0.5","0.5","0.5","0.5","","","","","0.8","0.2","0.6","0.2","","","","","","","","","","72","H","0","img/none_selected.jpg","true","0","full_practice",""
"","bandit","52","326905","0.0-32.0-1.0","20099892","wem/bandit_party_2","A2DVRTL0JB0GT0","either","6","208","","","","","","","0","1","0","","0.8","0.5","0.5","0.5","0.5","0.8","0.2","0.6","0.2","","","","","","","","","","","","","","72","H","0","img/none_selected.jpg","true","0","full_practice",""
"","bandit","53","328673","0.0-32.0-2.0","20099892","wem/bandit_party_2","A2DVRTL0JB0GT0","either","6","253","","","","","","","0","1","0","","0.8","0.5","0.5","0.5","0.5","0.8","0.2","0.6","0.2","","","","","","","","","","","","","","72","H","0","img/none_selected.jpg","true","0","full_practice",""
"","bandit","54","330385","0.0-32.0-3.0","20099892","wem/bandit_party_2","A2DVRTL0JB0GT0","either","6","202","","","","","","","0","1","0","","0.8","0.5","0.5","0.5","0.5","0.8","0.2","0.6","0.2","","","","","","","","","","","","","","72","H","0","img/none_selected.jpg","true","0","full_practice",""
"","bandit","55","332099","0.0-32.0-4.0","20099892","wem/bandit_party_2","A2DVRTL0JB0GT0","either","6","200","","","","","","","0","0","1","0.8","","0.5","0.5","0.5","0.5","","","","","0.8","0.2","0.6","0.2","","","","","","","","","","72","H","0","img/none_selected.jpg","true","0","full_practice",""
"","bandit","56","334824","0.0-32.0-5.0","20099892","wem/bandit_party_2","A2DVRTL0JB0GT0","either","6","1212","","","","","","","0","1","0","","0.8","0.5","0.5","0.5","0.5","0.8","0.2","0.6","0.2","","","","","","","","","","","","","","72","H","0","img/none_selected.jpg","true","0","full_practice",""
"","bandit","57","336447","0.0-32.0-6.0","20099892","wem/bandit_party_2","A2DVRTL0JB0GT0","either","6","109","","","","","","","0","1","0","","0.8","0.5","0.5","0.5","0.5","0.8","0.2","0.6","0.2","","","","","","","","","","","","","","72","H","0","img/none_selected.jpg","true","0","full_practice",""
"","bandit","58","338163","0.0-32.0-7.0","20099892","wem/bandit_party_2","A2DVRTL0JB0GT0","either","6","202","","","","","","","0","0","1","","0.8","0.5","0.5","0.5","0.5","0.8","0.2","0.6","0.2","","","","","","","","","","","","","","72","H","0","img/none_selected.jpg","true","0","full_practice",""
"","bandit","59","339790","0.0-32.0-8.0","20099892","wem/bandit_party_2","A2DVRTL0JB0GT0","either","6","117","","","","","","","0","0","1","","0.2","0.5","0.5","0.5","0.5","0.8","0.2","0.6","0.2","","","","","","","","","","","","","","74","J","1","","true","0","full_practice",""
"","bandit","60","341538","0.0-32.0-9.0","20099892","wem/bandit_party_2","A2DVRTL0JB0GT0","either","6","234","","","","","","","0","0","1","0.2","","0.5","0.5","0.5","0.5","","","","","0.8","0.2","0.6","0.2","","","","","","","","","","74","J","1","","true","0","full_practice",""
"","bandit","61","343449","0.0-32.0-10.0","20099892","wem/bandit_party_2","A2DVRTL0JB0GT0","either","6","394","","","","","","","0","0","1","0.2","","0.5","0.5","0.5","0.5","","","","","0.8","0.2","0.6","0.2","","","","","","","","","","74","J","1","","true","0","full_practice",""
"","bandit","62","345118","0.0-32.0-11.0","20099892","wem/bandit_party_2","A2DVRTL0JB0GT0","either","6","154","","","","","","","0","0","1","0.2","","0.5","0.5","0.5","0.5","","","","","0.8","0.2","0.6","0.2","","","","","","","","","","74","J","1","","true","0","full_practice",""
"","bandit","63","346936","0.0-32.0-12.0","20099892","wem/bandit_party_2","A2DVRTL0JB0GT0","either","6","302","","","","","","","0","1","0","","0.2","0.5","0.5","0.5","0.5","0.8","0.2","0.6","0.2","","","","","","","","","","","","","","74","J","1","","true","0","full_practice",""
"","bandit","64","348475","0.0-32.0-13.0","20099892","wem/bandit_party_2","A2DVRTL0JB0GT0","either","6","26","","","","","","","1","0","0","0.2","","0.5","0.5","0.5","0.5","","","","","0.8","0.2","0.6","0.2","","","","","","","","","","74","J","1","","true","0","full_practice",""
"","bandit","65","350090","0.0-32.0-14.0","20099892","wem/bandit_party_2","A2DVRTL0JB0GT0","either","6","101","","","","","","","0","0","1","","0.2","0.5","0.5","0.5","0.5","0.8","0.2","0.6","0.2","","","","","","","","","","","","","","74","J","1","","true","0","full_practice",""
"","bandit","66","351913","0.0-32.0-15.0","20099892","wem/bandit_party_2","A2DVRTL0JB0GT0","either","6","303","","","","","","","0","0","1","0.2","","0.5","0.5","0.5","0.5","","","","","0.8","0.2","0.6","0.2","","","","","","","","","","74","J","1","","true","0","full_practice",""
"","bandit","67","353743","0.0-32.0-16.0","20099892","wem/bandit_party_2","A2DVRTL0JB0GT0","either","6","316","","","","","","","0","1","0","","0.6","0.5","0.5","0.5","0.5","0.8","0.2","0.6","0.2","","","","","","","","","","","","","","75","K","2","","true","0","full_practice",""
"","bandit","68","355260","0.0-32.0-17.0","20099892","wem/bandit_party_2","A2DVRTL0JB0GT0","either","6","2","","","","","","","0","1","0","","0.6","0.5","0.5","0.5","0.5","0.8","0.2","0.6","0.2","","","","","","","","","","","","","","75","K","2","","true","0","full_practice",""
"","bandit","69","356993","0.0-32.0-18.0","20099892","wem/bandit_party_2","A2DVRTL0JB0GT0","either","6","218","","","","","","","0","1","0","","0.6","0.5","0.5","0.5","0.5","0.8","0.2","0.6","0.2","","","","","","","","","","","","","","75","K","2","","true","0","full_practice",""
"","bandit","70","358682","0.0-32.0-19.0","20099892","wem/bandit_party_2","A2DVRTL0JB0GT0","either","6","164","","","","","","","1","0","0","0.6","","0.5","0.5","0.5","0.5","","","","","0.8","0.2","0.6","0.2","","","","","","","","","","75","K","2","","true","0","full_practice",""
"","text","71","369659","0.0-33.0","20099892","wem/bandit_party_2","A2DVRTL0JB0GT0","either","6","10960","","","32","","","","","","","","","","","","","","","","","","","","","","","","","","","","","","","","","","","","",""
"","text-replacement","72","387778","0.0-34.0","20099892","wem/bandit_party_2","A2DVRTL0JB0GT0","either","6","17111","","","32","","","","","","","","","","","","","","","","","","","","","","","","","","","","","","","","","","","","",""
"","text-replacement","73","398382","0.0-35.0","20099892","wem/bandit_party_2","A2DVRTL0JB0GT0","either","6","10600","","","32","","","","","","","","","","","","","","","","","","","","","","","","","","","","","","","","","","","","",""
"","text-replacement","74","409406","0.0-36.0","20099892","wem/bandit_party_2","A2DVRTL0JB0GT0","either","6","11018","","","32","","","","","","","","","","","","","","","","","","","","","","","","","","","","","","","","","","","","",""
"","text-replacement","75","419505","0.0-37.0","20099892","wem/bandit_party_2","A2DVRTL0JB0GT0","either","6","10093","","","32","","","","","","","","","","","","","","","","","","","","","","","","","","","","","","","","","","","","",""
"","text-replacement","76","425476","0.0-38.0","20099892","wem/bandit_party_2","A2DVRTL0JB0GT0","either","6","5963","","","32","","","","","","","","","","","","","","","","","","","","","","","","","","","","","","","","","","","","",""
"","survey-multi-choice-replacement","77","436676","0.0-39.0-0.0","20099892","wem/bandit_party_2","A2DVRTL0JB0GT0","either","6","11181","","","","","","","","","","","","","","","","","","","","","","","","Money will be added to the pool for <span style='color:blue;'>DEMOCRATS</span>","","","","","","","attn_check","","","","","","","","","0"
"","survey-multi-choice-replacement","78","450683","0.0-40.0-0.0","20099892","wem/bandit_party_2","A2DVRTL0JB0GT0","either","6","12990","","","","","","","","","","","","","","","","","","","","","","","","Equal amounts of money will be added to the pool for <span style='color:blue;'>DEMOCRATS</span> and subtracted from the pool for <span style='color:red;'>REPUBLICANS</span>","","","","","","","attn_check","","","","","","","","","2"
"","survey-multi-choice-replacement","79","455348","0.0-41.0-0.0","20099892","wem/bandit_party_2","A2DVRTL0JB0GT0","either","6","3639","","","","","","","","","","","","","","","","","","","","","","","","No money will be added to either pool","","","","","","","attn_check","","","","","","","","","3"
"","bandit","80","460365","0.0-42.0-0.0","20099892","wem/bandit_party_2","A2DVRTL0JB0GT0","either","6","2495","","","","","","","0","0","1","0.1947351938","","0.4","0.6","0.8","0.2","","","","","0.1947351938","0.3049938501","0.7197236342","0.2309914537","","","","","","","","","","72","H","0","img/none_selected.jpg","","1","main_expt",""
"","bandit","81","462704","0.0-43.0-0.0","20099892","wem/bandit_party_2","A2DVRTL0JB0GT0","either","6","822","","","","","","","0","0","1","0.1865171684","","0.4","0.6","0.8","0.2","","","","","0.1865171684","0.3105507028","0.7453792406","0.2351366282","","","","","","","","","","72","H","0","img/none_selected.jpg","","2","main_expt",""
"","bandit","82","464562","0.0-44.0-0.0","20099892","wem/bandit_party_2","A2DVRTL0JB0GT0","either","6","347","","","","","","","0","0","1","0.347932066","","0.4","0.6","0.8","0.2","","","","","0.1578482069","0.347932066","0.7422746785","0.3338792953","","","","","","","","","","74","J","1","","","3","main_expt",""
"","bandit","83","466663","0.0-45.0-0.0","20099892","wem/bandit_party_2","A2DVRTL0JB0GT0","either","6","584","","","","","","","0","0","1","","0.8152876082","0.4","0.6","0.8","0.2","0.1733557992","0.294099503","0.8152876082","0.2578124611","","","","","","","","","","","","","","75","K","2","","","4","main_expt",""
"","bandit","84","468503","0.0-46.0-0.0","20099892","wem/bandit_party_2","A2DVRTL0JB0GT0","either","6","325","","","","","","","0","0","1","","0.152782507","0.4","0.6","0.8","0.2","0.1275681293","0.256228135","0.8494846052","0.152782507","","","","","","","","","","","","","","76","L","3","","","5","main_expt",""
"","bandit","85","470259","0.0-47.0-0.0","20099892","wem/bandit_party_2","A2DVRTL0JB0GT0","either","6","241","","","","","","","0","1","0","","0.200224935","0.4","0.6","0.8","0.2","0.1776351543","0.3142053347","0.8036792828","0.200224935","","","","","","","","","","","","","","76","L","3","","","6","main_expt",""
"","bandit","86","472083","0.0-48.0-0.0","20099892","wem/bandit_party_2","A2DVRTL0JB0GT0","either","6","307","","","","","","","0","0","1","","0.2200442108","0.4","0.6","0.8","0.2","0.1412615145","0.2382568898","0.8659664865","0.2200442108","","","","","","","","","","","","","","76","L","3","","","7","main_expt",""
"","bandit","87","473770","0.0-49.0-0.0","20099892","wem/bandit_party_2","A2DVRTL0JB0GT0","either","6","173","","","","","","","0","0","1","","0.1516915951","0.4","0.6","0.8","0.2","0.1508054742","0.220471749","0.8475436228","0.1516915951","","","","","","","","","","","","","","76","L","3","","","8","main_expt",""
"","bandit","88","475406","0.0-50.0-0.0","20099892","wem/bandit_party_2","A2DVRTL0JB0GT0","either","6","120","","","","","","","1","0","0","0.8034999265","","0.4","0.6","0.8","0.2","","","","","0.1882404854","0.2842820234","0.8034999265","0.1468829212","","","","","","","","","","75","K","2","","","9","main_expt",""
"","bandit","89","477011","0.0-51.0-0.0","20099892","wem/bandit_party_2","A2DVRTL0JB0GT0","either","6","83","","","","","","","0","1","0","","0.7148412232","0.4","0.6","0.8","0.2","0.1731305678","0.3392415315","0.7148412232","0.1507643719","","","","","","","","","","","","","","75","K","2","","","10","main_expt",""
"","bandit","90","478876","0.0-52.0-0.0","20099892","wem/bandit_party_2","A2DVRTL0JB0GT0","either","6","356","","","","","","","0","1","0","","0.7213030285","0.4","0.6","0.8","0.2","0.2475279461","0.4470346709","0.7213030285","0.18301","","","","","","","","","","","","","","75","K","2","","","11","main_expt",""
"","bandit","91","480652","0.0-53.0-0.0","20099892","wem/bandit_party_2","A2DVRTL0JB0GT0","either","6","259","","","","","","","1","0","0","0.7396148754","","0.4","0.6","0.8","0.2","","","","","0.2068792089","0.5143820195","0.7396148754","0.209562337","","","","","","","","","","75","K","2","","","12","main_expt",""
"","bandit","92","482445","0.0-54.0-0.0","20099892","wem/bandit_party_2","A2DVRTL0JB0GT0","either","6","278","","","","","","","1","0","0","0.6870781676","","0.4","0.6","0.8","0.2","","","","","0.1594062408","0.4934308908","0.6870781676","0.2133897639","","","","","","","","","","75","K","2","","","13","main_expt",""
"","bandit","93","484271","0.0-55.0-0.0","20099892","wem/bandit_party_2","A2DVRTL0JB0GT0","either","6","311","","","","","","","1","0","0","0.6561171826","","0.4","0.6","0.8","0.2","","","","","0.1808320347","0.5884397519","0.6561171826","0.1865122749","","","","","","","","","","75","K","2","","","14","main_expt",""
"","bandit","94","485816","0.0-56.0-0.0","20099892","wem/bandit_party_2","A2DVRTL0JB0GT0","either","6","29","","","","","","","1","0","0","0.6255101569","","0.4","0.6","0.8","0.2","","","","","0.2401125286","0.425765204","0.6255101569","0.3169691733","","","","","","","","","","75","K","2","","","15","main_expt",""
"","bandit","95","487571","0.0-57.0-0.0","20099892","wem/bandit_party_2","A2DVRTL0JB0GT0","either","6","240","","","","","","","1","0","0","0.6101220295","","0.4","0.6","0.8","0.2","","","","","0.1823220599","0.4458974369","0.6101220295","0.3927767979","","","","","","","","","","75","K","2","","","16","main_expt",""
"","bandit","96","489585","0.0-58.0-0.0","20099892","wem/bandit_party_2","A2DVRTL0JB0GT0","either","6","497","","","","","","","0","0","1","","0.6233337625","0.4","0.6","0.8","0.2","0.2076179308","0.4907358526","0.6233337625","0.2882183284","","","","","","","","","","","","","","75","K","2","","","17","main_expt",""
"","bandit","97","491428","0.0-59.0-0.0","20099892","wem/bandit_party_2","A2DVRTL0JB0GT0","either","6","319","","","","","","","0","0","1","0.598865074","","0.4","0.6","0.8","0.2","","","","","0.2310064443","0.4895096529","0.598865074","0.3212622409","","","","","","","","","","75","K","2","","","18","main_expt",""
"","bandit","98","493232","0.0-60.0-0.0","20099892","wem/bandit_party_2","A2DVRTL0JB0GT0","either","6","289","","","","","","","1","0","0","0.6318918302","","0.4","0.6","0.8","0.2","","","","","0.1919199612","0.5437378015","0.6318918302","0.3678238944","","","","","","","","","","75","K","2","","","19","main_expt",""
"","bandit","99","495023","0.0-61.0-0.0","20099892","wem/bandit_party_2","A2DVRTL0JB0GT0","either","6","277","","","","","","","0","0","1","0.5667690756","","0.4","0.6","0.8","0.2","","","","","0.2150176637","0.543071052","0.5667690756","0.4357360734","","","","","","","","","","75","K","2","","","20","main_expt",""
"","bandit","100","496844","0.0-62.0-0.0","20099892","wem/bandit_party_2","A2DVRTL0JB0GT0","either","6","310","","","","","","","1","0","0","0.5457928974","","0.4","0.6","0.8","0.2","","","","","0.2980309021","0.5457928974","0.6364396753","0.4486518506","","","","","","","","","","74","J","1","","","21","main_expt",""
"","bandit","101","498711","0.0-63.0-0.0","20099892","wem/bandit_party_2","A2DVRTL0JB0GT0","either","6","354","","","","","","","0","0","1","","0.4531799458","0.4","0.6","0.8","0.2","0.3238742104","0.4531799458","0.5563436533","0.5145372488","","","","","","","","","","","","","","74","J","1","","","22","main_expt",""
"","bandit","102","500595","0.0-64.0-0.0","20099892","wem/bandit_party_2","A2DVRTL0JB0GT0","either","6","362","","","","","","","0","0","1","0.4321579995","","0.4","0.6","0.8","0.2","","","","","0.4158928209","0.4321579995","0.4555064456","0.6324996067","","","","","","","","","","74","J","1","","","23","main_expt",""
"","bandit","103","502448","0.0-65.0-0.0","20099892","wem/bandit_party_2","A2DVRTL0JB0GT0","either","6","339","","","","","","","0","0","1","0.3892872195","","0.4","0.6","0.8","0.2","","","","","0.2798670784","0.3892872195","0.4398961724","0.6665025749","","","","","","","","","","74","J","1","","","24","main_expt",""
"","bandit","104","504321","0.0-66.0-0.0","20099892","wem/bandit_party_2","A2DVRTL0JB0GT0","either","6","358","","","","","","","1","0","0","0.3810464824","","0.4","0.6","0.8","0.2","","","","","0.3932164435","0.4322880781","0.3810464824","0.5316582614","","","","","","","","","","75","K","2","","","25","main_expt",""
"","bandit","105","506205","0.0-67.0-0.0","20099892","wem/bandit_party_2","A2DVRTL0JB0GT0","either","6","367","","","","","","","0","0","1","0.451695138","","0.4","0.6","0.8","0.2","","","","","0.3243459504","0.4560392573","0.451695138","0.4282094451","","","","","","","","","","75","K","2","","","26","main_expt",""
"","bandit","106","508138","0.0-68.0-0.0","20099892","wem/bandit_party_2","A2DVRTL0JB0GT0","either","6","418","","","","","","","0","0","1","0.5372901799","","0.4","0.6","0.8","0.2","","","","","0.4266302179","0.5372901799","0.4423729324","0.4711380508","","","","","","","","","","74","J","1","","","27","main_expt",""
"","bandit","107","510043","0.0-69.0-0.0","20099892","wem/bandit_party_2","A2DVRTL0JB0GT0","either","6","384","","","","","","","1","0","0","0.6619872032","","0.4","0.6","0.8","0.2","","","","","0.4206607535","0.6619872032","0.4221124674","0.4539290932","","","","","","","","","","74","J","1","","","28","main_expt",""
"","bandit","108","511982","0.0-70.0-0.0","20099892","wem/bandit_party_2","A2DVRTL0JB0GT0","either","6","427","","","","","","","0","0","1","0.5939885142","","0.4","0.6","0.8","0.2","","","","","0.440099583","0.5939885142","0.489207998","0.4378511583","","","","","","","","","","74","J","1","","","29","main_expt",""
"","bandit","109","513499","0.0-71.0-0.0","20099892","wem/bandit_party_2","A2DVRTL0JB0GT0","either","6","2","","","","","","","0","1","0","","0.3982168329","0.4","0.6","0.8","0.2","0.3982168329","0.5602145404","0.4406356357","0.3425428874","","","","","","","","","","","","","","72","H","0","img/none_selected.jpg","","30","main_expt",""
"","bandit","110","515321","0.0-72.0-0.0","20099892","wem/bandit_party_2","A2DVRTL0JB0GT0","either","6","305","","","","","","","0","0","1","","0.3573437221","0.4","0.6","0.8","0.2","0.3573437221","0.5376870091","0.484130952","0.2354865125","","","","","","","","","","","","","","72","H","0","img/none_selected.jpg","","31","main_expt",""
"","bandit","111","517161","0.0-73.0-0.0","20099892","wem/bandit_party_2","A2DVRTL0JB0GT0","either","6","325","","","","","","","0","1","0","","0.3712986889","0.4","0.6","0.8","0.2","0.3712986889","0.6346195819","0.432294219","0.2552437171","","","","","","","","","","","","","","72","H","0","img/none_selected.jpg","","32","main_expt",""
"","bandit","112","519015","0.0-74.0-0.0","20099892","wem/bandit_party_2","A2DVRTL0JB0GT0","either","6","336","","","","","","","0","0","1","","0.45096985","0.4","0.6","0.8","0.2","0.45096985","0.7540961955","0.4821309474","0.2470382599","","","","","","","","","","","","","","72","H","0","img/none_selected.jpg","","33","main_expt",""
"","bandit","113","520935","0.0-75.0-0.0","20099892","wem/bandit_party_2","A2DVRTL0JB0GT0","either","6","395","","","","","","","0","0","1","","0.5559331637","0.4","0.6","0.8","0.2","0.5559331637","0.699797925","0.4702474349","0.2951894024","","","","","","","","","","","","","","72","H","0","img/none_selected.jpg","","34","main_expt",""
"","bandit","114","522634","0.0-76.0-0.0","20099892","wem/bandit_party_2","A2DVRTL0JB0GT0","either","6","182","","","","","","","1","0","0","0.7410295452","","0.4","0.6","0.8","0.2","","","","","0.7354386419","0.7410295452","0.5363697359","0.2596626779","","","","","","","","","","74","J","1","","","35","main_expt",""
"","bandit","115","524605","0.0-77.0-0.0","20099892","wem/bandit_party_2","A2DVRTL0JB0GT0","either","6","453","","","","","","","0","1","0","","0.7332281969","0.4","0.6","0.8","0.2","0.6934166837","0.7332281969","0.602250539","0.3164764808","","","","","","","","","","","","","","74","J","1","","","36","main_expt",""
"","bandit","116","526531","0.0-78.0-0.0","20099892","wem/bandit_party_2","A2DVRTL0JB0GT0","either","6","409","","","","","","","0","0","1","","0.736713329","0.4","0.6","0.8","0.2","0.6311869688","0.736713329","0.5337433964","0.3672962009","","","","","","","","","","","","","","74","J","1","","","37","main_expt",""
"","bandit","117","528447","0.0-79.0-0.0","20099892","wem/bandit_party_2","A2DVRTL0JB0GT0","either","6","396","","","","","","","0","0","1","0.5970413872","","0.4","0.6","0.8","0.2","","","","","0.6583504975","0.6860808007","0.5970413872","0.4056598401","","","","","","","","","","75","K","2","","","38","main_expt",""
"","bandit","118","530051","0.0-80.0-0.0","20099892","wem/bandit_party_2","A2DVRTL0JB0GT0","either","6","88","","","","","","","0","0","1","0.6529448079","","0.4","0.6","0.8","0.2","","","","","0.5861321806","0.7498761973","0.6529448079","0.4236995386","","","","","","","","","","75","K","2","","","39","main_expt",""
"","bandit","119","531825","0.0-81.0-0.0","20099892","wem/bandit_party_2","A2DVRTL0JB0GT0","either","6","256","","","","","","","1","0","0","0.6612991154","","0.4","0.6","0.8","0.2","","","","","0.4892836735","0.7043283504","0.6612991154","0.4365163158","","","","","","","","","","75","K","2","","","40","main_expt",""
"","bandit","120","533403","0.0-82.0-0.0","20099892","wem/bandit_party_2","A2DVRTL0JB0GT0","either","6","62","","","","","","","0","1","0","","0.7390431107","0.4","0.6","0.8","0.2","0.3479900608","0.6469690382","0.7390431107","0.4854269132","","","","","","","","","","","","","","75","K","2","","","41","main_expt",""
"","bandit","121","535216","0.0-83.0-0.0","20099892","wem/bandit_party_2","A2DVRTL0JB0GT0","either","6","295","","","","","","","1","0","0","0.7609423287","","0.4","0.6","0.8","0.2","","","","","0.376709287","0.6388905256","0.7609423287","0.4753587859","","","","","","","","","","75","K","2","","","42","main_expt",""
"","bandit","122","537015","0.0-84.0-0.0","20099892","wem/bandit_party_2","A2DVRTL0JB0GT0","either","6","282","","","","","","","0","0","1","0.8039673949","","0.4","0.6","0.8","0.2","","","","","0.4319300722","0.6383372244","0.8039673949","0.452202747","","","","","","","","","","75","K","2","","","43","main_expt",""
"","bandit","123","538854","0.0-85.0-0.0","20099892","wem/bandit_party_2","A2DVRTL0JB0GT0","either","6","317","","","","","","","0","0","1","","0.8216753652","0.4","0.6","0.8","0.2","0.4458636389","0.6247854939","0.8216753652","0.5522191005","","","","","","","","","","","","","","75","K","2","","","44","main_expt",""
"","bandit","124","540472","0.0-86.0-0.0","20099892","wem/bandit_party_2","A2DVRTL0JB0GT0","either","6","101","","","","","","","0","0","1","","0.4878962787","0.4","0.6","0.8","0.2","0.4323480181","0.6341880498","0.7636866317","0.4878962787","","","","","","","","","","","","","","76","L","3","","","45","main_expt",""
"","bandit","125","542249","0.0-87.0-0.0","20099892","wem/bandit_party_2","A2DVRTL0JB0GT0","either","6","258","","","","","","","0","1","0","","0.487595293","0.4","0.6","0.8","0.2","0.4348202433","0.5081310512","0.8203755575","0.487595293","","","","","","","","","","","","","","76","L","3","","","46","main_expt",""
"","bandit","126","544058","0.0-88.0-0.0","20099892","wem/bandit_party_2","A2DVRTL0JB0GT0","either","6","291","","","","","","","0","1","0","","0.444754188","0.4","0.6","0.8","0.2","0.3430847618","0.4202927251","0.8706375764","0.444754188","","","","","","","","","","","","","","76","L","3","","","47","main_expt",""
"","bandit","127","545900","0.0-89.0-0.0","20099892","wem/bandit_party_2","A2DVRTL0JB0GT0","either","6","324","","","","","","","0","0","1","0.5044276746","","0.4","0.6","0.8","0.2","","","","","0.2601977795","0.4767868938","0.8019506245","0.5044276746","","","","","","","","","","76","L","3","","","48","main_expt",""
"","bandit","128","547763","0.0-90.0-0.0","20099892","wem/bandit_party_2","A2DVRTL0JB0GT0","either","6","345","","","","","","","0","0","1","0.3766714482","","0.4","0.6","0.8","0.2","","","","","0.2368144698","0.3749468019","0.7331224435","0.3766714482","","","","","","","","","","76","L","3","","","49","main_expt",""
"","bandit","129","550105","0.0-91.0-0.0","20099892","wem/bandit_party_2","A2DVRTL0JB0GT0","either","6","822","","","","","","","0","0","1","","0.406992786","0.4","0.6","0.8","0.2","0.2484527115","0.3532902347","0.7908344101","0.406992786","","","","","","","","","","","","","","76","L","3","","","50","main_expt",""
"","bandit","130","551688","0.0-92.0-0.0","20099892","wem/bandit_party_2","A2DVRTL0JB0GT0","either","6","67","","","","","","","0","0","1","0.7922828235","","0.4","0.6","0.8","0.2","","","","","0.230268934","0.2413466802","0.7922828235","0.3854505747","","","","","","","","","","75","K","2","","","51","main_expt",""
"","bandit","131","553359","0.0-93.0-0.0","20099892","wem/bandit_party_2","A2DVRTL0JB0GT0","either","6","151","","","","","","","1","0","0","0.2673723166","","0.4","0.6","0.8","0.2","","","","","0.3429002399","0.2673723166","0.7485378942","0.3956915145","","","","","","","","","","74","J","1","","","52","main_expt",""
"","bandit","132","555196","0.0-94.0-0.0","20099892","wem/bandit_party_2","A2DVRTL0JB0GT0","either","6","323","","","","","","","0","0","1","0.2806035608","","0.4","0.6","0.8","0.2","","","","","0.2871029552","0.2806035608","0.6603794952","0.3062348001","","","","","","","","","","74","J","1","","","53","main_expt",""
"","bandit","133","556914","0.0-95.0-0.0","20099892","wem/bandit_party_2","A2DVRTL0JB0GT0","either","6","199","","","","","","","0","0","1","","0.2594444468","0.4","0.6","0.8","0.2","0.2594444468","0.2544312064","0.6931449795","0.2996500993","","","","","","","","","","","","","","72","H","0","img/none_selected.jpg","","54","main_expt",""
"","bandit","134","558583","0.0-96.0-0.0","20099892","wem/bandit_party_2","A2DVRTL0JB0GT0","either","6","151","","","","","","","0","0","1","0.3333749245","","0.4","0.6","0.8","0.2","","","","","0.3333749245","0.3362815808","0.7553272845","0.2518247787","","","","","","","","","","72","H","0","img/none_selected.jpg","","55","main_expt",""
"","bandit","135","560381","0.0-97.0-0.0","20099892","wem/bandit_party_2","A2DVRTL0JB0GT0","either","6","277","","","","","","","0","0","1","","0.3049104067","0.4","0.6","0.8","0.2","0.3049104067","0.3798256012","0.7231548626","0.3014763065","","","","","","","","","","","","","","72","H","0","img/none_selected.jpg","","56","main_expt",""
"","bandit","136","563392","0.0-98.0-0.0","20099892","wem/bandit_party_2","A2DVRTL0JB0GT0","either","6","1494","","","","","","","1","0","0","0.3989549393","","0.4","0.6","0.8","0.2","","","","","0.3623273811","0.3989549393","0.7485901337","0.2730843718","","","","","","","","","","74","J","1","","","57","main_expt",""
"","bandit","137","565418","0.0-99.0-0.0","20099892","wem/bandit_party_2","A2DVRTL0JB0GT0","either","6","507","","","","","","","0","0","1","","0.3373398956","0.4","0.6","0.8","0.2","0.3621169042","0.3373398956","0.797082508","0.367239041","","","","","","","","","","","","","","74","J","1","","","58","main_expt",""
"","bandit","138","567232","0.0-100.0-0.0","20099892","wem/bandit_party_2","A2DVRTL0JB0GT0","either","6","296","","","","","","","1","0","0","0.7466963627","","0.4","0.6","0.8","0.2","","","","","0.3672848169","0.3381045731","0.7466963627","0.4005220403","","","","","","","","","","75","K","2","","","59","main_expt",""
"","bandit","139","569076","0.0-101.0-0.0","20099892","wem/bandit_party_2","A2DVRTL0JB0GT0","either","6","327","","","","","","","1","0","0","0.6359615323","","0.4","0.6","0.8","0.2","","","","","0.5123874715","0.4838111383","0.6359615323","0.4863912708","","","","","","","","","","75","K","2","","","60","main_expt",""
"","bandit","140","571016","0.0-102.0-0.0","20099892","wem/bandit_party_2","A2DVRTL0JB0GT0","either","6","421","","","","","","","1","0","0","0.7125939799","","0.4","0.6","0.8","0.2","","","","","0.5218319631","0.4290776342","0.7125939799","0.5220595343","","","","","","","","","","75","K","2","","","61","main_expt",""
"","bandit","141","572939","0.0-103.0-0.0","20099892","wem/bandit_party_2","A2DVRTL0JB0GT0","either","6","409","","","","","","","0","0","1","0.5978650666","","0.4","0.6","0.8","0.2","","","","","0.6482151027","0.4387439774","0.5978650666","0.5447889898","","","","","","","","","","75","K","2","","","62","main_expt",""
"","bandit","142","574918","0.0-104.0-0.0","20099892","wem/bandit_party_2","A2DVRTL0JB0GT0","either","6","459","","","","","","","0","0","1","0.5166338879","","0.4","0.6","0.8","0.2","","","","","0.6966290852","0.3670418014","0.5166338879","0.5517390004","","","","","","","","","","75","K","2","","","63","main_expt",""
"","bandit","143","577780","0.0-105.0-0.0","20099892","wem/bandit_party_2","A2DVRTL0JB0GT0","either","6","1343","","","","","","","0","0","1","0.6576188384","","0.4","0.6","0.8","0.2","","","","","0.6497033777","0.3470393933","0.4901650138","0.6576188384","","","","","","","","","","76","L","3","","","64","main_expt",""
"","bandit","144","579629","0.0-106.0-0.0","20099892","wem/bandit_party_2","A2DVRTL0JB0GT0","either","6","330","","","","","","","0","1","0","","0.5156176703","0.4","0.6","0.8","0.2","0.6925184903","0.3361574661","0.459365688","0.5156176703","","","","","","","","","","","","","","76","L","3","","","65","main_expt",""
"","bandit","145","581580","0.0-107.0-0.0","20099892","wem/bandit_party_2","A2DVRTL0JB0GT0","either","6","434","","","","","","","0","0","1","","0.3851410914","0.4","0.6","0.8","0.2","0.8298767513","0.34308242","0.4666104807","0.3851410914","","","","","","","","","","","","","","76","L","3","","","66","main_expt",""
"","bandit","146","583496","0.0-108.0-0.0","20099892","wem/bandit_party_2","A2DVRTL0JB0GT0","either","6","398","","","","","","","0","0","1","","0.3925250542","0.4","0.6","0.8","0.2","0.8506596021","0.3730603492","0.5547259005","0.3925250542","","","","","","","","","","","","","","76","L","3","","","67","main_expt",""
"","bandit","147","585282","0.0-109.0-0.0","20099892","wem/bandit_party_2","A2DVRTL0JB0GT0","either","6","267","","","","","","","0","0","1","0.4089949532","","0.4","0.6","0.8","0.2","","","","","0.8536910832","0.4089949532","0.6038719492","0.3884113518","","","","","","","","","","74","J","1","","","68","main_expt",""
"","bandit","148","587152","0.0-110.0-0.0","20099892","wem/bandit_party_2","A2DVRTL0JB0GT0","either","6","350","","","","","","","0","1","0","","0.3749002533","0.4","0.6","0.8","0.2","0.8642538991","0.3749002533","0.6148283845","0.3434478979","","","","","","","","","","","","","","74","J","1","","","69","main_expt",""
"","bandit","149","589069","0.0-111.0-0.0","20099892","wem/bandit_party_2","A2DVRTL0JB0GT0","either","6","399","","","","","","","0","0","1","","0.4133869845","0.4","0.6","0.8","0.2","0.8073802352","0.4133869845","0.6683283761","0.4426642051","","","","","","","","","","","","","","74","J","1","","","70","main_expt",""
"","bandit","150","590855","0.0-112.0-0.0","20099892","wem/bandit_party_2","A2DVRTL0JB0GT0","either","6","266","","","","","","","0","0","1","0.3302164541","","0.4","0.6","0.8","0.2","","","","","0.8059201048","0.3302164541","0.738459761","0.4518046004","","","","","","","","","","74","J","1","","","71","main_expt",""
"","bandit","151","593472","0.0-113.0-0.0","20099892","wem/bandit_party_2","A2DVRTL0JB0GT0","either","6","1104","","","","","","","0","1","0","","0.6525166508","0.4","0.6","0.8","0.2","0.8262275011","0.2570952275","0.6525166508","0.4903223245","","","","","","","","","","","","","","75","K","2","","","72","main_expt",""
"","bandit","152","595333","0.0-114.0-0.0","20099892","wem/bandit_party_2","A2DVRTL0JB0GT0","either","6","341","","","","","","","1","0","0","0.5715134512","","0.4","0.6","0.8","0.2","","","","","0.7334390718","0.2042885023","0.5715134512","0.5296083002","","","","","","","","","","75","K","2","","","73","main_expt",""
"","bandit","153","596879","0.0-115.0-0.0","20099892","wem/bandit_party_2","A2DVRTL0JB0GT0","either","6","26","","","","","","","1","0","0","0.6228045854","","0.4","0.6","0.8","0.2","","","","","0.7490977197","0.2152837516","0.6228045854","0.4883026933","","","","","","","","","","75","K","2","","","74","main_expt",""
"","bandit","154","599872","0.0-116.0-0.0","20099892","wem/bandit_party_2","A2DVRTL0JB0GT0","either","6","1472","","","","","","","1","0","0","0.613630376","","0.4","0.6","0.8","0.2","","","","","0.7554087461","0.2044775694","0.613630376","0.4914171484","","","","","","","","","","75","K","2","","","75","main_expt",""
"","bandit","155","601961","0.0-117.0-0.0","20099892","wem/bandit_party_2","A2DVRTL0JB0GT0","either","6","578","","","","","","","1","0","0","0.7047266053","","0.4","0.6","0.8","0.2","","","","","0.804443878","0.2247613499","0.7047266053","0.6059218973","","","","","","","","","","75","K","2","","","76","main_expt",""
"","bandit","156","605808","0.0-118.0-0.0","20099892","wem/bandit_party_2","A2DVRTL0JB0GT0","either","6","2327","","","","","","","1","0","0","0.6910360943","","0.4","0.6","0.8","0.2","","","","","0.6656620098","0.2266335256","0.6910360943","0.553792366","","","","","","","","","","75","K","2","","","77","main_expt",""
"","bandit","157","607931","0.0-119.0-0.0","20099892","wem/bandit_party_2","A2DVRTL0JB0GT0","either","6","606","","","","","","","0","1","0","","0.5515992215","0.4","0.6","0.8","0.2","0.5898140708","0.1659731505","0.5515992215","0.6884193839","","","","","","","","","","","","","","75","K","2","","","78","main_expt",""
"","bandit","158","609736","0.0-120.0-0.0","20099892","wem/bandit_party_2","A2DVRTL0JB0GT0","either","6","287","","","","","","","0","1","0","","0.6448399581","0.4","0.6","0.8","0.2","0.613215191","0.2343921172","0.6448399581","0.7214277645","","","","","","","","","","","","","","75","K","2","","","79","main_expt",""
"","bandit","159","611937","0.0-121.0-0.0","20099892","wem/bandit_party_2","A2DVRTL0JB0GT0","either","6","681","","","","","","","1","0","0","0.739479497","","0.4","0.6","0.8","0.2","","","","","0.4605925783","0.2164054515","0.739479497","0.7328142644","","","","","","","","","","75","K","2","","","80","main_expt",""
"","bandit","160","613821","0.0-122.0-0.0","20099892","wem/bandit_party_2","A2DVRTL0JB0GT0","either","6","365","","","","","","","0","1","0","","0.6956071838","0.4","0.6","0.8","0.2","0.5390789087","0.1361232007","0.6956071838","0.7101675561","","","","","","","","","","","","","","75","K","2","","","81","main_expt",""
"","bandit","161","615876","0.0-123.0-0.0","20099892","wem/bandit_party_2","A2DVRTL0JB0GT0","either","6","534","","","","","","","0","0","1","0.5886517937","","0.4","0.6","0.8","0.2","","","","","0.621290364","0.2275447725","0.5886517937","0.6984384541","","","","","","","","","","75","K","2","","","82","main_expt",""
"","bandit","162","617615","0.0-124.0-0.0","20099892","wem/bandit_party_2","A2DVRTL0JB0GT0","either","6","227","","","","","","","0","1","0","","0.7447883659","0.4","0.6","0.8","0.2","0.6359424421","0.1900607051","0.4764182235","0.7447883659","","","","","","","","","","","","","","76","L","3","","","83","main_expt",""
"","bandit","163","619549","0.0-125.0-0.0","20099892","wem/bandit_party_2","A2DVRTL0JB0GT0","either","6","416","","","","","","","0","0","1","","0.6900592863","0.4","0.6","0.8","0.2","0.6133664729","0.1306868958","0.5149027494","0.6900592863","","","","","","","","","","","","","","76","L","3","","","84","main_expt",""
"","bandit","164","621131","0.0-126.0-0.0","20099892","wem/bandit_party_2","A2DVRTL0JB0GT0","either","6","59","","","","","","","0","0","1","0.4908067213","","0.4","0.6","0.8","0.2","","","","","0.7815463305","0.1683201849","0.4908067213","0.7010597455","","","","","","","","","","75","K","2","","","85","main_expt",""
"","bandit","165","622963","0.0-127.0-0.0","20099892","wem/bandit_party_2","A2DVRTL0JB0GT0","either","6","313","","","","","","","0","0","1","0.1290314955","","0.4","0.6","0.8","0.2","","","","","0.7355789231","0.1290314955","0.4139472458","0.6171062652","","","","","","","","","","74","J","1","","","86","main_expt",""
"","bandit","166","624686","0.0-128.0-0.0","20099892","wem/bandit_party_2","A2DVRTL0JB0GT0","either","6","198","","","","","","","0","1","0","","0.7267399876","0.4","0.6","0.8","0.2","0.7267399876","0.2297537383","0.4253818619","0.5629375242","","","","","","","","","","","","","","72","H","0","img/none_selected.jpg","","87","main_expt",""
"","bandit","167","626470","0.0-129.0-0.0","20099892","wem/bandit_party_2","A2DVRTL0JB0GT0","either","6","271","","","","","","","0","0","1","","0.7703195612","0.4","0.6","0.8","0.2","0.7703195612","0.1878263516","0.4448862761","0.6434443074","","","","","","","","","","","","","","72","H","0","img/none_selected.jpg","","88","main_expt",""
"","bandit","168","628444","0.0-130.0-0.0","20099892","wem/bandit_party_2","A2DVRTL0JB0GT0","either","6","456","","","","","","","0","0","1","","0.81872988","0.4","0.6","0.8","0.2","0.81872988","0.1896964823","0.4295642349","0.7296698787","","","","","","","","","","","","","","72","H","0","img/none_selected.jpg","","89","main_expt",""
"","bandit","169","629967","0.0-131.0-0.0","20099892","wem/bandit_party_2","A2DVRTL0JB0GT0","either","6","1","","","","","","","0","1","0","","0.8032570632","0.4","0.6","0.8","0.2","0.8032570632","0.1614970172","0.3655203192","0.7042864347","","","","","","","","","","","","","","72","H","0","img/none_selected.jpg","","90","main_expt",""
"","bandit","170","632158","0.0-132.0-0.0","20099892","wem/bandit_party_2","A2DVRTL0JB0GT0","either","6","677","","","","","","","0","0","1","","0.8257352781","0.4","0.6","0.8","0.2","0.8257352781","0.2107705911","0.402428746","0.7606559624","","","","","","","","","","","","","","72","H","0","img/none_selected.jpg","","91","main_expt",""
"","bandit","171","633975","0.0-133.0-0.0","20099892","wem/bandit_party_2","A2DVRTL0JB0GT0","either","6","297","","","","","","","0","0","1","0.1317951273","","0.4","0.6","0.8","0.2","","","","","0.7762210657","0.1317951273","0.452733603","0.8466818248","","","","","","","","","","74","J","1","","","92","main_expt",""
"","bandit","172","635758","0.0-134.0-0.0","20099892","wem/bandit_party_2","A2DVRTL0JB0GT0","either","6","256","","","","","","","0","0","1","","0.09268613222","0.4","0.6","0.8","0.2","0.8293629201","0.09268613222","0.5416456901","0.8181600593","","","","","","","","","","","","","","74","J","1","","","93","main_expt",""
"","bandit","173","637384","0.0-135.0-0.0","20099892","wem/bandit_party_2","A2DVRTL0JB0GT0","either","6","107","","","","","","","0","0","1","","0.06418168538","0.4","0.6","0.8","0.2","0.7849393417","0.06418168538","0.5246039132","0.7259749053","","","","","","","","","","","","","","74","J","1","","","94","main_expt",""
"","bandit","174","639189","0.0-136.0-0.0","20099892","wem/bandit_party_2","A2DVRTL0JB0GT0","either","6","286","","","","","","","0","1","0","","0.7850226125","0.4","0.6","0.8","0.2","0.7850226125","0.100072779","0.606801291","0.6538641892","","","","","","","","","","","","","","72","H","0","img/none_selected.jpg","","95","main_expt",""
"","bandit","175","640986","0.0-137.0-0.0","20099892","wem/bandit_party_2","A2DVRTL0JB0GT0","either","6","275","","","","","","","1","0","0","0.8013150942","","0.4","0.6","0.8","0.2","","","","","0.8013150942","0.09628221604","0.7175242067","0.6384360591","","","","","","","","","","72","H","0","img/none_selected.jpg","","96","main_expt",""
"","bandit","176","642611","0.0-138.0-0.0","20099892","wem/bandit_party_2","A2DVRTL0JB0GT0","either","6","104","","","","","","","0","0","1","0.70340399","","0.4","0.6","0.8","0.2","","","","","0.70340399","0.1335622201","0.7706560561","0.6836118029","","","","","","","","","","72","H","0","img/none_selected.jpg","","97","main_expt",""
"","bandit","177","644135","0.0-139.0-0.0","20099892","wem/bandit_party_2","A2DVRTL0JB0GT0","either","6","2","","","","","","","1","0","0","0.7234704616","","0.4","0.6","0.8","0.2","","","","","0.7562517051","0.167202632","0.7234704616","0.659457158","","","","","","","","","","75","K","2","","","98","main_expt",""
"","bandit","178","645658","0.0-140.0-0.0","20099892","wem/bandit_party_2","A2DVRTL0JB0GT0","either","6","2","","","","","","","0","0","1","0.6514659141","","0.4","0.6","0.8","0.2","","","","","0.6514659141","0.1216125457","0.6582042781","0.7726162223","","","","","","","","","","72","H","0","img/none_selected.jpg","","99","main_expt",""
"","bandit","179","659613","0.0-141.0-0.0","20099892","wem/bandit_party_2","A2DVRTL0JB0GT0","either","6","12442","","","","","","","0","0","1","0.1163239148","","0.4","0.6","0.8","0.2","","","","","0.7112237606","0.1163239148","0.6530973887","0.8446518706","","","","","","","","","","74","J","1","","","100","main_expt",""
"","bandit","180","661388","0.0-142.0-0.0","20099892","wem/bandit_party_2","A2DVRTL0JB0GT0","either","6","255","","","","","","","0","1","0","","0.6690961394","0.4","0.6","0.8","0.2","0.6865981462","0.1037928869","0.6690961394","0.8784151442","","","","","","","","","","","","","","75","K","2","","","101","main_expt",""
"","bandit","181","663233","0.0-143.0-0.0","20099892","wem/bandit_party_2","A2DVRTL0JB0GT0","either","6","324","","","","","","","1","0","0","0.6268844929","","0.4","0.6","0.8","0.2","","","","","0.6663704066","0.0991068806","0.6268844929","0.8781202538","","","","","","","","","","75","K","2","","","102","main_expt",""
"","bandit","182","665115","0.0-144.0-0.0","20099892","wem/bandit_party_2","A2DVRTL0JB0GT0","either","6","361","","","","","","","1","0","0","0.6657789595","","0.4","0.6","0.8","0.2","","","","","0.6006744832","0.1226752409","0.6657789595","0.8123732176","","","","","","","","","","75","K","2","","","103","main_expt",""
"","bandit","183","666675","0.0-145.0-0.0","20099892","wem/bandit_party_2","A2DVRTL0JB0GT0","either","6","40","","","","","","","1","0","0","0.6951589836","","0.4","0.6","0.8","0.2","","","","","0.518723913","0.1552466415","0.6951589836","0.8461937008","","","","","","","","","","75","K","2","","","104","main_expt",""
"","bandit","184","668222","0.0-146.0-0.0","20099892","wem/bandit_party_2","A2DVRTL0JB0GT0","either","6","27","","","","","","","0","1","0","","0.6382729445","0.4","0.6","0.8","0.2","0.5343999165","0.1702138509","0.6382729445","0.8664825842","","","","","","","","","","","","","","75","K","2","","","105","main_expt",""
"","bandit","185","669796","0.0-147.0-0.0","20099892","wem/bandit_party_2","A2DVRTL0JB0GT0","either","6","53","","","","","","","1","0","0","0.7139624249","","0.4","0.6","0.8","0.2","","","","","0.4959998489","0.2021425125","0.7139624249","0.8703997655","","","","","","","","","","75","K","2","","","106","main_expt",""
"","bandit","186","671433","0.0-148.0-0.0","20099892","wem/bandit_party_2","A2DVRTL0JB0GT0","either","6","116","","","","","","","1","0","0","0.7718136471","","0.4","0.6","0.8","0.2","","","","","0.5052663648","0.2196373816","0.7718136471","0.8964314806","","","","","","","","","","75","K","2","","","107","main_expt",""
"","bandit","187","673099","0.0-149.0-0.0","20099892","wem/bandit_party_2","A2DVRTL0JB0GT0","either","6","143","","","","","","","1","0","0","0.8818715302","","0.4","0.6","0.8","0.2","","","","","0.4859582203","0.2393661099","0.8818715302","0.9080126319","","","","","","","","","","75","K","2","","","108","main_expt",""
"","bandit","188","675229","0.0-150.0-0.0","20099892","wem/bandit_party_2","A2DVRTL0JB0GT0","either","6","610","","","","","","","1","0","0","0.8757741924","","0.4","0.6","0.8","0.2","","","","","0.523617738","0.2516352594","0.8757741924","0.8880845243","","","","","","","","","","75","K","2","","","109","main_expt",""
"","bandit","189","676791","0.0-151.0-0.0","20099892","wem/bandit_party_2","A2DVRTL0JB0GT0","either","6","42","","","","","","","0","1","0","","0.8657151097","0.4","0.6","0.8","0.2","0.5492010791","0.2424291788","0.8657151097","0.899251136","","","","","","","","","","","","","","75","K","2","","","110","main_expt",""
"","bandit","190","678399","0.0-152.0-0.0","20099892","wem/bandit_party_2","A2DVRTL0JB0GT0","either","6","90","","","","","","","0","0","1","0.8457624762","","0.4","0.6","0.8","0.2","","","","","0.5467154696","0.2033086481","0.8457624762","0.9019514556","","","","","","","","","","75","K","2","","","111","main_expt",""
"","bandit","191","679924","0.0-153.0-0.0","20099892","wem/bandit_party_2","A2DVRTL0JB0GT0","either","6","2","","","","","","","1","0","0","0.8756116827","","0.4","0.6","0.8","0.2","","","","","0.5396215981","0.208613213","0.8756116827","0.9315537639","","","","","","","","","","75","K","2","","","112","main_expt",""
"","bandit","192","681449","0.0-154.0-0.0","20099892","wem/bandit_party_2","A2DVRTL0JB0GT0","either","6","1","","","","","","","0","0","1","0.8773181328","","0.4","0.6","0.8","0.2","","","","","0.5542875214","0.2743958833","0.8773181328","0.9254394702","","","","","","","","","","75","K","2","","","113","main_expt",""
"","bandit","193","683221","0.0-155.0-0.0","20099892","wem/bandit_party_2","A2DVRTL0JB0GT0","either","6","254","","","","","","","0","0","1","0.2657329006","","0.4","0.6","0.8","0.2","","","","","0.6411428718","0.2657329006","0.8842236373","0.9394904604","","","","","","","","","","74","J","1","","","114","main_expt",""
"","bandit","194","684904","0.0-156.0-0.0","20099892","wem/bandit_party_2","A2DVRTL0JB0GT0","either","6","164","","","","","","","0","0","1","0.3234316928","","0.4","0.6","0.8","0.2","","","","","0.7261400339","0.3234316928","0.8499121835","0.9533355239","","","","","","","","","","74","J","1","","","115","main_expt",""
"","bandit","195","686429","0.0-157.0-0.0","20099892","wem/bandit_party_2","A2DVRTL0JB0GT0","either","6","1","","","","","","","0","1","0","","0.7395407697","0.4","0.6","0.8","0.2","0.7395407697","0.3625587123","0.7890056153","0.960842596","","","","","","","","","","","","","","72","H","0","img/none_selected.jpg","","116","main_expt",""
"","bandit","196","688262","0.0-158.0-0.0","20099892","wem/bandit_party_2","A2DVRTL0JB0GT0","either","6","312","","","","","","","0","1","0","","0.8231731708","0.4","0.6","0.8","0.2","0.8231731708","0.4946904956","0.7709890197","0.937733065","","","","","","","","","","","","","","72","H","0","img/none_selected.jpg","","117","main_expt",""
"","bandit","197","690059","0.0-159.0-0.0","20099892","wem/bandit_party_2","A2DVRTL0JB0GT0","either","6","273","","","","","","","0","1","0","","0.8278750807","0.4","0.6","0.8","0.2","0.8278750807","0.6246330079","0.7459937787","0.9561499645","","","","","","","","","","","","","","72","H","0","img/none_selected.jpg","","118","main_expt",""
"","bandit","198","691917","0.0-160.0-0.0","20099892","wem/bandit_party_2","A2DVRTL0JB0GT0","either","6","334","","","","","","","0","1","0","","0.8715827524","0.4","0.6","0.8","0.2","0.8715827524","0.5818097722","0.716881491","0.9595118281","","","","","","","","","","","","","","72","H","0","img/none_selected.jpg","","119","main_expt",""
"","bandit","199","693710","0.0-161.0-0.0","20099892","wem/bandit_party_2","A2DVRTL0JB0GT0","either","6","270","","","","","","","0","1","0","","0.8522670476","0.4","0.6","0.8","0.2","0.8522670476","0.5990025551","0.6595649419","0.9548463758","","","","","","","","","","","","","","72","H","0","img/none_selected.jpg","","120","main_expt",""
"","bandit","200","695501","0.0-162.0-0.0","20099892","wem/bandit_party_2","A2DVRTL0JB0GT0","either","6","271","","","","","","","0","1","0","","0.8266542562","0.4","0.6","0.8","0.2","0.8266542562","0.6534424477","0.6576447048","0.958085665","","","","","","","","","","","","","","72","H","0","img/none_selected.jpg","","121","main_expt",""
"","bandit","201","697157","0.0-163.0-0.0","20099892","wem/bandit_party_2","A2DVRTL0JB0GT0","either","6","135","","","","","","","1","0","0","0.81688531","","0.4","0.6","0.8","0.2","","","","","0.81688531","0.5952731017","0.6391957719","0.9630601427","","","","","","","","","","72","H","0","img/none_selected.jpg","","122","main_expt",""
"","bandit","202","698778","0.0-164.0-0.0","20099892","wem/bandit_party_2","A2DVRTL0JB0GT0","either","6","101","","","","","","","0","0","1","0.8307363081","","0.4","0.6","0.8","0.2","","","","","0.8307363081","0.6469086187","0.5873908865","0.9790283764","","","","","","","","","","72","H","0","img/none_selected.jpg","","123","main_expt",""
"","bandit","203","700459","0.0-165.0-0.0","20099892","wem/bandit_party_2","A2DVRTL0JB0GT0","either","6","158","","","","","","","0","0","1","","0.6943824695","0.4","0.6","0.8","0.2","0.6943824695","0.6911454426","0.6592760984","0.9718765302","","","","","","","","","","","","","","72","H","0","img/none_selected.jpg","","124","main_expt",""
"","bandit","204","702422","0.0-166.0-0.0","20099892","wem/bandit_party_2","A2DVRTL0JB0GT0","either","6","442","","","","","","","0","1","0","","0.7137568944","0.4","0.6","0.8","0.2","0.7137568944","0.750572215","0.6012083746","0.9845173964","","","","","","","","","","","","","","72","H","0","img/none_selected.jpg","","125","main_expt",""
"","bandit","205","704194","0.0-167.0-0.0","20099892","wem/bandit_party_2","A2DVRTL0JB0GT0","either","6","250","","","","","","","0","1","0","","0.6878742658","0.4","0.6","0.8","0.2","0.6878742658","0.8108432581","0.6043440275","0.9804670004","","","","","","","","","","","","","","72","H","0","img/none_selected.jpg","","126","main_expt",""
"","bandit","206","707027","0.0-168.0-0.0","20099892","wem/bandit_party_2","A2DVRTL0JB0GT0","either","6","1312","","","","","","","0","0","1","0.6175454059","","0.4","0.6","0.8","0.2","","","","","0.6175454059","0.8338196277","0.5043142332","0.9792667249","","","","","","","","","","72","H","0","img/none_selected.jpg","","127","main_expt",""
"","bandit","207","708718","0.0-169.0-0.0","20099892","wem/bandit_party_2","A2DVRTL0JB0GT0","either","6","168","","","","","","","0","1","0","","0.5556505876","0.4","0.6","0.8","0.2","0.5556505876","0.8624128669","0.5778209799","0.9853815399","","","","","","","","","","","","","","72","H","0","img/none_selected.jpg","","128","main_expt",""
"","bandit","208","710416","0.0-170.0-0.0","20099892","wem/bandit_party_2","A2DVRTL0JB0GT0","either","6","177","","","","","","","1","0","0","0.5948532478","","0.4","0.6","0.8","0.2","","","","","0.5948532478","0.9026068167","0.5806273004","0.9838319732","","","","","","","","","","72","H","0","img/none_selected.jpg","","129","main_expt",""
"","bandit","209","712065","0.0-171.0-0.0","20099892","wem/bandit_party_2","A2DVRTL0JB0GT0","either","6","127","","","","","","","0","0","1","0.6646968067","","0.4","0.6","0.8","0.2","","","","","0.6646968067","0.8983636673","0.4152233618","0.9798768453","","","","","","","","","","72","H","0","img/none_selected.jpg","","130","main_expt",""
"","bandit","210","713587","0.0-172.0-0.0","20099892","wem/bandit_party_2","A2DVRTL0JB0GT0","either","6","1","","","","","","","0","0","1","0.4527057242","","0.4","0.6","0.8","0.2","","","","","0.6676177377","0.888478962","0.4527057242","0.9628017066","","","","","","","","","","75","K","2","","","131","main_expt",""
"","bandit","211","718367","0.0-173.0-0.0","20099892","wem/bandit_party_2","A2DVRTL0JB0GT0","either","6","3255","","","","","","","0","1","0","","0.7638630926","0.4","0.6","0.8","0.2","0.7638630926","0.8470567254","0.5185753891","0.9723970119","","","","","","","","","","","","","","72","H","0","img/none_selected.jpg","","132","main_expt",""
"","bandit","212","720359","0.0-174.0-0.0","20099892","wem/bandit_party_2","A2DVRTL0JB0GT0","either","6","469","","","","","","","0","0","1","0.726350598","","0.4","0.6","0.8","0.2","","","","","0.726350598","0.8852081265","0.4567386081","0.9754432393","","","","","","","","","","72","H","0","img/none_selected.jpg","","133","main_expt",""
"","bandit","213","722279","0.0-175.0-0.0","20099892","wem/bandit_party_2","A2DVRTL0JB0GT0","either","6","397","","","","","","","0","1","0","","0.7638059904","0.4","0.6","0.8","0.2","0.7638059904","0.8317422298","0.4494056808","0.9635376407","","","","","","","","","","","","","","72","H","0","img/none_selected.jpg","","134","main_expt",""
"","bandit","214","724338","0.0-176.0-0.0","20099892","wem/bandit_party_2","A2DVRTL0JB0GT0","either","6","536","","","","","","","0","1","0","","0.7337835984","0.4","0.6","0.8","0.2","0.7337835984","0.8121858422","0.4608562393","0.9304273523","","","","","","","","","","","","","","72","H","0","img/none_selected.jpg","","135","main_expt",""
"","bandit","215","726238","0.0-177.0-0.0","20099892","wem/bandit_party_2","A2DVRTL0JB0GT0","either","6","379","","","","","","","0","1","0","","0.7869055623","0.4","0.6","0.8","0.2","0.7869055623","0.8473276522","0.6684020244","0.9295592062","","","","","","","","","","","","","","72","H","0","img/none_selected.jpg","","136","main_expt",""
"","bandit","216","727970","0.0-178.0-0.0","20099892","wem/bandit_party_2","A2DVRTL0JB0GT0","either","6","211","","","","","","","1","0","0","0.8033651193","","0.4","0.6","0.8","0.2","","","","","0.8033651193","0.8251243182","0.614137061","0.9343332129","","","","","","","","","","72","H","0","img/none_selected.jpg","","137","main_expt",""
"","bandit","217","729496","0.0-179.0-0.0","20099892","wem/bandit_party_2","A2DVRTL0JB0GT0","either","6","3","","","","","","","0","1","0","","0.7620089345","0.4","0.6","0.8","0.2","0.7620089345","0.7892590299","0.711021659","0.9325781127","","","","","","","","","","","","","","72","H","0","img/none_selected.jpg","","138","main_expt",""
"","bandit","218","731445","0.0-180.0-0.0","20099892","wem/bandit_party_2","A2DVRTL0JB0GT0","either","6","427","","","","","","","0","0","1","","0.8098853196","0.4","0.6","0.8","0.2","0.8098853196","0.753698647","0.5731932267","0.9687763229","","","","","","","","","","","","","","72","H","0","img/none_selected.jpg","","139","main_expt",""
"","bandit","219","733110","0.0-181.0-0.0","20099892","wem/bandit_party_2","A2DVRTL0JB0GT0","either","6","142","","","","","","","0","1","0","","0.8737133651","0.4","0.6","0.8","0.2","0.8737133651","0.7281837229","0.6553783698","0.9520204639","","","","","","","","","","","","","","72","H","0","img/none_selected.jpg","","140","main_expt",""
"","bandit","220","734937","0.0-182.0-0.0","20099892","wem/bandit_party_2","A2DVRTL0JB0GT0","either","6","305","","","","","","","0","1","0","","0.8464817719","0.4","0.6","0.8","0.2","0.8464817719","0.7913145473","0.5665224918","0.9615613541","","","","","","","","","","","","","","72","H","0","img/none_selected.jpg","","141","main_expt",""
"","bandit","221","736848","0.0-183.0-0.0","20099892","wem/bandit_party_2","A2DVRTL0JB0GT0","either","6","383","","","","","","","0","1","0","","0.8457688645","0.4","0.6","0.8","0.2","0.8457688645","0.7498898283","0.5230460729","0.9438722422","","","","","","","","","","","","","","72","H","0","img/none_selected.jpg","","142","main_expt",""
"","bandit","222","739630","0.0-184.0-0.0","20099892","wem/bandit_party_2","A2DVRTL0JB0GT0","either","6","1260","","","","","","","0","0","1","0.8801682128","","0.4","0.6","0.8","0.2","","","","","0.8801682128","0.723110339","0.5401897842","0.9419241064","","","","","","","","","","72","H","0","img/none_selected.jpg","","143","main_expt",""
"","bandit","223","741178","0.0-185.0-0.0","20099892","wem/bandit_party_2","A2DVRTL0JB0GT0","either","6","25","","","","","","","1","0","0","0.5495292383","","0.4","0.6","0.8","0.2","","","","","0.7806105972","0.7697142539","0.5495292383","0.9383966058","","","","","","","","","","75","K","2","","","144","main_expt",""
"","bandit","224","747368","0.0-186.0-0.0","20099892","wem/bandit_party_2","A2DVRTL0JB0GT0","either","6","4669","","","","","","","0","0","1","","0.7384744451","0.4","0.6","0.8","0.2","0.7384744451","0.8279494337","0.4718854897","0.9442204223","","","","","","","","","","","","","","72","H","0","img/none_selected.jpg","","145","main_expt",""
"","bandit","225","749216","0.0-187.0-0.0","20099892","wem/bandit_party_2","A2DVRTL0JB0GT0","either","6","324","","","","","","","1","0","0","0.7078417075","","0.4","0.6","0.8","0.2","","","","","0.7078417075","0.747104877","0.3790577705","0.9461270134","","","","","","","","","","72","H","0","img/none_selected.jpg","","146","main_expt",""
"","bandit","226","751025","0.0-188.0-0.0","20099892","wem/bandit_party_2","A2DVRTL0JB0GT0","either","6","287","","","","","","","0","0","1","","0.3671333747","0.4","0.6","0.8","0.2","0.7671729372","0.7635883185","0.3671333747","0.9677113618","","","","","","","","","","","","","","75","K","2","","","147","main_expt",""
"","bandit","227","752550","0.0-189.0-0.0","20099892","wem/bandit_party_2","A2DVRTL0JB0GT0","either","6","1","","","","","","","1","0","0","0.4462771912","","0.4","0.6","0.8","0.2","","","","","0.7515071201","0.6650729927","0.4462771912","0.9603287673","","","","","","","","","","75","K","2","","","148","main_expt",""
"","bandit","228","754836","0.0-190.0-0.0","20099892","wem/bandit_party_2","A2DVRTL0JB0GT0","either","6","762","","","","","","","0","0","1","0.3929125452","","0.4","0.6","0.8","0.2","","","","","0.7582160768","0.594527628","0.3929125452","0.9256305183","","","","","","","","","","75","K","2","","","149","main_expt",""
"","bandit","229","758188","0.0-191.0-0.0","20099892","wem/bandit_party_2","A2DVRTL0JB0GT0","either","6","1830","","","","","","","1","0","0","0.6843302658","","0.4","0.6","0.8","0.2","","","","","0.6843302658","0.5101412162","0.3825194633","0.9222609783","","","","","","","","","","72","H","0","img/none_selected.jpg","","150","main_expt",""
"","bandit","230","760002","0.0-192.0-0.0","20099892","wem/bandit_party_2","A2DVRTL0JB0GT0","either","6","290","","","","","","","1","0","0","0.4980827124","","0.4","0.6","0.8","0.2","","","","","0.4980827124","0.5755011036","0.3889652011","0.9522131909","","","","","","","","","","72","H","0","img/none_selected.jpg","","151","main_expt",""
"","bandit","231","761789","0.0-193.0-0.0","20099892","wem/bandit_party_2","A2DVRTL0JB0GT0","either","6","264","","","","","","","1","0","0","0.5418861514","","0.4","0.6","0.8","0.2","","","","","0.5418861514","0.5415628766","0.372169082","0.9351777179","","","","","","","","","","72","H","0","img/none_selected.jpg","","152","main_expt",""
"","bandit","232","763675","0.0-194.0-0.0","20099892","wem/bandit_party_2","A2DVRTL0JB0GT0","either","6","360","","","","","","","0","1","0","","0.6424708626","0.4","0.6","0.8","0.2","0.6424708626","0.6392888902","0.4275919172","0.9526549669","","","","","","","","","","","","","","72","H","0","img/none_selected.jpg","","153","main_expt",""
"","bandit","233","765472","0.0-195.0-0.0","20099892","wem/bandit_party_2","A2DVRTL0JB0GT0","either","6","275","","","","","","","0","0","1","0.6200403258","","0.4","0.6","0.8","0.2","","","","","0.6200403258","0.6798835142","0.3978897223","0.944677936","","","","","","","","","","72","H","0","img/none_selected.jpg","","154","main_expt",""
"","bandit","234","767303","0.0-196.0-0.0","20099892","wem/bandit_party_2","A2DVRTL0JB0GT0","either","6","309","","","","","","","0","0","1","0.5087788092","","0.4","0.6","0.8","0.2","","","","","0.5087788092","0.7376683638","0.4922143253","0.9443948233","","","","","","","","","","72","H","0","img/none_selected.jpg","","155","main_expt",""
"","bandit","235","769182","0.0-197.0-0.0","20099892","wem/bandit_party_2","A2DVRTL0JB0GT0","either","6","355","","","","","","","0","0","1","0.4397360723","","0.4","0.6","0.8","0.2","","","","","0.4397360723","0.7740838489","0.5060601407","0.9312029685","","","","","","","","","","72","H","0","img/none_selected.jpg","","156","main_expt",""
"","bandit","236","771078","0.0-198.0-0.0","20099892","wem/bandit_party_2","A2DVRTL0JB0GT0","either","6","372","","","","","","","1","0","0","0.7526352547","","0.4","0.6","0.8","0.2","","","","","0.4529934193","0.7526352547","0.56460533","0.9009413449","","","","","","","","","","74","J","1","","","157","main_expt",""
"","bandit","237","772941","0.0-199.0-0.0","20099892","wem/bandit_party_2","A2DVRTL0JB0GT0","either","6","340","","","","","","","1","0","0","0.807066173","","0.4","0.6","0.8","0.2","","","","","0.522014142","0.807066173","0.5551408743","0.8799225656","","","","","","","","","","74","J","1","","","158","main_expt",""
"","bandit","238","774766","0.0-200.0-0.0","20099892","wem/bandit_party_2","A2DVRTL0JB0GT0","either","6","301","","","","","","","1","0","0","0.8348587906","","0.4","0.6","0.8","0.2","","","","","0.447178695","0.8348587906","0.6362487126","0.9103166083","","","","","","","","","","74","J","1","","","159","main_expt",""
"","bandit","239","776625","0.0-201.0-0.0","20099892","wem/bandit_party_2","A2DVRTL0JB0GT0","either","6","336","","","","","","","0","0","1","0.8054329593","","0.4","0.6","0.8","0.2","","","","","0.4293784973","0.8054329593","0.5818198138","0.9575168601","","","","","","","","","","74","J","1","","","160","main_expt",""
"","bandit","240","778650","0.0-202.0-0.0","20099892","wem/bandit_party_2","A2DVRTL0JB0GT0","either","6","500","","","","","","","0","0","1","0.5079421761","","0.4","0.6","0.8","0.2","","","","","0.4263694152","0.8263011938","0.5079421761","0.9323430526","","","","","","","","","","75","K","2","","","161","main_expt",""
"","bandit","241","780631","0.0-203.0-0.0","20099892","wem/bandit_party_2","A2DVRTL0JB0GT0","either","6","458","","","","","","","1","0","0","0.3944353318","","0.4","0.6","0.8","0.2","","","","","0.4394756583","0.8468561623","0.3944353318","0.8731035433","","","","","","","","","","75","K","2","","","162","main_expt",""
"","bandit","242","782168","0.0-204.0-0.0","20099892","wem/bandit_party_2","A2DVRTL0JB0GT0","either","6","12","","","","","","","0","0","1","0.4560534757","","0.4","0.6","0.8","0.2","","","","","0.4632532181","0.866861138","0.4560534757","0.860239847","","","","","","","","","","75","K","2","","","163","main_expt",""
"","bandit","243","784888","0.0-205.0-0.0","20099892","wem/bandit_party_2","A2DVRTL0JB0GT0","either","6","1192","","","","","","","1","0","0","0.8621839131","","0.4","0.6","0.8","0.2","","","","","0.469091439","0.8621839131","0.4338988853","0.8327160304","","","","","","","","","","74","J","1","","","164","main_expt",""
"","bandit","244","786748","0.0-206.0-0.0","20099892","wem/bandit_party_2","A2DVRTL0JB0GT0","either","6","335","","","","","","","0","0","1","","0.8368369455","0.4","0.6","0.8","0.2","0.4691854483","0.8368369455","0.3640020004","0.8780399083","","","","","","","","","","","","","","74","J","1","","","165","main_expt",""
"","bandit","245","788400","0.0-207.0-0.0","20099892","wem/bandit_party_2","A2DVRTL0JB0GT0","either","6","129","","","","","","","1","0","0","0.8543831227","","0.4","0.6","0.8","0.2","","","","","0.424594696","0.8543831227","0.4433911144","0.8659509199","","","","","","","","","","74","J","1","","","166","main_expt",""
"","bandit","246","790276","0.0-208.0-0.0","20099892","wem/bandit_party_2","A2DVRTL0JB0GT0","either","6","352","","","","","","","0","1","0","","0.8444257961","0.4","0.6","0.8","0.2","0.4691217736","0.8444257961","0.4852122499","0.8458676595","","","","","","","","","","","","","","74","J","1","","","167","main_expt",""
"","bandit","247","792070","0.0-209.0-0.0","20099892","wem/bandit_party_2","A2DVRTL0JB0GT0","either","6","270","","","","","","","1","0","0","0.8895061166","","0.4","0.6","0.8","0.2","","","","","0.4605946041","0.8895061166","0.4829488348","0.7368025647","","","","","","","","","","74","J","1","","","168","main_expt",""
"","bandit","248","793800","0.0-210.0-0.0","20099892","wem/bandit_party_2","A2DVRTL0JB0GT0","either","6","206","","","","","","","1","0","0","0.8980662015","","0.4","0.6","0.8","0.2","","","","","0.4302520818","0.8980662015","0.467087579","0.6811301937","","","","","","","","","","74","J","1","","","169","main_expt",""
"","bandit","249","795641","0.0-211.0-0.0","20099892","wem/bandit_party_2","A2DVRTL0JB0GT0","either","6","317","","","","","","","0","1","0","","0.9399190154","0.4","0.6","0.8","0.2","0.3846086554","0.9399190154","0.3575164989","0.6781719117","","","","","","","","","","","","","","74","J","1","","","170","main_expt",""
"","bandit","250","797209","0.0-212.0-0.0","20099892","wem/bandit_party_2","A2DVRTL0JB0GT0","either","6","45","","","","","","","1","0","0","0.9199626721","","0.4","0.6","0.8","0.2","","","","","0.4938912128","0.9199626721","0.3433755155","0.5779776893","","","","","","","","","","74","J","1","","","171","main_expt",""
"","bandit","251","799889","0.0-213.0-0.0","20099892","wem/bandit_party_2","A2DVRTL0JB0GT0","either","6","1154","","","","","","","0","1","0","","0.8885959212","0.4","0.6","0.8","0.2","0.5409242696","0.8885959212","0.2921203137","0.5461867433","","","","","","","","","","","","","","74","J","1","","","172","main_expt",""
"","bandit","252","801907","0.0-214.0-0.0","20099892","wem/bandit_party_2","A2DVRTL0JB0GT0","either","6","493","","","","","","","0","1","0","","0.8502068985","0.4","0.6","0.8","0.2","0.4899310385","0.8502068985","0.3237382503","0.5898781272","","","","","","","","","","","","","","74","J","1","","","173","main_expt",""
"","bandit","253","803909","0.0-215.0-0.0","20099892","wem/bandit_party_2","A2DVRTL0JB0GT0","either","6","481","","","","","","","0","1","0","","0.9054067092","0.4","0.6","0.8","0.2","0.4464532747","0.9054067092","0.2935635685","0.5990225055","","","","","","","","","","","","","","74","J","1","","","174","main_expt",""
"","bandit","254","806229","0.0-216.0-0.0","20099892","wem/bandit_party_2","A2DVRTL0JB0GT0","either","6","794","","","","","","","1","0","0","0.9096893241","","0.4","0.6","0.8","0.2","","","","","0.4363040476","0.9096893241","0.2797951809","0.6129624105","","","","","","","","","","74","J","1","","","175","main_expt",""
"","bandit","255","808340","0.0-217.0-0.0","20099892","wem/bandit_party_2","A2DVRTL0JB0GT0","either","6","584","","","","","","","1","0","0","0.9081003197","","0.4","0.6","0.8","0.2","","","","","0.4198776974","0.9081003197","0.2067270565","0.5434192492","","","","","","","","","","74","J","1","","","176","main_expt",""
"","bandit","256","810278","0.0-218.0-0.0","20099892","wem/bandit_party_2","A2DVRTL0JB0GT0","either","6","412","","","","","","","0","1","0","","0.8417535431","0.4","0.6","0.8","0.2","0.4001478854","0.8417535431","0.19266164","0.5893108522","","","","","","","","","","","","","","74","J","1","","","177","main_expt",""
"","bandit","257","812124","0.0-219.0-0.0","20099892","wem/bandit_party_2","A2DVRTL0JB0GT0","either","6","321","","","","","","","0","1","0","","0.8045518304","0.4","0.6","0.8","0.2","0.3015477047","0.8045518304","0.1393448617","0.4862463398","","","","","","","","","","","","","","74","J","1","","","178","main_expt",""
"","bandit","258","814513","0.0-220.0-0.0","20099892","wem/bandit_party_2","A2DVRTL0JB0GT0","either","6","874","","","","","","","1","0","0","0.8250115846","","0.4","0.6","0.8","0.2","","","","","0.2700131006","0.8250115846","0.1149816072","0.4227787996","","","","","","","","","","74","J","1","","","179","main_expt",""
"","bandit","259","816354","0.0-221.0-0.0","20099892","wem/bandit_party_2","A2DVRTL0JB0GT0","either","6","317","","","","","","","0","1","0","","0.7418096358","0.4","0.6","0.8","0.2","0.3473069","0.7418096358","0.1231561222","0.3583368423","","","","","","","","","","","","","","74","J","1","","","180","main_expt",""
"","bandit","260","818277","0.0-222.0-0.0","20099892","wem/bandit_party_2","A2DVRTL0JB0GT0","either","6","396","","","","","","","1","0","0","0.7180260456","","0.4","0.6","0.8","0.2","","","","","0.3478804011","0.7180260456","0.1134989143","0.3820052134","","","","","","","","","","74","J","1","","","181","main_expt",""
"","bandit","261","820083","0.0-223.0-0.0","20099892","wem/bandit_party_2","A2DVRTL0JB0GT0","either","6","279","","","","","","","0","0","1","","0.6777378447","0.4","0.6","0.8","0.2","0.3304981007","0.6777378447","0.07317944644","0.437769555","","","","","","","","","","","","","","74","J","1","","","182","main_expt",""
"","bandit","262","822090","0.0-224.0-0.0","20099892","wem/bandit_party_2","A2DVRTL0JB0GT0","either","6","478","","","","","","","0","0","1","","0.6331465848","0.4","0.6","0.8","0.2","0.2578466268","0.6331465848","0.05085611098","0.3951330089","","","","","","","","","","","","","","74","J","1","","","183","main_expt",""
"","bandit","263","823904","0.0-225.0-0.0","20099892","wem/bandit_party_2","A2DVRTL0JB0GT0","either","6","288","","","","","","","0","1","0","","0.6578519513","0.4","0.6","0.8","0.2","0.3550464129","0.6578519513","0.07152820202","0.4062376343","","","","","","","","","","","","","","74","J","1","","","184","main_expt",""
"","bandit","264","825455","0.0-226.0-0.0","20099892","wem/bandit_party_2","A2DVRTL0JB0GT0","either","6","35","","","","","","","1","0","0","0.7160298793","","0.4","0.6","0.8","0.2","","","","","0.2993299556","0.7160298793","0.08814522307","0.4035727276","","","","","","","","","","74","J","1","","","185","main_expt",""
"","bandit","265","827060","0.0-227.0-0.0","20099892","wem/bandit_party_2","A2DVRTL0JB0GT0","either","6","81","","","","","","","1","0","0","0.7081703269","","0.4","0.6","0.8","0.2","","","","","0.3985972224","0.7081703269","0.0931487442","0.4595565904","","","","","","","","","","74","J","1","","","186","main_expt",""
"","bandit","266","828917","0.0-228.0-0.0","20099892","wem/bandit_party_2","A2DVRTL0JB0GT0","either","6","330","","","","","","","0","1","0","","0.7670757258","0.4","0.6","0.8","0.2","0.4563810555","0.7670757258","0.05847154344","0.4956959756","","","","","","","","","","","","","","74","J","1","","","187","main_expt",""
"","bandit","267","830550","0.0-229.0-0.0","20099892","wem/bandit_party_2","A2DVRTL0JB0GT0","either","6","107","","","","","","","1","0","0","0.7986884496","","0.4","0.6","0.8","0.2","","","","","0.4621092719","0.7986884496","0.05005107021","0.4295585103","","","","","","","","","","74","J","1","","","188","main_expt",""
"","bandit","268","832686","0.0-230.0-0.0","20099892","wem/bandit_party_2","A2DVRTL0JB0GT0","either","6","609","","","","","","","0","1","0","","0.8113194514","0.4","0.6","0.8","0.2","0.4214675273","0.8113194514","0.05158958255","0.4121259827","","","","","","","","","","","","","","74","J","1","","","189","main_expt",""
"","bandit","269","843773","0.0-231.0-0.0","20099892","wem/bandit_party_2","A2DVRTL0JB0GT0","either","6","9559","","","","","","","0","1","0","","0.8311477635","0.4","0.6","0.8","0.2","0.4445162903","0.8311477635","0.0530996007","0.40505342","","","","","","","","","","","","","","74","J","1","","","190","main_expt",""
"","bandit","270","845738","0.0-232.0-0.0","20099892","wem/bandit_party_2","A2DVRTL0JB0GT0","either","6","437","","","","","","","1","0","0","0.7941336253","","0.4","0.6","0.8","0.2","","","","","0.4077799102","0.7941336253","0.05342003941","0.3671493273","","","","","","","","","","74","J","1","","","191","main_expt",""
"","bandit","271","847556","0.0-233.0-0.0","20099892","wem/bandit_party_2","A2DVRTL0JB0GT0","either","6","292","","","","","","","1","0","0","0.841847859","","0.4","0.6","0.8","0.2","","","","","0.413117206","0.841847859","0.05264216412","0.3367263454","","","","","","","","","","74","J","1","","","192","main_expt",""
"","bandit","272","849395","0.0-234.0-0.0","20099892","wem/bandit_party_2","A2DVRTL0JB0GT0","either","6","311","","","","","","","0","0","1","0.865127625","","0.4","0.6","0.8","0.2","","","","","0.374663265","0.865127625","0.07418965368","0.2587514209","","","","","","","","","","74","J","1","","","193","main_expt",""
"","bandit","273","851179","0.0-235.0-0.0","20099892","wem/bandit_party_2","A2DVRTL0JB0GT0","either","6","258","","","","","","","1","0","0","0.8369883383","","0.4","0.6","0.8","0.2","","","","","0.2792309937","0.8369883383","0.1148515542","0.2123696513","","","","","","","","","","74","J","1","","","194","main_expt",""
"","bandit","274","853056","0.0-236.0-0.0","20099892","wem/bandit_party_2","A2DVRTL0JB0GT0","either","6","350","","","","","","","0","1","0","","0.8226177272","0.4","0.6","0.8","0.2","0.3090424304","0.8226177272","0.1102075851","0.2551117677","","","","","","","","","","","","","","74","J","1","","","195","main_expt",""
"","bandit","275","854980","0.0-237.0-0.0","20099892","wem/bandit_party_2","A2DVRTL0JB0GT0","either","6","401","","","","","","","0","1","0","","0.8759919892","0.4","0.6","0.8","0.2","0.2254203465","0.8759919892","0.09307195637","0.2948177706","","","","","","","","","","","","","","74","J","1","","","196","main_expt",""
"","bandit","276","856823","0.0-238.0-0.0","20099892","wem/bandit_party_2","A2DVRTL0JB0GT0","either","6","314","","","","","","","1","0","0","0.9413038234","","0.4","0.6","0.8","0.2","","","","","0.2104085952","0.9413038234","0.08341332984","0.2864074111","","","","","","","","","","74","J","1","","","197","main_expt",""
"","bandit","277","858682","0.0-239.0-0.0","20099892","wem/bandit_party_2","A2DVRTL0JB0GT0","either","6","330","","","","","","","1","0","0","0.9384937307","","0.4","0.6","0.8","0.2","","","","","0.1686499416","0.9384937307","0.06206278739","0.3044962429","","","","","","","","","","74","J","1","","","198","main_expt",""
"","bandit","278","860592","0.0-240.0-0.0","20099892","wem/bandit_party_2","A2DVRTL0JB0GT0","either","6","383","","","","","","","0","1","0","","0.927250614","0.4","0.6","0.8","0.2","0.1696058054","0.927250614","0.1015706687","0.2804127106","","","","","","","","","","","","","","74","J","1","","","199","main_expt",""
"","bandit","279","862448","0.0-241.0-0.0","20099892","wem/bandit_party_2","A2DVRTL0JB0GT0","either","6","333","","","","","","","1","0","0","0.8840406778","","0.4","0.6","0.8","0.2","","","","","0.1940139532","0.8840406778","0.07348353789","0.3151112274","","","","","","","","","","74","J","1","","","200","main_expt",""
"","bandit","280","864250","0.0-242.0-0.0","20099892","wem/bandit_party_2","A2DVRTL0JB0GT0","either","6","274","","","","","","","1","0","0","0.8866639954","","0.4","0.6","0.8","0.2","","","","","0.2384341862","0.8866639954","0.09218994405","0.3124471347","","","","","","","","","","74","J","1","","","201","main_expt",""
"","bandit","281","865779","0.0-243.0-0.0","20099892","wem/bandit_party_2","A2DVRTL0JB0GT0","either","6","1","","","","","","","0","1","0","","0.8188103646","0.4","0.6","0.8","0.2","0.2069173963","0.8188103646","0.1662378481","0.3418115628","","","","","","","","","","","","","","74","J","1","","","202","main_expt",""
"","bandit","282","867424","0.0-244.0-0.0","20099892","wem/bandit_party_2","A2DVRTL0JB0GT0","either","6","126","","","","","","","0","1","0","","0.8026106274","0.4","0.6","0.8","0.2","0.2502389624","0.8026106274","0.1808123801","0.2676578736","","","","","","","","","","","","","","74","J","1","","","203","main_expt",""
"","bandit","283","869181","0.0-245.0-0.0","20099892","wem/bandit_party_2","A2DVRTL0JB0GT0","either","6","237","","","","","","","0","0","1","","0.6613987003","0.4","0.6","0.8","0.2","0.2226806","0.6613987003","0.2011980288","0.2513587973","","","","","","","","","","","","","","74","J","1","","","204","main_expt",""
"","bandit","284","871838","0.0-246.0-0.0","20099892","wem/bandit_party_2","A2DVRTL0JB0GT0","either","6","1138","","","","","","","0","1","0","","0.7402115251","0.4","0.6","0.8","0.2","0.2327973494","0.7402115251","0.1877492959","0.2733703365","","","","","","","","","","","","","","74","J","1","","","205","main_expt",""
"","bandit","285","873492","0.0-247.0-0.0","20099892","wem/bandit_party_2","A2DVRTL0JB0GT0","either","6","125","","","","","","","0","1","0","","0.6792505986","0.4","0.6","0.8","0.2","0.3134624789","0.6792505986","0.1891298069","0.3212331514","","","","","","","","","","","","","","74","J","1","","","206","main_expt",""
"","bandit","286","875574","0.0-248.0-0.0","20099892","wem/bandit_party_2","A2DVRTL0JB0GT0","either","6","554","","","","","","","1","0","0","0.6510378203","","0.4","0.6","0.8","0.2","","","","","0.3808856429","0.6510378203","0.2092890992","0.3381772831","","","","","","","","","","74","J","1","","","207","main_expt",""
"","bandit","287","877513","0.0-249.0-0.0","20099892","wem/bandit_party_2","A2DVRTL0JB0GT0","either","6","409","","","","","","","0","1","0","","0.5971377862","0.4","0.6","0.8","0.2","0.318509643","0.5971377862","0.2563161799","0.2370260631","","","","","","","","","","","","","","74","J","1","","","208","main_expt",""
"","bandit","288","879212","0.0-250.0-0.0","20099892","wem/bandit_party_2","A2DVRTL0JB0GT0","either","6","170","","","","","","","0","0","1","","0.6040603887","0.4","0.6","0.8","0.2","0.2932847295","0.6040603887","0.2643940457","0.2157004535","","","","","","","","","","","","","","74","J","1","","","209","main_expt",""
"","bandit","289","880942","0.0-251.0-0.0","20099892","wem/bandit_party_2","A2DVRTL0JB0GT0","either","6","202","","","","","","","0","0","1","0.2230023122","","0.4","0.6","0.8","0.2","","","","","0.2230023122","0.7794442159","0.2710870001","0.2655169153","","","","","","","","","","72","H","0","img/none_selected.jpg","","210","main_expt",""
"","bandit","290","882569","0.0-252.0-0.0","20099892","wem/bandit_party_2","A2DVRTL0JB0GT0","either","6","99","","","","","","","0","0","1","","0.8397026392","0.4","0.6","0.8","0.2","0.1899351836","0.8397026392","0.2056380183","0.2359505063","","","","","","","","","","","","","","74","J","1","","","211","main_expt",""
"","bandit","291","884748","0.0-253.0-0.0","20099892","wem/bandit_party_2","A2DVRTL0JB0GT0","either","6","651","","","","","","","0","0","1","0.2487045614","","0.4","0.6","0.8","0.2","","","","","0.2593929449","0.7883870126","0.2487045614","0.2431981852","","","","","","","","","","75","K","2","","","212","main_expt",""
"","bandit","292","889477","0.0-254.0-0.0","20099892","wem/bandit_party_2","A2DVRTL0JB0GT0","either","6","3202","","","","","","","0","1","0","","0.3385658967","0.4","0.6","0.8","0.2","0.2304425673","0.7160446845","0.3520378668","0.3385658967","","","","","","","","","","","","","","76","L","3","","","213","main_expt",""
"","bandit","293","891308","0.0-255.0-0.0","20099892","wem/bandit_party_2","A2DVRTL0JB0GT0","either","6","302","","","","","","","0","1","0","","0.445002088","0.4","0.6","0.8","0.2","0.2849244028","0.7501162241","0.3455661114","0.445002088","","","","","","","","","","","","","","76","L","3","","","214","main_expt",""
"","bandit","294","893110","0.0-256.0-0.0","20099892","wem/bandit_party_2","A2DVRTL0JB0GT0","either","6","275","","","","","","","0","1","0","","0.4340580748","0.4","0.6","0.8","0.2","0.3184819088","0.7574589115","0.3290646698","0.4340580748","","","","","","","","","","","","","","76","L","3","","","215","main_expt",""
"","bandit","295","894814","0.0-257.0-0.0","20099892","wem/bandit_party_2","A2DVRTL0JB0GT0","either","6","174","","","","","","","1","0","0","0.3996931216","","0.4","0.6","0.8","0.2","","","","","0.2989728513","0.7376674805","0.2737258078","0.3996931216","","","","","","","","","","76","L","3","","","216","main_expt",""
"","bandit","296","896438","0.0-258.0-0.0","20099892","wem/bandit_party_2","A2DVRTL0JB0GT0","either","6","95","","","","","","","0","1","0","","0.453570069","0.4","0.6","0.8","0.2","0.5538830624","0.67262171","0.2401291484","0.453570069","","","","","","","","","","","","","","76","L","3","","","217","main_expt",""
"","bandit","297","898266","0.0-259.0-0.0","20099892","wem/bandit_party_2","A2DVRTL0JB0GT0","either","6","303","","","","","","","0","0","1","0.3566620654","","0.4","0.6","0.8","0.2","","","","","0.5331458927","0.6309662891","0.2395298113","0.3566620654","","","","","","","","","","76","L","3","","","218","main_expt",""
"","bandit","298","899987","0.0-260.0-0.0","20099892","wem/bandit_party_2","A2DVRTL0JB0GT0","either","6","194","","","","","","","0","0","1","0.3114207129","","0.4","0.6","0.8","0.2","","","","","0.409279481","0.610488243","0.2333127667","0.3114207129","","","","","","","","","","76","L","3","","","219","main_expt",""
"","bandit","299","901777","0.0-261.0-0.0","20099892","wem/bandit_party_2","A2DVRTL0JB0GT0","either","6","260","","","","","","","1","0","0","0.348491043","","0.4","0.6","0.8","0.2","","","","","0.3910907299","0.6741838821","0.2097963002","0.348491043","","","","","","","","","","76","L","3","","","220","main_expt",""
"","bandit","300","903324","0.0-262.0-0.0","20099892","wem/bandit_party_2","A2DVRTL0JB0GT0","either","6","19","","","","","","","0","0","1","","0.325682353","0.4","0.6","0.8","0.2","0.37386253","0.6938787555","0.1761429423","0.325682353","","","","","","","","","","","","","","76","L","3","","","221","main_expt",""
"","bandit","301","905932","0.0-263.0-0.0","20099892","wem/bandit_party_2","A2DVRTL0JB0GT0","either","6","1078","","","","","","","0","1","0","","0.3582518194","0.4","0.6","0.8","0.2","0.5460784034","0.622086605","0.1770547834","0.3582518194","","","","","","","","","","","","","","76","L","3","","","222","main_expt",""
"","bandit","302","907477","0.0-264.0-0.0","20099892","wem/bandit_party_2","A2DVRTL0JB0GT0","either","6","28","","","","","","","0","0","1","","0.3596631187","0.4","0.6","0.8","0.2","0.5484594206","0.6190419158","0.1494166006","0.3596631187","","","","","","","","","","","","","","76","L","3","","","223","main_expt",""
"","bandit","303","909834","0.0-265.0-0.0","20099892","wem/bandit_party_2","A2DVRTL0JB0GT0","either","6","827","","","","","","","0","1","0","","0.4757784632","0.4","0.6","0.8","0.2","0.5156266917","0.6525227655","0.1444184755","0.4757784632","","","","","","","","","","","","","","76","L","3","","","224","main_expt",""
"","bandit","304","911404","0.0-266.0-0.0","20099892","wem/bandit_party_2","A2DVRTL0JB0GT0","either","6","44","","","","","","","0","1","0","","0.5384710229","0.4","0.6","0.8","0.2","0.5120039273","0.5739960468","0.2381889698","0.5384710229","","","","","","","","","","","","","","76","L","3","","","225","main_expt",""
"","bandit","305","914270","0.0-267.0-0.0","20099892","wem/bandit_party_2","A2DVRTL0JB0GT0","either","6","1336","","","","","","","1","0","0","0.5308581489","","0.4","0.6","0.8","0.2","","","","","0.5568413113","0.6038380469","0.1429230379","0.5308581489","","","","","","","","","","76","L","3","","","226","main_expt",""
"","bandit","306","916158","0.0-268.0-0.0","20099892","wem/bandit_party_2","A2DVRTL0JB0GT0","either","6","358","","","","","","","0","1","0","","0.488482713","0.4","0.6","0.8","0.2","0.5277183188","0.5203417309","0.124100867","0.488482713","","","","","","","","","","","","","","76","L","3","","","227","main_expt",""
"","bandit","307","918016","0.0-269.0-0.0","20099892","wem/bandit_party_2","A2DVRTL0JB0GT0","either","6","326","","","","","","","0","0","1","","0.4406219513","0.4","0.6","0.8","0.2","0.5041270258","0.4263922038","0.1762219884","0.4406219513","","","","","","","","","","","","","","76","L","3","","","228","main_expt",""
"","bandit","308","919742","0.0-270.0-0.0","20099892","wem/bandit_party_2","A2DVRTL0JB0GT0","either","6","196","","","","","","","0","1","0","","0.4892119921","0.4","0.6","0.8","0.2","0.4541369304","0.3475105047","0.1910325121","0.4892119921","","","","","","","","","","","","","","76","L","3","","","229","main_expt",""
"","bandit","309","921537","0.0-271.0-0.0","20099892","wem/bandit_party_2","A2DVRTL0JB0GT0","either","6","268","","","","","","","0","0","1","0.5129573662","","0.4","0.6","0.8","0.2","","","","","0.4504381994","0.3353007417","0.2571549068","0.5129573662","","","","","","","","","","76","L","3","","","230","main_expt",""
"","bandit","310","923939","0.0-272.0-0.0","20099892","wem/bandit_party_2","A2DVRTL0JB0GT0","either","6","873","","","","","","","1","0","0","0.4698668598","","0.4","0.6","0.8","0.2","","","","","0.4698668598","0.2870546929","0.1781345747","0.4382888871","","","","","","","","","","72","H","0","img/none_selected.jpg","","231","main_expt",""
"","bandit","311","925755","0.0-273.0-0.0","20099892","wem/bandit_party_2","A2DVRTL0JB0GT0","either","6","297","","","","","","","1","0","0","0.5460008395","","0.4","0.6","0.8","0.2","","","","","0.5460008395","0.3092655517","0.1748933913","0.42174841","","","","","","","","","","72","H","0","img/none_selected.jpg","","232","main_expt",""
"","bandit","312","927359","0.0-274.0-0.0","20099892","wem/bandit_party_2","A2DVRTL0JB0GT0","either","6","86","","","","","","","0","0","1","0.5345299581","","0.4","0.6","0.8","0.2","","","","","0.5345299581","0.4231157335","0.2196371411","0.4297142637","","","","","","","","","","72","H","0","img/none_selected.jpg","","233","main_expt",""
"","bandit","313","929834","0.0-275.0-0.0","20099892","wem/bandit_party_2","A2DVRTL0JB0GT0","either","6","946","","","","","","","1","0","0","0.508060833","","0.4","0.6","0.8","0.2","","","","","0.508060833","0.5525929145","0.2052749597","0.3016140143","","","","","","","","","","72","H","0","img/none_selected.jpg","","234","main_expt",""
"","bandit","314","932114","0.0-276.0-0.0","20099892","wem/bandit_party_2","A2DVRTL0JB0GT0","either","6","751","","","","","","","0","1","0","","0.4956589368","0.4","0.6","0.8","0.2","0.4956589368","0.7239072418","0.3158924645","0.2735586703","","","","","","","","","","","","","","72","H","0","img/none_selected.jpg","","235","main_expt",""
"","bandit","315","933677","0.0-277.0-0.0","20099892","wem/bandit_party_2","A2DVRTL0JB0GT0","either","6","32","","","","","","","0","1","0","","0.5514737959","0.4","0.6","0.8","0.2","0.5514737959","0.8076920848","0.3668106878","0.2536827631","","","","","","","","","","","","","","72","H","0","img/none_selected.jpg","","236","main_expt",""
"","bandit","316","935513","0.0-278.0-0.0","20099892","wem/bandit_party_2","A2DVRTL0JB0GT0","either","6","307","","","","","","","0","0","1","","0.5183580196","0.4","0.6","0.8","0.2","0.5183580196","0.7703095863","0.3866395083","0.2478783488","","","","","","","","","","","","","","72","H","0","img/none_selected.jpg","","237","main_expt",""
