"consent","trial_type","trial_index","time_elapsed","internal_node_id","subjID","study","MID","cond","drift","rt","responses","button_pressed","key_press","like","value","connected","gems","bombs","no_reward","GemPrChosen","BombPrChosen","GainOverPainPr_0","GainOverPainPr_1","GainOverPainPr_2","GainOverPainPr_3","LosePr_0","LosePr_1","LosePr_2","LosePr_3","WinPr_0","WinPr_1","WinPr_2","WinPr_3","Q0","Q1","Q2","gender","age","ethnicity","label","expt_phase","target","respCharCode","respKey","respChoiceNum","respChoice","practice","trial_counter","trial_label","Q0_index"
"GDM/GDM_behavioral_consent_30min_online.html","consent","0","14830","0.0-0.0","20912239","wem/bandit_party_2","A3JD7U800K95BY","either","3","","","","","","","","","","","","","","","","","","","","","","","","","","","","","","","","","","","","","","","","",""
"","survey-text","1","18784","0.0-1.0","20912239","wem/bandit_party_2","A3JD7U800K95BY","either","3","2949","{""Q0"":""A3JD7U800K95BY""}","","","","","","","","","","","","","","","","","","","","","","","","","","","","","","","","","","","","","","",""
"","button-response","2","21275","0.0-2.0","20912239","wem/bandit_party_2","A3JD7U800K95BY","either","3","1487","","2","","","","","","","","","","","","","","","","","","","","","","","","","","","","","","","","","","","","","",""
"","text-replacement","3","28592","0.0-3.0","20912239","wem/bandit_party_2","A3JD7U800K95BY","either","3","6314","","","32","","","","","","","","","","","","","","","","","","","","","","","","","","","","","","","","","","","","",""
"","text-replacement","4","35783","0.0-4.0","20912239","wem/bandit_party_2","A3JD7U800K95BY","either","3","7190","","","32","","","","","","","","","","","","","","","","","","","","","","","","","","","","","","","","","","","","",""
"","text-replacement","5","45067","0.0-5.0-0.0","20912239","wem/bandit_party_2","A3JD7U800K95BY","either","3","9282","","","32","","","","","","","","","","","","","","","","","","","","","","","","","","","","","","","","","","","","",""
"","identification","6","51453","0.0-6.0-0.0","20912239","wem/bandit_party_2","A3JD7U800K95BY","either","3","6377","","","","2","2","2","","","","","","","","","","","","","","","","","","","","","","","","pre","identification_pre","the Democratic Party","","","","","","","",""
"","identification","7","55537","0.0-6.0-1.0","20912239","wem/bandit_party_2","A3JD7U800K95BY","either","3","3075","","","","0","0","0","","","","","","","","","","","","","","","","","","","","","","","","pre","identification_pre","the Republican Party","","","","","","","",""
"","text-replacement","8","59562","0.0-7.0","20912239","wem/bandit_party_2","A3JD7U800K95BY","either","3","3023","","","32","","","","","","","","","","","","","","","","","","","","","","","","","","","","","","","","","","","","",""
"","text-replacement","9","92629","0.0-8.0","20912239","wem/bandit_party_2","A3JD7U800K95BY","either","3","33067","","","32","","","","","","","","","","","","","","","","","","","","","","","","","","","","","","","","","","","","",""
"","text-replacement","10","98370","0.0-9.0","20912239","wem/bandit_party_2","A3JD7U800K95BY","either","3","5739","","","32","","","","","","","","","","","","","","","","","","","","","","","","","","","","","","","","","","","","",""
"","text-replacement","11","99820","0.0-10.0","20912239","wem/bandit_party_2","A3JD7U800K95BY","either","3","1449","","","32","","","","","","","","","","","","","","","","","","","","","","","","","","","","","","","","","","","","",""
"","text-replacement","12","104690","0.0-11.0","20912239","wem/bandit_party_2","A3JD7U800K95BY","either","3","4868","","","32","","","","","","","","","","","","","","","","","","","","","","","","","","","","","","","","","","","","",""
"","bandit","13","107963","0.0-12.0-0.0","20912239","wem/bandit_party_2","A3JD7U800K95BY","either","3","1764","","","","","","","0","0","1","0","0","","","","","0","","","","0","","","","","","","","","","","","","74","J","0","img/none_selected_demo.jpg","true","0","",""
"","bandit","14","110491","0.0-13.0-0.0","20912239","wem/bandit_party_2","A3JD7U800K95BY","either","3","1024","","","","","","","0","0","1","0","0","","","","","0","","","","0","","","","","","","","","","","","","75","K","0","img/none_selected_demo.jpg","true","0","",""
"","text-replacement","15","114159","0.0-14.0","20912239","wem/bandit_party_2","A3JD7U800K95BY","either","3","3667","","","32","","","","","","","","","","","","","","","","","","","","","","","","","","","","","","","","","","","","",""
"","text-replacement","16","137890","0.0-15.0","20912239","wem/bandit_party_2","A3JD7U800K95BY","either","3","23729","","","32","","","","","","","","","","","","","","","","","","","","","","","","","","","","","","","","","","","","",""
"","text-replacement","17","141589","0.0-16.0","20912239","wem/bandit_party_2","A3JD7U800K95BY","either","3","3698","","","32","","","","","","","","","","","","","","","","","","","","","","","","","","","","","","","","","","","","",""
"","text-replacement","18","143524","0.0-17.0","20912239","wem/bandit_party_2","A3JD7U800K95BY","either","3","1934","","","32","","","","","","","","","","","","","","","","","","","","","","","","","","","","","","","","","","","","",""
"","bandit","19","146253","0.0-18.0-0.0","20912239","wem/bandit_party_2","A3JD7U800K95BY","either","3","1225","","","","","","","0","0","1","0.8","","0.5","0.5","","","","","","","0.8","0.2","","","","","","","","","","","","74","J","0","img/none_selected_demo.jpg","true","0","80_20_practice",""
"","bandit","20","148358","0.0-18.0-1.0","20912239","wem/bandit_party_2","A3JD7U800K95BY","either","3","599","","","","","","","0","0","1","0.8","","0.5","0.5","","","","","","","0.8","0.2","","","","","","","","","","","","74","J","0","img/none_selected_demo.jpg","true","0","80_20_practice",""
"","bandit","21","150178","0.0-18.0-2.0","20912239","wem/bandit_party_2","A3JD7U800K95BY","either","3","316","","","","","","","1","0","0","0.8","","0.5","0.5","","","","","","","0.8","0.2","","","","","","","","","","","","74","J","0","img/none_selected_demo.jpg","true","0","80_20_practice",""
"","bandit","22","152039","0.0-18.0-3.0","20912239","wem/bandit_party_2","A3JD7U800K95BY","either","3","355","","","","","","","1","0","0","0.8","","0.5","0.5","","","","","","","0.8","0.2","","","","","","","","","","","","74","J","0","img/none_selected_demo.jpg","true","0","80_20_practice",""
"","bandit","23","154034","0.0-18.0-4.0","20912239","wem/bandit_party_2","A3JD7U800K95BY","either","3","490","","","","","","","0","0","1","","0.2","0.5","0.5","","","0.8","0.2","","","","","","","","","","","","","","","","75","K","1","","true","0","80_20_practice",""
"","bandit","24","155626","0.0-18.0-5.0","20912239","wem/bandit_party_2","A3JD7U800K95BY","either","3","85","","","","","","","0","0","1","0.2","","0.5","0.5","","","","","","","0.8","0.2","","","","","","","","","","","","75","K","1","","true","0","80_20_practice",""
"","bandit","25","157179","0.0-18.0-6.0","20912239","wem/bandit_party_2","A3JD7U800K95BY","either","3","47","","","","","","","0","0","1","0.2","","0.5","0.5","","","","","","","0.8","0.2","","","","","","","","","","","","75","K","1","","true","0","80_20_practice",""
"","bandit","26","158987","0.0-18.0-7.0","20912239","wem/bandit_party_2","A3JD7U800K95BY","either","3","303","","","","","","","0","0","1","","0.2","0.5","0.5","","","0.8","0.2","","","","","","","","","","","","","","","","75","K","1","","true","0","80_20_practice",""
"","bandit","27","160987","0.0-18.0-8.0","20912239","wem/bandit_party_2","A3JD7U800K95BY","either","3","493","","","","","","","1","0","0","0.8","","0.5","0.5","","","","","","","0.8","0.2","","","","","","","","","","","","74","J","0","img/none_selected_demo.jpg","true","0","80_20_practice",""
"","bandit","28","162741","0.0-18.0-9.0","20912239","wem/bandit_party_2","A3JD7U800K95BY","either","3","250","","","","","","","0","1","0","","0.8","0.5","0.5","","","0.8","0.2","","","","","","","","","","","","","","","","74","J","0","img/none_selected_demo.jpg","true","0","80_20_practice",""
"","bandit","29","164674","0.0-18.0-10.0","20912239","wem/bandit_party_2","A3JD7U800K95BY","either","3","428","","","","","","","1","0","0","0.8","","0.5","0.5","","","","","","","0.8","0.2","","","","","","","","","","","","74","J","0","img/none_selected_demo.jpg","true","0","80_20_practice",""
"","bandit","30","166451","0.0-18.0-11.0","20912239","wem/bandit_party_2","A3JD7U800K95BY","either","3","272","","","","","","","1","0","0","0.8","","0.5","0.5","","","","","","","0.8","0.2","","","","","","","","","","","","74","J","0","img/none_selected_demo.jpg","true","0","80_20_practice",""
"","bandit","31","168200","0.0-18.0-12.0","20912239","wem/bandit_party_2","A3JD7U800K95BY","either","3","244","","","","","","","0","1","0","","0.8","0.5","0.5","","","0.8","0.2","","","","","","","","","","","","","","","","74","J","0","img/none_selected_demo.jpg","true","0","80_20_practice",""
"","bandit","32","169924","0.0-18.0-13.0","20912239","wem/bandit_party_2","A3JD7U800K95BY","either","3","219","","","","","","","0","1","0","","0.8","0.5","0.5","","","0.8","0.2","","","","","","","","","","","","","","","","74","J","0","img/none_selected_demo.jpg","true","0","80_20_practice",""
"","bandit","33","171680","0.0-18.0-14.0","20912239","wem/bandit_party_2","A3JD7U800K95BY","either","3","250","","","","","","","0","0","1","0.8","","0.5","0.5","","","","","","","0.8","0.2","","","","","","","","","","","","74","J","0","img/none_selected_demo.jpg","true","0","80_20_practice",""
"","bandit","34","173470","0.0-18.0-15.0","20912239","wem/bandit_party_2","A3JD7U800K95BY","either","3","284","","","","","","","0","1","0","","0.8","0.5","0.5","","","0.8","0.2","","","","","","","","","","","","","","","","74","J","0","img/none_selected_demo.jpg","true","0","80_20_practice",""
"","bandit","35","175272","0.0-18.0-16.0","20912239","wem/bandit_party_2","A3JD7U800K95BY","either","3","297","","","","","","","1","0","0","0.8","","0.5","0.5","","","","","","","0.8","0.2","","","","","","","","","","","","74","J","0","img/none_selected_demo.jpg","true","0","80_20_practice",""
"","bandit","36","177143","0.0-18.0-17.0","20912239","wem/bandit_party_2","A3JD7U800K95BY","either","3","366","","","","","","","0","1","0","","0.8","0.5","0.5","","","0.8","0.2","","","","","","","","","","","","","","","","74","J","0","img/none_selected_demo.jpg","true","0","80_20_practice",""
"","bandit","37","179342","0.0-18.0-18.0","20912239","wem/bandit_party_2","A3JD7U800K95BY","either","3","694","","","","","","","0","1","0","","0.8","0.5","0.5","","","0.8","0.2","","","","","","","","","","","","","","","","74","J","0","img/none_selected_demo.jpg","true","0","80_20_practice",""
"","bandit","38","181002","0.0-18.0-19.0","20912239","wem/bandit_party_2","A3JD7U800K95BY","either","3","153","","","","","","","0","1","0","","0.8","0.5","0.5","","","0.8","0.2","","","","","","","","","","","","","","","","74","J","0","img/none_selected_demo.jpg","true","0","80_20_practice",""
"","text-replacement","39","183472","0.0-19.0","20912239","wem/bandit_party_2","A3JD7U800K95BY","either","3","2467","","","32","","","","","","","","","","","","","","","","","","","","","","","","","","","","","","","","","","","","",""
"","bandit","40","185630","0.0-20.0-0.0","20912239","wem/bandit_party_2","A3JD7U800K95BY","either","3","653","","","","","","","1","0","0","1","0","","","","","0","1","","","1","0","","","","","","","","","","","","74","J","0","img/none_selected_demo.jpg","true","0","",""
"","text-replacement","41","189017","0.0-21.0","20912239","wem/bandit_party_2","A3JD7U800K95BY","either","3","3385","","","32","","","","","","","","","","","","","","","","","","","","","","","","","","","","","","","","","","","","",""
"","text-replacement","42","191090","0.0-22.0","20912239","wem/bandit_party_2","A3JD7U800K95BY","either","3","2071","","","32","","","","","","","","","","","","","","","","","","","","","","","","","","","","","","","","","","","","",""
"","text-replacement","43","192519","0.0-23.0","20912239","wem/bandit_party_2","A3JD7U800K95BY","either","3","1426","","","32","","","","","","","","","","","","","","","","","","","","","","","","","","","","","","","","","","","","",""
"","text-replacement","44","195824","0.0-24.0","20912239","wem/bandit_party_2","A3JD7U800K95BY","either","3","3303","","","32","","","","","","","","","","","","","","","","","","","","","","","","","","","","","","","","","","","","",""
"","text-replacement","45","198821","0.0-25.0","20912239","wem/bandit_party_2","A3JD7U800K95BY","either","3","2995","","","32","","","","","","","","","","","","","","","","","","","","","","","","","","","","","","","","","","","","",""
"","text-replacement","46","201758","0.0-26.0","20912239","wem/bandit_party_2","A3JD7U800K95BY","either","3","2937","","","32","","","","","","","","","","","","","","","","","","","","","","","","","","","","","","","","","","","","",""
"","text-replacement","47","204125","0.0-27.0","20912239","wem/bandit_party_2","A3JD7U800K95BY","either","3","2365","","","32","","","","","","","","","","","","","","","","","","","","","","","","","","","","","","","","","","","","",""
"","text-replacement","48","207230","0.0-28.0","20912239","wem/bandit_party_2","A3JD7U800K95BY","either","3","3103","","","32","","","","","","","","","","","","","","","","","","","","","","","","","","","","","","","","","","","","",""
"","text-replacement","49","209484","0.0-29.0","20912239","wem/bandit_party_2","A3JD7U800K95BY","either","3","2253","","","32","","","","","","","","","","","","","","","","","","","","","","","","","","","","","","","","","","","","",""
"","text-replacement","50","210695","0.0-30.0","20912239","wem/bandit_party_2","A3JD7U800K95BY","either","3","1209","","","32","","","","","","","","","","","","","","","","","","","","","","","","","","","","","","","","","","","","",""
"","text-replacement","51","211984","0.0-31.0","20912239","wem/bandit_party_2","A3JD7U800K95BY","either","3","1288","","","32","","","","","","","","","","","","","","","","","","","","","","","","","","","","","","","","","","","","",""
"","bandit","52","214920","0.0-32.0-0.0","20912239","wem/bandit_party_2","A3JD7U800K95BY","either","3","1431","","","","","","","0","1","0","","0.8","0.5","0.5","0.5","0.5","0.8","0.2","0.6","0.2","","","","","","","","","","","","","","72","H","0","img/none_selected.jpg","true","0","full_practice",""
"","bandit","53","216978","0.0-32.0-1.0","20912239","wem/bandit_party_2","A3JD7U800K95BY","either","3","553","","","","","","","0","1","0","","0.8","0.5","0.5","0.5","0.5","0.8","0.2","0.6","0.2","","","","","","","","","","","","","","72","H","0","img/none_selected.jpg","true","0","full_practice",""
"","bandit","54","218869","0.0-32.0-2.0","20912239","wem/bandit_party_2","A3JD7U800K95BY","either","3","386","","","","","","","0","1","0","","0.8","0.5","0.5","0.5","0.5","0.8","0.2","0.6","0.2","","","","","","","","","","","","","","72","H","0","img/none_selected.jpg","true","0","full_practice",""
"","bandit","55","220644","0.0-32.0-3.0","20912239","wem/bandit_party_2","A3JD7U800K95BY","either","3","270","","","","","","","1","0","0","0.8","","0.5","0.5","0.5","0.5","","","","","0.8","0.2","0.6","0.2","","","","","","","","","","72","H","0","img/none_selected.jpg","true","0","full_practice",""
"","bandit","56","222440","0.0-32.0-4.0","20912239","wem/bandit_party_2","A3JD7U800K95BY","either","3","288","","","","","","","0","0","1","0.8","","0.5","0.5","0.5","0.5","","","","","0.8","0.2","0.6","0.2","","","","","","","","","","72","H","0","img/none_selected.jpg","true","0","full_practice",""
"","bandit","57","224227","0.0-32.0-5.0","20912239","wem/bandit_party_2","A3JD7U800K95BY","either","3","282","","","","","","","0","1","0","","0.8","0.5","0.5","0.5","0.5","0.8","0.2","0.6","0.2","","","","","","","","","","","","","","72","H","0","img/none_selected.jpg","true","0","full_practice",""
"","bandit","58","226017","0.0-32.0-6.0","20912239","wem/bandit_party_2","A3JD7U800K95BY","either","3","282","","","","","","","0","1","0","","0.8","0.5","0.5","0.5","0.5","0.8","0.2","0.6","0.2","","","","","","","","","","","","","","72","H","0","img/none_selected.jpg","true","0","full_practice",""
"","bandit","59","227809","0.0-32.0-7.0","20912239","wem/bandit_party_2","A3JD7U800K95BY","either","3","284","","","","","","","1","0","0","0.8","","0.5","0.5","0.5","0.5","","","","","0.8","0.2","0.6","0.2","","","","","","","","","","72","H","0","img/none_selected.jpg","true","0","full_practice",""
"","bandit","60","229570","0.0-32.0-8.0","20912239","wem/bandit_party_2","A3JD7U800K95BY","either","3","255","","","","","","","1","0","0","0.8","","0.5","0.5","0.5","0.5","","","","","0.8","0.2","0.6","0.2","","","","","","","","","","72","H","0","img/none_selected.jpg","true","0","full_practice",""
"","bandit","61","231665","0.0-32.0-9.0","20912239","wem/bandit_party_2","A3JD7U800K95BY","either","3","590","","","","","","","1","0","0","0.8","","0.5","0.5","0.5","0.5","","","","","0.8","0.2","0.6","0.2","","","","","","","","","","72","H","0","img/none_selected.jpg","true","0","full_practice",""
"","bandit","62","233726","0.0-32.0-10.0","20912239","wem/bandit_party_2","A3JD7U800K95BY","either","3","556","","","","","","","0","1","0","","0.8","0.5","0.5","0.5","0.5","0.8","0.2","0.6","0.2","","","","","","","","","","","","","","72","H","0","img/none_selected.jpg","true","0","full_practice",""
"","bandit","63","236448","0.0-32.0-11.0","20912239","wem/bandit_party_2","A3JD7U800K95BY","either","3","1214","","","","","","","1","0","0","0.8","","0.5","0.5","0.5","0.5","","","","","0.8","0.2","0.6","0.2","","","","","","","","","","72","H","0","img/none_selected.jpg","true","0","full_practice",""
"","bandit","64","238235","0.0-32.0-12.0","20912239","wem/bandit_party_2","A3JD7U800K95BY","either","3","283","","","","","","","1","0","0","0.8","","0.5","0.5","0.5","0.5","","","","","0.8","0.2","0.6","0.2","","","","","","","","","","72","H","0","img/none_selected.jpg","true","0","full_practice",""
"","bandit","65","240331","0.0-32.0-13.0","20912239","wem/bandit_party_2","A3JD7U800K95BY","either","3","590","","","","","","","0","1","0","","0.8","0.5","0.5","0.5","0.5","0.8","0.2","0.6","0.2","","","","","","","","","","","","","","72","H","0","img/none_selected.jpg","true","0","full_practice",""
"","bandit","66","242143","0.0-32.0-14.0","20912239","wem/bandit_party_2","A3JD7U800K95BY","either","3","304","","","","","","","0","1","0","","0.8","0.5","0.5","0.5","0.5","0.8","0.2","0.6","0.2","","","","","","","","","","","","","","72","H","0","img/none_selected.jpg","true","0","full_practice",""
"","bandit","67","244079","0.0-32.0-15.0","20912239","wem/bandit_party_2","A3JD7U800K95BY","either","3","430","","","","","","","0","1","0","","0.8","0.5","0.5","0.5","0.5","0.8","0.2","0.6","0.2","","","","","","","","","","","","","","72","H","0","img/none_selected.jpg","true","0","full_practice",""
"","bandit","68","245866","0.0-32.0-16.0","20912239","wem/bandit_party_2","A3JD7U800K95BY","either","3","279","","","","","","","1","0","0","0.8","","0.5","0.5","0.5","0.5","","","","","0.8","0.2","0.6","0.2","","","","","","","","","","72","H","0","img/none_selected.jpg","true","0","full_practice",""
"","bandit","69","247499","0.0-32.0-17.0","20912239","wem/bandit_party_2","A3JD7U800K95BY","either","3","128","","","","","","","1","0","0","0.8","","0.5","0.5","0.5","0.5","","","","","0.8","0.2","0.6","0.2","","","","","","","","","","72","H","0","img/none_selected.jpg","true","0","full_practice",""
"","bandit","70","249280","0.0-32.0-18.0","20912239","wem/bandit_party_2","A3JD7U800K95BY","either","3","276","","","","","","","0","1","0","","0.8","0.5","0.5","0.5","0.5","0.8","0.2","0.6","0.2","","","","","","","","","","","","","","72","H","0","img/none_selected.jpg","true","0","full_practice",""
"","bandit","71","251590","0.0-32.0-19.0","20912239","wem/bandit_party_2","A3JD7U800K95BY","either","3","803","","","","","","","1","0","0","0.8","","0.5","0.5","0.5","0.5","","","","","0.8","0.2","0.6","0.2","","","","","","","","","","72","H","0","img/none_selected.jpg","true","0","full_practice",""
"","text","72","253974","0.0-33.0","20912239","wem/bandit_party_2","A3JD7U800K95BY","either","3","2344","","","32","","","","","","","","","","","","","","","","","","","","","","","","","","","","","","","","","","","","",""
"","text-replacement","73","263572","0.0-34.0","20912239","wem/bandit_party_2","A3JD7U800K95BY","either","3","8594","","","32","","","","","","","","","","","","","","","","","","","","","","","","","","","","","","","","","","","","",""
"","text-replacement","74","270608","0.0-35.0","20912239","wem/bandit_party_2","A3JD7U800K95BY","either","3","7034","","","32","","","","","","","","","","","","","","","","","","","","","","","","","","","","","","","","","","","","",""
"","text-replacement","75","276329","0.0-36.0","20912239","wem/bandit_party_2","A3JD7U800K95BY","either","3","5720","","","32","","","","","","","","","","","","","","","","","","","","","","","","","","","","","","","","","","","","",""
"","text-replacement","76","279074","0.0-37.0","20912239","wem/bandit_party_2","A3JD7U800K95BY","either","3","2743","","","32","","","","","","","","","","","","","","","","","","","","","","","","","","","","","","","","","","","","",""
"","text-replacement","77","282442","0.0-38.0","20912239","wem/bandit_party_2","A3JD7U800K95BY","either","3","3366","","","32","","","","","","","","","","","","","","","","","","","","","","","","","","","","","","","","","","","","",""
"","survey-multi-choice-replacement","78","288560","0.0-39.0-0.0","20912239","wem/bandit_party_2","A3JD7U800K95BY","either","3","6113","","","","","","","","","","","","","","","","","","","","","","","","Money will be added to the pool for <span style='color:red;'>REPUBLICANS</span>","","","","","","","attn_check","","","","","","","","","0"
"","survey-multi-choice-replacement","79","293783","0.0-40.0-0.0","20912239","wem/bandit_party_2","A3JD7U800K95BY","either","3","4217","","","","","","","","","","","","","","","","","","","","","","","","Equal amounts of money will be added to the pool for <span style='color:red;'>REPUBLICANS</span> and subtracted from the pool for <span style='color:blue;'>DEMOCRATS</span>","","","","","","","attn_check","","","","","","","","","2"
"","survey-multi-choice-replacement","80","296420","0.0-41.0-0.0","20912239","wem/bandit_party_2","A3JD7U800K95BY","either","3","1630","","","","","","","","","","","","","","","","","","","","","","","","No money will be added to either pool","","","","","","","attn_check","","","","","","","","","3"
"","bandit","81","300913","0.0-42.0-0.0","20912239","wem/bandit_party_2","A3JD7U800K95BY","either","3","1986","","","","","","","0","0","1","","0.1387034319","0.4","0.2","0.8","0.6","0.1387034319","0.4261870849","0.6473934842","0.6494041588","","","","","","","","","","","","","","72","H","0","img/none_selected.jpg","","1","main_expt",""
"","bandit","82","302869","0.0-43.0-0.0","20912239","wem/bandit_party_2","A3JD7U800K95BY","either","3","451","","","","","","","0","0","1","","0.3223101542","0.4","0.2","0.8","0.6","0.2166337036","0.3223101542","0.5221866694","0.7608835745","","","","","","","","","","","","","","74","J","1","","","2","main_expt",""
"","bandit","83","304661","0.0-44.0-0.0","20912239","wem/bandit_party_2","A3JD7U800K95BY","either","3","286","","","","","","","1","0","0","0.5356292978","","0.4","0.2","0.8","0.6","","","","","0.3253899216","0.2541217019","0.5356292978","0.7745567172","","","","","","","","","","75","K","2","","","3","main_expt",""
"","bandit","84","306902","0.0-45.0-0.0","20912239","wem/bandit_party_2","A3JD7U800K95BY","either","3","734","","","","","","","1","0","0","0.5154592071","","0.4","0.2","0.8","0.6","","","","","0.3003293127","0.2272043942","0.5154592071","0.8315703218","","","","","","","","","","75","K","2","","","4","main_expt",""
"","bandit","85","308662","0.0-46.0-0.0","20912239","wem/bandit_party_2","A3JD7U800K95BY","either","3","255","","","","","","","0","1","0","","0.4578896037","0.4","0.2","0.8","0.6","0.3839660868","0.2967729676","0.4578896037","0.8380789219","","","","","","","","","","","","","","75","K","2","","","5","main_expt",""
"","bandit","86","310416","0.0-47.0-0.0","20912239","wem/bandit_party_2","A3JD7U800K95BY","either","3","248","","","","","","","0","0","1","0.4825789634","","0.4","0.2","0.8","0.6","","","","","0.3833463511","0.3211998527","0.4825789634","0.8233568153","","","","","","","","","","75","K","2","","","6","main_expt",""
"","bandit","87","312082","0.0-48.0-0.0","20912239","wem/bandit_party_2","A3JD7U800K95BY","either","3","162","","","","","","","0","0","1","0.4013658759","","0.4","0.2","0.8","0.6","","","","","0.3173395401","0.4190649117","0.4013658759","0.8672840292","","","","","","","","","","75","K","2","","","7","main_expt",""
"","bandit","88","313820","0.0-49.0-0.0","20912239","wem/bandit_party_2","A3JD7U800K95BY","either","3","230","","","","","","","0","0","1","0.3721769634","","0.4","0.2","0.8","0.6","","","","","0.3265190876","0.5253498774","0.3721769634","0.7921451217","","","","","","","","","","75","K","2","","","8","main_expt",""
"","bandit","89","315683","0.0-50.0-0.0","20912239","wem/bandit_party_2","A3JD7U800K95BY","either","3","356","","","","","","","1","0","0","0.3934089605","","0.4","0.2","0.8","0.6","","","","","0.4229840653","0.5552176016","0.3934089605","0.7826569337","","","","","","","","","","75","K","2","","","9","main_expt",""
"","bandit","90","317401","0.0-51.0-0.0","20912239","wem/bandit_party_2","A3JD7U800K95BY","either","3","213","","","","","","","1","0","0","0.3360942297","","0.4","0.2","0.8","0.6","","","","","0.5107168356","0.654745146","0.3360942297","0.7150392401","","","","","","","","","","75","K","2","","","10","main_expt",""
"","bandit","91","319152","0.0-52.0-0.0","20912239","wem/bandit_party_2","A3JD7U800K95BY","either","3","243","","","","","","","0","0","1","0.4969537907","","0.4","0.2","0.8","0.6","","","","","0.4383577931","0.6089063278","0.4969537907","0.6906605055","","","","","","","","","","75","K","2","","","11","main_expt",""
"","bandit","92","320931","0.0-53.0-0.0","20912239","wem/bandit_party_2","A3JD7U800K95BY","either","3","273","","","","","","","1","0","0","0.6725575113","","0.4","0.2","0.8","0.6","","","","","0.5487148549","0.559155858","0.4760264401","0.6725575113","","","","","","","","","","76","L","3","","","12","main_expt",""
"","bandit","93","322720","0.0-54.0-0.0","20912239","wem/bandit_party_2","A3JD7U800K95BY","either","3","283","","","","","","","0","1","0","","0.7404599176","0.4","0.2","0.8","0.6","0.7407599438","0.6464491645","0.4008761295","0.7404599176","","","","","","","","","","","","","","76","L","3","","","13","main_expt",""
"","bandit","94","324507","0.0-55.0-0.0","20912239","wem/bandit_party_2","A3JD7U800K95BY","either","3","282","","","","","","","1","0","0","0.6751607758","","0.4","0.2","0.8","0.6","","","","","0.8307131687","0.6936958995","0.358486362","0.6751607758","","","","","","","","","","76","L","3","","","14","main_expt",""
"","bandit","95","326282","0.0-56.0-0.0","20912239","wem/bandit_party_2","A3JD7U800K95BY","either","3","269","","","","","","","0","1","0","","0.6115440925","0.4","0.2","0.8","0.6","0.8114394421","0.731471075","0.395258373","0.6115440925","","","","","","","","","","","","","","76","L","3","","","15","main_expt",""
"","bandit","96","328013","0.0-57.0-0.0","20912239","wem/bandit_party_2","A3JD7U800K95BY","either","3","224","","","","","","","1","0","0","0.7019001419","","0.4","0.2","0.8","0.6","","","","","0.8242397169","0.6487541525","0.4197334966","0.7019001419","","","","","","","","","","76","L","3","","","16","main_expt",""
"","bandit","97","329757","0.0-58.0-0.0","20912239","wem/bandit_party_2","A3JD7U800K95BY","either","3","236","","","","","","","1","0","0","0.7017998","","0.4","0.2","0.8","0.6","","","","","0.8317633157","0.7654634758","0.2160816064","0.7017998","","","","","","","","","","76","L","3","","","17","main_expt",""
"","bandit","98","331527","0.0-59.0-0.0","20912239","wem/bandit_party_2","A3JD7U800K95BY","either","3","264","","","","","","","0","0","1","0.7672473748","","0.4","0.2","0.8","0.6","","","","","0.8158638682","0.7160830043","0.2058632209","0.7672473748","","","","","","","","","","76","L","3","","","18","main_expt",""
"","bandit","99","333206","0.0-60.0-0.0","20912239","wem/bandit_party_2","A3JD7U800K95BY","either","3","173","","","","","","","0","0","1","","0.7950219121","0.4","0.2","0.8","0.6","0.8291878069","0.6856656502","0.2314559036","0.7950219121","","","","","","","","","","","","","","76","L","3","","","19","main_expt",""
"","bandit","100","334937","0.0-61.0-0.0","20912239","wem/bandit_party_2","A3JD7U800K95BY","either","3","223","","","","","","","1","0","0","0.8460513568","","0.4","0.2","0.8","0.6","","","","","0.8665153398","0.6829400921","0.1762066147","0.8460513568","","","","","","","","","","76","L","3","","","20","main_expt",""
"","bandit","101","336656","0.0-62.0-0.0","20912239","wem/bandit_party_2","A3JD7U800K95BY","either","3","214","","","","","","","0","0","1","0.8571228725","","0.4","0.2","0.8","0.6","","","","","0.8181415858","0.6849203215","0.150477598","0.8571228725","","","","","","","","","","76","L","3","","","21","main_expt",""
"","bandit","102","338403","0.0-63.0-0.0","20912239","wem/bandit_party_2","A3JD7U800K95BY","either","3","239","","","","","","","0","1","0","","0.8498483749","0.4","0.2","0.8","0.6","0.7731960963","0.6832197831","0.1957635407","0.8498483749","","","","","","","","","","","","","","76","L","3","","","22","main_expt",""
"","bandit","103","340153","0.0-64.0-0.0","20912239","wem/bandit_party_2","A3JD7U800K95BY","either","3","245","","","","","","","1","0","0","0.887495535","","0.4","0.2","0.8","0.6","","","","","0.8004626553","0.6103957523","0.2193187944","0.887495535","","","","","","","","","","76","L","3","","","23","main_expt",""
"","bandit","104","341946","0.0-65.0-0.0","20912239","wem/bandit_party_2","A3JD7U800K95BY","either","3","287","","","","","","","0","1","0","","0.918231735","0.4","0.2","0.8","0.6","0.7941911222","0.5485819736","0.1836328706","0.918231735","","","","","","","","","","","","","","76","L","3","","","24","main_expt",""
"","bandit","105","343727","0.0-66.0-0.0","20912239","wem/bandit_party_2","A3JD7U800K95BY","either","3","273","","","","","","","1","0","0","0.9111146318","","0.4","0.2","0.8","0.6","","","","","0.7100633829","0.5852935809","0.1410441375","0.9111146318","","","","","","","","","","76","L","3","","","25","main_expt",""
"","bandit","106","345738","0.0-67.0-0.0","20912239","wem/bandit_party_2","A3JD7U800K95BY","either","3","504","","","","","","","1","0","0","0.9190640316","","0.4","0.2","0.8","0.6","","","","","0.6872129375","0.6097892937","0.1082593399","0.9190640316","","","","","","","","","","76","L","3","","","26","main_expt",""
"","bandit","107","347539","0.0-68.0-0.0","20912239","wem/bandit_party_2","A3JD7U800K95BY","either","3","296","","","","","","","0","1","0","","0.9372614837","0.4","0.2","0.8","0.6","0.6798864795","0.6653335402","0.1042047793","0.9372614837","","","","","","","","","","","","","","76","L","3","","","27","main_expt",""
"","bandit","108","349301","0.0-69.0-0.0","20912239","wem/bandit_party_2","A3JD7U800K95BY","either","3","256","","","","","","","0","0","1","0.9269484959","","0.4","0.2","0.8","0.6","","","","","0.6812343762","0.6850825106","0.1153509117","0.9269484959","","","","","","","","","","76","L","3","","","28","main_expt",""
"","bandit","109","351096","0.0-70.0-0.0","20912239","wem/bandit_party_2","A3JD7U800K95BY","either","3","287","","","","","","","0","1","0","","0.9376772981","0.4","0.2","0.8","0.6","0.5305157647","0.7309016742","0.1601566248","0.9376772981","","","","","","","","","","","","","","76","L","3","","","29","main_expt",""
"","bandit","110","352899","0.0-71.0-0.0","20912239","wem/bandit_party_2","A3JD7U800K95BY","either","3","296","","","","","","","0","0","1","","0.8795505253","0.4","0.2","0.8","0.6","0.4713174284","0.8141980113","0.09548927903","0.8795505253","","","","","","","","","","","","","","76","L","3","","","30","main_expt",""
"","bandit","111","354638","0.0-72.0-0.0","20912239","wem/bandit_party_2","A3JD7U800K95BY","either","3","232","","","","","","","0","1","0","","0.8605863748","0.4","0.2","0.8","0.6","0.2938490869","0.8926711601","0.09272353297","0.8605863748","","","","","","","","","","","","","","76","L","3","","","31","main_expt",""
"","bandit","112","356425","0.0-73.0-0.0","20912239","wem/bandit_party_2","A3JD7U800K95BY","either","3","281","","","","","","","0","0","1","0.757600507","","0.4","0.2","0.8","0.6","","","","","0.3005160425","0.8397563013","0.09547929832","0.757600507","","","","","","","","","","76","L","3","","","32","main_expt",""
"","bandit","113","358133","0.0-74.0-0.0","20912239","wem/bandit_party_2","A3JD7U800K95BY","either","3","204","","","","","","","0","1","0","","0.7257103923","0.4","0.2","0.8","0.6","0.3661211491","0.8251988787","0.08683876107","0.7257103923","","","","","","","","","","","","","","76","L","3","","","33","main_expt",""
"","bandit","114","359918","0.0-75.0-0.0","20912239","wem/bandit_party_2","A3JD7U800K95BY","either","3","276","","","","","","","0","0","1","0.5786815464","","0.4","0.2","0.8","0.6","","","","","0.4614725573","0.7303528712","0.08117088791","0.5786815464","","","","","","","","","","76","L","3","","","34","main_expt",""
"","bandit","115","361680","0.0-76.0-0.0","20912239","wem/bandit_party_2","A3JD7U800K95BY","either","3","256","","","","","","","0","0","1","","0.4812266686","0.4","0.2","0.8","0.6","0.4597324626","0.8093673003","0.09593582107","0.4812266686","","","","","","","","","","","","","","76","L","3","","","35","main_expt",""
"","bandit","116","363418","0.0-77.0-0.0","20912239","wem/bandit_party_2","A3JD7U800K95BY","either","3","230","","","","","","","0","0","1","0.4459447539","","0.4","0.2","0.8","0.6","","","","","0.4294742096","0.79718131","0.1392988708","0.4459447539","","","","","","","","","","76","L","3","","","36","main_expt",""
"","bandit","117","366734","0.0-78.0-0.0","20912239","wem/bandit_party_2","A3JD7U800K95BY","either","3","1812","","","","","","","0","1","0","","0.8157762275","0.4","0.2","0.8","0.6","0.5301274199","0.8157762275","0.07673209605","0.5737218407","","","","","","","","","","","","","","74","J","1","","","37","main_expt",""
"","bandit","118","368473","0.0-79.0-0.0","20912239","wem/bandit_party_2","A3JD7U800K95BY","either","3","234","","","","","","","0","0","1","","0.7941499978","0.4","0.2","0.8","0.6","0.5746889943","0.7941499978","0.1078843958","0.6008421093","","","","","","","","","","","","","","74","J","1","","","38","main_expt",""
"","bandit","119","370351","0.0-80.0-0.0","20912239","wem/bandit_party_2","A3JD7U800K95BY","either","3","373","","","","","","","0","1","0","","0.7352357368","0.4","0.2","0.8","0.6","0.6621100331","0.7352357368","0.09731722171","0.6076920036","","","","","","","","","","","","","","74","J","1","","","39","main_expt",""
"","bandit","120","372124","0.0-81.0-0.0","20912239","wem/bandit_party_2","A3JD7U800K95BY","either","3","269","","","","","","","0","0","1","","0.7920886563","0.4","0.2","0.8","0.6","0.6794361822","0.7920886563","0.2123509389","0.6616622706","","","","","","","","","","","","","","74","J","1","","","40","main_expt",""
"","bandit","121","373965","0.0-82.0-0.0","20912239","wem/bandit_party_2","A3JD7U800K95BY","either","3","333","","","","","","","0","1","0","","0.8780543775","0.4","0.2","0.8","0.6","0.7140523024","0.8780543775","0.1265365425","0.6945341382","","","","","","","","","","","","","","74","J","1","","","41","main_expt",""
"","bandit","122","375874","0.0-83.0-0.0","20912239","wem/bandit_party_2","A3JD7U800K95BY","either","3","401","","","","","","","1","0","0","0.9167256642","","0.4","0.2","0.8","0.6","","","","","0.6669732994","0.9167256642","0.166138795","0.6833149102","","","","","","","","","","74","J","1","","","42","main_expt",""
"","bandit","123","377433","0.0-84.0-0.0","20912239","wem/bandit_party_2","A3JD7U800K95BY","either","3","54","","","","","","","0","1","0","","0.9407985187","0.4","0.2","0.8","0.6","0.5435093165","0.9407985187","0.1782339186","0.7094953576","","","","","","","","","","","","","","74","J","1","","","43","main_expt",""
"","bandit","124","379313","0.0-85.0-0.0","20912239","wem/bandit_party_2","A3JD7U800K95BY","either","3","375","","","","","","","0","1","0","","0.9000978766","0.4","0.2","0.8","0.6","0.6002661395","0.9000978766","0.1342945815","0.7519468023","","","","","","","","","","","","","","74","J","1","","","44","main_expt",""
"","bandit","125","381038","0.0-86.0-0.0","20912239","wem/bandit_party_2","A3JD7U800K95BY","either","3","218","","","","","","","0","1","0","","0.9190036262","0.4","0.2","0.8","0.6","0.5948203474","0.9190036262","0.09086288848","0.7673203249","","","","","","","","","","","","","","74","J","1","","","45","main_expt",""
"","bandit","126","382801","0.0-87.0-0.0","20912239","wem/bandit_party_2","A3JD7U800K95BY","either","3","257","","","","","","","0","1","0","","0.8865788656","0.4","0.2","0.8","0.6","0.6230250108","0.8865788656","0.06420934006","0.722836051","","","","","","","","","","","","","","74","J","1","","","46","main_expt",""
"","bandit","127","384611","0.0-88.0-0.0","20912239","wem/bandit_party_2","A3JD7U800K95BY","either","3","304","","","","","","","0","1","0","","0.8207935484","0.4","0.2","0.8","0.6","0.7239235909","0.8207935484","0.02332738683","0.7392487755","","","","","","","","","","","","","","74","J","1","","","47","main_expt",""
"","bandit","128","386419","0.0-89.0-0.0","20912239","wem/bandit_party_2","A3JD7U800K95BY","either","3","299","","","","","","","0","1","0","","0.8170742187","0.4","0.2","0.8","0.6","0.7715310514","0.8170742187","0.03517565614","0.7551111279","","","","","","","","","","","","","","74","J","1","","","48","main_expt",""
"","bandit","129","388077","0.0-90.0-0.0","20912239","wem/bandit_party_2","A3JD7U800K95BY","either","3","152","","","","","","","0","0","1","0.7874830355","","0.4","0.2","0.8","0.6","","","","","0.822179592","0.7874830355","0.04466115719","0.6917772817","","","","","","","","","","74","J","1","","","49","main_expt",""
"","bandit","130","389837","0.0-91.0-0.0","20912239","wem/bandit_party_2","A3JD7U800K95BY","either","3","251","","","","","","","0","1","0","","0.8279472521","0.4","0.2","0.8","0.6","0.8108951243","0.8279472521","0.05053383529","0.6689959301","","","","","","","","","","","","","","74","J","1","","","50","main_expt",""
"","bandit","131","391627","0.0-92.0-0.0","20912239","wem/bandit_party_2","A3JD7U800K95BY","either","3","284","","","","","","","0","1","0","","0.8426817256","0.4","0.2","0.8","0.6","0.7649170446","0.8426817256","0.04681033125","0.6020608281","","","","","","","","","","","","","","74","J","1","","","51","main_expt",""
"","bandit","132","393418","0.0-93.0-0.0","20912239","wem/bandit_party_2","A3JD7U800K95BY","either","3","282","","","","","","","0","1","0","","0.8377647656","0.4","0.2","0.8","0.6","0.8169848275","0.8377647656","0.09308222201","0.6583182673","","","","","","","","","","","","","","74","J","1","","","52","main_expt",""
"","bandit","133","395258","0.0-94.0-0.0","20912239","wem/bandit_party_2","A3JD7U800K95BY","either","3","334","","","","","","","0","1","0","","0.8241398149","0.4","0.2","0.8","0.6","0.8843577791","0.8241398149","0.1397702629","0.5419436754","","","","","","","","","","","","","","74","J","1","","","53","main_expt",""
"","bandit","134","397050","0.0-95.0-0.0","20912239","wem/bandit_party_2","A3JD7U800K95BY","either","3","283","","","","","","","0","1","0","","0.7289352116","0.4","0.2","0.8","0.6","0.8854515068","0.7289352116","0.110287685","0.5717614462","","","","","","","","","","","","","","74","J","1","","","54","main_expt",""
"","bandit","135","398909","0.0-96.0-0.0","20912239","wem/bandit_party_2","A3JD7U800K95BY","either","3","351","","","","","","","0","1","0","","0.5895019519","0.4","0.2","0.8","0.6","0.8884574585","0.5895019519","0.1843384007","0.5497935615","","","","","","","","","","","","","","74","J","1","","","55","main_expt",""
"","bandit","136","400805","0.0-97.0-0.0","20912239","wem/bandit_party_2","A3JD7U800K95BY","either","3","389","","","","","","","1","0","0","0.4622464331","","0.4","0.2","0.8","0.6","","","","","0.8840911236","0.4622464331","0.2056752237","0.4902645195","","","","","","","","","","74","J","1","","","56","main_expt",""
"","bandit","137","402575","0.0-98.0-0.0","20912239","wem/bandit_party_2","A3JD7U800K95BY","either","3","264","","","","","","","0","0","1","","0.490024734","0.4","0.2","0.8","0.6","0.864283103","0.490024734","0.3410726922","0.5258365243","","","","","","","","","","","","","","74","J","1","","","57","main_expt",""
"","bandit","138","404394","0.0-99.0-0.0","20912239","wem/bandit_party_2","A3JD7U800K95BY","either","3","312","","","","","","","0","0","1","","0.6182628796","0.4","0.2","0.8","0.6","0.7377821737","0.6182628796","0.3873695161","0.6097664349","","","","","","","","","","","","","","74","J","1","","","58","main_expt",""
"","bandit","139","406200","0.0-100.0-0.0","20912239","wem/bandit_party_2","A3JD7U800K95BY","either","3","298","","","","","","","0","0","1","","0.6976829826","0.4","0.2","0.8","0.6","0.7469541206","0.6976829826","0.3281321534","0.6016711108","","","","","","","","","","","","","","74","J","1","","","59","main_expt",""
"","bandit","140","408043","0.0-101.0-0.0","20912239","wem/bandit_party_2","A3JD7U800K95BY","either","3","335","","","","","","","0","0","1","0.675433977","","0.4","0.2","0.8","0.6","","","","","0.8019510571","0.675433977","0.2380439254","0.5544917648","","","","","","","","","","74","J","1","","","60","main_expt",""
"","bandit","141","409904","0.0-102.0-0.0","20912239","wem/bandit_party_2","A3JD7U800K95BY","either","3","355","","","","","","","0","1","0","","0.7206550838","0.4","0.2","0.8","0.6","0.8943887388","0.7206550838","0.2228222105","0.6842720067","","","","","","","","","","","","","","74","J","1","","","61","main_expt",""
"","bandit","142","411705","0.0-103.0-0.0","20912239","wem/bandit_party_2","A3JD7U800K95BY","either","3","294","","","","","","","1","0","0","0.7184677658","","0.4","0.2","0.8","0.6","","","","","0.8942973556","0.7184677658","0.2489253665","0.6824345281","","","","","","","","","","74","J","1","","","62","main_expt",""
"","bandit","143","413483","0.0-104.0-0.0","20912239","wem/bandit_party_2","A3JD7U800K95BY","either","3","270","","","","","","","0","0","1","","0.6785259816","0.4","0.2","0.8","0.6","0.8829609874","0.6785259816","0.2298237489","0.7321168219","","","","","","","","","","","","","","74","J","1","","","63","main_expt",""
"","bandit","144","415296","0.0-105.0-0.0","20912239","wem/bandit_party_2","A3JD7U800K95BY","either","3","308","","","","","","","0","0","1","","0.6349383059","0.4","0.2","0.8","0.6","0.8175344892","0.6349383059","0.1849055857","0.8123013145","","","","","","","","","","","","","","74","J","1","","","64","main_expt",""
"","bandit","145","417516","0.0-106.0-0.0","20912239","wem/bandit_party_2","A3JD7U800K95BY","either","3","710","","","","","","","1","0","0","0.8236121316","","0.4","0.2","0.8","0.6","","","","","0.7812905168","0.629769122","0.2285715909","0.8236121316","","","","","","","","","","76","L","3","","","65","main_expt",""
"","bandit","146","419304","0.0-107.0-0.0","20912239","wem/bandit_party_2","A3JD7U800K95BY","either","3","282","","","","","","","0","1","0","","0.8270077233","0.4","0.2","0.8","0.6","0.7848445355","0.7158950816","0.2477643906","0.8270077233","","","","","","","","","","","","","","76","L","3","","","66","main_expt",""
"","bandit","147","421052","0.0-108.0-0.0","20912239","wem/bandit_party_2","A3JD7U800K95BY","either","3","242","","","","","","","1","0","0","0.7601471472","","0.4","0.2","0.8","0.6","","","","","0.763143195","0.6309271871","0.1801078726","0.7601471472","","","","","","","","","","76","L","3","","","67","main_expt",""
"","bandit","148","422815","0.0-109.0-0.0","20912239","wem/bandit_party_2","A3JD7U800K95BY","either","3","256","","","","","","","1","0","0","0.7567750057","","0.4","0.2","0.8","0.6","","","","","0.7966751536","0.617221228","0.08479184886","0.7567750057","","","","","","","","","","76","L","3","","","68","main_expt",""
"","bandit","149","424589","0.0-110.0-0.0","20912239","wem/bandit_party_2","A3JD7U800K95BY","either","3","269","","","","","","","0","0","1","0.6871277649","","0.4","0.2","0.8","0.6","","","","","0.8534335227","0.6235929763","0.06982522498","0.6871277649","","","","","","","","","","76","L","3","","","69","main_expt",""
"","bandit","150","426361","0.0-111.0-0.0","20912239","wem/bandit_party_2","A3JD7U800K95BY","either","3","267","","","","","","","0","0","1","0.773099018","","0.4","0.2","0.8","0.6","","","","","0.8915498471","0.5543620559","0.05029268469","0.773099018","","","","","","","","","","76","L","3","","","70","main_expt",""
"","bandit","151","428129","0.0-112.0-0.0","20912239","wem/bandit_party_2","A3JD7U800K95BY","either","3","259","","","","","","","1","0","0","0.7412476729","","0.4","0.2","0.8","0.6","","","","","0.8736989015","0.5333999135","0.06413839938","0.7412476729","","","","","","","","","","76","L","3","","","71","main_expt",""
"","bandit","152","429683","0.0-113.0-0.0","20912239","wem/bandit_party_2","A3JD7U800K95BY","either","3","47","","","","","","","0","1","0","","0.8080704968","0.4","0.2","0.8","0.6","0.8837551658","0.5905126671","0.05155778705","0.8080704968","","","","","","","","","","","","","","76","L","3","","","72","main_expt",""
"","bandit","153","431467","0.0-114.0-0.0","20912239","wem/bandit_party_2","A3JD7U800K95BY","either","3","278","","","","","","","0","1","0","","0.8270016227","0.4","0.2","0.8","0.6","0.8495494246","0.6925119087","0.0232747386","0.8270016227","","","","","","","","","","","","","","76","L","3","","","73","main_expt",""
"","bandit","154","433316","0.0-115.0-0.0","20912239","wem/bandit_party_2","A3JD7U800K95BY","either","3","341","","","","","","","1","0","0","0.7872017979","","0.4","0.2","0.8","0.6","","","","","0.9127472651","0.7134745341","0.04751547773","0.7872017979","","","","","","","","","","76","L","3","","","74","main_expt",""
"","bandit","155","435130","0.0-116.0-0.0","20912239","wem/bandit_party_2","A3JD7U800K95BY","either","3","306","","","","","","","0","0","1","","0.6167225576","0.4","0.2","0.8","0.6","0.9199060817","0.8065440948","0.05282531612","0.6167225576","","","","","","","","","","","","","","76","L","3","","","75","main_expt",""
"","bandit","156","436930","0.0-117.0-0.0","20912239","wem/bandit_party_2","A3JD7U800K95BY","either","3","295","","","","","","","0","0","1","0.637182095","","0.4","0.2","0.8","0.6","","","","","0.8691294168","0.7849172319","0.08738729654","0.637182095","","","","","","","","","","76","L","3","","","76","main_expt",""
"","bandit","157","438548","0.0-118.0-0.0","20912239","wem/bandit_party_2","A3JD7U800K95BY","either","3","110","","","","","","","0","0","1","0.08851312664","","0.4","0.2","0.8","0.6","","","","","0.9111329321","0.7818962729","0.08851312664","0.7169911294","","","","","","","","","","75","K","2","","","77","main_expt",""
"","bandit","158","440340","0.0-119.0-0.0","20912239","wem/bandit_party_2","A3JD7U800K95BY","either","3","286","","","","","","","1","0","0","0.9286966754","","0.4","0.2","0.8","0.6","","","","","0.9286966754","0.7002933386","0.145228539","0.7446448061","","","","","","","","","","72","H","0","img/none_selected.jpg","","78","main_expt",""
"","bandit","159","442119","0.0-120.0-0.0","20912239","wem/bandit_party_2","A3JD7U800K95BY","either","3","272","","","","","","","0","1","0","","0.9616021792","0.4","0.2","0.8","0.6","0.9616021792","0.6510109529","0.1669860915","0.8152221547","","","","","","","","","","","","","","72","H","0","img/none_selected.jpg","","79","main_expt",""
"","bandit","160","443922","0.0-121.0-0.0","20912239","wem/bandit_party_2","A3JD7U800K95BY","either","3","294","","","","","","","1","0","0","0.950571795","","0.4","0.2","0.8","0.6","","","","","0.950571795","0.6765614865","0.1922913003","0.810351938","","","","","","","","","","72","H","0","img/none_selected.jpg","","80","main_expt",""
"","bandit","161","445708","0.0-122.0-0.0","20912239","wem/bandit_party_2","A3JD7U800K95BY","either","3","276","","","","","","","0","0","1","","0.9331160128","0.4","0.2","0.8","0.6","0.9331160128","0.5908869344","0.2407870914","0.8895110989","","","","","","","","","","","","","","72","H","0","img/none_selected.jpg","","81","main_expt",""
"","bandit","162","447487","0.0-123.0-0.0","20912239","wem/bandit_party_2","A3JD7U800K95BY","either","3","273","","","","","","","1","0","0","0.9465986336","","0.4","0.2","0.8","0.6","","","","","0.9465986336","0.5267531711","0.3077898034","0.9046816681","","","","","","","","","","72","H","0","img/none_selected.jpg","","82","main_expt",""
"","bandit","163","449255","0.0-124.0-0.0","20912239","wem/bandit_party_2","A3JD7U800K95BY","either","3","262","","","","","","","1","0","0","0.9371159138","","0.4","0.2","0.8","0.6","","","","","0.9371159138","0.6168373964","0.2337579628","0.8465278631","","","","","","","","","","72","H","0","img/none_selected.jpg","","83","main_expt",""
"","bandit","164","451089","0.0-125.0-0.0","20912239","wem/bandit_party_2","A3JD7U800K95BY","either","3","325","","","","","","","0","1","0","","0.8998840018","0.4","0.2","0.8","0.6","0.8998840018","0.5733990252","0.2781329454","0.7584930438","","","","","","","","","","","","","","72","H","0","img/none_selected.jpg","","84","main_expt",""
"","bandit","165","452875","0.0-126.0-0.0","20912239","wem/bandit_party_2","A3JD7U800K95BY","either","3","281","","","","","","","0","1","0","","0.9102188985","0.4","0.2","0.8","0.6","0.9102188985","0.4719695616","0.3013149798","0.7727946294","","","","","","","","","","","","","","72","H","0","img/none_selected.jpg","","85","main_expt",""
"","bandit","166","454660","0.0-127.0-0.0","20912239","wem/bandit_party_2","A3JD7U800K95BY","either","3","277","","","","","","","1","0","0","0.9000055418","","0.4","0.2","0.8","0.6","","","","","0.9000055418","0.6941651786","0.3231836659","0.8216594778","","","","","","","","","","72","H","0","img/none_selected.jpg","","86","main_expt",""
"","bandit","167","456459","0.0-128.0-0.0","20912239","wem/bandit_party_2","A3JD7U800K95BY","either","3","289","","","","","","","1","0","0","0.8563468124","","0.4","0.2","0.8","0.6","","","","","0.8563468124","0.5408952125","0.3986379136","0.7833884788","","","","","","","","","","72","H","0","img/none_selected.jpg","","87","main_expt",""
"","bandit","168","458213","0.0-129.0-0.0","20912239","wem/bandit_party_2","A3JD7U800K95BY","either","3","248","","","","","","","0","0","1","","0.7349543302","0.4","0.2","0.8","0.6","0.7349543302","0.5438891422","0.4230151841","0.7804426693","","","","","","","","","","","","","","72","H","0","img/none_selected.jpg","","88","main_expt",""
"","bandit","169","459994","0.0-130.0-0.0","20912239","wem/bandit_party_2","A3JD7U800K95BY","either","3","271","","","","","","","0","0","1","0.7907967515","","0.4","0.2","0.8","0.6","","","","","0.7907967515","0.4294971294","0.3761858397","0.7930928848","","","","","","","","","","72","H","0","img/none_selected.jpg","","89","main_expt",""
"","bandit","170","461764","0.0-131.0-0.0","20912239","wem/bandit_party_2","A3JD7U800K95BY","either","3","263","","","","","","","1","0","0","0.7883246469","","0.4","0.2","0.8","0.6","","","","","0.7883246469","0.4928337868","0.4799086841","0.7683039237","","","","","","","","","","72","H","0","img/none_selected.jpg","","90","main_expt",""
"","bandit","171","464315","0.0-132.0-0.0","20912239","wem/bandit_party_2","A3JD7U800K95BY","either","3","1046","","","","","","","0","0","1","","0.8389096604","0.4","0.2","0.8","0.6","0.8389096604","0.5655090935","0.4558425901","0.8072091422","","","","","","","","","","","","","","72","H","0","img/none_selected.jpg","","91","main_expt",""
"","bandit","172","466123","0.0-133.0-0.0","20912239","wem/bandit_party_2","A3JD7U800K95BY","either","3","300","","","","","","","1","0","0","0.8064187158","","0.4","0.2","0.8","0.6","","","","","0.8064187158","0.6154818033","0.3781515597","0.7791444337","","","","","","","","","","72","H","0","img/none_selected.jpg","","92","main_expt",""
"","bandit","173","467903","0.0-134.0-0.0","20912239","wem/bandit_party_2","A3JD7U800K95BY","either","3","270","","","","","","","0","0","1","0.7542368763","","0.4","0.2","0.8","0.6","","","","","0.7542368763","0.7381217307","0.2858753042","0.8498372391","","","","","","","","","","72","H","0","img/none_selected.jpg","","93","main_expt",""
"","bandit","174","469648","0.0-135.0-0.0","20912239","wem/bandit_party_2","A3JD7U800K95BY","either","3","238","","","","","","","0","0","1","0.3914428564","","0.4","0.2","0.8","0.6","","","","","0.6932487021","0.7776388333","0.3914428564","0.8440610374","","","","","","","","","","75","K","2","","","94","main_expt",""
"","bandit","175","471464","0.0-136.0-0.0","20912239","wem/bandit_party_2","A3JD7U800K95BY","either","3","306","","","","","","","1","0","0","0.8299152283","","0.4","0.2","0.8","0.6","","","","","0.6706070003","0.8299152283","0.3800018616","0.8092418145","","","","","","","","","","74","J","1","","","95","main_expt",""
"","bandit","176","473214","0.0-137.0-0.0","20912239","wem/bandit_party_2","A3JD7U800K95BY","either","3","243","","","","","","","0","1","0","","0.7697811485","0.4","0.2","0.8","0.6","0.6670251336","0.7697811485","0.3078584031","0.8655172998","","","","","","","","","","","","","","74","J","1","","","96","main_expt",""
"","bandit","177","475018","0.0-138.0-0.0","20912239","wem/bandit_party_2","A3JD7U800K95BY","either","3","297","","","","","","","0","0","1","","0.7487724405","0.4","0.2","0.8","0.6","0.7023758817","0.7487724405","0.218486712","0.8735151232","","","","","","","","","","","","","","74","J","1","","","97","main_expt",""
"","bandit","178","476799","0.0-139.0-0.0","20912239","wem/bandit_party_2","A3JD7U800K95BY","either","3","271","","","","","","","1","0","0","0.7450583294","","0.4","0.2","0.8","0.6","","","","","0.7036518389","0.7450583294","0.2037628256","0.84409386","","","","","","","","","","74","J","1","","","98","main_expt",""
"","bandit","179","478576","0.0-140.0-0.0","20912239","wem/bandit_party_2","A3JD7U800K95BY","either","3","270","","","","","","","0","1","0","","0.7227120129","0.4","0.2","0.8","0.6","0.8401346726","0.7227120129","0.2400196326","0.8089648913","","","","","","","","","","","","","","74","J","1","","","99","main_expt",""
"","bandit","180","480354","0.0-141.0-0.0","20912239","wem/bandit_party_2","A3JD7U800K95BY","either","3","273","","","","","","","0","0","1","","0.5872141049","0.4","0.2","0.8","0.6","0.8640782416","0.5872141049","0.3298222115","0.7259557377","","","","","","","","","","","","","","74","J","1","","","100","main_expt",""
"","bandit","181","482105","0.0-142.0-0.0","20912239","wem/bandit_party_2","A3JD7U800K95BY","either","3","245","","","","","","","1","0","0","0.6432213136","","0.4","0.2","0.8","0.6","","","","","0.8232172207","0.6432213136","0.3108047587","0.6332869741","","","","","","","","","","74","J","1","","","101","main_expt",""
"","bandit","182","483869","0.0-143.0-0.0","20912239","wem/bandit_party_2","A3JD7U800K95BY","either","3","253","","","","","","","0","0","1","","0.6009476408","0.4","0.2","0.8","0.6","0.8451901448","0.6009476408","0.2869381514","0.659443461","","","","","","","","","","","","","","74","J","1","","","102","main_expt",""
"","bandit","183","486945","0.0-144.0-0.0","20912239","wem/bandit_party_2","A3JD7U800K95BY","either","3","1569","","","","","","","0","0","1","0.5959971703","","0.4","0.2","0.8","0.6","","","","","0.8792283932","0.6120105745","0.246485708","0.5959971703","","","","","","","","","","76","L","3","","","103","main_expt",""
"","bandit","184","489103","0.0-145.0-0.0","20912239","wem/bandit_party_2","A3JD7U800K95BY","either","3","652","","","","","","","0","0","1","0.2175667678","","0.4","0.2","0.8","0.6","","","","","0.8887181638","0.6821098495","0.2175667678","0.5643630141","","","","","","","","","","75","K","2","","","104","main_expt",""
"","bandit","185","490881","0.0-146.0-0.0","20912239","wem/bandit_party_2","A3JD7U800K95BY","either","3","272","","","","","","","0","1","0","","0.8013578166","0.4","0.2","0.8","0.6","0.8013578166","0.7228510016","0.2645808036","0.5489079514","","","","","","","","","","","","","","72","H","0","img/none_selected.jpg","","105","main_expt",""
"","bandit","186","492625","0.0-147.0-0.0","20912239","wem/bandit_party_2","A3JD7U800K95BY","either","3","238","","","","","","","1","0","0","0.7307006529","","0.4","0.2","0.8","0.6","","","","","0.7307006529","0.6639212405","0.2652424516","0.4336033326","","","","","","","","","","72","H","0","img/none_selected.jpg","","106","main_expt",""
"","bandit","187","494410","0.0-148.0-0.0","20912239","wem/bandit_party_2","A3JD7U800K95BY","either","3","276","","","","","","","0","1","0","","0.7519500851","0.4","0.2","0.8","0.6","0.7519500851","0.6237034742","0.2481661544","0.4779201531","","","","","","","","","","","","","","72","H","0","img/none_selected.jpg","","107","main_expt",""
"","bandit","188","496183","0.0-149.0-0.0","20912239","wem/bandit_party_2","A3JD7U800K95BY","either","3","268","","","","","","","0","1","0","","0.7457577851","0.4","0.2","0.8","0.6","0.7457577851","0.5847293191","0.2361720859","0.5075294874","","","","","","","","","","","","","","72","H","0","img/none_selected.jpg","","108","main_expt",""
"","bandit","189","497944","0.0-150.0-0.0","20912239","wem/bandit_party_2","A3JD7U800K95BY","either","3","251","","","","","","","1","0","0","0.77583868","","0.4","0.2","0.8","0.6","","","","","0.77583868","0.6260859175","0.2799679389","0.522842385","","","","","","","","","","72","H","0","img/none_selected.jpg","","109","main_expt",""
"","bandit","190","499730","0.0-151.0-0.0","20912239","wem/bandit_party_2","A3JD7U800K95BY","either","3","279","","","","","","","1","0","0","0.7520827962","","0.4","0.2","0.8","0.6","","","","","0.7520827962","0.4788227383","0.3333098602","0.419893696","","","","","","","","","","72","H","0","img/none_selected.jpg","","110","main_expt",""
"","bandit","191","501521","0.0-152.0-0.0","20912239","wem/bandit_party_2","A3JD7U800K95BY","either","3","284","","","","","","","0","1","0","","0.6512809768","0.4","0.2","0.8","0.6","0.6512809768","0.6019778282","0.3669732535","0.431092028","","","","","","","","","","","","","","72","H","0","img/none_selected.jpg","","111","main_expt",""
"","bandit","192","503308","0.0-153.0-0.0","20912239","wem/bandit_party_2","A3JD7U800K95BY","either","3","280","","","","","","","1","0","0","0.5891937939","","0.4","0.2","0.8","0.6","","","","","0.5891937939","0.546445977","0.389765336","0.3590071368","","","","","","","","","","72","H","0","img/none_selected.jpg","","112","main_expt",""
"","bandit","193","505081","0.0-154.0-0.0","20912239","wem/bandit_party_2","A3JD7U800K95BY","either","3","262","","","","","","","1","0","0","0.6490525038","","0.4","0.2","0.8","0.6","","","","","0.6490525038","0.6256092846","0.3191506652","0.4498419114","","","","","","","","","","72","H","0","img/none_selected.jpg","","113","main_expt",""
"","bandit","194","506835","0.0-155.0-0.0","20912239","wem/bandit_party_2","A3JD7U800K95BY","either","3","248","","","","","","","0","0","1","","0.6283680234","0.4","0.2","0.8","0.6","0.6283680234","0.6577617598","0.2090321438","0.4829831469","","","","","","","","","","","","","","72","H","0","img/none_selected.jpg","","114","main_expt",""
"","bandit","195","508453","0.0-156.0-0.0","20912239","wem/bandit_party_2","A3JD7U800K95BY","either","3","112","","","","","","","0","1","0","","0.6064224059","0.4","0.2","0.8","0.6","0.6064224059","0.7140476354","0.2094439124","0.4846695964","","","","","","","","","","","","","","72","H","0","img/none_selected.jpg","","115","main_expt",""
"","bandit","196","510338","0.0-157.0-0.0","20912239","wem/bandit_party_2","A3JD7U800K95BY","either","3","379","","","","","","","0","0","1","","0.545813367","0.4","0.2","0.8","0.6","0.545813367","0.6589976567","0.2695181069","0.5396909338","","","","","","","","","","","","","","72","H","0","img/none_selected.jpg","","116","main_expt",""
"","bandit","197","512131","0.0-158.0-0.0","20912239","wem/bandit_party_2","A3JD7U800K95BY","either","3","283","","","","","","","0","1","0","","0.5179373022","0.4","0.2","0.8","0.6","0.5179373022","0.6937703341","0.3402036285","0.5378282835","","","","","","","","","","","","","","72","H","0","img/none_selected.jpg","","117","main_expt",""
"","bandit","198","513918","0.0-159.0-0.0","20912239","wem/bandit_party_2","A3JD7U800K95BY","either","3","277","","","","","","","0","0","1","","0.4014157923","0.4","0.2","0.8","0.6","0.4014157923","0.77114399","0.3101634078","0.5729988564","","","","","","","","","","","","","","72","H","0","img/none_selected.jpg","","118","main_expt",""
"","bandit","199","515684","0.0-160.0-0.0","20912239","wem/bandit_party_2","A3JD7U800K95BY","either","3","258","","","","","","","0","0","1","","0.4360264599","0.4","0.2","0.8","0.6","0.4360264599","0.710000291","0.3242193616","0.5630251564","","","","","","","","","","","","","","72","H","0","img/none_selected.jpg","","119","main_expt",""
"","bandit","200","517444","0.0-161.0-0.0","20912239","wem/bandit_party_2","A3JD7U800K95BY","either","3","249","","","","","","","1","0","0","0.3334277272","","0.4","0.2","0.8","0.6","","","","","0.3297853269","0.6767982245","0.3334277272","0.6482115929","","","","","","","","","","75","K","2","","","120","main_expt",""
"","bandit","201","519158","0.0-162.0-0.0","20912239","wem/bandit_party_2","A3JD7U800K95BY","either","3","208","","","","","","","0","0","1","0.4066521311","","0.4","0.2","0.8","0.6","","","","","0.3767442019","0.7360115258","0.4066521311","0.5688505083","","","","","","","","","","75","K","2","","","121","main_expt",""
"","bandit","202","521008","0.0-163.0-0.0","20912239","wem/bandit_party_2","A3JD7U800K95BY","either","3","343","","","","","","","0","0","1","0.5193034213","","0.4","0.2","0.8","0.6","","","","","0.3589515546","0.7258716992","0.5193034213","0.5349597204","","","","","","","","","","75","K","2","","","122","main_expt",""
"","bandit","203","523134","0.0-164.0-0.0","20912239","wem/bandit_party_2","A3JD7U800K95BY","either","3","615","","","","","","","0","0","1","0.5594962391","","0.4","0.2","0.8","0.6","","","","","0.3461890545","0.7848203729","0.5594962391","0.412887176","","","","","","","","","","75","K","2","","","123","main_expt",""
"","bandit","204","525298","0.0-165.0-0.0","20912239","wem/bandit_party_2","A3JD7U800K95BY","either","3","658","","","","","","","1","0","0","0.4137060999","","0.4","0.2","0.8","0.6","","","","","0.2287340519","0.7673004895","0.6876014299","0.4137060999","","","","","","","","","","76","L","3","","","124","main_expt",""
"","bandit","205","526809","0.0-166.0-0.0","20912239","wem/bandit_party_2","A3JD7U800K95BY","either","3","1","","","","","","","1","0","0","0.3226696341","","0.4","0.2","0.8","0.6","","","","","0.2900718705","0.8020703208","0.7354493796","0.3226696341","","","","","","","","","","76","L","3","","","125","main_expt",""
"","bandit","206","528796","0.0-167.0-0.0","20912239","wem/bandit_party_2","A3JD7U800K95BY","either","3","480","","","","","","","0","0","1","","0.3904211026","0.4","0.2","0.8","0.6","0.2880997441","0.8196031782","0.76840964","0.3904211026","","","","","","","","","","","","","","76","L","3","","","126","main_expt",""
"","bandit","207","530514","0.0-168.0-0.0","20912239","wem/bandit_party_2","A3JD7U800K95BY","either","3","211","","","","","","","0","0","1","","0.4227014292","0.4","0.2","0.8","0.6","0.3451069126","0.7095492128","0.7310750685","0.4227014292","","","","","","","","","","","","","","76","L","3","","","127","main_expt",""
"","bandit","208","532299","0.0-169.0-0.0","20912239","wem/bandit_party_2","A3JD7U800K95BY","either","3","279","","","","","","","0","1","0","","0.543317668","0.4","0.2","0.8","0.6","0.3129298861","0.711577854","0.6582635175","0.543317668","","","","","","","","","","","","","","76","L","3","","","128","main_expt",""
"","bandit","209","533984","0.0-170.0-0.0","20912239","wem/bandit_party_2","A3JD7U800K95BY","either","3","178","","","","","","","0","0","1","0.5906282681","","0.4","0.2","0.8","0.6","","","","","0.3507055597","0.7022761705","0.7529887683","0.5906282681","","","","","","","","","","76","L","3","","","129","main_expt",""
"","bandit","210","535780","0.0-171.0-0.0","20912239","wem/bandit_party_2","A3JD7U800K95BY","either","3","286","","","","","","","0","1","0","","0.7309419319","0.4","0.2","0.8","0.6","0.3753424236","0.7309419319","0.7929301986","0.6636268631","","","","","","","","","","","","","","74","J","1","","","130","main_expt",""
"","bandit","211","537575","0.0-172.0-0.0","20912239","wem/bandit_party_2","A3JD7U800K95BY","either","3","288","","","","","","","0","0","1","0.6904825683","","0.4","0.2","0.8","0.6","","","","","0.3473486375","0.6904825683","0.8149544693","0.5686699027","","","","","","","","","","74","J","1","","","131","main_expt",""
"","bandit","212","539304","0.0-173.0-0.0","20912239","wem/bandit_party_2","A3JD7U800K95BY","either","3","221","","","","","","","0","0","1","","0.303679922","0.4","0.2","0.8","0.6","0.303679922","0.7153166113","0.7626544417","0.6564012045","","","","","","","","","","","","","","72","H","0","img/none_selected.jpg","","132","main_expt",""
"","bandit","213","541073","0.0-174.0-0.0","20912239","wem/bandit_party_2","A3JD7U800K95BY","either","3","258","","","","","","","0","0","1","","0.3385565331","0.4","0.2","0.8","0.6","0.3385565331","0.8135501627","0.7584501248","0.5876654864","","","","","","","","","","","","","","72","H","0","img/none_selected.jpg","","133","main_expt",""
"","bandit","214","542869","0.0-175.0-0.0","20912239","wem/bandit_party_2","A3JD7U800K95BY","either","3","287","","","","","","","0","0","1","","0.7707892239","0.4","0.2","0.8","0.6","0.3686406913","0.7707892239","0.7905015291","0.5299368298","","","","","","","","","","","","","","74","J","1","","","134","main_expt",""
"","bandit","215","544658","0.0-176.0-0.0","20912239","wem/bandit_party_2","A3JD7U800K95BY","either","3","281","","","","","","","0","1","0","","0.3672202126","0.4","0.2","0.8","0.6","0.3672202126","0.7689088841","0.7515189777","0.4547966061","","","","","","","","","","","","","","72","H","0","img/none_selected.jpg","","135","main_expt",""
"","bandit","216","546453","0.0-177.0-0.0","20912239","wem/bandit_party_2","A3JD7U800K95BY","either","3","285","","","","","","","0","0","1","0.4064769993","","0.4","0.2","0.8","0.6","","","","","0.4064769993","0.6641324257","0.7293518859","0.5290841583","","","","","","","","","","72","H","0","img/none_selected.jpg","","136","main_expt",""
"","bandit","217","548027","0.0-178.0-0.0","20912239","wem/bandit_party_2","A3JD7U800K95BY","either","3","68","","","","","","","0","0","1","0.419904672","","0.4","0.2","0.8","0.6","","","","","0.3492503667","0.635388201","0.7286216209","0.419904672","","","","","","","","","","76","L","3","","","137","main_expt",""
"","bandit","218","549747","0.0-179.0-0.0","20912239","wem/bandit_party_2","A3JD7U800K95BY","either","3","209","","","","","","","0","0","1","","0.4532768315","0.4","0.2","0.8","0.6","0.3315752647","0.6889508363","0.7425921641","0.4532768315","","","","","","","","","","","","","","76","L","3","","","138","main_expt",""
"","bandit","219","551531","0.0-180.0-0.0","20912239","wem/bandit_party_2","A3JD7U800K95BY","either","3","277","","","","","","","1","0","0","0.7356638012","","0.4","0.2","0.8","0.6","","","","","0.3080831972","0.6481427694","0.7356638012","0.4194835996","","","","","","","","","","75","K","2","","","139","main_expt",""
"","bandit","220","553177","0.0-181.0-0.0","20912239","wem/bandit_party_2","A3JD7U800K95BY","either","3","139","","","","","","","0","0","1","0.7334346803","","0.4","0.2","0.8","0.6","","","","","0.3254670704","0.6497449761","0.7334346803","0.420008375","","","","","","","","","","75","K","2","","","140","main_expt",""
"","bandit","221","554932","0.0-182.0-0.0","20912239","wem/bandit_party_2","A3JD7U800K95BY","either","3","247","","","","","","","0","0","1","0.7737071977","","0.4","0.2","0.8","0.6","","","","","0.3452870884","0.7328205829","0.7737071977","0.3908595681","","","","","","","","","","75","K","2","","","141","main_expt",""
"","bandit","222","556787","0.0-183.0-0.0","20912239","wem/bandit_party_2","A3JD7U800K95BY","either","3","345","","","","","","","0","1","0","","0.6396752577","0.4","0.2","0.8","0.6","0.2659846132","0.6396752577","0.7912630164","0.3994278682","","","","","","","","","","","","","","74","J","1","","","142","main_expt",""
"","bandit","223","558568","0.0-184.0-0.0","20912239","wem/bandit_party_2","A3JD7U800K95BY","either","3","273","","","","","","","0","1","0","","0.5974809775","0.4","0.2","0.8","0.6","0.2549781044","0.5974809775","0.7709923268","0.3137486051","","","","","","","","","","","","","","74","J","1","","","143","main_expt",""
"","bandit","224","560328","0.0-185.0-0.0","20912239","wem/bandit_party_2","A3JD7U800K95BY","either","3","249","","","","","","","0","0","1","","0.5953980303","0.4","0.2","0.8","0.6","0.3603981418","0.5953980303","0.7492848764","0.3961992406","","","","","","","","","","","","","","74","J","1","","","144","main_expt",""
"","bandit","225","562081","0.0-186.0-0.0","20912239","wem/bandit_party_2","A3JD7U800K95BY","either","3","242","","","","","","","1","0","0","0.6215671736","","0.4","0.2","0.8","0.6","","","","","0.3682949958","0.6215671736","0.7343485297","0.3186856111","","","","","","","","","","74","J","1","","","145","main_expt",""
"","bandit","226","563926","0.0-187.0-0.0","20912239","wem/bandit_party_2","A3JD7U800K95BY","either","3","338","","","","","","","0","1","0","","0.5766937592","0.4","0.2","0.8","0.6","0.5028772858","0.5766937592","0.7701032705","0.2724247948","","","","","","","","","","","","","","74","J","1","","","146","main_expt",""
"","bandit","227","565721","0.0-188.0-0.0","20912239","wem/bandit_party_2","A3JD7U800K95BY","either","3","283","","","","","","","0","0","1","","0.4600492943","0.4","0.2","0.8","0.6","0.4186890645","0.4600492943","0.7521601774","0.2844288079","","","","","","","","","","","","","","74","J","1","","","147","main_expt",""
"","bandit","228","567532","0.0-189.0-0.0","20912239","wem/bandit_party_2","A3JD7U800K95BY","either","3","300","","","","","","","1","0","0","0.4575448178","","0.4","0.2","0.8","0.6","","","","","0.3928328601","0.4575448178","0.7762143641","0.3095389551","","","","","","","","","","74","J","1","","","148","main_expt",""
"","bandit","229","569331","0.0-190.0-0.0","20912239","wem/bandit_party_2","A3JD7U800K95BY","either","3","289","","","","","","","0","1","0","","0.3840278576","0.4","0.2","0.8","0.6","0.4220063763","0.3840278576","0.716016993","0.2464654743","","","","","","","","","","","","","","74","J","1","","","149","main_expt",""
"","bandit","230","571150","0.0-191.0-0.0","20912239","wem/bandit_party_2","A3JD7U800K95BY","either","3","312","","","","","","","0","0","1","","0.3004406684","0.4","0.2","0.8","0.6","0.3206822378","0.3004406684","0.7182774931","0.2088091358","","","","","","","","","","","","","","74","J","1","","","150","main_expt",""
"","bandit","231","573069","0.0-192.0-0.0","20912239","wem/bandit_party_2","A3JD7U800K95BY","either","3","411","","","","","","","0","0","1","0.2769981479","","0.4","0.2","0.8","0.6","","","","","0.3380172956","0.2769981479","0.8028216805","0.2670014618","","","","","","","","","","74","J","1","","","151","main_expt",""
"","bandit","232","574832","0.0-193.0-0.0","20912239","wem/bandit_party_2","A3JD7U800K95BY","either","3","255","","","","","","","0","0","1","0.2461440624","","0.4","0.2","0.8","0.6","","","","","0.2461440624","0.40565407","0.8634692279","0.3100930243","","","","","","","","","","72","H","0","img/none_selected.jpg","","152","main_expt",""
"","bandit","233","576617","0.0-194.0-0.0","20912239","wem/bandit_party_2","A3JD7U800K95BY","either","3","276","","","","","","","0","0","1","0.1852716423","","0.4","0.2","0.8","0.6","","","","","0.1852716423","0.3829351634","0.7719190238","0.3796096158","","","","","","","","","","72","H","0","img/none_selected.jpg","","153","main_expt",""
"","bandit","234","578232","0.0-195.0-0.0","20912239","wem/bandit_party_2","A3JD7U800K95BY","either","3","109","","","","","","","0","0","1","","0.2265028128","0.4","0.2","0.8","0.6","0.1660439368","0.4912137185","0.8343429945","0.2265028128","","","","","","","","","","","","","","76","L","3","","","154","main_expt",""
"","bandit","235","579961","0.0-196.0-0.0","20912239","wem/bandit_party_2","A3JD7U800K95BY","either","3","222","","","","","","","0","0","1","0.2135741777","","0.4","0.2","0.8","0.6","","","","","0.2241607793","0.5312535156","0.7908731232","0.2135741777","","","","","","","","","","76","L","3","","","155","main_expt",""
"","bandit","236","581727","0.0-197.0-0.0","20912239","wem/bandit_party_2","A3JD7U800K95BY","either","3","257","","","","","","","0","1","0","","0.7848911391","0.4","0.2","0.8","0.6","0.1566338899","0.5747898199","0.7848911391","0.1338357519","","","","","","","","","","","","","","75","K","2","","","156","main_expt",""
"","bandit","237","583373","0.0-198.0-0.0","20912239","wem/bandit_party_2","A3JD7U800K95BY","either","3","134","","","","","","","0","0","1","","0.7467155263","0.4","0.2","0.8","0.6","0.1839373886","0.5948125822","0.7467155263","0.1344370697","","","","","","","","","","","","","","75","K","2","","","157","main_expt",""
"","bandit","238","585120","0.0-199.0-0.0","20912239","wem/bandit_party_2","A3JD7U800K95BY","either","3","239","","","","","","","1","0","0","0.7413618202","","0.4","0.2","0.8","0.6","","","","","0.155802242","0.6533804049","0.7413618202","0.1217930933","","","","","","","","","","75","K","2","","","158","main_expt",""
"","bandit","239","586848","0.0-200.0-0.0","20912239","wem/bandit_party_2","A3JD7U800K95BY","either","3","217","","","","","","","1","0","0","0.6882043704","","0.4","0.2","0.8","0.6","","","","","0.2304237345","0.5777198579","0.6882043704","0.08524485746","","","","","","","","","","75","K","2","","","159","main_expt",""
"","bandit","240","588652","0.0-201.0-0.0","20912239","wem/bandit_party_2","A3JD7U800K95BY","either","3","298","","","","","","","1","0","0","0.7253096401","","0.4","0.2","0.8","0.6","","","","","0.2242026456","0.6777741118","0.7253096401","0.07332219892","","","","","","","","","","75","K","2","","","160","main_expt",""
"","bandit","241","590418","0.0-202.0-0.0","20912239","wem/bandit_party_2","A3JD7U800K95BY","either","3","258","","","","","","","0","1","0","","0.6989182833","0.4","0.2","0.8","0.6","0.2708915048","0.6249074267","0.6989182833","0.1063489691","","","","","","","","","","","","","","75","K","2","","","161","main_expt",""
"","bandit","242","592211","0.0-203.0-0.0","20912239","wem/bandit_party_2","A3JD7U800K95BY","either","3","286","","","","","","","1","0","0","0.7679575172","","0.4","0.2","0.8","0.6","","","","","0.2921592604","0.6755041601","0.7679575172","0.09670310095","","","","","","","","","","75","K","2","","","162","main_expt",""
"","bandit","243","594198","0.0-204.0-0.0","20912239","wem/bandit_party_2","A3JD7U800K95BY","either","3","481","","","","","","","0","0","1","","0.6877390752","0.4","0.2","0.8","0.6","0.2050535257","0.6461818487","0.6877390752","0.1266359811","","","","","","","","","","","","","","75","K","2","","","163","main_expt",""
"","bandit","244","596144","0.0-205.0-0.0","20912239","wem/bandit_party_2","A3JD7U800K95BY","either","3","439","","","","","","","0","0","1","0.6957575266","","0.4","0.2","0.8","0.6","","","","","0.1998759094","0.76368027","0.6957575266","0.1212611996","","","","","","","","","","75","K","2","","","164","main_expt",""
"","bandit","245","597934","0.0-206.0-0.0","20912239","wem/bandit_party_2","A3JD7U800K95BY","either","3","279","","","","","","","1","0","0","0.6760148625","","0.4","0.2","0.8","0.6","","","","","0.1821974317","0.8400099296","0.6760148625","0.1917887173","","","","","","","","","","75","K","2","","","165","main_expt",""
"","bandit","246","599741","0.0-207.0-0.0","20912239","wem/bandit_party_2","A3JD7U800K95BY","either","3","295","","","","","","","1","0","0","0.6463317238","","0.4","0.2","0.8","0.6","","","","","0.2916844583","0.8573275969","0.6463317238","0.1560613016","","","","","","","","","","75","K","2","","","166","main_expt",""
"","bandit","247","601572","0.0-208.0-0.0","20912239","wem/bandit_party_2","A3JD7U800K95BY","either","3","325","","","","","","","1","0","0","0.5613055562","","0.4","0.2","0.8","0.6","","","","","0.3087465624","0.7735369509","0.5613055562","0.2214887095","","","","","","","","","","75","K","2","","","167","main_expt",""
"","bandit","248","603370","0.0-209.0-0.0","20912239","wem/bandit_party_2","A3JD7U800K95BY","either","3","287","","","","","","","1","0","0","0.5586162784","","0.4","0.2","0.8","0.6","","","","","0.3896626528","0.8091314607","0.5586162784","0.3463453368","","","","","","","","","","75","K","2","","","168","main_expt",""
"","bandit","249","605195","0.0-210.0-0.0","20912239","wem/bandit_party_2","A3JD7U800K95BY","either","3","314","","","","","","","0","0","1","0.597448185","","0.4","0.2","0.8","0.6","","","","","0.4458805252","0.8364166478","0.597448185","0.3222551453","","","","","","","","","","75","K","2","","","169","main_expt",""
"","bandit","250","606903","0.0-211.0-0.0","20912239","wem/bandit_party_2","A3JD7U800K95BY","either","3","201","","","","","","","1","0","0","0.5351242352","","0.4","0.2","0.8","0.6","","","","","0.4844269655","0.7867883415","0.5351242352","0.2556410415","","","","","","","","","","75","K","2","","","170","main_expt",""
"","bandit","251","608577","0.0-212.0-0.0","20912239","wem/bandit_party_2","A3JD7U800K95BY","either","3","166","","","","","","","1","0","0","0.4819966971","","0.4","0.2","0.8","0.6","","","","","0.4858642724","0.8728822524","0.4819966971","0.2248109201","","","","","","","","","","75","K","2","","","171","main_expt",""
"","bandit","252","610489","0.0-213.0-0.0","20912239","wem/bandit_party_2","A3JD7U800K95BY","either","3","402","","","","","","","1","0","0","0.4038669266","","0.4","0.2","0.8","0.6","","","","","0.5060245996","0.7804912391","0.4038669266","0.3468742366","","","","","","","","","","75","K","2","","","172","main_expt",""
"","bandit","253","612284","0.0-214.0-0.0","20912239","wem/bandit_party_2","A3JD7U800K95BY","either","3","288","","","","","","","0","1","0","","0.3102533384","0.4","0.2","0.8","0.6","0.5413528159","0.7728490534","0.3102533384","0.234408543","","","","","","","","","","","","","","75","K","2","","","173","main_expt",""
"","bandit","254","614090","0.0-215.0-0.0","20912239","wem/bandit_party_2","A3JD7U800K95BY","either","3","294","","","","","","","0","1","0","","0.3818943333","0.4","0.2","0.8","0.6","0.6505326818","0.814185781","0.3818943333","0.1404050277","","","","","","","","","","","","","","75","K","2","","","174","main_expt",""
"","bandit","255","615881","0.0-216.0-0.0","20912239","wem/bandit_party_2","A3JD7U800K95BY","either","3","282","","","","","","","0","0","1","0.2893198216","","0.4","0.2","0.8","0.6","","","","","0.6470977149","0.8010682597","0.2893198216","0.1081611795","","","","","","","","","","75","K","2","","","175","main_expt",""
"","bandit","256","617707","0.0-217.0-0.0","20912239","wem/bandit_party_2","A3JD7U800K95BY","either","3","319","","","","","","","0","0","1","","0.226416223","0.4","0.2","0.8","0.6","0.6844229635","0.7083228223","0.226416223","0.0730283124","","","","","","","","","","","","","","75","K","2","","","176","main_expt",""
"","bandit","257","619471","0.0-218.0-0.0","20912239","wem/bandit_party_2","A3JD7U800K95BY","either","3","257","","","","","","","0","0","1","0.2786676386","","0.4","0.2","0.8","0.6","","","","","0.6883244284","0.7408938443","0.2786676386","0.07044941978","","","","","","","","","","75","K","2","","","177","main_expt",""
"","bandit","258","621239","0.0-219.0-0.0","20912239","wem/bandit_party_2","A3JD7U800K95BY","either","3","260","","","","","","","0","0","1","0.2279078815","","0.4","0.2","0.8","0.6","","","","","0.6098590842","0.6621187214","0.2279078815","0.06886985111","","","","","","","","","","75","K","2","","","178","main_expt",""
"","bandit","259","623018","0.0-220.0-0.0","20912239","wem/bandit_party_2","A3JD7U800K95BY","either","3","272","","","","","","","0","0","1","0.1690126781","","0.4","0.2","0.8","0.6","","","","","0.5924449164","0.6765487854","0.1690126781","0.07254371148","","","","","","","","","","75","K","2","","","179","main_expt",""
"","bandit","260","624776","0.0-221.0-0.0","20912239","wem/bandit_party_2","A3JD7U800K95BY","either","3","247","","","","","","","0","0","1","0.055057054","","0.4","0.2","0.8","0.6","","","","","0.4915111467","0.7276027883","0.1356066944","0.055057054","","","","","","","","","","76","L","3","","","180","main_expt",""
"","bandit","261","626891","0.0-222.0-0.0","20912239","wem/bandit_party_2","A3JD7U800K95BY","either","3","608","","","","","","","0","0","1","","0.4713933083","0.4","0.2","0.8","0.6","0.4713933083","0.7083410305","0.1889441784","0.1187845962","","","","","","","","","","","","","","72","H","0","img/none_selected.jpg","","181","main_expt",""
"","bandit","262","628570","0.0-223.0-0.0","20912239","wem/bandit_party_2","A3JD7U800K95BY","either","3","171","","","","","","","0","1","0","","0.500114893","0.4","0.2","0.8","0.6","0.500114893","0.6489729838","0.2163976064","0.1304227184","","","","","","","","","","","","","","72","H","0","img/none_selected.jpg","","182","main_expt",""
"","bandit","263","630363","0.0-224.0-0.0","20912239","wem/bandit_party_2","A3JD7U800K95BY","either","3","282","","","","","","","0","0","1","","0.4949273894","0.4","0.2","0.8","0.6","0.4949273894","0.6956751073","0.1902524086","0.1374638341","","","","","","","","","","","","","","72","H","0","img/none_selected.jpg","","183","main_expt",""
"","bandit","264","631977","0.0-225.0-0.0","20912239","wem/bandit_party_2","A3JD7U800K95BY","either","3","104","","","","","","","0","0","1","","0.6066537109","0.4","0.2","0.8","0.6","0.4271361476","0.6066537109","0.2265805791","0.1914365344","","","","","","","","","","","","","","74","J","1","","","184","main_expt",""
"","bandit","265","633606","0.0-226.0-0.0","20912239","wem/bandit_party_2","A3JD7U800K95BY","either","3","123","","","","","","","0","0","1","0.6337362372","","0.4","0.2","0.8","0.6","","","","","0.4558255176","0.6337362372","0.1843452782","0.1939872458","","","","","","","","","","74","J","1","","","185","main_expt",""
"","bandit","266","635945","0.0-227.0-0.0","20912239","wem/bandit_party_2","A3JD7U800K95BY","either","3","826","","","","","","","1","0","0","0.2219937035","","0.4","0.2","0.8","0.6","","","","","0.4031301461","0.5908962551","0.1898387663","0.2219937035","","","","","","","","","","76","L","3","","","186","main_expt",""
"","bandit","267","637689","0.0-228.0-0.0","20912239","wem/bandit_party_2","A3JD7U800K95BY","either","3","234","","","","","","","0","0","1","0.2024523472","","0.4","0.2","0.8","0.6","","","","","0.3993697366","0.7651761031","0.210498268","0.2024523472","","","","","","","","","","76","L","3","","","187","main_expt",""
"","bandit","268","639390","0.0-229.0-0.0","20912239","wem/bandit_party_2","A3JD7U800K95BY","either","3","193","","","","","","","0","0","1","0.1930401344","","0.4","0.2","0.8","0.6","","","","","0.4478687375","0.7928336054","0.2368649008","0.1930401344","","","","","","","","","","76","L","3","","","188","main_expt",""
"","bandit","269","641028","0.0-230.0-0.0","20912239","wem/bandit_party_2","A3JD7U800K95BY","either","3","127","","","","","","","0","0","1","0.291591963","","0.4","0.2","0.8","0.6","","","","","0.3699601256","0.8917358491","0.291591963","0.3255404916","","","","","","","","","","75","K","2","","","189","main_expt",""
"","bandit","270","642765","0.0-231.0-0.0","20912239","wem/bandit_party_2","A3JD7U800K95BY","either","3","227","","","","","","","0","0","1","0.4411779124","","0.4","0.2","0.8","0.6","","","","","0.3723251068","0.898448025","0.4411779124","0.2364063212","","","","","","","","","","75","K","2","","","190","main_expt",""
"","bandit","271","644600","0.0-232.0-0.0","20912239","wem/bandit_party_2","A3JD7U800K95BY","either","3","328","","","","","","","0","0","1","","0.2662767285","0.4","0.2","0.8","0.6","0.3309849287","0.9186708851","0.3968704403","0.2662767285","","","","","","","","","","","","","","76","L","3","","","191","main_expt",""
"","bandit","272","646336","0.0-233.0-0.0","20912239","wem/bandit_party_2","A3JD7U800K95BY","either","3","228","","","","","","","0","1","0","","0.2865625263","0.4","0.2","0.8","0.6","0.2865625263","0.9314477517","0.4512817608","0.2815174114","","","","","","","","","","","","","","72","H","0","img/none_selected.jpg","","192","main_expt",""
"","bandit","273","647955","0.0-234.0-0.0","20912239","wem/bandit_party_2","A3JD7U800K95BY","either","3","106","","","","","","","0","0","1","","0.2862811746","0.4","0.2","0.8","0.6","0.2862811746","0.9090465067","0.4788006455","0.3461293965","","","","","","","","","","","","","","72","H","0","img/none_selected.jpg","","193","main_expt",""
"","bandit","274","649711","0.0-235.0-0.0","20912239","wem/bandit_party_2","A3JD7U800K95BY","either","3","248","","","","","","","0","0","1","","0.2785288642","0.4","0.2","0.8","0.6","0.2785288642","0.8762249788","0.4651889587","0.3303735913","","","","","","","","","","","","","","72","H","0","img/none_selected.jpg","","194","main_expt",""
"","bandit","275","651500","0.0-236.0-0.0","20912239","wem/bandit_party_2","A3JD7U800K95BY","either","3","279","","","","","","","0","1","0","","0.8623185747","0.4","0.2","0.8","0.6","0.2283941808","0.8623185747","0.4718629942","0.3194565039","","","","","","","","","","","","","","74","J","1","","","195","main_expt",""
"","bandit","276","653108","0.0-237.0-0.0","20912239","wem/bandit_party_2","A3JD7U800K95BY","either","3","100","","","","","","","0","1","0","","0.7745977574","0.4","0.2","0.8","0.6","0.214282227","0.7745977574","0.3825708332","0.4103944464","","","","","","","","","","","","","","74","J","1","","","196","main_expt",""
"","bandit","277","654868","0.0-238.0-0.0","20912239","wem/bandit_party_2","A3JD7U800K95BY","either","3","247","","","","","","","0","0","1","0.7723069829","","0.4","0.2","0.8","0.6","","","","","0.1422959513","0.7723069829","0.4530864699","0.4445726534","","","","","","","","","","74","J","1","","","197","main_expt",""
"","bandit","278","656619","0.0-239.0-0.0","20912239","wem/bandit_party_2","A3JD7U800K95BY","either","3","242","","","","","","","0","1","0","","0.7084082875","0.4","0.2","0.8","0.6","0.1126324943","0.7084082875","0.4337652667","0.4351718099","","","","","","","","","","","","","","74","J","1","","","198","main_expt",""
"","bandit","279","658436","0.0-240.0-0.0","20912239","wem/bandit_party_2","A3JD7U800K95BY","either","3","310","","","","","","","1","0","0","0.7016883558","","0.4","0.2","0.8","0.6","","","","","0.1144166609","0.7016883558","0.4138332966","0.4641294157","","","","","","","","","","74","J","1","","","199","main_expt",""
"","bandit","280","660177","0.0-241.0-0.0","20912239","wem/bandit_party_2","A3JD7U800K95BY","either","3","234","","","","","","","0","0","1","0.6504384346","","0.4","0.2","0.8","0.6","","","","","0.1518003708","0.6504384346","0.5005175686","0.4468687069","","","","","","","","","","74","J","1","","","200","main_expt",""
"","bandit","281","661965","0.0-242.0-0.0","20912239","wem/bandit_party_2","A3JD7U800K95BY","either","3","276","","","","","","","0","0","1","","0.7904945102","0.4","0.2","0.8","0.6","0.1974433607","0.7904945102","0.5122642399","0.5087435212","","","","","","","","","","","","","","74","J","1","","","201","main_expt",""
"","bandit","282","663762","0.0-243.0-0.0","20912239","wem/bandit_party_2","A3JD7U800K95BY","either","3","289","","","","","","","0","1","0","","0.7039472437","0.4","0.2","0.8","0.6","0.2000842809","0.7039472437","0.5414597976","0.4992132835","","","","","","","","","","","","","","74","J","1","","","202","main_expt",""
"","bandit","283","665563","0.0-244.0-0.0","20912239","wem/bandit_party_2","A3JD7U800K95BY","either","3","293","","","","","","","0","1","0","","0.7478807213","0.4","0.2","0.8","0.6","0.1715580826","0.7478807213","0.4993649945","0.4859842053","","","","","","","","","","","","","","74","J","1","","","203","main_expt",""
"","bandit","284","667326","0.0-245.0-0.0","20912239","wem/bandit_party_2","A3JD7U800K95BY","either","3","254","","","","","","","0","1","0","","0.7346150791","0.4","0.2","0.8","0.6","0.3028604286","0.7346150791","0.4056752737","0.6162755314","","","","","","","","","","","","","","74","J","1","","","204","main_expt",""
"","bandit","285","669134","0.0-246.0-0.0","20912239","wem/bandit_party_2","A3JD7U800K95BY","either","3","298","","","","","","","0","1","0","","0.7240623961","0.4","0.2","0.8","0.6","0.3714949669","0.7240623961","0.4174768156","0.6204906845","","","","","","","","","","","","","","74","J","1","","","205","main_expt",""
"","bandit","286","670927","0.0-247.0-0.0","20912239","wem/bandit_party_2","A3JD7U800K95BY","either","3","281","","","","","","","0","1","0","","0.733657826","0.4","0.2","0.8","0.6","0.3034865557","0.733657826","0.4364097613","0.6390595606","","","","","","","","","","","","","","74","J","1","","","206","main_expt",""
"","bandit","287","672744","0.0-248.0-0.0","20912239","wem/bandit_party_2","A3JD7U800K95BY","either","3","307","","","","","","","0","0","1","","0.6797091947","0.4","0.2","0.8","0.6","0.2688105372","0.6797091947","0.4666062126","0.6022157482","","","","","","","","","","","","","","74","J","1","","","207","main_expt",""
"","bandit","288","674496","0.0-249.0-0.0","20912239","wem/bandit_party_2","A3JD7U800K95BY","either","3","246","","","","","","","0","0","1","0.472157919","","0.4","0.2","0.8","0.6","","","","","0.2240001326","0.472157919","0.4594719295","0.6598502583","","","","","","","","","","74","J","1","","","208","main_expt",""
"","bandit","289","676286","0.0-250.0-0.0","20912239","wem/bandit_party_2","A3JD7U800K95BY","either","3","282","","","","","","","0","0","1","","0.4993955773","0.4","0.2","0.8","0.6","0.3284172364","0.4993955773","0.5415101973","0.6329069529","","","","","","","","","","","","","","74","J","1","","","209","main_expt",""
"","bandit","290","678069","0.0-251.0-0.0","20912239","wem/bandit_party_2","A3JD7U800K95BY","either","3","269","","","","","","","0","0","1","0.5627952802","","0.4","0.2","0.8","0.6","","","","","0.3178667136","0.3923888982","0.5627952802","0.5418549626","","","","","","","","","","75","K","2","","","210","main_expt",""
"","bandit","291","679668","0.0-252.0-0.0","20912239","wem/bandit_party_2","A3JD7U800K95BY","either","3","92","","","","","","","1","0","0","0.5779033475","","0.4","0.2","0.8","0.6","","","","","0.278360526","0.4183885941","0.5779033475","0.7265410197","","","","","","","","","","75","K","2","","","211","main_expt",""
"","bandit","292","681367","0.0-253.0-0.0","20912239","wem/bandit_party_2","A3JD7U800K95BY","either","3","187","","","","","","","0","0","1","0.6169713091","","0.4","0.2","0.8","0.6","","","","","0.2720231684","0.5367383083","0.6169713091","0.6550819281","","","","","","","","","","75","K","2","","","212","main_expt",""
"","bandit","293","683143","0.0-254.0-0.0","20912239","wem/bandit_party_2","A3JD7U800K95BY","either","3","267","","","","","","","1","0","0","0.5812500281","","0.4","0.2","0.8","0.6","","","","","0.3445332441","0.5779451767","0.5688165975","0.5812500281","","","","","","","","","","76","L","3","","","213","main_expt",""
"","bandit","294","684681","0.0-255.0-0.0","20912239","wem/bandit_party_2","A3JD7U800K95BY","either","3","24","","","","","","","0","1","0","","0.6912727382","0.4","0.2","0.8","0.6","0.331154659","0.5615700258","0.5354690829","0.6912727382","","","","","","","","","","","","","","76","L","3","","","214","main_expt",""
"","bandit","295","686428","0.0-256.0-0.0","20912239","wem/bandit_party_2","A3JD7U800K95BY","either","3","234","","","","","","","1","0","0","0.695573978","","0.4","0.2","0.8","0.6","","","","","0.3168016653","0.5361399643","0.4395706401","0.695573978","","","","","","","","","","76","L","3","","","215","main_expt",""
"","bandit","296","688173","0.0-257.0-0.0","20912239","wem/bandit_party_2","A3JD7U800K95BY","either","3","237","","","","","","","0","0","1","","0.6531454011","0.4","0.2","0.8","0.6","0.2870858596","0.620750855","0.4522294324","0.6531454011","","","","","","","","","","","","","","76","L","3","","","216","main_expt",""
"","bandit","297","689871","0.0-258.0-0.0","20912239","wem/bandit_party_2","A3JD7U800K95BY","either","3","187","","","","","","","0","0","1","0.6459690495","","0.4","0.2","0.8","0.6","","","","","0.2877345098","0.4812239037","0.4141575353","0.6459690495","","","","","","","","","","76","L","3","","","217","main_expt",""
"","bandit","298","691621","0.0-259.0-0.0","20912239","wem/bandit_party_2","A3JD7U800K95BY","either","3","241","","","","","","","0","1","0","","0.6679944541","0.4","0.2","0.8","0.6","0.3608492067","0.4028497994","0.3009722504","0.6679944541","","","","","","","","","","","","","","76","L","3","","","218","main_expt",""
"","bandit","299","693327","0.0-260.0-0.0","20912239","wem/bandit_party_2","A3JD7U800K95BY","either","3","197","","","","","","","1","0","0","0.7159195147","","0.4","0.2","0.8","0.6","","","","","0.4380407461","0.4441021312","0.2706893249","0.7159195147","","","","","","","","","","76","L","3","","","219","main_expt",""
"","bandit","300","695088","0.0-261.0-0.0","20912239","wem/bandit_party_2","A3JD7U800K95BY","either","3","249","","","","","","","0","0","1","0.6874484601","","0.4","0.2","0.8","0.6","","","","","0.4769938592","0.4867825248","0.3821277721","0.6874484601","","","","","","","","","","76","L","3","","","220","main_expt",""
"","bandit","301","696924","0.0-262.0-0.0","20912239","wem/bandit_party_2","A3JD7U800K95BY","either","3","324","","","","","","","0","0","1","","0.4612627877","0.4","0.2","0.8","0.6","0.4612627877","0.5428062785","0.4534214389","0.6528128226","","","","","","","","","","","","","","72","H","0","img/none_selected.jpg","","221","main_expt",""
"","bandit","302","698625","0.0-263.0-0.0","20912239","wem/bandit_party_2","A3JD7U800K95BY","either","3","192","","","","","","","0","0","1","","0.4192901336","0.4","0.2","0.8","0.6","0.4192901336","0.5993321864","0.6049712458","0.6836467719","","","","","","","","","","","","","","72","H","0","img/none_selected.jpg","","222","main_expt",""
"","bandit","303","700356","0.0-264.0-0.0","20912239","wem/bandit_party_2","A3JD7U800K95BY","either","3","218","","","","","","","0","0","1","","0.4920604154","0.4","0.2","0.8","0.6","0.5559965486","0.4920604154","0.6389506418","0.7820879334","","","","","","","","","","","","","","74","J","1","","","223","main_expt",""
"","bandit","304","702063","0.0-265.0-0.0","20912239","wem/bandit_party_2","A3JD7U800K95BY","either","3","194","","","","","","","0","1","0","","0.5344282052","0.4","0.2","0.8","0.6","0.6687933923","0.5344282052","0.6677375732","0.763226653","","","","","","","","","","","","","","74","J","1","","","224","main_expt",""
"","bandit","305","703819","0.0-266.0-0.0","20912239","wem/bandit_party_2","A3JD7U800K95BY","either","3","250","","","","","","","0","0","1","","0.5583452501","0.4","0.2","0.8","0.6","0.5954484576","0.5583452501","0.7706853934","0.6931961842","","","","","","","","","","","","","","74","J","1","","","225","main_expt",""
"","bandit","306","705588","0.0-267.0-0.0","20912239","wem/bandit_party_2","A3JD7U800K95BY","either","3","260","","","","","","","0","1","0","","0.5126042404","0.4","0.2","0.8","0.6","0.6152447968","0.5126042404","0.7624197083","0.6633974694","","","","","","","","","","","","","","74","J","1","","","226","main_expt",""
"","bandit","307","707370","0.0-268.0-0.0","20912239","wem/bandit_party_2","A3JD7U800K95BY","either","3","274","","","","","","","0","1","0","","0.5720595628","0.4","0.2","0.8","0.6","0.6597553912","0.5720595628","0.7287840805","0.6567175756","","","","","","","","","","","","","","74","J","1","","","227","main_expt",""
"","bandit","308","709162","0.0-269.0-0.0","20912239","wem/bandit_party_2","A3JD7U800K95BY","either","3","280","","","","","","","0","1","0","","0.6134710885","0.4","0.2","0.8","0.6","0.594895186","0.6134710885","0.7993891034","0.6052730858","","","","","","","","","","","","","","74","J","1","","","228","main_expt",""
"","bandit","309","710975","0.0-270.0-0.0","20912239","wem/bandit_party_2","A3JD7U800K95BY","either","3","304","","","","","","","0","1","0","","0.5669106804","0.4","0.2","0.8","0.6","0.5722559027","0.5669106804","0.8374027748","0.5548990383","","","","","","","","","","","","","","74","J","1","","","229","main_expt",""
"","bandit","310","712784","0.0-271.0-0.0","20912239","wem/bandit_party_2","A3JD7U800K95BY","either","3","302","","","","","","","0","0","1","","0.6286782819","0.4","0.2","0.8","0.6","0.5409090622","0.6286782819","0.8414873787","0.6017114108","","","","","","","","","","","","","","74","J","1","","","230","main_expt",""
"","bandit","311","714572","0.0-272.0-0.0","20912239","wem/bandit_party_2","A3JD7U800K95BY","either","3","280","","","","","","","0","0","1","","0.5594948871","0.4","0.2","0.8","0.6","0.518727512","0.5594948871","0.8531648874","0.5525336349","","","","","","","","","","","","","","74","J","1","","","231","main_expt",""
"","bandit","312","716244","0.0-273.0-0.0","20912239","wem/bandit_party_2","A3JD7U800K95BY","either","3","161","","","","","","","0","0","1","","0.5817998964","0.4","0.2","0.8","0.6","0.5200298571","0.5817998964","0.8813812612","0.4493361955","","","","","","","","","","","","","","74","J","1","","","232","main_expt",""
"","bandit","313","718059","0.0-274.0-0.0","20912239","wem/bandit_party_2","A3JD7U800K95BY","either","3","305","","","","","","","0","1","0","","0.8916766345","0.4","0.2","0.8","0.6","0.4564343731","0.5971875981","0.8916766345","0.5280832246","","","","","","","","","","","","","","75","K","2","","","233","main_expt",""
"","bandit","314","719845","0.0-275.0-0.0","20912239","wem/bandit_party_2","A3JD7U800K95BY","either","3","272","","","","","","","1","0","0","0.842820862","","0.4","0.2","0.8","0.6","","","","","0.4168065644","0.5227237997","0.842820862","0.6814540918","","","","","","","","","","75","K","2","","","234","main_expt",""
"","bandit","315","721643","0.0-276.0-0.0","20912239","wem/bandit_party_2","A3JD7U800K95BY","either","3","289","","","","","","","0","0","1","0.7856269381","","0.4","0.2","0.8","0.6","","","","","0.4340770274","0.6231997156","0.7856269381","0.5518959403","","","","","","","","","","75","K","2","","","235","main_expt",""
"","bandit","316","723406","0.0-277.0-0.0","20912239","wem/bandit_party_2","A3JD7U800K95BY","either","3","254","","","","","","","1","0","0","0.8092971262","","0.4","0.2","0.8","0.6","","","","","0.4489205242","0.558272317","0.8092971262","0.4965619817","","","","","","","","","","75","K","2","","","236","main_expt",""
