"consent","trial_type","trial_index","time_elapsed","internal_node_id","subjID","study","MID","cond","drift","rt","responses","button_pressed","key_press","like","value","connected","gems","bombs","no_reward","GemPrChosen","BombPrChosen","GainOverPainPr_0","GainOverPainPr_1","GainOverPainPr_2","GainOverPainPr_3","LosePr_0","LosePr_1","LosePr_2","LosePr_3","WinPr_0","WinPr_1","WinPr_2","WinPr_3","Q0","Q1","Q2","gender","age","ethnicity","label","expt_phase","target","respCharCode","respKey","respChoiceNum","respChoice","practice","trial_counter","trial_label","Q0_index"
"GDM/GDM_behavioral_consent_30min_online.html","consent","0","17664","0.0-0.0","21034906","wem/bandit_party_2","A2UODQ3AUFVCTZ","either","2","","","","","","","","","","","","","","","","","","","","","","","","","","","","","","","","","","","","","","","","",""
"","survey-text","1","25935","0.0-1.0","21034906","wem/bandit_party_2","A2UODQ3AUFVCTZ","either","2","7259","{""Q0"":""A2UODQ3AUFVCTZ""}","","","","","","","","","","","","","","","","","","","","","","","","","","","","","","","","","","","","","","",""
"","button-response","2","30991","0.0-2.0","21034906","wem/bandit_party_2","A2UODQ3AUFVCTZ","either","2","4052","","2","","","","","","","","","","","","","","","","","","","","","","","","","","","","","","","","","","","","","",""
"","text-replacement","3","44025","0.0-3.0","21034906","wem/bandit_party_2","A2UODQ3AUFVCTZ","either","2","12031","","","32","","","","","","","","","","","","","","","","","","","","","","","","","","","","","","","","","","","","",""
"","text-replacement","4","65349","0.0-4.0","21034906","wem/bandit_party_2","A2UODQ3AUFVCTZ","either","2","21322","","","32","","","","","","","","","","","","","","","","","","","","","","","","","","","","","","","","","","","","",""
"","text-replacement","5","106010","0.0-5.0-0.0","21034906","wem/bandit_party_2","A2UODQ3AUFVCTZ","either","2","40659","","","32","","","","","","","","","","","","","","","","","","","","","","","","","","","","","","","","","","","","",""
"","identification","6","122098","0.0-6.0-0.0","21034906","wem/bandit_party_2","A2UODQ3AUFVCTZ","either","2","16081","","","","4","4","3","","","","","","","","","","","","","","","","","","","","","","","","pre","identification_pre","the Republican Party","","","","","","","",""
"","identification","7","143783","0.0-6.0-1.0","21034906","wem/bandit_party_2","A2UODQ3AUFVCTZ","either","2","20676","","","","3","3","2","","","","","","","","","","","","","","","","","","","","","","","","pre","identification_pre","the Democratic Party","","","","","","","",""
"","text-replacement","8","149347","0.0-7.0","21034906","wem/bandit_party_2","A2UODQ3AUFVCTZ","either","2","4560","","","32","","","","","","","","","","","","","","","","","","","","","","","","","","","","","","","","","","","","",""
"","text-replacement","9","154546","0.0-8.0","21034906","wem/bandit_party_2","A2UODQ3AUFVCTZ","either","2","5197","","","32","","","","","","","","","","","","","","","","","","","","","","","","","","","","","","","","","","","","",""
"","text-replacement","10","170958","0.0-9.0","21034906","wem/bandit_party_2","A2UODQ3AUFVCTZ","either","2","16410","","","32","","","","","","","","","","","","","","","","","","","","","","","","","","","","","","","","","","","","",""
"","text-replacement","11","173606","0.0-10.0","21034906","wem/bandit_party_2","A2UODQ3AUFVCTZ","either","2","2647","","","32","","","","","","","","","","","","","","","","","","","","","","","","","","","","","","","","","","","","",""
"","text-replacement","12","183276","0.0-11.0","21034906","wem/bandit_party_2","A2UODQ3AUFVCTZ","either","2","9669","","","32","","","","","","","","","","","","","","","","","","","","","","","","","","","","","","","","","","","","",""
"","bandit","13","185928","0.0-12.0-0.0","21034906","wem/bandit_party_2","A2UODQ3AUFVCTZ","either","2","1146","","","","","","","0","0","1","0","0","","","","","0","","","","0","","","","","","","","","","","","","74","J","0","img/none_selected_demo.jpg","true","0","",""
"","bandit","14","189476","0.0-13.0-0.0","21034906","wem/bandit_party_2","A2UODQ3AUFVCTZ","either","2","2043","","","","","","","0","0","1","0","0","","","","","0","","","","0","","","","","","","","","","","","","75","K","0","img/none_selected_demo.jpg","true","0","",""
"","text-replacement","15","203255","0.0-14.0","21034906","wem/bandit_party_2","A2UODQ3AUFVCTZ","either","2","13778","","","32","","","","","","","","","","","","","","","","","","","","","","","","","","","","","","","","","","","","",""
"","text-replacement","16","216439","0.0-15.0","21034906","wem/bandit_party_2","A2UODQ3AUFVCTZ","either","2","13183","","","32","","","","","","","","","","","","","","","","","","","","","","","","","","","","","","","","","","","","",""
"","text-replacement","17","229572","0.0-16.0","21034906","wem/bandit_party_2","A2UODQ3AUFVCTZ","either","2","13131","","","32","","","","","","","","","","","","","","","","","","","","","","","","","","","","","","","","","","","","",""
"","text-replacement","18","234689","0.0-17.0","21034906","wem/bandit_party_2","A2UODQ3AUFVCTZ","either","2","5116","","","32","","","","","","","","","","","","","","","","","","","","","","","","","","","","","","","","","","","","",""
"","bandit","19","236834","0.0-18.0-0.0","21034906","wem/bandit_party_2","A2UODQ3AUFVCTZ","either","2","639","","","","","","","0","1","0","","0.8","0.5","0.5","","","0.8","0.2","","","","","","","","","","","","","","","","74","J","0","img/none_selected_demo.jpg","true","0","80_20_practice",""
"","bandit","20","238794","0.0-18.0-1.0","21034906","wem/bandit_party_2","A2UODQ3AUFVCTZ","either","2","457","","","","","","","0","1","0","","0.8","0.5","0.5","","","0.8","0.2","","","","","","","","","","","","","","","","74","J","0","img/none_selected_demo.jpg","true","0","80_20_practice",""
"","bandit","21","240760","0.0-18.0-2.0","21034906","wem/bandit_party_2","A2UODQ3AUFVCTZ","either","2","461","","","","","","","1","0","0","0.8","","0.5","0.5","","","","","","","0.8","0.2","","","","","","","","","","","","74","J","0","img/none_selected_demo.jpg","true","0","80_20_practice",""
"","bandit","22","242653","0.0-18.0-3.0","21034906","wem/bandit_party_2","A2UODQ3AUFVCTZ","either","2","385","","","","","","","0","1","0","","0.8","0.5","0.5","","","0.8","0.2","","","","","","","","","","","","","","","","74","J","0","img/none_selected_demo.jpg","true","0","80_20_practice",""
"","bandit","23","244774","0.0-18.0-4.0","21034906","wem/bandit_party_2","A2UODQ3AUFVCTZ","either","2","616","","","","","","","1","0","0","0.8","","0.5","0.5","","","","","","","0.8","0.2","","","","","","","","","","","","74","J","0","img/none_selected_demo.jpg","true","0","80_20_practice",""
"","bandit","24","246737","0.0-18.0-5.0","21034906","wem/bandit_party_2","A2UODQ3AUFVCTZ","either","2","459","","","","","","","0","1","0","","0.8","0.5","0.5","","","0.8","0.2","","","","","","","","","","","","","","","","74","J","0","img/none_selected_demo.jpg","true","0","80_20_practice",""
"","bandit","25","248793","0.0-18.0-6.0","21034906","wem/bandit_party_2","A2UODQ3AUFVCTZ","either","2","550","","","","","","","0","1","0","","0.8","0.5","0.5","","","0.8","0.2","","","","","","","","","","","","","","","","74","J","0","img/none_selected_demo.jpg","true","0","80_20_practice",""
"","bandit","26","250548","0.0-18.0-7.0","21034906","wem/bandit_party_2","A2UODQ3AUFVCTZ","either","2","249","","","","","","","0","1","0","","0.8","0.5","0.5","","","0.8","0.2","","","","","","","","","","","","","","","","74","J","0","img/none_selected_demo.jpg","true","0","80_20_practice",""
"","bandit","27","252533","0.0-18.0-8.0","21034906","wem/bandit_party_2","A2UODQ3AUFVCTZ","either","2","481","","","","","","","0","1","0","","0.8","0.5","0.5","","","0.8","0.2","","","","","","","","","","","","","","","","74","J","0","img/none_selected_demo.jpg","true","0","80_20_practice",""
"","bandit","28","254333","0.0-18.0-9.0","21034906","wem/bandit_party_2","A2UODQ3AUFVCTZ","either","2","295","","","","","","","1","0","0","0.8","","0.5","0.5","","","","","","","0.8","0.2","","","","","","","","","","","","74","J","0","img/none_selected_demo.jpg","true","0","80_20_practice",""
"","bandit","29","256195","0.0-18.0-10.0","21034906","wem/bandit_party_2","A2UODQ3AUFVCTZ","either","2","356","","","","","","","1","0","0","0.8","","0.5","0.5","","","","","","","0.8","0.2","","","","","","","","","","","","74","J","0","img/none_selected_demo.jpg","true","0","80_20_practice",""
"","bandit","30","257945","0.0-18.0-11.0","21034906","wem/bandit_party_2","A2UODQ3AUFVCTZ","either","2","246","","","","","","","1","0","0","0.8","","0.5","0.5","","","","","","","0.8","0.2","","","","","","","","","","","","74","J","0","img/none_selected_demo.jpg","true","0","80_20_practice",""
"","bandit","31","259784","0.0-18.0-12.0","21034906","wem/bandit_party_2","A2UODQ3AUFVCTZ","either","2","334","","","","","","","0","0","1","","0.2","0.5","0.5","","","0.8","0.2","","","","","","","","","","","","","","","","75","K","1","","true","0","80_20_practice",""
"","bandit","32","261580","0.0-18.0-13.0","21034906","wem/bandit_party_2","A2UODQ3AUFVCTZ","either","2","291","","","","","","","0","1","0","","0.8","0.5","0.5","","","0.8","0.2","","","","","","","","","","","","","","","","74","J","0","img/none_selected_demo.jpg","true","0","80_20_practice",""
"","bandit","33","263352","0.0-18.0-14.0","21034906","wem/bandit_party_2","A2UODQ3AUFVCTZ","either","2","269","","","","","","","1","0","0","0.8","","0.5","0.5","","","","","","","0.8","0.2","","","","","","","","","","","","74","J","0","img/none_selected_demo.jpg","true","0","80_20_practice",""
"","bandit","34","265083","0.0-18.0-15.0","21034906","wem/bandit_party_2","A2UODQ3AUFVCTZ","either","2","225","","","","","","","0","1","0","","0.8","0.5","0.5","","","0.8","0.2","","","","","","","","","","","","","","","","74","J","0","img/none_selected_demo.jpg","true","0","80_20_practice",""
"","bandit","35","266842","0.0-18.0-16.0","21034906","wem/bandit_party_2","A2UODQ3AUFVCTZ","either","2","254","","","","","","","1","0","0","0.8","","0.5","0.5","","","","","","","0.8","0.2","","","","","","","","","","","","74","J","0","img/none_selected_demo.jpg","true","0","80_20_practice",""
"","bandit","36","268880","0.0-18.0-17.0","21034906","wem/bandit_party_2","A2UODQ3AUFVCTZ","either","2","534","","","","","","","1","0","0","0.8","","0.5","0.5","","","","","","","0.8","0.2","","","","","","","","","","","","74","J","0","img/none_selected_demo.jpg","true","0","80_20_practice",""
"","bandit","37","270932","0.0-18.0-18.0","21034906","wem/bandit_party_2","A2UODQ3AUFVCTZ","either","2","544","","","","","","","0","0","1","","0.8","0.5","0.5","","","0.8","0.2","","","","","","","","","","","","","","","","74","J","0","img/none_selected_demo.jpg","true","0","80_20_practice",""
"","bandit","38","272885","0.0-18.0-19.0","21034906","wem/bandit_party_2","A2UODQ3AUFVCTZ","either","2","449","","","","","","","0","0","1","0.8","","0.5","0.5","","","","","","","0.8","0.2","","","","","","","","","","","","74","J","0","img/none_selected_demo.jpg","true","0","80_20_practice",""
"","text-replacement","39","276102","0.0-19.0","21034906","wem/bandit_party_2","A2UODQ3AUFVCTZ","either","2","3215","","","32","","","","","","","","","","","","","","","","","","","","","","","","","","","","","","","","","","","","",""
"","bandit","40","278255","0.0-20.0-0.0","21034906","wem/bandit_party_2","A2UODQ3AUFVCTZ","either","2","647","","","","","","","1","0","0","1","0","","","","","0","1","","","1","0","","","","","","","","","","","","74","J","0","img/none_selected_demo.jpg","true","0","",""
"","text-replacement","41","283583","0.0-21.0","21034906","wem/bandit_party_2","A2UODQ3AUFVCTZ","either","2","5328","","","74","","","","","","","","","","","","","","","","","","","","","","","","","","","","","","","","","","","","",""
"","text-replacement","42","287894","0.0-22.0","21034906","wem/bandit_party_2","A2UODQ3AUFVCTZ","either","2","4309","","","32","","","","","","","","","","","","","","","","","","","","","","","","","","","","","","","","","","","","",""
"","text-replacement","43","290675","0.0-23.0","21034906","wem/bandit_party_2","A2UODQ3AUFVCTZ","either","2","2780","","","32","","","","","","","","","","","","","","","","","","","","","","","","","","","","","","","","","","","","",""
"","text-replacement","44","295639","0.0-24.0","21034906","wem/bandit_party_2","A2UODQ3AUFVCTZ","either","2","4963","","","32","","","","","","","","","","","","","","","","","","","","","","","","","","","","","","","","","","","","",""
"","text-replacement","45","301083","0.0-25.0","21034906","wem/bandit_party_2","A2UODQ3AUFVCTZ","either","2","5442","","","32","","","","","","","","","","","","","","","","","","","","","","","","","","","","","","","","","","","","",""
"","text-replacement","46","303671","0.0-26.0","21034906","wem/bandit_party_2","A2UODQ3AUFVCTZ","either","2","2586","","","32","","","","","","","","","","","","","","","","","","","","","","","","","","","","","","","","","","","","",""
"","text-replacement","47","311490","0.0-27.0","21034906","wem/bandit_party_2","A2UODQ3AUFVCTZ","either","2","7818","","","32","","","","","","","","","","","","","","","","","","","","","","","","","","","","","","","","","","","","",""
"","text-replacement","48","314991","0.0-28.0","21034906","wem/bandit_party_2","A2UODQ3AUFVCTZ","either","2","3499","","","32","","","","","","","","","","","","","","","","","","","","","","","","","","","","","","","","","","","","",""
"","text-replacement","49","317878","0.0-29.0","21034906","wem/bandit_party_2","A2UODQ3AUFVCTZ","either","2","2886","","","32","","","","","","","","","","","","","","","","","","","","","","","","","","","","","","","","","","","","",""
"","text-replacement","50","319480","0.0-30.0","21034906","wem/bandit_party_2","A2UODQ3AUFVCTZ","either","2","1601","","","32","","","","","","","","","","","","","","","","","","","","","","","","","","","","","","","","","","","","",""
"","text-replacement","51","322013","0.0-31.0","21034906","wem/bandit_party_2","A2UODQ3AUFVCTZ","either","2","2531","","","32","","","","","","","","","","","","","","","","","","","","","","","","","","","","","","","","","","","","",""
"","bandit","52","324639","0.0-32.0-0.0","21034906","wem/bandit_party_2","A2UODQ3AUFVCTZ","either","2","1122","","","","","","","1","0","0","0.8","","0.5","0.5","0.5","0.5","","","","","0.8","0.2","0.6","0.2","","","","","","","","","","72","H","0","img/none_selected.jpg","true","0","full_practice",""
"","bandit","53","326561","0.0-32.0-1.0","21034906","wem/bandit_party_2","A2UODQ3AUFVCTZ","either","2","416","","","","","","","1","0","0","0.8","","0.5","0.5","0.5","0.5","","","","","0.8","0.2","0.6","0.2","","","","","","","","","","72","H","0","img/none_selected.jpg","true","0","full_practice",""
"","bandit","54","328470","0.0-32.0-2.0","21034906","wem/bandit_party_2","A2UODQ3AUFVCTZ","either","2","405","","","","","","","0","1","0","","0.8","0.5","0.5","0.5","0.5","0.8","0.2","0.6","0.2","","","","","","","","","","","","","","72","H","0","img/none_selected.jpg","true","0","full_practice",""
"","bandit","55","330367","0.0-32.0-3.0","21034906","wem/bandit_party_2","A2UODQ3AUFVCTZ","either","2","391","","","","","","","0","0","1","0.2","","0.5","0.5","0.5","0.5","","","","","0.8","0.2","0.6","0.2","","","","","","","","","","74","J","1","","true","0","full_practice",""
"","bandit","56","332182","0.0-32.0-4.0","21034906","wem/bandit_party_2","A2UODQ3AUFVCTZ","either","2","311","","","","","","","1","0","0","0.6","","0.5","0.5","0.5","0.5","","","","","0.8","0.2","0.6","0.2","","","","","","","","","","75","K","2","","true","0","full_practice",""
"","bandit","57","333905","0.0-32.0-5.0","21034906","wem/bandit_party_2","A2UODQ3AUFVCTZ","either","2","219","","","","","","","1","0","0","0.6","","0.5","0.5","0.5","0.5","","","","","0.8","0.2","0.6","0.2","","","","","","","","","","75","K","2","","true","0","full_practice",""
"","bandit","58","335765","0.0-32.0-6.0","21034906","wem/bandit_party_2","A2UODQ3AUFVCTZ","either","2","356","","","","","","","0","0","1","","0.2","0.5","0.5","0.5","0.5","0.8","0.2","0.6","0.2","","","","","","","","","","","","","","76","L","3","","true","0","full_practice",""
"","bandit","59","337492","0.0-32.0-7.0","21034906","wem/bandit_party_2","A2UODQ3AUFVCTZ","either","2","220","","","","","","","0","0","1","","0.6","0.5","0.5","0.5","0.5","0.8","0.2","0.6","0.2","","","","","","","","","","","","","","75","K","2","","true","0","full_practice",""
"","bandit","60","339115","0.0-32.0-8.0","21034906","wem/bandit_party_2","A2UODQ3AUFVCTZ","either","2","118","","","","","","","1","0","0","0.8","","0.5","0.5","0.5","0.5","","","","","0.8","0.2","0.6","0.2","","","","","","","","","","72","H","0","img/none_selected.jpg","true","0","full_practice",""
"","bandit","61","340907","0.0-32.0-9.0","21034906","wem/bandit_party_2","A2UODQ3AUFVCTZ","either","2","289","","","","","","","0","1","0","","0.8","0.5","0.5","0.5","0.5","0.8","0.2","0.6","0.2","","","","","","","","","","","","","","72","H","0","img/none_selected.jpg","true","0","full_practice",""
"","bandit","62","342735","0.0-32.0-10.0","21034906","wem/bandit_party_2","A2UODQ3AUFVCTZ","either","2","323","","","","","","","0","1","0","","0.8","0.5","0.5","0.5","0.5","0.8","0.2","0.6","0.2","","","","","","","","","","","","","","72","H","0","img/none_selected.jpg","true","0","full_practice",""
"","bandit","63","344513","0.0-32.0-11.0","21034906","wem/bandit_party_2","A2UODQ3AUFVCTZ","either","2","272","","","","","","","0","0","1","0.8","","0.5","0.5","0.5","0.5","","","","","0.8","0.2","0.6","0.2","","","","","","","","","","72","H","0","img/none_selected.jpg","true","0","full_practice",""
"","bandit","64","347075","0.0-32.0-12.0","21034906","wem/bandit_party_2","A2UODQ3AUFVCTZ","either","2","1058","","","","","","","0","0","1","","0.6","0.5","0.5","0.5","0.5","0.8","0.2","0.6","0.2","","","","","","","","","","","","","","75","K","2","","true","0","full_practice",""
"","bandit","65","348990","0.0-32.0-13.0","21034906","wem/bandit_party_2","A2UODQ3AUFVCTZ","either","2","409","","","","","","","0","0","1","","0.2","0.5","0.5","0.5","0.5","0.8","0.2","0.6","0.2","","","","","","","","","","","","","","74","J","1","","true","0","full_practice",""
"","bandit","66","351716","0.0-32.0-14.0","21034906","wem/bandit_party_2","A2UODQ3AUFVCTZ","either","2","1222","","","","","","","0","0","1","0.2","","0.5","0.5","0.5","0.5","","","","","0.8","0.2","0.6","0.2","","","","","","","","","","76","L","3","","true","0","full_practice",""
"","bandit","67","353550","0.0-32.0-15.0","21034906","wem/bandit_party_2","A2UODQ3AUFVCTZ","either","2","329","","","","","","","0","1","0","","0.8","0.5","0.5","0.5","0.5","0.8","0.2","0.6","0.2","","","","","","","","","","","","","","72","H","0","img/none_selected.jpg","true","0","full_practice",""
"","bandit","68","355395","0.0-32.0-16.0","21034906","wem/bandit_party_2","A2UODQ3AUFVCTZ","either","2","341","","","","","","","1","0","0","0.8","","0.5","0.5","0.5","0.5","","","","","0.8","0.2","0.6","0.2","","","","","","","","","","72","H","0","img/none_selected.jpg","true","0","full_practice",""
"","bandit","69","357198","0.0-32.0-17.0","21034906","wem/bandit_party_2","A2UODQ3AUFVCTZ","either","2","298","","","","","","","0","1","0","","0.8","0.5","0.5","0.5","0.5","0.8","0.2","0.6","0.2","","","","","","","","","","","","","","72","H","0","img/none_selected.jpg","true","0","full_practice",""
"","bandit","70","359088","0.0-32.0-18.0","21034906","wem/bandit_party_2","A2UODQ3AUFVCTZ","either","2","386","","","","","","","0","0","1","0.8","","0.5","0.5","0.5","0.5","","","","","0.8","0.2","0.6","0.2","","","","","","","","","","72","H","0","img/none_selected.jpg","true","0","full_practice",""
"","bandit","71","361010","0.0-32.0-19.0","21034906","wem/bandit_party_2","A2UODQ3AUFVCTZ","either","2","415","","","","","","","0","1","0","","0.8","0.5","0.5","0.5","0.5","0.8","0.2","0.6","0.2","","","","","","","","","","","","","","72","H","0","img/none_selected.jpg","true","0","full_practice",""
"","text","72","364367","0.0-33.0","21034906","wem/bandit_party_2","A2UODQ3AUFVCTZ","either","2","3353","","","32","","","","","","","","","","","","","","","","","","","","","","","","","","","","","","","","","","","","",""
"","text-replacement","73","377071","0.0-34.0","21034906","wem/bandit_party_2","A2UODQ3AUFVCTZ","either","2","11702","","","32","","","","","","","","","","","","","","","","","","","","","","","","","","","","","","","","","","","","",""
"","text-replacement","74","389575","0.0-35.0","21034906","wem/bandit_party_2","A2UODQ3AUFVCTZ","either","2","12502","","","32","","","","","","","","","","","","","","","","","","","","","","","","","","","","","","","","","","","","",""
"","text-replacement","75","395373","0.0-36.0","21034906","wem/bandit_party_2","A2UODQ3AUFVCTZ","either","2","5796","","","32","","","","","","","","","","","","","","","","","","","","","","","","","","","","","","","","","","","","",""
"","text-replacement","76","400062","0.0-37.0","21034906","wem/bandit_party_2","A2UODQ3AUFVCTZ","either","2","4687","","","32","","","","","","","","","","","","","","","","","","","","","","","","","","","","","","","","","","","","",""
"","text-replacement","77","405302","0.0-38.0","21034906","wem/bandit_party_2","A2UODQ3AUFVCTZ","either","2","5238","","","32","","","","","","","","","","","","","","","","","","","","","","","","","","","","","","","","","","","","",""
"","survey-multi-choice-replacement","78","412523","0.0-39.0-0.0","21034906","wem/bandit_party_2","A2UODQ3AUFVCTZ","either","2","7216","","","","","","","","","","","","","","","","","","","","","","","","Money will be added to the pool for <span style='color:blue;'>DEMOCRATS</span>","","","","","","","attn_check","","","","","","","","","0"
"","survey-multi-choice-replacement","79","417016","0.0-40.0-0.0","21034906","wem/bandit_party_2","A2UODQ3AUFVCTZ","either","2","3487","","","","","","","","","","","","","","","","","","","","","","","","Equal amounts of money will be added to the pool for <span style='color:blue;'>DEMOCRATS</span> and subtracted from the pool for <span style='color:red;'>REPUBLICANS</span>","","","","","","","attn_check","","","","","","","","","2"
"","survey-multi-choice-replacement","80","422730","0.0-41.0-0.0","21034906","wem/bandit_party_2","A2UODQ3AUFVCTZ","either","2","4708","","","","","","","","","","","","","","","","","","","","","","","","No money will be added to either pool","","","","","","","attn_check","","","","","","","","","3"
"","bandit","81","426737","0.0-42.0-0.0","21034906","wem/bandit_party_2","A2UODQ3AUFVCTZ","either","2","1500","","","","","","","0","1","0","","0.7092854079","0.8","0.4","0.6","0.2","0.7092854079","0.4841938304","0.9925337928","0.7961415707","","","","","","","","","","","","","","72","H","0","img/none_selected.jpg","","1","main_expt",""
"","bandit","82","428581","0.0-43.0-0.0","21034906","wem/bandit_party_2","A2UODQ3AUFVCTZ","either","2","337","","","","","","","0","0","1","0.7343230146","","0.8","0.4","0.6","0.2","","","","","0.7343230146","0.5300888233","0.9909612399","0.7739630809","","","","","","","","","","72","H","0","img/none_selected.jpg","","2","main_expt",""
"","bandit","83","430799","0.0-44.0-0.0","21034906","wem/bandit_party_2","A2UODQ3AUFVCTZ","either","2","713","","","","","","","0","0","1","","0.7616266478","0.8","0.4","0.6","0.2","0.7616266478","0.4747636274","0.9875934203","0.807852523","","","","","","","","","","","","","","72","H","0","img/none_selected.jpg","","3","main_expt",""
"","bandit","84","432834","0.0-45.0-0.0","21034906","wem/bandit_party_2","A2UODQ3AUFVCTZ","either","2","530","","","","","","","0","1","0","","0.4841015375","0.8","0.4","0.6","0.2","0.7555889459","0.4841015375","0.9782241123","0.7922386472","","","","","","","","","","","","","","74","J","1","","","4","main_expt",""
"","bandit","85","436289","0.0-46.0-0.0","21034906","wem/bandit_party_2","A2UODQ3AUFVCTZ","either","2","1948","","","","","","","0","1","0","","0.9756627961","0.8","0.4","0.6","0.2","0.733520678","0.5545204825","0.9756627961","0.865094385","","","","","","","","","","","","","","75","K","2","","","5","main_expt",""
"","bandit","86","438470","0.0-47.0-0.0","21034906","wem/bandit_party_2","A2UODQ3AUFVCTZ","either","2","675","","","","","","","0","1","0","","0.967089612","0.8","0.4","0.6","0.2","0.6705264102","0.6032406034","0.967089612","0.800956518","","","","","","","","","","","","","","75","K","2","","","6","main_expt",""
"","bandit","87","441273","0.0-48.0-0.0","21034906","wem/bandit_party_2","A2UODQ3AUFVCTZ","either","2","1298","","","","","","","1","0","0","0.9581374084","","0.8","0.4","0.6","0.2","","","","","0.6395389268","0.6629125932","0.9581374084","0.826484282","","","","","","","","","","75","K","2","","","7","main_expt",""
"","bandit","88","443484","0.0-49.0-0.0","21034906","wem/bandit_party_2","A2UODQ3AUFVCTZ","either","2","704","","","","","","","1","0","0","0.9470057872","","0.8","0.4","0.6","0.2","","","","","0.6463283336","0.6179372523","0.9470057872","0.8721258401","","","","","","","","","","75","K","2","","","8","main_expt",""
"","bandit","89","445871","0.0-50.0-0.0","21034906","wem/bandit_party_2","A2UODQ3AUFVCTZ","either","2","880","","","","","","","1","0","0","0.9776699295","","0.8","0.4","0.6","0.2","","","","","0.5257156782","0.7126464358","0.9776699295","0.9123847657","","","","","","","","","","75","K","2","","","9","main_expt",""
"","bandit","90","447856","0.0-51.0-0.0","21034906","wem/bandit_party_2","A2UODQ3AUFVCTZ","either","2","481","","","","","","","1","0","0","0.9728878591","","0.8","0.4","0.6","0.2","","","","","0.4763364632","0.7356985298","0.9728878591","0.8996742502","","","","","","","","","","75","K","2","","","10","main_expt",""
"","bandit","91","450179","0.0-52.0-0.0","21034906","wem/bandit_party_2","A2UODQ3AUFVCTZ","either","2","815","","","","","","","1","0","0","0.9593139104","","0.8","0.4","0.6","0.2","","","","","0.4284616273","0.768711937","0.9593139104","0.9131723876","","","","","","","","","","75","K","2","","","11","main_expt",""
"","bandit","92","452452","0.0-53.0-0.0","21034906","wem/bandit_party_2","A2UODQ3AUFVCTZ","either","2","768","","","","","","","1","0","0","0.9498917819","","0.8","0.4","0.6","0.2","","","","","0.3846657661","0.775032537","0.9498917819","0.8766857583","","","","","","","","","","75","K","2","","","12","main_expt",""
"","bandit","93","454337","0.0-54.0-0.0","21034906","wem/bandit_party_2","A2UODQ3AUFVCTZ","either","2","381","","","","","","","1","0","0","0.9541602679","","0.8","0.4","0.6","0.2","","","","","0.4534267517","0.8005481332","0.9541602679","0.8395211377","","","","","","","","","","75","K","2","","","13","main_expt",""
"","bandit","94","456586","0.0-55.0-0.0","21034906","wem/bandit_party_2","A2UODQ3AUFVCTZ","either","2","742","","","","","","","1","0","0","0.9457654821","","0.8","0.4","0.6","0.2","","","","","0.5781166702","0.8437703121","0.9457654821","0.8716273459","","","","","","","","","","75","K","2","","","14","main_expt",""
"","bandit","95","458424","0.0-56.0-0.0","21034906","wem/bandit_party_2","A2UODQ3AUFVCTZ","either","2","333","","","","","","","1","0","0","0.961431504","","0.8","0.4","0.6","0.2","","","","","0.6683268695","0.7878475566","0.961431504","0.8884181174","","","","","","","","","","75","K","2","","","15","main_expt",""
"","bandit","96","460349","0.0-57.0-0.0","21034906","wem/bandit_party_2","A2UODQ3AUFVCTZ","either","2","419","","","","","","","0","1","0","","0.9614480804","0.8","0.4","0.6","0.2","0.6948649322","0.7873795395","0.9614480804","0.9144873871","","","","","","","","","","","","","","75","K","2","","","16","main_expt",""
"","bandit","97","462176","0.0-58.0-0.0","21034906","wem/bandit_party_2","A2UODQ3AUFVCTZ","either","2","320","","","","","","","0","1","0","","0.981184269","0.8","0.4","0.6","0.2","0.7674725463","0.8084550093","0.981184269","0.915766025","","","","","","","","","","","","","","75","K","2","","","17","main_expt",""
"","bandit","98","464194","0.0-59.0-0.0","21034906","wem/bandit_party_2","A2UODQ3AUFVCTZ","either","2","511","","","","","","","1","0","0","0.9861919244","","0.8","0.4","0.6","0.2","","","","","0.7706733977","0.8436933745","0.9861919244","0.9357816117","","","","","","","","","","75","K","2","","","18","main_expt",""
"","bandit","99","466232","0.0-60.0-0.0","21034906","wem/bandit_party_2","A2UODQ3AUFVCTZ","either","2","533","","","","","","","1","0","0","0.986789567","","0.8","0.4","0.6","0.2","","","","","0.7396491891","0.8059530903","0.986789567","0.9482019282","","","","","","","","","","75","K","2","","","19","main_expt",""
"","bandit","100","468060","0.0-61.0-0.0","21034906","wem/bandit_party_2","A2UODQ3AUFVCTZ","either","2","322","","","","","","","0","1","0","","0.986183881","0.8","0.4","0.6","0.2","0.6712916173","0.7839513496","0.986183881","0.9433726768","","","","","","","","","","","","","","75","K","2","","","20","main_expt",""
"","bandit","101","469900","0.0-62.0-0.0","21034906","wem/bandit_party_2","A2UODQ3AUFVCTZ","either","2","334","","","","","","","0","1","0","","0.9887099493","0.8","0.4","0.6","0.2","0.6728887443","0.7841815244","0.9887099493","0.9488284628","","","","","","","","","","","","","","75","K","2","","","21","main_expt",""
"","bandit","102","472235","0.0-63.0-0.0","21034906","wem/bandit_party_2","A2UODQ3AUFVCTZ","either","2","828","","","","","","","1","0","0","0.992558567","","0.8","0.4","0.6","0.2","","","","","0.7838502077","0.8256278583","0.992558567","0.9500515088","","","","","","","","","","75","K","2","","","22","main_expt",""
"","bandit","103","474104","0.0-64.0-0.0","21034906","wem/bandit_party_2","A2UODQ3AUFVCTZ","either","2","364","","","","","","","1","0","0","0.9906074595","","0.8","0.4","0.6","0.2","","","","","0.8711917965","0.7043778873","0.9906074595","0.9645760881","","","","","","","","","","75","K","2","","","23","main_expt",""
"","bandit","104","475918","0.0-65.0-0.0","21034906","wem/bandit_party_2","A2UODQ3AUFVCTZ","either","2","309","","","","","","","1","0","0","0.9828703082","","0.8","0.4","0.6","0.2","","","","","0.861124964","0.7662705475","0.9828703082","0.946785539","","","","","","","","","","75","K","2","","","24","main_expt",""
"","bandit","105","478075","0.0-66.0-0.0","21034906","wem/bandit_party_2","A2UODQ3AUFVCTZ","either","2","651","","","","","","","0","1","0","","0.984618899","0.8","0.4","0.6","0.2","0.8551403996","0.6915147264","0.984618899","0.9229473608","","","","","","","","","","","","","","75","K","2","","","25","main_expt",""
"","bandit","106","480089","0.0-67.0-0.0","21034906","wem/bandit_party_2","A2UODQ3AUFVCTZ","either","2","510","","","","","","","1","0","0","0.9780938917","","0.8","0.4","0.6","0.2","","","","","0.8959771014","0.6844606422","0.9780938917","0.8729820127","","","","","","","","","","75","K","2","","","26","main_expt",""
"","bandit","107","481987","0.0-68.0-0.0","21034906","wem/bandit_party_2","A2UODQ3AUFVCTZ","either","2","392","","","","","","","1","0","0","0.9634866904","","0.8","0.4","0.6","0.2","","","","","0.8786292531","0.7953701942","0.9634866904","0.859067388","","","","","","","","","","75","K","2","","","27","main_expt",""
"","bandit","108","484073","0.0-69.0-0.0","21034906","wem/bandit_party_2","A2UODQ3AUFVCTZ","either","2","580","","","","","","","0","1","0","","0.946494378","0.8","0.4","0.6","0.2","0.8920593834","0.622657036","0.946494378","0.836267867","","","","","","","","","","","","","","75","K","2","","","28","main_expt",""
"","bandit","109","486414","0.0-70.0-0.0","21034906","wem/bandit_party_2","A2UODQ3AUFVCTZ","either","2","837","","","","","","","0","1","0","","0.9338647731","0.8","0.4","0.6","0.2","0.8234517222","0.5757463716","0.9338647731","0.7158546556","","","","","","","","","","","","","","75","K","2","","","29","main_expt",""
"","bandit","110","488738","0.0-71.0-0.0","21034906","wem/bandit_party_2","A2UODQ3AUFVCTZ","either","2","818","","","","","","","0","0","1","0.9354801528","","0.8","0.4","0.6","0.2","","","","","0.7963444676","0.6048158844","0.9354801528","0.7262950886","","","","","","","","","","75","K","2","","","30","main_expt",""
"","bandit","111","490687","0.0-72.0-0.0","21034906","wem/bandit_party_2","A2UODQ3AUFVCTZ","either","2","444","","","","","","","0","1","0","","0.9323861487","0.8","0.4","0.6","0.2","0.6847131082","0.4831208743","0.9323861487","0.7049485024","","","","","","","","","","","","","","75","K","2","","","31","main_expt",""
"","bandit","112","492478","0.0-73.0-0.0","21034906","wem/bandit_party_2","A2UODQ3AUFVCTZ","either","2","283","","","","","","","1","0","0","0.9159531952","","0.8","0.4","0.6","0.2","","","","","0.7745616343","0.4413454117","0.9159531952","0.6294605358","","","","","","","","","","75","K","2","","","32","main_expt",""
"","bandit","113","494501","0.0-74.0-0.0","21034906","wem/bandit_party_2","A2UODQ3AUFVCTZ","either","2","518","","","","","","","0","1","0","","0.9501333659","0.8","0.4","0.6","0.2","0.8111568365","0.589686364","0.9501333659","0.7097184707","","","","","","","","","","","","","","75","K","2","","","33","main_expt",""
"","bandit","114","496308","0.0-75.0-0.0","21034906","wem/bandit_party_2","A2UODQ3AUFVCTZ","either","2","299","","","","","","","0","1","0","","0.9485118263","0.8","0.4","0.6","0.2","0.7291364049","0.5789977489","0.9485118263","0.6324728327","","","","","","","","","","","","","","75","K","2","","","34","main_expt",""
"","bandit","115","498378","0.0-76.0-0.0","21034906","wem/bandit_party_2","A2UODQ3AUFVCTZ","either","2","564","","","","","","","0","1","0","","0.959491173","0.8","0.4","0.6","0.2","0.7920219322","0.5605822786","0.959491173","0.6809104991","","","","","","","","","","","","","","75","K","2","","","35","main_expt",""
"","bandit","116","500679","0.0-77.0-0.0","21034906","wem/bandit_party_2","A2UODQ3AUFVCTZ","either","2","796","","","","","","","1","0","0","0.9523687656","","0.8","0.4","0.6","0.2","","","","","0.7889809596","0.3330948712","0.9523687656","0.5745256001","","","","","","","","","","75","K","2","","","36","main_expt",""
"","bandit","117","502648","0.0-78.0-0.0","21034906","wem/bandit_party_2","A2UODQ3AUFVCTZ","either","2","462","","","","","","","1","0","0","0.9504344127","","0.8","0.4","0.6","0.2","","","","","0.8060385269","0.2430176499","0.9504344127","0.6249275122","","","","","","","","","","75","K","2","","","37","main_expt",""
"","bandit","118","504782","0.0-79.0-0.0","21034906","wem/bandit_party_2","A2UODQ3AUFVCTZ","either","2","628","","","","","","","0","1","0","","0.9321408283","0.8","0.4","0.6","0.2","0.7188782676","0.3106083343","0.9321408283","0.5582777804","","","","","","","","","","","","","","75","K","2","","","38","main_expt",""
"","bandit","119","507280","0.0-80.0-0.0","21034906","wem/bandit_party_2","A2UODQ3AUFVCTZ","either","2","992","","","","","","","0","1","0","","0.9135525369","0.8","0.4","0.6","0.2","0.7387945131","0.3239447463","0.9135525369","0.6619895395","","","","","","","","","","","","","","75","K","2","","","39","main_expt",""
"","bandit","120","510025","0.0-81.0-0.0","21034906","wem/bandit_party_2","A2UODQ3AUFVCTZ","either","2","1239","","","","","","","1","0","0","0.8840916364","","0.8","0.4","0.6","0.2","","","","","0.7478035428","0.2946631509","0.8840916364","0.6522152691","","","","","","","","","","75","K","2","","","40","main_expt",""
"","bandit","121","512279","0.0-82.0-0.0","21034906","wem/bandit_party_2","A2UODQ3AUFVCTZ","either","2","747","","","","","","","1","0","0","0.8747037504","","0.8","0.4","0.6","0.2","","","","","0.7802386085","0.193597671","0.8747037504","0.6714070371","","","","","","","","","","75","K","2","","","41","main_expt",""
"","bandit","122","514673","0.0-83.0-0.0","21034906","wem/bandit_party_2","A2UODQ3AUFVCTZ","either","2","888","","","","","","","0","1","0","","0.826315498","0.8","0.4","0.6","0.2","0.7994277013","0.1834529884","0.826315498","0.6390104416","","","","","","","","","","","","","","75","K","2","","","42","main_expt",""
"","bandit","123","516754","0.0-84.0-0.0","21034906","wem/bandit_party_2","A2UODQ3AUFVCTZ","either","2","577","","","","","","","1","0","0","0.8718069658","","0.8","0.4","0.6","0.2","","","","","0.8718069658","0.1558663495","0.7681371561","0.6318841448","","","","","","","","","","72","H","0","img/none_selected.jpg","","43","main_expt",""
"","bandit","124","518607","0.0-85.0-0.0","21034906","wem/bandit_party_2","A2UODQ3AUFVCTZ","either","2","347","","","","","","","1","0","0","0.7725207311","","0.8","0.4","0.6","0.2","","","","","0.7725207311","0.1573065196","0.7584360225","0.5708139437","","","","","","","","","","72","H","0","img/none_selected.jpg","","44","main_expt",""
"","bandit","125","520433","0.0-86.0-0.0","21034906","wem/bandit_party_2","A2UODQ3AUFVCTZ","either","2","321","","","","","","","1","0","0","0.8399140445","","0.8","0.4","0.6","0.2","","","","","0.8399140445","0.1743203636","0.816959585","0.5703812278","","","","","","","","","","72","H","0","img/none_selected.jpg","","45","main_expt",""
"","bandit","126","522241","0.0-87.0-0.0","21034906","wem/bandit_party_2","A2UODQ3AUFVCTZ","either","2","303","","","","","","","1","0","0","0.7830678696","","0.8","0.4","0.6","0.2","","","","","0.7830678696","0.1234040722","0.7571269921","0.4520700595","","","","","","","","","","72","H","0","img/none_selected.jpg","","46","main_expt",""
"","bandit","127","524252","0.0-88.0-0.0","21034906","wem/bandit_party_2","A2UODQ3AUFVCTZ","either","2","506","","","","","","","1","0","0","0.8255209912","","0.8","0.4","0.6","0.2","","","","","0.8255209912","0.1592846429","0.7086567283","0.4953600952","","","","","","","","","","72","H","0","img/none_selected.jpg","","47","main_expt",""
"","bandit","128","526141","0.0-89.0-0.0","21034906","wem/bandit_party_2","A2UODQ3AUFVCTZ","either","2","384","","","","","","","1","0","0","0.7728754614","","0.8","0.4","0.6","0.2","","","","","0.7728754614","0.1880090658","0.6428227569","0.4912921637","","","","","","","","","","72","H","0","img/none_selected.jpg","","48","main_expt",""
"","bandit","129","527982","0.0-90.0-0.0","21034906","wem/bandit_party_2","A2UODQ3AUFVCTZ","either","2","335","","","","","","","1","0","0","0.8607162984","","0.8","0.4","0.6","0.2","","","","","0.8607162984","0.3190576765","0.7004196772","0.4694413912","","","","","","","","","","72","H","0","img/none_selected.jpg","","49","main_expt",""
"","bandit","130","530199","0.0-91.0-0.0","21034906","wem/bandit_party_2","A2UODQ3AUFVCTZ","either","2","711","","","","","","","0","1","0","","0.8526113732","0.8","0.4","0.6","0.2","0.8526113732","0.277770718","0.6418514465","0.5835687148","","","","","","","","","","","","","","72","H","0","img/none_selected.jpg","","50","main_expt",""
"","bandit","131","532064","0.0-92.0-0.0","21034906","wem/bandit_party_2","A2UODQ3AUFVCTZ","either","2","358","","","","","","","1","0","0","0.8630835666","","0.8","0.4","0.6","0.2","","","","","0.8630835666","0.3304163056","0.6322169777","0.581499138","","","","","","","","","","72","H","0","img/none_selected.jpg","","51","main_expt",""
"","bandit","132","533848","0.0-93.0-0.0","21034906","wem/bandit_party_2","A2UODQ3AUFVCTZ","either","2","279","","","","","","","1","0","0","0.8689990829","","0.8","0.4","0.6","0.2","","","","","0.8689990829","0.3074301744","0.6160259873","0.6521379128","","","","","","","","","","72","H","0","img/none_selected.jpg","","52","main_expt",""
"","bandit","133","535661","0.0-94.0-0.0","21034906","wem/bandit_party_2","A2UODQ3AUFVCTZ","either","2","307","","","","","","","0","1","0","","0.8829627288","0.8","0.4","0.6","0.2","0.8829627288","0.3292402402","0.6635838846","0.5743957808","","","","","","","","","","","","","","72","H","0","img/none_selected.jpg","","53","main_expt",""
"","bandit","134","537469","0.0-95.0-0.0","21034906","wem/bandit_party_2","A2UODQ3AUFVCTZ","either","2","302","","","","","","","1","0","0","0.8577096669","","0.8","0.4","0.6","0.2","","","","","0.8577096669","0.3701383524","0.7334380463","0.4765250731","","","","","","","","","","72","H","0","img/none_selected.jpg","","54","main_expt",""
"","bandit","135","539270","0.0-96.0-0.0","21034906","wem/bandit_party_2","A2UODQ3AUFVCTZ","either","2","296","","","","","","","0","1","0","","0.7951355038","0.8","0.4","0.6","0.2","0.7951355038","0.4023440482","0.6625049704","0.472038817","","","","","","","","","","","","","","72","H","0","img/none_selected.jpg","","55","main_expt",""
"","bandit","136","541432","0.0-97.0-0.0","21034906","wem/bandit_party_2","A2UODQ3AUFVCTZ","either","2","654","","","","","","","1","0","0","0.7832403428","","0.8","0.4","0.6","0.2","","","","","0.7832403428","0.3320470731","0.6244126183","0.6060805283","","","","","","","","","","72","H","0","img/none_selected.jpg","","56","main_expt",""
"","bandit","137","543287","0.0-98.0-0.0","21034906","wem/bandit_party_2","A2UODQ3AUFVCTZ","either","2","349","","","","","","","1","0","0","0.7165346004","","0.8","0.4","0.6","0.2","","","","","0.7165346004","0.3398704556","0.693445159","0.5733746242","","","","","","","","","","72","H","0","img/none_selected.jpg","","57","main_expt",""
"","bandit","138","545135","0.0-99.0-0.0","21034906","wem/bandit_party_2","A2UODQ3AUFVCTZ","either","2","342","","","","","","","0","1","0","","0.7840704931","0.8","0.4","0.6","0.2","0.7840704931","0.3171476707","0.6603141298","0.5268086549","","","","","","","","","","","","","","72","H","0","img/none_selected.jpg","","58","main_expt",""
"","bandit","139","546988","0.0-100.0-0.0","21034906","wem/bandit_party_2","A2UODQ3AUFVCTZ","either","2","347","","","","","","","1","0","0","0.7166558068","","0.8","0.4","0.6","0.2","","","","","0.7166558068","0.1868584885","0.6435133917","0.5298916697","","","","","","","","","","72","H","0","img/none_selected.jpg","","59","main_expt",""
"","bandit","140","548973","0.0-101.0-0.0","21034906","wem/bandit_party_2","A2UODQ3AUFVCTZ","either","2","479","","","","","","","1","0","0","0.6505055492","","0.8","0.4","0.6","0.2","","","","","0.6505055492","0.2163153633","0.6720075741","0.5547432704","","","","","","","","","","72","H","0","img/none_selected.jpg","","60","main_expt",""
"","bandit","141","550855","0.0-102.0-0.0","21034906","wem/bandit_party_2","A2UODQ3AUFVCTZ","either","2","375","","","","","","","1","0","0","0.6465946667","","0.8","0.4","0.6","0.2","","","","","0.6465946667","0.2086512551","0.6703611074","0.5407031957","","","","","","","","","","72","H","0","img/none_selected.jpg","","61","main_expt",""
"","bandit","142","552930","0.0-103.0-0.0","21034906","wem/bandit_party_2","A2UODQ3AUFVCTZ","either","2","568","","","","","","","1","0","0","0.709990362","","0.8","0.4","0.6","0.2","","","","","0.709990362","0.2250062338","0.64477312","0.6993449034","","","","","","","","","","72","H","0","img/none_selected.jpg","","62","main_expt",""
"","bandit","143","554834","0.0-104.0-0.0","21034906","wem/bandit_party_2","A2UODQ3AUFVCTZ","either","2","397","","","","","","","0","1","0","","0.7542168012","0.8","0.4","0.6","0.2","0.7542168012","0.2739380208","0.509049177","0.6342967703","","","","","","","","","","","","","","72","H","0","img/none_selected.jpg","","63","main_expt",""
"","bandit","144","556871","0.0-105.0-0.0","21034906","wem/bandit_party_2","A2UODQ3AUFVCTZ","either","2","532","","","","","","","1","0","0","0.7660604158","","0.8","0.4","0.6","0.2","","","","","0.7660604158","0.3449536465","0.5535424332","0.5961490325","","","","","","","","","","72","H","0","img/none_selected.jpg","","64","main_expt",""
"","bandit","145","559038","0.0-106.0-0.0","21034906","wem/bandit_party_2","A2UODQ3AUFVCTZ","either","2","661","","","","","","","1","0","0","0.7572602099","","0.8","0.4","0.6","0.2","","","","","0.7572602099","0.34640195","0.6608621899","0.5771190674","","","","","","","","","","72","H","0","img/none_selected.jpg","","65","main_expt",""
"","bandit","146","560855","0.0-107.0-0.0","21034906","wem/bandit_party_2","A2UODQ3AUFVCTZ","either","2","308","","","","","","","1","0","0","0.686926195","","0.8","0.4","0.6","0.2","","","","","0.686926195","0.5266288285","0.6535341977","0.4765921407","","","","","","","","","","72","H","0","img/none_selected.jpg","","66","main_expt",""
"","bandit","147","562817","0.0-108.0-0.0","21034906","wem/bandit_party_2","A2UODQ3AUFVCTZ","either","2","458","","","","","","","0","0","1","0.7334195653","","0.8","0.4","0.6","0.2","","","","","0.7334195653","0.5588671697","0.6592628399","0.5714361875","","","","","","","","","","72","H","0","img/none_selected.jpg","","67","main_expt",""
"","bandit","148","564648","0.0-109.0-0.0","21034906","wem/bandit_party_2","A2UODQ3AUFVCTZ","either","2","324","","","","","","","0","0","1","0.6114245881","","0.8","0.4","0.6","0.2","","","","","0.6114245881","0.6097536784","0.6735013879","0.6231829193","","","","","","","","","","72","H","0","img/none_selected.jpg","","68","main_expt",""
"","bandit","149","568060","0.0-110.0-0.0","21034906","wem/bandit_party_2","A2UODQ3AUFVCTZ","either","2","1906","","","","","","","0","1","0","","0.533457584","0.8","0.4","0.6","0.2","0.6460921668","0.533457584","0.7209687993","0.5130256365","","","","","","","","","","","","","","74","J","1","","","69","main_expt",""
"","bandit","150","570019","0.0-111.0-0.0","21034906","wem/bandit_party_2","A2UODQ3AUFVCTZ","either","2","452","","","","","","","0","0","1","0.4124750721","","0.8","0.4","0.6","0.2","","","","","0.6700702736","0.4124750721","0.690528825","0.5167166","","","","","","","","","","74","J","1","","","70","main_expt",""
"","bandit","151","571915","0.0-112.0-0.0","21034906","wem/bandit_party_2","A2UODQ3AUFVCTZ","either","2","391","","","","","","","1","0","0","0.6388012411","","0.8","0.4","0.6","0.2","","","","","0.6388012411","0.4486526525","0.6453310316","0.6448170737","","","","","","","","","","72","H","0","img/none_selected.jpg","","71","main_expt",""
"","bandit","152","573749","0.0-113.0-0.0","21034906","wem/bandit_party_2","A2UODQ3AUFVCTZ","either","2","327","","","","","","","0","0","1","0.6046900378","","0.8","0.4","0.6","0.2","","","","","0.6046900378","0.4313602212","0.8140348339","0.5640434706","","","","","","","","","","72","H","0","img/none_selected.jpg","","72","main_expt",""
"","bandit","153","575752","0.0-114.0-0.0","21034906","wem/bandit_party_2","A2UODQ3AUFVCTZ","either","2","496","","","","","","","1","0","0","0.820931829","","0.8","0.4","0.6","0.2","","","","","0.6062428704","0.3639072561","0.820931829","0.6296110197","","","","","","","","","","75","K","2","","","73","main_expt",""
"","bandit","154","577613","0.0-115.0-0.0","21034906","wem/bandit_party_2","A2UODQ3AUFVCTZ","either","2","357","","","","","","","0","0","1","0.8096233945","","0.8","0.4","0.6","0.2","","","","","0.6237194739","0.2882181569","0.8096233945","0.6730210969","","","","","","","","","","75","K","2","","","74","main_expt",""
"","bandit","155","580823","0.0-116.0-0.0","21034906","wem/bandit_party_2","A2UODQ3AUFVCTZ","either","2","1704","","","","","","","0","0","1","","0.5720403827","0.8","0.4","0.6","0.2","0.5971007372","0.3561187133","0.7615001707","0.5720403827","","","","","","","","","","","","","","76","L","3","","","75","main_expt",""
"","bandit","156","582954","0.0-117.0-0.0","21034906","wem/bandit_party_2","A2UODQ3AUFVCTZ","either","2","624","","","","","","","1","0","0","0.8147365981","","0.8","0.4","0.6","0.2","","","","","0.5810032438","0.4480894403","0.8147365981","0.6303512149","","","","","","","","","","75","K","2","","","76","main_expt",""
"","bandit","157","584837","0.0-118.0-0.0","21034906","wem/bandit_party_2","A2UODQ3AUFVCTZ","either","2","376","","","","","","","0","1","0","","0.8926338818","0.8","0.4","0.6","0.2","0.5792233978","0.3220850356","0.8926338818","0.5531797874","","","","","","","","","","","","","","75","K","2","","","77","main_expt",""
"","bandit","158","586717","0.0-119.0-0.0","21034906","wem/bandit_party_2","A2UODQ3AUFVCTZ","either","2","373","","","","","","","0","0","1","0.8669072201","","0.8","0.4","0.6","0.2","","","","","0.692511921","0.3281133775","0.8669072201","0.5449672882","","","","","","","","","","75","K","2","","","78","main_expt",""
"","bandit","159","588719","0.0-120.0-0.0","21034906","wem/bandit_party_2","A2UODQ3AUFVCTZ","either","2","494","","","","","","","1","0","0","0.9114006046","","0.8","0.4","0.6","0.2","","","","","0.7019625083","0.3814329202","0.9114006046","0.4484013318","","","","","","","","","","75","K","2","","","79","main_expt",""
"","bandit","160","590562","0.0-121.0-0.0","21034906","wem/bandit_party_2","A2UODQ3AUFVCTZ","either","2","338","","","","","","","1","0","0","0.9268398106","","0.8","0.4","0.6","0.2","","","","","0.6785675641","0.3512572076","0.9268398106","0.5041425745","","","","","","","","","","75","K","2","","","80","main_expt",""
"","bandit","161","592431","0.0-122.0-0.0","21034906","wem/bandit_party_2","A2UODQ3AUFVCTZ","either","2","364","","","","","","","1","0","0","0.9582858862","","0.8","0.4","0.6","0.2","","","","","0.7101061672","0.3624285329","0.9582858862","0.3462078978","","","","","","","","","","75","K","2","","","81","main_expt",""
"","bandit","162","594978","0.0-123.0-0.0","21034906","wem/bandit_party_2","A2UODQ3AUFVCTZ","either","2","1040","","","","","","","0","1","0","","0.9590071975","0.8","0.4","0.6","0.2","0.7217376576","0.3111883408","0.9590071975","0.3226795418","","","","","","","","","","","","","","75","K","2","","","82","main_expt",""
"","bandit","163","597053","0.0-124.0-0.0","21034906","wem/bandit_party_2","A2UODQ3AUFVCTZ","either","2","569","","","","","","","1","0","0","0.9379973093","","0.8","0.4","0.6","0.2","","","","","0.6437777395","0.243162563","0.9379973093","0.3023868023","","","","","","","","","","75","K","2","","","83","main_expt",""
"","bandit","164","599156","0.0-125.0-0.0","21034906","wem/bandit_party_2","A2UODQ3AUFVCTZ","either","2","596","","","","","","","1","0","0","0.9411979228","","0.8","0.4","0.6","0.2","","","","","0.6533183273","0.347146949","0.9411979228","0.4040419094","","","","","","","","","","75","K","2","","","84","main_expt",""
"","bandit","165","601407","0.0-126.0-0.0","21034906","wem/bandit_party_2","A2UODQ3AUFVCTZ","either","2","745","","","","","","","1","0","0","0.9441700551","","0.8","0.4","0.6","0.2","","","","","0.7469548387","0.4416309426","0.9441700551","0.4716136817","","","","","","","","","","75","K","2","","","85","main_expt",""
"","bandit","166","603603","0.0-127.0-0.0","21034906","wem/bandit_party_2","A2UODQ3AUFVCTZ","either","2","689","","","","","","","0","1","0","","0.9323605113","0.8","0.4","0.6","0.2","0.7366570046","0.4523797492","0.9323605113","0.4455883603","","","","","","","","","","","","","","75","K","2","","","86","main_expt",""
"","bandit","167","605824","0.0-128.0-0.0","21034906","wem/bandit_party_2","A2UODQ3AUFVCTZ","either","2","715","","","","","","","1","0","0","0.7142428019","","0.8","0.4","0.6","0.2","","","","","0.7142428019","0.4621103264","0.8871332711","0.5952575165","","","","","","","","","","72","H","0","img/none_selected.jpg","","87","main_expt",""
"","bandit","168","608163","0.0-129.0-0.0","21034906","wem/bandit_party_2","A2UODQ3AUFVCTZ","either","2","832","","","","","","","0","0","1","0.8520973281","","0.8","0.4","0.6","0.2","","","","","0.7057172343","0.3800084876","0.8520973281","0.5333825583","","","","","","","","","","75","K","2","","","88","main_expt",""
"","bandit","169","610058","0.0-130.0-0.0","21034906","wem/bandit_party_2","A2UODQ3AUFVCTZ","either","2","390","","","","","","","1","0","0","0.7289934888","","0.8","0.4","0.6","0.2","","","","","0.7289934888","0.2354372355","0.7882210871","0.4583166828","","","","","","","","","","72","H","0","img/none_selected.jpg","","89","main_expt",""
"","bandit","170","611854","0.0-131.0-0.0","21034906","wem/bandit_party_2","A2UODQ3AUFVCTZ","either","2","288","","","","","","","0","1","0","","0.7475354559","0.8","0.4","0.6","0.2","0.7475354559","0.2978482647","0.720110267","0.4782349553","","","","","","","","","","","","","","72","H","0","img/none_selected.jpg","","90","main_expt",""
"","bandit","171","614169","0.0-132.0-0.0","21034906","wem/bandit_party_2","A2UODQ3AUFVCTZ","either","2","810","","","","","","","1","0","0","0.6316706059","","0.8","0.4","0.6","0.2","","","","","0.6316706059","0.3723871884","0.7390342074","0.464138054","","","","","","","","","","72","H","0","img/none_selected.jpg","","91","main_expt",""
"","bandit","172","616240","0.0-133.0-0.0","21034906","wem/bandit_party_2","A2UODQ3AUFVCTZ","either","2","565","","","","","","","1","0","0","0.6957908828","","0.8","0.4","0.6","0.2","","","","","0.6957908828","0.5400298203","0.8135224625","0.5084128334","","","","","","","","","","72","H","0","img/none_selected.jpg","","92","main_expt",""
"","bandit","173","618227","0.0-134.0-0.0","21034906","wem/bandit_party_2","A2UODQ3AUFVCTZ","either","2","480","","","","","","","0","0","1","0.6812665662","","0.8","0.4","0.6","0.2","","","","","0.6812665662","0.5134744583","0.7814404678","0.5211356389","","","","","","","","","","72","H","0","img/none_selected.jpg","","93","main_expt",""
"","bandit","174","620230","0.0-135.0-0.0","21034906","wem/bandit_party_2","A2UODQ3AUFVCTZ","either","2","496","","","","","","","1","0","0","0.4101580275","","0.8","0.4","0.6","0.2","","","","","0.6412933588","0.4101580275","0.7672416568","0.4554037602","","","","","","","","","","74","J","1","","","94","main_expt",""
"","bandit","175","622085","0.0-136.0-0.0","21034906","wem/bandit_party_2","A2UODQ3AUFVCTZ","either","2","347","","","","","","","0","0","1","","0.2995167601","0.8","0.4","0.6","0.2","0.5696630174","0.2995167601","0.7573973965","0.4195046205","","","","","","","","","","","","","","74","J","1","","","95","main_expt",""
"","bandit","176","624025","0.0-137.0-0.0","21034906","wem/bandit_party_2","A2UODQ3AUFVCTZ","either","2","433","","","","","","","1","0","0","0.2934894425","","0.8","0.4","0.6","0.2","","","","","0.6076398096","0.2934894425","0.8177369732","0.3638478563","","","","","","","","","","74","J","1","","","96","main_expt",""
"","bandit","177","625932","0.0-138.0-0.0","21034906","wem/bandit_party_2","A2UODQ3AUFVCTZ","either","2","401","","","","","","","0","0","1","0.2802715202","","0.8","0.4","0.6","0.2","","","","","0.5551612935","0.2802715202","0.8124666872","0.2839735208","","","","","","","","","","74","J","1","","","97","main_expt",""
"","bandit","178","627704","0.0-139.0-0.0","21034906","wem/bandit_party_2","A2UODQ3AUFVCTZ","either","2","266","","","","","","","0","0","1","0.2703087955","","0.8","0.4","0.6","0.2","","","","","0.6354974245","0.2703087955","0.881496875","0.2109275999","","","","","","","","","","74","J","1","","","98","main_expt",""
"","bandit","179","629858","0.0-140.0-0.0","21034906","wem/bandit_party_2","A2UODQ3AUFVCTZ","either","2","649","","","","","","","0","0","1","","0.3027543159","0.8","0.4","0.6","0.2","0.5945745664","0.3027543159","0.8785981907","0.1531506719","","","","","","","","","","","","","","74","J","1","","","99","main_expt",""
"","bandit","180","632142","0.0-141.0-0.0","21034906","wem/bandit_party_2","A2UODQ3AUFVCTZ","either","2","779","","","","","","","1","0","0","0.5679097985","","0.8","0.4","0.6","0.2","","","","","0.5679097985","0.3645318829","0.8494581726","0.1262108991","","","","","","","","","","72","H","0","img/none_selected.jpg","","100","main_expt",""
"","bandit","181","634575","0.0-142.0-0.0","21034906","wem/bandit_party_2","A2UODQ3AUFVCTZ","either","2","927","","","","","","","1","0","0","0.6430580454","","0.8","0.4","0.6","0.2","","","","","0.6430580454","0.4315832637","0.7754784616","0.1340220502","","","","","","","","","","72","H","0","img/none_selected.jpg","","101","main_expt",""
"","bandit","182","636539","0.0-143.0-0.0","21034906","wem/bandit_party_2","A2UODQ3AUFVCTZ","either","2","457","","","","","","","1","0","0","0.6340200926","","0.8","0.4","0.6","0.2","","","","","0.6340200926","0.3608531129","0.7626736499","0.2167126086","","","","","","","","","","72","H","0","img/none_selected.jpg","","102","main_expt",""
"","bandit","183","638684","0.0-144.0-0.0","21034906","wem/bandit_party_2","A2UODQ3AUFVCTZ","either","2","638","","","","","","","1","0","0","0.6377668076","","0.8","0.4","0.6","0.2","","","","","0.6377668076","0.3688981903","0.7329996306","0.2796352144","","","","","","","","","","72","H","0","img/none_selected.jpg","","103","main_expt",""
"","bandit","184","640620","0.0-145.0-0.0","21034906","wem/bandit_party_2","A2UODQ3AUFVCTZ","either","2","429","","","","","","","1","0","0","0.6578341575","","0.8","0.4","0.6","0.2","","","","","0.6578341575","0.3758155051","0.7467689404","0.3556406549","","","","","","","","","","72","H","0","img/none_selected.jpg","","104","main_expt",""
"","bandit","185","642446","0.0-146.0-0.0","21034906","wem/bandit_party_2","A2UODQ3AUFVCTZ","either","2","318","","","","","","","1","0","0","0.6727034752","","0.8","0.4","0.6","0.2","","","","","0.6727034752","0.4508947075","0.737018723","0.3233911601","","","","","","","","","","72","H","0","img/none_selected.jpg","","105","main_expt",""
"","bandit","186","644293","0.0-147.0-0.0","21034906","wem/bandit_party_2","A2UODQ3AUFVCTZ","either","2","341","","","","","","","0","0","1","0.6386482702","","0.8","0.4","0.6","0.2","","","","","0.6386482702","0.4132181144","0.655194185","0.2024631506","","","","","","","","","","72","H","0","img/none_selected.jpg","","106","main_expt",""
"","bandit","187","646701","0.0-148.0-0.0","21034906","wem/bandit_party_2","A2UODQ3AUFVCTZ","either","2","901","","","","","","","1","0","0","0.4393512677","","0.8","0.4","0.6","0.2","","","","","0.6788938686","0.4393512677","0.7122819559","0.2290393164","","","","","","","","","","74","J","1","","","107","main_expt",""
"","bandit","188","649085","0.0-149.0-0.0","21034906","wem/bandit_party_2","A2UODQ3AUFVCTZ","either","2","879","","","","","","","0","0","1","","0.4964319729","0.8","0.4","0.6","0.2","0.7076498576","0.4964319729","0.7326995505","0.2217712157","","","","","","","","","","","","","","74","J","1","","","108","main_expt",""
"","bandit","189","651378","0.0-150.0-0.0","21034906","wem/bandit_party_2","A2UODQ3AUFVCTZ","either","2","788","","","","","","","1","0","0","0.6932550908","","0.8","0.4","0.6","0.2","","","","","0.6932550908","0.4790921069","0.7165499475","0.1566860935","","","","","","","","","","72","H","0","img/none_selected.jpg","","109","main_expt",""
"","bandit","190","653244","0.0-151.0-0.0","21034906","wem/bandit_party_2","A2UODQ3AUFVCTZ","either","2","360","","","","","","","0","0","1","0.7436061547","","0.8","0.4","0.6","0.2","","","","","0.7436061547","0.5856434505","0.6058017554","0.1083987113","","","","","","","","","","72","H","0","img/none_selected.jpg","","110","main_expt",""
"","bandit","191","654939","0.0-152.0-0.0","21034906","wem/bandit_party_2","A2UODQ3AUFVCTZ","either","2","188","","","","","","","1","0","0","0.5476823758","","0.8","0.4","0.6","0.2","","","","","0.657194241","0.6444230696","0.5476823758","0.217828795","","","","","","","","","","75","K","2","","","111","main_expt",""
"","bandit","192","656722","0.0-153.0-0.0","21034906","wem/bandit_party_2","A2UODQ3AUFVCTZ","either","2","276","","","","","","","0","0","1","","0.5688313193","0.8","0.4","0.6","0.2","0.6317228327","0.603417252","0.5688313193","0.2212119155","","","","","","","","","","","","","","75","K","2","","","112","main_expt",""
"","bandit","193","658711","0.0-154.0-0.0","21034906","wem/bandit_party_2","A2UODQ3AUFVCTZ","either","2","484","","","","","","","0","0","1","","0.2374112476","0.8","0.4","0.6","0.2","0.4985892417","0.420613871","0.50852785","0.2374112476","","","","","","","","","","","","","","76","L","3","","","113","main_expt",""
"","bandit","194","660493","0.0-155.0-0.0","21034906","wem/bandit_party_2","A2UODQ3AUFVCTZ","either","2","276","","","","","","","0","0","1","0.2703699348","","0.8","0.4","0.6","0.2","","","","","0.579071345","0.2851569533","0.5711084253","0.2703699348","","","","","","","","","","76","L","3","","","114","main_expt",""
"","bandit","195","662389","0.0-156.0-0.0","21034906","wem/bandit_party_2","A2UODQ3AUFVCTZ","either","2","389","","","","","","","1","0","0","0.4177754351","","0.8","0.4","0.6","0.2","","","","","0.4595939904","0.3166589884","0.4177754351","0.1928485376","","","","","","","","","","75","K","2","","","115","main_expt",""
"","bandit","196","664154","0.0-157.0-0.0","21034906","wem/bandit_party_2","A2UODQ3AUFVCTZ","either","2","259","","","","","","","0","0","1","0.387840809","","0.8","0.4","0.6","0.2","","","","","0.3744567546","0.3928451607","0.387840809","0.136356343","","","","","","","","","","75","K","2","","","116","main_expt",""
"","bandit","197","665926","0.0-158.0-0.0","21034906","wem/bandit_party_2","A2UODQ3AUFVCTZ","either","2","265","","","","","","","1","0","0","0.4456731606","","0.8","0.4","0.6","0.2","","","","","0.302145019","0.560845346","0.4456731606","0.2193113504","","","","","","","","","","75","K","2","","","117","main_expt",""
"","bandit","198","668018","0.0-159.0-0.0","21034906","wem/bandit_party_2","A2UODQ3AUFVCTZ","either","2","584","","","","","","","0","1","0","","0.3045880574","0.8","0.4","0.6","0.2","0.3522466686","0.5536818424","0.3045880574","0.2686792008","","","","","","","","","","","","","","75","K","2","","","118","main_expt",""
"","bandit","199","670183","0.0-160.0-0.0","21034906","wem/bandit_party_2","A2UODQ3AUFVCTZ","either","2","658","","","","","","","0","0","1","","0.3994134075","0.8","0.4","0.6","0.2","0.4425542362","0.3617659687","0.3994134075","0.2668270476","","","","","","","","","","","","","","75","K","2","","","119","main_expt",""
"","bandit","200","672256","0.0-161.0-0.0","21034906","wem/bandit_party_2","A2UODQ3AUFVCTZ","either","2","566","","","","","","","1","0","0","0.351449483","","0.8","0.4","0.6","0.2","","","","","0.3377532805","0.3454740543","0.351449483","0.3723992114","","","","","","","","","","75","K","2","","","120","main_expt",""
"","bandit","201","674074","0.0-162.0-0.0","21034906","wem/bandit_party_2","A2UODQ3AUFVCTZ","either","2","311","","","","","","","1","0","0","0.3641911367","","0.8","0.4","0.6","0.2","","","","","0.2929504356","0.2798257893","0.3641911367","0.4001238515","","","","","","","","","","75","K","2","","","121","main_expt",""
"","bandit","202","675975","0.0-163.0-0.0","21034906","wem/bandit_party_2","A2UODQ3AUFVCTZ","either","2","393","","","","","","","0","0","1","0.2673706252","","0.8","0.4","0.6","0.2","","","","","0.2504028886","0.2261540995","0.2673706252","0.4090120715","","","","","","","","","","75","K","2","","","122","main_expt",""
"","bandit","203","678248","0.0-164.0-0.0","21034906","wem/bandit_party_2","A2UODQ3AUFVCTZ","either","2","767","","","","","","","0","0","1","0.3455372181","","0.8","0.4","0.6","0.2","","","","","0.2414849785","0.2766663047","0.3455372181","0.4746108064","","","","","","","","","","75","K","2","","","123","main_expt",""
"","bandit","204","680716","0.0-165.0-0.0","21034906","wem/bandit_party_2","A2UODQ3AUFVCTZ","either","2","961","","","","","","","0","0","1","","0.3126864395","0.8","0.4","0.6","0.2","0.1791255979","0.3126864395","0.3524137631","0.453231646","","","","","","","","","","","","","","74","J","1","","","124","main_expt",""
"","bandit","205","682631","0.0-166.0-0.0","21034906","wem/bandit_party_2","A2UODQ3AUFVCTZ","either","2","408","","","","","","","0","0","1","","0.3680881866","0.8","0.4","0.6","0.2","0.1952456852","0.2772507379","0.3680881866","0.4888945922","","","","","","","","","","","","","","75","K","2","","","125","main_expt",""
"","bandit","206","684680","0.0-167.0-0.0","21034906","wem/bandit_party_2","A2UODQ3AUFVCTZ","either","2","543","","","","","","","0","1","0","","0.2884444508","0.8","0.4","0.6","0.2","0.2614303707","0.2441417391","0.2884444508","0.396932523","","","","","","","","","","","","","","75","K","2","","","126","main_expt",""
"","bandit","207","686739","0.0-168.0-0.0","21034906","wem/bandit_party_2","A2UODQ3AUFVCTZ","either","2","552","","","","","","","0","0","1","0.2931854252","","0.8","0.4","0.6","0.2","","","","","0.267511235","0.2304038214","0.2931854252","0.4026562496","","","","","","","","","","75","K","2","","","127","main_expt",""
"","bandit","208","689496","0.0-169.0-0.0","21034906","wem/bandit_party_2","A2UODQ3AUFVCTZ","either","2","1250","","","","","","","0","0","1","0.3115494401","","0.8","0.4","0.6","0.2","","","","","0.2582460394","0.2463692943","0.3115494401","0.3072143153","","","","","","","","","","75","K","2","","","128","main_expt",""
"","bandit","209","691299","0.0-170.0-0.0","21034906","wem/bandit_party_2","A2UODQ3AUFVCTZ","either","2","297","","","","","","","0","0","1","","0.249100023","0.8","0.4","0.6","0.2","0.249100023","0.262841392","0.287093163","0.3024431642","","","","","","","","","","","","","","72","H","0","img/none_selected.jpg","","129","main_expt",""
"","bandit","210","693221","0.0-171.0-0.0","21034906","wem/bandit_party_2","A2UODQ3AUFVCTZ","either","2","416","","","","","","","1","0","0","0.242368994","","0.8","0.4","0.6","0.2","","","","","0.2014680341","0.3044503748","0.242368994","0.383823705","","","","","","","","","","75","K","2","","","130","main_expt",""
"","bandit","211","695281","0.0-172.0-0.0","21034906","wem/bandit_party_2","A2UODQ3AUFVCTZ","either","2","553","","","","","","","1","0","0","0.3141093292","","0.8","0.4","0.6","0.2","","","","","0.2514612397","0.2231782293","0.3141093292","0.5448185218","","","","","","","","","","75","K","2","","","131","main_expt",""
"","bandit","212","697255","0.0-173.0-0.0","21034906","wem/bandit_party_2","A2UODQ3AUFVCTZ","either","2","468","","","","","","","0","0","1","0.3186943837","","0.8","0.4","0.6","0.2","","","","","0.1719215191","0.265126842","0.3186943837","0.5741986762","","","","","","","","","","75","K","2","","","132","main_expt",""
"","bandit","213","699472","0.0-174.0-0.0","21034906","wem/bandit_party_2","A2UODQ3AUFVCTZ","either","2","710","","","","","","","0","0","1","","0.3218599317","0.8","0.4","0.6","0.2","0.151851594","0.1996467811","0.3218599317","0.54298015","","","","","","","","","","","","","","75","K","2","","","133","main_expt",""
"","bandit","214","701300","0.0-175.0-0.0","21034906","wem/bandit_party_2","A2UODQ3AUFVCTZ","either","2","322","","","","","","","0","0","1","0.1693242304","","0.8","0.4","0.6","0.2","","","","","0.1693242304","0.1900899503","0.3372263261","0.5504084981","","","","","","","","","","72","H","0","img/none_selected.jpg","","134","main_expt",""
"","bandit","215","703091","0.0-176.0-0.0","21034906","wem/bandit_party_2","A2UODQ3AUFVCTZ","either","2","286","","","","","","","0","0","1","0.3515125386","","0.8","0.4","0.6","0.2","","","","","0.1541174352","0.172295534","0.3515125386","0.4874659601","","","","","","","","","","75","K","2","","","135","main_expt",""
"","bandit","216","705120","0.0-177.0-0.0","21034906","wem/bandit_party_2","A2UODQ3AUFVCTZ","either","2","521","","","","","","","0","0","1","0.1171098277","","0.8","0.4","0.6","0.2","","","","","0.1374012581","0.1171098277","0.2312583875","0.3677382912","","","","","","","","","","74","J","1","","","136","main_expt",""
"","bandit","217","707224","0.0-178.0-0.0","21034906","wem/bandit_party_2","A2UODQ3AUFVCTZ","either","2","597","","","","","","","0","0","1","0.3496768842","","0.8","0.4","0.6","0.2","","","","","0.2889288236","0.1390909791","0.3496768842","0.2944012193","","","","","","","","","","75","K","2","","","137","main_expt",""
"","bandit","218","709501","0.0-179.0-0.0","21034906","wem/bandit_party_2","A2UODQ3AUFVCTZ","either","2","770","","","","","","","0","1","0","","0.3020033879","0.8","0.4","0.6","0.2","0.2177367931","0.1209370274","0.4217982028","0.3020033879","","","","","","","","","","","","","","76","L","3","","","138","main_expt",""
"","bandit","219","711381","0.0-180.0-0.0","21034906","wem/bandit_party_2","A2UODQ3AUFVCTZ","either","2","373","","","","","","","0","1","0","","0.2908104057","0.8","0.4","0.6","0.2","0.1704259453","0.1441291996","0.5123523738","0.2908104057","","","","","","","","","","","","","","76","L","3","","","139","main_expt",""
"","bandit","220","713226","0.0-181.0-0.0","21034906","wem/bandit_party_2","A2UODQ3AUFVCTZ","either","2","339","","","","","","","0","1","0","","0.2738290205","0.8","0.4","0.6","0.2","0.1827322183","0.1380406349","0.3892042576","0.2738290205","","","","","","","","","","","","","","76","L","3","","","140","main_expt",""
"","bandit","221","715496","0.0-182.0-0.0","21034906","wem/bandit_party_2","A2UODQ3AUFVCTZ","either","2","765","","","","","","","0","1","0","","0.3865798498","0.8","0.4","0.6","0.2","0.2030288612","0.1312769784","0.4680147771","0.3865798498","","","","","","","","","","","","","","76","L","3","","","141","main_expt",""
"","bandit","222","717648","0.0-183.0-0.0","21034906","wem/bandit_party_2","A2UODQ3AUFVCTZ","either","2","644","","","","","","","0","0","1","0.3507917403","","0.8","0.4","0.6","0.2","","","","","0.1760536641","0.1880730553","0.3970866904","0.3507917403","","","","","","","","","","76","L","3","","","142","main_expt",""
"","bandit","223","720246","0.0-184.0-0.0","21034906","wem/bandit_party_2","A2UODQ3AUFVCTZ","either","2","1092","","","","","","","0","0","1","0.1428921374","","0.8","0.4","0.6","0.2","","","","","0.1428921374","0.1798266991","0.3609481858","0.2787839286","","","","","","","","","","72","H","0","img/none_selected.jpg","","143","main_expt",""
"","bandit","224","722283","0.0-185.0-0.0","21034906","wem/bandit_party_2","A2UODQ3AUFVCTZ","either","2","529","","","","","","","0","0","1","0.1881666754","","0.8","0.4","0.6","0.2","","","","","0.1260474704","0.1881666754","0.3701270871","0.2106619402","","","","","","","","","","74","J","1","","","144","main_expt",""
"","bandit","225","724322","0.0-186.0-0.0","21034906","wem/bandit_party_2","A2UODQ3AUFVCTZ","either","2","531","","","","","","","0","0","1","","0.3211677341","0.8","0.4","0.6","0.2","0.151337539","0.1683386122","0.3110645609","0.3211677341","","","","","","","","","","","","","","76","L","3","","","145","main_expt",""
"","bandit","226","726301","0.0-187.0-0.0","21034906","wem/bandit_party_2","A2UODQ3AUFVCTZ","either","2","473","","","","","","","0","0","1","","0.356964637","0.8","0.4","0.6","0.2","0.1600114734","0.2609121533","0.356964637","0.4417580917","","","","","","","","","","","","","","75","K","2","","","146","main_expt",""
"","bandit","227","728105","0.0-188.0-0.0","21034906","wem/bandit_party_2","A2UODQ3AUFVCTZ","either","2","298","","","","","","","0","0","1","0.278611551","","0.8","0.4","0.6","0.2","","","","","0.1262446547","0.280259565","0.5143633813","0.278611551","","","","","","","","","","76","L","3","","","147","main_expt",""
"","bandit","228","729906","0.0-189.0-0.0","21034906","wem/bandit_party_2","A2UODQ3AUFVCTZ","either","2","293","","","","","","","0","1","0","","0.2811332351","0.8","0.4","0.6","0.2","0.1030311585","0.2972918914","0.5086187798","0.2811332351","","","","","","","","","","","","","","76","L","3","","","148","main_expt",""
"","bandit","229","731669","0.0-190.0-0.0","21034906","wem/bandit_party_2","A2UODQ3AUFVCTZ","either","2","257","","","","","","","0","0","1","","0.2606345315","0.8","0.4","0.6","0.2","0.123834606","0.3284309668","0.4676315778","0.2606345315","","","","","","","","","","","","","","76","L","3","","","149","main_expt",""
"","bandit","230","733483","0.0-191.0-0.0","21034906","wem/bandit_party_2","A2UODQ3AUFVCTZ","either","2","307","","","","","","","0","0","1","","0.260677327","0.8","0.4","0.6","0.2","0.06566206942","0.3186890608","0.4737351686","0.260677327","","","","","","","","","","","","","","76","L","3","","","150","main_expt",""
"","bandit","231","735256","0.0-192.0-0.0","21034906","wem/bandit_party_2","A2UODQ3AUFVCTZ","either","2","265","","","","","","","0","0","1","0.06342121736","","0.8","0.4","0.6","0.2","","","","","0.06342121736","0.3331747037","0.5387476985","0.2579624968","","","","","","","","","","72","H","0","img/none_selected.jpg","","151","main_expt",""
"","bandit","232","737004","0.0-193.0-0.0","21034906","wem/bandit_party_2","A2UODQ3AUFVCTZ","either","2","243","","","","","","","0","0","1","0.1162046696","","0.8","0.4","0.6","0.2","","","","","0.1162046696","0.364096089","0.5065138565","0.2536911072","","","","","","","","","","72","H","0","img/none_selected.jpg","","152","main_expt",""
"","bandit","233","738838","0.0-194.0-0.0","21034906","wem/bandit_party_2","A2UODQ3AUFVCTZ","either","2","328","","","","","","","1","0","0","0.1388943584","","0.8","0.4","0.6","0.2","","","","","0.1388943584","0.3189440566","0.5190676077","0.1427943183","","","","","","","","","","72","H","0","img/none_selected.jpg","","153","main_expt",""
"","bandit","234","740612","0.0-195.0-0.0","21034906","wem/bandit_party_2","A2UODQ3AUFVCTZ","either","2","267","","","","","","","0","0","1","0.1188489222","","0.8","0.4","0.6","0.2","","","","","0.1188489222","0.486858514","0.4944482457","0.08934943386","","","","","","","","","","72","H","0","img/none_selected.jpg","","154","main_expt",""
"","bandit","235","742639","0.0-196.0-0.0","21034906","wem/bandit_party_2","A2UODQ3AUFVCTZ","either","2","520","","","","","","","0","0","1","","0.398958755","0.8","0.4","0.6","0.2","0.1255079792","0.398958755","0.4987902374","0.1048919666","","","","","","","","","","","","","","74","J","1","","","155","main_expt",""
"","bandit","236","744412","0.0-197.0-0.0","21034906","wem/bandit_party_2","A2UODQ3AUFVCTZ","either","2","266","","","","","","","1","0","0","0.3508932217","","0.8","0.4","0.6","0.2","","","","","0.1705129017","0.3508932217","0.4151199053","0.1348874752","","","","","","","","","","74","J","1","","","156","main_expt",""
"","bandit","237","746279","0.0-198.0-0.0","21034906","wem/bandit_party_2","A2UODQ3AUFVCTZ","either","2","359","","","","","","","1","0","0","0.3736640956","","0.8","0.4","0.6","0.2","","","","","0.1892203872","0.3736640956","0.4215128153","0.1197456909","","","","","","","","","","74","J","1","","","157","main_expt",""
"","bandit","238","748155","0.0-199.0-0.0","21034906","wem/bandit_party_2","A2UODQ3AUFVCTZ","either","2","370","","","","","","","0","0","1","","0.3215678611","0.8","0.4","0.6","0.2","0.1589595026","0.3215678611","0.3666899102","0.1343935597","","","","","","","","","","","","","","74","J","1","","","158","main_expt",""
"","bandit","239","750618","0.0-200.0-0.0","21034906","wem/bandit_party_2","A2UODQ3AUFVCTZ","either","2","957","","","","","","","0","0","1","0.2732838962","","0.8","0.4","0.6","0.2","","","","","0.1426383857","0.2732838962","0.3906786657","0.04604274909","","","","","","","","","","74","J","1","","","159","main_expt",""
"","bandit","240","752624","0.0-201.0-0.0","21034906","wem/bandit_party_2","A2UODQ3AUFVCTZ","either","2","500","","","","","","","0","0","1","0.4769972016","","0.8","0.4","0.6","0.2","","","","","0.2747613825","0.2323229575","0.4769972016","0.08927965808","","","","","","","","","","75","K","2","","","160","main_expt",""
"","bandit","241","754972","0.0-202.0-0.0","21034906","wem/bandit_party_2","A2UODQ3AUFVCTZ","either","2","841","","","","","","","0","0","1","","0.4405879513","0.8","0.4","0.6","0.2","0.2046882866","0.399022808","0.4405879513","0.1038156196","","","","","","","","","","","","","","75","K","2","","","161","main_expt",""
"","bandit","242","756837","0.0-203.0-0.0","21034906","wem/bandit_party_2","A2UODQ3AUFVCTZ","either","2","359","","","","","","","0","0","1","","0.4967313539","0.8","0.4","0.6","0.2","0.1715152701","0.4967313539","0.44055992","0.1470739062","","","","","","","","","","","","","","74","J","1","","","162","main_expt",""
"","bandit","243","758827","0.0-204.0-0.0","21034906","wem/bandit_party_2","A2UODQ3AUFVCTZ","either","2","483","","","","","","","0","0","1","0.5245029489","","0.8","0.4","0.6","0.2","","","","","0.2396687428","0.5245029489","0.3434222481","0.1214264794","","","","","","","","","","74","J","1","","","163","main_expt",""
"","bandit","244","760693","0.0-205.0-0.0","21034906","wem/bandit_party_2","A2UODQ3AUFVCTZ","either","2","358","","","","","","","1","0","0","0.3359744524","","0.8","0.4","0.6","0.2","","","","","0.3359744524","0.5808119749","0.3862652833","0.1563758897","","","","","","","","","","72","H","0","img/none_selected.jpg","","164","main_expt",""
"","bandit","245","762849","0.0-206.0-0.0","21034906","wem/bandit_party_2","A2UODQ3AUFVCTZ","either","2","650","","","","","","","0","0","1","0.4940159592","","0.8","0.4","0.6","0.2","","","","","0.4940159592","0.6473032069","0.4270444342","0.1311500467","","","","","","","","","","72","H","0","img/none_selected.jpg","","165","main_expt",""
"","bandit","246","764968","0.0-207.0-0.0","21034906","wem/bandit_party_2","A2UODQ3AUFVCTZ","either","2","610","","","","","","","1","0","0","0.5922229292","","0.8","0.4","0.6","0.2","","","","","0.5922229292","0.6790689848","0.5073102058","0.1419689761","","","","","","","","","","72","H","0","img/none_selected.jpg","","166","main_expt",""
"","bandit","247","767206","0.0-208.0-0.0","21034906","wem/bandit_party_2","A2UODQ3AUFVCTZ","either","2","732","","","","","","","1","0","0","0.5562626425","","0.8","0.4","0.6","0.2","","","","","0.5562626425","0.5959653185","0.5417092253","0.150246256","","","","","","","","","","72","H","0","img/none_selected.jpg","","167","main_expt",""
"","bandit","248","769635","0.0-209.0-0.0","21034906","wem/bandit_party_2","A2UODQ3AUFVCTZ","either","2","922","","","","","","","0","1","0","","0.6489587791","0.8","0.4","0.6","0.2","0.6489587791","0.361841396","0.6505471885","0.2070971521","","","","","","","","","","","","","","72","H","0","img/none_selected.jpg","","168","main_expt",""
"","bandit","249","773447","0.0-210.0-0.0","21034906","wem/bandit_party_2","A2UODQ3AUFVCTZ","either","2","2304","","","","","","","0","0","1","0.5652428614","","0.8","0.4","0.6","0.2","","","","","0.5652428614","0.2594844845","0.6226729341","0.2564452127","","","","","","","","","","72","H","0","img/none_selected.jpg","","169","main_expt",""
"","bandit","250","775835","0.0-211.0-0.0","21034906","wem/bandit_party_2","A2UODQ3AUFVCTZ","either","2","881","","","","","","","0","0","1","","0.2845729388","0.8","0.4","0.6","0.2","0.5344749526","0.1987556041","0.7574543886","0.2845729388","","","","","","","","","","","","","","76","L","3","","","170","main_expt",""
"","bandit","251","777934","0.0-212.0-0.0","21034906","wem/bandit_party_2","A2UODQ3AUFVCTZ","either","2","591","","","","","","","0","0","1","0.6364900983","","0.8","0.4","0.6","0.2","","","","","0.6364900983","0.1583585206","0.774201251","0.2360657399","","","","","","","","","","72","H","0","img/none_selected.jpg","","171","main_expt",""
"","bandit","252","779820","0.0-213.0-0.0","21034906","wem/bandit_party_2","A2UODQ3AUFVCTZ","either","2","380","","","","","","","1","0","0","0.5516193693","","0.8","0.4","0.6","0.2","","","","","0.5516193693","0.1494938987","0.7739789177","0.3453554921","","","","","","","","","","72","H","0","img/none_selected.jpg","","172","main_expt",""
"","bandit","253","782034","0.0-214.0-0.0","21034906","wem/bandit_party_2","A2UODQ3AUFVCTZ","either","2","707","","","","","","","0","1","0","","0.5081608063","0.8","0.4","0.6","0.2","0.5081608063","0.1996494969","0.7146420849","0.2909261263","","","","","","","","","","","","","","72","H","0","img/none_selected.jpg","","173","main_expt",""
"","bandit","254","784090","0.0-215.0-0.0","21034906","wem/bandit_party_2","A2UODQ3AUFVCTZ","either","2","548","","","","","","","0","0","1","0.5247340446","","0.8","0.4","0.6","0.2","","","","","0.5247340446","0.2200767262","0.683245412","0.3807546558","","","","","","","","","","72","H","0","img/none_selected.jpg","","174","main_expt",""
"","bandit","255","785943","0.0-216.0-0.0","21034906","wem/bandit_party_2","A2UODQ3AUFVCTZ","either","2","346","","","","","","","1","0","0","0.5823110366","","0.8","0.4","0.6","0.2","","","","","0.5823110366","0.1929710708","0.7163731774","0.3889518003","","","","","","","","","","72","H","0","img/none_selected.jpg","","175","main_expt",""
"","bandit","256","787890","0.0-217.0-0.0","21034906","wem/bandit_party_2","A2UODQ3AUFVCTZ","either","2","441","","","","","","","1","0","0","0.7693722391","","0.8","0.4","0.6","0.2","","","","","0.7693722391","0.1756556012","0.6676116703","0.3662842853","","","","","","","","","","72","H","0","img/none_selected.jpg","","176","main_expt",""
"","bandit","257","789809","0.0-218.0-0.0","21034906","wem/bandit_party_2","A2UODQ3AUFVCTZ","either","2","411","","","","","","","1","0","0","0.8048595062","","0.8","0.4","0.6","0.2","","","","","0.8048595062","0.2404611203","0.711116056","0.3102656016","","","","","","","","","","72","H","0","img/none_selected.jpg","","177","main_expt",""
"","bandit","258","791707","0.0-219.0-0.0","21034906","wem/bandit_party_2","A2UODQ3AUFVCTZ","either","2","392","","","","","","","1","0","0","0.8147320782","","0.8","0.4","0.6","0.2","","","","","0.8147320782","0.1651874793","0.6541247318","0.3272385177","","","","","","","","","","72","H","0","img/none_selected.jpg","","178","main_expt",""
"","bandit","259","793811","0.0-220.0-0.0","21034906","wem/bandit_party_2","A2UODQ3AUFVCTZ","either","2","597","","","","","","","1","0","0","0.7755432213","","0.8","0.4","0.6","0.2","","","","","0.7755432213","0.1297692321","0.600925469","0.3185807274","","","","","","","","","","72","H","0","img/none_selected.jpg","","179","main_expt",""
"","bandit","260","795944","0.0-221.0-0.0","21034906","wem/bandit_party_2","A2UODQ3AUFVCTZ","either","2","626","","","","","","","1","0","0","0.7309951384","","0.8","0.4","0.6","0.2","","","","","0.7309951384","0.1311169289","0.6321701674","0.3896265469","","","","","","","","","","72","H","0","img/none_selected.jpg","","180","main_expt",""
"","bandit","261","798087","0.0-222.0-0.0","21034906","wem/bandit_party_2","A2UODQ3AUFVCTZ","either","2","635","","","","","","","0","0","1","0.8068071681","","0.8","0.4","0.6","0.2","","","","","0.8068071681","0.2184653543","0.7040606398","0.4381139349","","","","","","","","","","72","H","0","img/none_selected.jpg","","181","main_expt",""
"","bandit","262","799955","0.0-223.0-0.0","21034906","wem/bandit_party_2","A2UODQ3AUFVCTZ","either","2","361","","","","","","","1","0","0","0.8096694819","","0.8","0.4","0.6","0.2","","","","","0.8096694819","0.156745214","0.6551517927","0.4339703771","","","","","","","","","","72","H","0","img/none_selected.jpg","","182","main_expt",""
"","bandit","263","802236","0.0-224.0-0.0","21034906","wem/bandit_party_2","A2UODQ3AUFVCTZ","either","2","772","","","","","","","1","0","0","0.8522040983","","0.8","0.4","0.6","0.2","","","","","0.8522040983","0.07710569088","0.7709035389","0.5270594011","","","","","","","","","","72","H","0","img/none_selected.jpg","","183","main_expt",""
"","bandit","264","804306","0.0-225.0-0.0","21034906","wem/bandit_party_2","A2UODQ3AUFVCTZ","either","2","563","","","","","","","1","0","0","0.8636776132","","0.8","0.4","0.6","0.2","","","","","0.8636776132","0.07901501252","0.7869666122","0.4791569234","","","","","","","","","","72","H","0","img/none_selected.jpg","","184","main_expt",""
"","bandit","265","806492","0.0-226.0-0.0","21034906","wem/bandit_party_2","A2UODQ3AUFVCTZ","either","2","679","","","","","","","1","0","0","0.8605951951","","0.8","0.4","0.6","0.2","","","","","0.8605951951","0.05695362571","0.804571828","0.464074867","","","","","","","","","","72","H","0","img/none_selected.jpg","","185","main_expt",""
"","bandit","266","808493","0.0-227.0-0.0","21034906","wem/bandit_party_2","A2UODQ3AUFVCTZ","either","2","494","","","","","","","1","0","0","0.8578427848","","0.8","0.4","0.6","0.2","","","","","0.8578427848","0.03796608352","0.7866627628","0.4654947356","","","","","","","","","","72","H","0","img/none_selected.jpg","","186","main_expt",""
"","bandit","267","810585","0.0-228.0-0.0","21034906","wem/bandit_party_2","A2UODQ3AUFVCTZ","either","2","585","","","","","","","1","0","0","0.8253306036","","0.8","0.4","0.6","0.2","","","","","0.8253306036","0.05986429342","0.8006736442","0.4338668179","","","","","","","","","","72","H","0","img/none_selected.jpg","","187","main_expt",""
"","bandit","268","812560","0.0-229.0-0.0","21034906","wem/bandit_party_2","A2UODQ3AUFVCTZ","either","2","468","","","","","","","1","0","0","0.8118593573","","0.8","0.4","0.6","0.2","","","","","0.8118593573","0.05827831728","0.7687627789","0.4679469354","","","","","","","","","","72","H","0","img/none_selected.jpg","","188","main_expt",""
"","bandit","269","814639","0.0-230.0-0.0","21034906","wem/bandit_party_2","A2UODQ3AUFVCTZ","either","2","570","","","","","","","0","1","0","","0.8319104568","0.8","0.4","0.6","0.2","0.8319104568","0.06499387038","0.7009429779","0.4645116859","","","","","","","","","","","","","","72","H","0","img/none_selected.jpg","","189","main_expt",""
"","bandit","270","816633","0.0-231.0-0.0","21034906","wem/bandit_party_2","A2UODQ3AUFVCTZ","either","2","487","","","","","","","1","0","0","0.8949986836","","0.8","0.4","0.6","0.2","","","","","0.8949986836","0.0878029059","0.7531121838","0.4260553166","","","","","","","","","","72","H","0","img/none_selected.jpg","","190","main_expt",""
"","bandit","271","818624","0.0-232.0-0.0","21034906","wem/bandit_party_2","A2UODQ3AUFVCTZ","either","2","483","","","","","","","1","0","0","0.9258368343","","0.8","0.4","0.6","0.2","","","","","0.9258368343","0.1101088583","0.6174616994","0.5323747461","","","","","","","","","","72","H","0","img/none_selected.jpg","","191","main_expt",""
"","bandit","272","820717","0.0-233.0-0.0","21034906","wem/bandit_party_2","A2UODQ3AUFVCTZ","either","2","587","","","","","","","1","0","0","0.9221438833","","0.8","0.4","0.6","0.2","","","","","0.9221438833","0.1559643099","0.6331996982","0.6013900654","","","","","","","","","","72","H","0","img/none_selected.jpg","","192","main_expt",""
"","bandit","273","822802","0.0-234.0-0.0","21034906","wem/bandit_party_2","A2UODQ3AUFVCTZ","either","2","577","","","","","","","1","0","0","0.878376231","","0.8","0.4","0.6","0.2","","","","","0.878376231","0.1348882638","0.5596167322","0.5332063066","","","","","","","","","","72","H","0","img/none_selected.jpg","","193","main_expt",""
"","bandit","274","824781","0.0-235.0-0.0","21034906","wem/bandit_party_2","A2UODQ3AUFVCTZ","either","2","470","","","","","","","0","1","0","","0.7914694382","0.8","0.4","0.6","0.2","0.7914694382","0.243093686","0.5887018809","0.5499496643","","","","","","","","","","","","","","72","H","0","img/none_selected.jpg","","194","main_expt",""
"","bandit","275","826812","0.0-236.0-0.0","21034906","wem/bandit_party_2","A2UODQ3AUFVCTZ","either","2","520","","","","","","","1","0","0","0.7843027812","","0.8","0.4","0.6","0.2","","","","","0.7843027812","0.2792315856","0.561552955","0.4170732774","","","","","","","","","","72","H","0","img/none_selected.jpg","","195","main_expt",""
"","bandit","276","828819","0.0-237.0-0.0","21034906","wem/bandit_party_2","A2UODQ3AUFVCTZ","either","2","499","","","","","","","0","0","1","0.7888241066","","0.8","0.4","0.6","0.2","","","","","0.7888241066","0.2075419965","0.6199522587","0.4050854298","","","","","","","","","","72","H","0","img/none_selected.jpg","","196","main_expt",""
"","bandit","277","830774","0.0-238.0-0.0","21034906","wem/bandit_party_2","A2UODQ3AUFVCTZ","either","2","448","","","","","","","1","0","0","0.6886125155","","0.8","0.4","0.6","0.2","","","","","0.8145025162","0.1899284635","0.6886125155","0.4522405917","","","","","","","","","","75","K","2","","","197","main_expt",""
"","bandit","278","832600","0.0-239.0-0.0","21034906","wem/bandit_party_2","A2UODQ3AUFVCTZ","either","2","318","","","","","","","1","0","0","0.6468609917","","0.8","0.4","0.6","0.2","","","","","0.8795467387","0.1632143895","0.6468609917","0.4547961131","","","","","","","","","","75","K","2","","","198","main_expt",""
"","bandit","279","834395","0.0-240.0-0.0","21034906","wem/bandit_party_2","A2UODQ3AUFVCTZ","either","2","286","","","","","","","1","0","0","0.7134983028","","0.8","0.4","0.6","0.2","","","","","0.8716255916","0.1580048483","0.7134983028","0.456709553","","","","","","","","","","75","K","2","","","199","main_expt",""
"","bandit","280","836157","0.0-241.0-0.0","21034906","wem/bandit_party_2","A2UODQ3AUFVCTZ","either","2","254","","","","","","","1","0","0","0.6545285445","","0.8","0.4","0.6","0.2","","","","","0.8596876402","0.1815025648","0.6545285445","0.4197111003","","","","","","","","","","75","K","2","","","200","main_expt",""
"","bandit","281","838359","0.0-242.0-0.0","21034906","wem/bandit_party_2","A2UODQ3AUFVCTZ","either","2","696","","","","","","","0","1","0","","0.6827561938","0.8","0.4","0.6","0.2","0.8714244785","0.1453003075","0.6827561938","0.4468864226","","","","","","","","","","","","","","75","K","2","","","201","main_expt",""
"","bandit","282","840708","0.0-243.0-0.0","21034906","wem/bandit_party_2","A2UODQ3AUFVCTZ","either","2","840","","","","","","","1","0","0","0.6590680519","","0.8","0.4","0.6","0.2","","","","","0.8679491409","0.1061510446","0.6590680519","0.3852152277","","","","","","","","","","75","K","2","","","202","main_expt",""
"","bandit","283","842478","0.0-244.0-0.0","21034906","wem/bandit_party_2","A2UODQ3AUFVCTZ","either","2","261","","","","","","","0","1","0","","0.67998256","0.8","0.4","0.6","0.2","0.8421855008","0.09667757311","0.67998256","0.3481501846","","","","","","","","","","","","","","75","K","2","","","203","main_expt",""
"","bandit","284","844471","0.0-245.0-0.0","21034906","wem/bandit_party_2","A2UODQ3AUFVCTZ","either","2","487","","","","","","","1","0","0","0.7157802034","","0.8","0.4","0.6","0.2","","","","","0.8741547355","0.109576977","0.7157802034","0.3688904748","","","","","","","","","","75","K","2","","","204","main_expt",""
"","bandit","285","846292","0.0-246.0-0.0","21034906","wem/bandit_party_2","A2UODQ3AUFVCTZ","either","2","314","","","","","","","0","0","1","","0.6750594522","0.8","0.4","0.6","0.2","0.8589537271","0.1370524017","0.6750594522","0.4196025605","","","","","","","","","","","","","","75","K","2","","","205","main_expt",""
"","bandit","286","848054","0.0-247.0-0.0","21034906","wem/bandit_party_2","A2UODQ3AUFVCTZ","either","2","255","","","","","","","0","0","1","0.7170784861","","0.8","0.4","0.6","0.2","","","","","0.8009191088","0.1005848846","0.7170784861","0.3558717694","","","","","","","","","","75","K","2","","","206","main_expt",""
"","bandit","287","849782","0.0-248.0-0.0","21034906","wem/bandit_party_2","A2UODQ3AUFVCTZ","either","2","221","","","","","","","1","0","0","0.8146279372","","0.8","0.4","0.6","0.2","","","","","0.8146279372","0.1100528349","0.6886550294","0.3978287694","","","","","","","","","","72","H","0","img/none_selected.jpg","","207","main_expt",""
"","bandit","288","851561","0.0-249.0-0.0","21034906","wem/bandit_party_2","A2UODQ3AUFVCTZ","either","2","271","","","","","","","0","0","1","0.7498886323","","0.8","0.4","0.6","0.2","","","","","0.7498886323","0.1165568201","0.7340041914","0.3647175361","","","","","","","","","","72","H","0","img/none_selected.jpg","","208","main_expt",""
"","bandit","289","853319","0.0-250.0-0.0","21034906","wem/bandit_party_2","A2UODQ3AUFVCTZ","either","2","251","","","","","","","1","0","0","0.781298432","","0.8","0.4","0.6","0.2","","","","","0.781298432","0.1607141963","0.7108339061","0.2942091963","","","","","","","","","","72","H","0","img/none_selected.jpg","","209","main_expt",""
"","bandit","290","855133","0.0-251.0-0.0","21034906","wem/bandit_party_2","A2UODQ3AUFVCTZ","either","2","307","","","","","","","1","0","0","0.8374694261","","0.8","0.4","0.6","0.2","","","","","0.8374694261","0.2005879304","0.7322658343","0.3228874634","","","","","","","","","","72","H","0","img/none_selected.jpg","","210","main_expt",""
"","bandit","291","856935","0.0-252.0-0.0","21034906","wem/bandit_party_2","A2UODQ3AUFVCTZ","either","2","295","","","","","","","1","0","0","0.7461264045","","0.8","0.4","0.6","0.2","","","","","0.7461264045","0.1999716741","0.6220956771","0.3300931135","","","","","","","","","","72","H","0","img/none_selected.jpg","","211","main_expt",""
"","bandit","292","858991","0.0-253.0-0.0","21034906","wem/bandit_party_2","A2UODQ3AUFVCTZ","either","2","549","","","","","","","0","0","1","0.7267359419","","0.8","0.4","0.6","0.2","","","","","0.7267359419","0.2135957141","0.5400145011","0.4044608811","","","","","","","","","","72","H","0","img/none_selected.jpg","","212","main_expt",""
"","bandit","293","860810","0.0-254.0-0.0","21034906","wem/bandit_party_2","A2UODQ3AUFVCTZ","either","2","312","","","","","","","0","0","1","0.6529835343","","0.8","0.4","0.6","0.2","","","","","0.6529835343","0.2041793084","0.5419994818","0.4916994921","","","","","","","","","","72","H","0","img/none_selected.jpg","","213","main_expt",""
"","bandit","294","862561","0.0-255.0-0.0","21034906","wem/bandit_party_2","A2UODQ3AUFVCTZ","either","2","245","","","","","","","1","0","0","0.5734554779","","0.8","0.4","0.6","0.2","","","","","0.5734554779","0.2563089198","0.6195319152","0.5387088508","","","","","","","","","","72","H","0","img/none_selected.jpg","","214","main_expt",""
"","bandit","295","864847","0.0-256.0-0.0","21034906","wem/bandit_party_2","A2UODQ3AUFVCTZ","either","2","779","","","","","","","0","0","1","0.7056003711","","0.8","0.4","0.6","0.2","","","","","0.7056003711","0.2870699064","0.7405966814","0.567041903","","","","","","","","","","72","H","0","img/none_selected.jpg","","215","main_expt",""
"","bandit","296","866617","0.0-257.0-0.0","21034906","wem/bandit_party_2","A2UODQ3AUFVCTZ","either","2","260","","","","","","","0","0","1","0.2715554895","","0.8","0.4","0.6","0.2","","","","","0.7717913507","0.2715554895","0.8005734678","0.539749723","","","","","","","","","","74","J","1","","","216","main_expt",""
"","bandit","297","868520","0.0-258.0-0.0","21034906","wem/bandit_party_2","A2UODQ3AUFVCTZ","either","2","396","","","","","","","1","0","0","0.834894728","","0.8","0.4","0.6","0.2","","","","","0.834894728","0.2027777883","0.8392159132","0.3803352486","","","","","","","","","","72","H","0","img/none_selected.jpg","","217","main_expt",""
"","bandit","298","870912","0.0-259.0-0.0","21034906","wem/bandit_party_2","A2UODQ3AUFVCTZ","either","2","886","","","","","","","1","0","0","0.868580258","","0.8","0.4","0.6","0.2","","","","","0.868580258","0.2169787163","0.7445585264","0.3236333655","","","","","","","","","","72","H","0","img/none_selected.jpg","","218","main_expt",""
"","bandit","299","873211","0.0-260.0-0.0","21034906","wem/bandit_party_2","A2UODQ3AUFVCTZ","either","2","789","","","","","","","1","0","0","0.8236231074","","0.8","0.4","0.6","0.2","","","","","0.8236231074","0.2292932202","0.7174829008","0.2612589469","","","","","","","","","","72","H","0","img/none_selected.jpg","","219","main_expt",""
"","bandit","300","875624","0.0-261.0-0.0","21034906","wem/bandit_party_2","A2UODQ3AUFVCTZ","either","2","905","","","","","","","0","0","1","","0.7719294443","0.8","0.4","0.6","0.2","0.7719294443","0.2829053382","0.6601767392","0.2228319794","","","","","","","","","","","","","","72","H","0","img/none_selected.jpg","","220","main_expt",""
"","bandit","301","877809","0.0-262.0-0.0","21034906","wem/bandit_party_2","A2UODQ3AUFVCTZ","either","2","678","","","","","","","1","0","0","0.7609360252","","0.8","0.4","0.6","0.2","","","","","0.7609360252","0.2691731019","0.703996204","0.2204856404","","","","","","","","","","72","H","0","img/none_selected.jpg","","221","main_expt",""
"","bandit","302","879962","0.0-263.0-0.0","21034906","wem/bandit_party_2","A2UODQ3AUFVCTZ","either","2","644","","","","","","","0","1","0","","0.7319851961","0.8","0.4","0.6","0.2","0.7319851961","0.1974112065","0.6188024556","0.2269951902","","","","","","","","","","","","","","72","H","0","img/none_selected.jpg","","222","main_expt",""
"","bandit","303","882189","0.0-264.0-0.0","21034906","wem/bandit_party_2","A2UODQ3AUFVCTZ","either","2","717","","","","","","","1","0","0","0.6994646324","","0.8","0.4","0.6","0.2","","","","","0.6994646324","0.08486155027","0.5695888615","0.3417830843","","","","","","","","","","72","H","0","img/none_selected.jpg","","223","main_expt",""
"","bandit","304","884157","0.0-265.0-0.0","21034906","wem/bandit_party_2","A2UODQ3AUFVCTZ","either","2","461","","","","","","","0","0","1","0.6817307813","","0.8","0.4","0.6","0.2","","","","","0.6817307813","0.1930609847","0.6590173842","0.4057490183","","","","","","","","","","72","H","0","img/none_selected.jpg","","224","main_expt",""
"","bandit","305","886050","0.0-266.0-0.0","21034906","wem/bandit_party_2","A2UODQ3AUFVCTZ","either","2","384","","","","","","","1","0","0","0.67394888","","0.8","0.4","0.6","0.2","","","","","0.67394888","0.2026087193","0.6779124893","0.4266979185","","","","","","","","","","72","H","0","img/none_selected.jpg","","225","main_expt",""
"","bandit","306","887920","0.0-267.0-0.0","21034906","wem/bandit_party_2","A2UODQ3AUFVCTZ","either","2","361","","","","","","","1","0","0","0.6520670614","","0.8","0.4","0.6","0.2","","","","","0.6520670614","0.1295559036","0.6433757785","0.4723095555","","","","","","","","","","72","H","0","img/none_selected.jpg","","226","main_expt",""
"","bandit","307","890016","0.0-268.0-0.0","21034906","wem/bandit_party_2","A2UODQ3AUFVCTZ","either","2","588","","","","","","","0","0","1","0.6598054912","","0.8","0.4","0.6","0.2","","","","","0.6598054912","0.1014701128","0.6050090536","0.4396274322","","","","","","","","","","72","H","0","img/none_selected.jpg","","227","main_expt",""
"","bandit","308","892063","0.0-269.0-0.0","21034906","wem/bandit_party_2","A2UODQ3AUFVCTZ","either","2","539","","","","","","","1","0","0","0.7313296172","","0.8","0.4","0.6","0.2","","","","","0.7313296172","0.1374428951","0.5614220587","0.4581465293","","","","","","","","","","72","H","0","img/none_selected.jpg","","228","main_expt",""
"","bandit","309","894077","0.0-270.0-0.0","21034906","wem/bandit_party_2","A2UODQ3AUFVCTZ","either","2","505","","","","","","","0","0","1","0.5771612872","","0.8","0.4","0.6","0.2","","","","","0.5771612872","0.2147377822","0.536938762","0.3635076811","","","","","","","","","","72","H","0","img/none_selected.jpg","","229","main_expt",""
"","bandit","310","895951","0.0-271.0-0.0","21034906","wem/bandit_party_2","A2UODQ3AUFVCTZ","either","2","366","","","","","","","1","0","0","0.6474737632","","0.8","0.4","0.6","0.2","","","","","0.6474737632","0.2128984172","0.4691369301","0.4109812081","","","","","","","","","","72","H","0","img/none_selected.jpg","","230","main_expt",""
"","bandit","311","897895","0.0-272.0-0.0","21034906","wem/bandit_party_2","A2UODQ3AUFVCTZ","either","2","437","","","","","","","1","0","0","0.77083729","","0.8","0.4","0.6","0.2","","","","","0.77083729","0.2566260117","0.3801843724","0.3769467169","","","","","","","","","","72","H","0","img/none_selected.jpg","","231","main_expt",""
"","bandit","312","899774","0.0-273.0-0.0","21034906","wem/bandit_party_2","A2UODQ3AUFVCTZ","either","2","370","","","","","","","0","1","0","","0.7372448464","0.8","0.4","0.6","0.2","0.7372448464","0.307190163","0.4401380948","0.4489681289","","","","","","","","","","","","","","72","H","0","img/none_selected.jpg","","232","main_expt",""
