"consent","trial_type","trial_index","time_elapsed","internal_node_id","subjID","study","MID","cond","drift","rt","responses","button_pressed","key_press","like","value","connected","gems","bombs","no_reward","GemPrChosen","BombPrChosen","GainOverPainPr_0","GainOverPainPr_1","GainOverPainPr_2","GainOverPainPr_3","LosePr_0","LosePr_1","LosePr_2","LosePr_3","WinPr_0","WinPr_1","WinPr_2","WinPr_3","Q0","Q1","Q2","gender","age","ethnicity","label","expt_phase","target","respCharCode","respKey","respChoiceNum","respChoice","practice","trial_counter","trial_label","Q0_index"
"GDM/GDM_behavioral_consent_30min_online.html","consent","0","18521","0.0-0.0","21158184","wem/bandit_party_2","A2SWQM5X54P1O5","either","2","","","","","","","","","","","","","","","","","","","","","","","","","","","","","","","","","","","","","","","","",""
"","survey-text","1","21689","0.0-1.0","21158184","wem/bandit_party_2","A2SWQM5X54P1O5","either","2","2152","{""Q0"":""A2SWQM5X54P1O5""}","","","","","","","","","","","","","","","","","","","","","","","","","","","","","","","","","","","","","","",""
"","button-response","2","24166","0.0-2.0","21158184","wem/bandit_party_2","A2SWQM5X54P1O5","either","2","1461","","1","","","","","","","","","","","","","","","","","","","","","","","","","","","","","","","","","","","","","",""
"","text-replacement","3","30550","0.0-3.0","21158184","wem/bandit_party_2","A2SWQM5X54P1O5","either","2","5372","","","32","","","","","","","","","","","","","","","","","","","","","","","","","","","","","","","","","","","","",""
"","text-replacement","4","40054","0.0-4.0","21158184","wem/bandit_party_2","A2SWQM5X54P1O5","either","2","9500","","","32","","","","","","","","","","","","","","","","","","","","","","","","","","","","","","","","","","","","",""
"","identification","5","45030","0.0-6.0-0.0","21158184","wem/bandit_party_2","A2SWQM5X54P1O5","either","2","4920","","","","3","3","3","","","","","","","","","","","","","","","","","","","","","","","","pre","identification_pre","the Republican Party","","","","","","","",""
"","identification","6","50992","0.0-6.0-1.0","21158184","wem/bandit_party_2","A2SWQM5X54P1O5","either","2","4914","","","","5","5","4","","","","","","","","","","","","","","","","","","","","","","","","pre","identification_pre","the Democratic Party","","","","","","","",""
"","text-replacement","7","55076","0.0-7.0","21158184","wem/bandit_party_2","A2SWQM5X54P1O5","either","2","3080","","","32","","","","","","","","","","","","","","","","","","","","","","","","","","","","","","","","","","","","",""
"","text-replacement","8","59824","0.0-8.0","21158184","wem/bandit_party_2","A2SWQM5X54P1O5","either","2","4740","","","32","","","","","","","","","","","","","","","","","","","","","","","","","","","","","","","","","","","","",""
"","text-replacement","9","69096","0.0-9.0","21158184","wem/bandit_party_2","A2SWQM5X54P1O5","either","2","9264","","","32","","","","","","","","","","","","","","","","","","","","","","","","","","","","","","","","","","","","",""
"","text-replacement","10","72083","0.0-10.0","21158184","wem/bandit_party_2","A2SWQM5X54P1O5","either","2","2983","","","32","","","","","","","","","","","","","","","","","","","","","","","","","","","","","","","","","","","","",""
"","text-replacement","11","78100","0.0-11.0","21158184","wem/bandit_party_2","A2SWQM5X54P1O5","either","2","6013","","","32","","","","","","","","","","","","","","","","","","","","","","","","","","","","","","","","","","","","",""
"","bandit","12","82624","0.0-12.0-0.0","21158184","wem/bandit_party_2","A2SWQM5X54P1O5","either","2","3004","","","","","","","0","0","1","0","0","","","","","0","","","","0","","","","","","","","","","","","","74","J","0","img/none_selected_demo.jpg","true","0","",""
"","bandit","13","85528","0.0-13.0-0.0","21158184","wem/bandit_party_2","A2SWQM5X54P1O5","either","2","1380","","","","","","","0","0","1","0","0","","","","","0","","","","0","","","","","","","","","","","","","75","K","0","img/none_selected_demo.jpg","true","0","",""
"","text-replacement","14","90514","0.0-14.0","21158184","wem/bandit_party_2","A2SWQM5X54P1O5","either","2","4982","","","32","","","","","","","","","","","","","","","","","","","","","","","","","","","","","","","","","","","","",""
"","text-replacement","15","96722","0.0-15.0","21158184","wem/bandit_party_2","A2SWQM5X54P1O5","either","2","6200","","","32","","","","","","","","","","","","","","","","","","","","","","","","","","","","","","","","","","","","",""
"","text-replacement","16","101438","0.0-16.0","21158184","wem/bandit_party_2","A2SWQM5X54P1O5","either","2","4712","","","32","","","","","","","","","","","","","","","","","","","","","","","","","","","","","","","","","","","","",""
"","text-replacement","17","103790","0.0-17.0","21158184","wem/bandit_party_2","A2SWQM5X54P1O5","either","2","2344","","","32","","","","","","","","","","","","","","","","","","","","","","","","","","","","","","","","","","","","",""
"","bandit","18","106031","0.0-18.0-0.0","21158184","wem/bandit_party_2","A2SWQM5X54P1O5","either","2","729","","","","","","","0","1","0","","0.8","0.5","0.5","","","0.8","0.2","","","","","","","","","","","","","","","","74","J","0","img/none_selected_demo.jpg","true","0","80_20_practice",""
"","bandit","19","107983","0.0-18.0-1.0","21158184","wem/bandit_party_2","A2SWQM5X54P1O5","either","2","440","","","","","","","0","0","1","0.8","","0.5","0.5","","","","","","","0.8","0.2","","","","","","","","","","","","74","J","0","img/none_selected_demo.jpg","true","0","80_20_practice",""
"","bandit","20","112204","0.0-18.0-2.0","21158184","wem/bandit_party_2","A2SWQM5X54P1O5","either","2","2700","","","","","","","1","0","0","0.8","","0.5","0.5","","","","","","","0.8","0.2","","","","","","","","","","","","74","J","0","img/none_selected_demo.jpg","true","0","80_20_practice",""
"","bandit","21","114680","0.0-18.0-3.0","21158184","wem/bandit_party_2","A2SWQM5X54P1O5","either","2","960","","","","","","","1","0","0","0.8","","0.5","0.5","","","","","","","0.8","0.2","","","","","","","","","","","","74","J","0","img/none_selected_demo.jpg","true","0","80_20_practice",""
"","bandit","22","116916","0.0-18.0-4.0","21158184","wem/bandit_party_2","A2SWQM5X54P1O5","either","2","724","","","","","","","0","1","0","","0.8","0.5","0.5","","","0.8","0.2","","","","","","","","","","","","","","","","74","J","0","img/none_selected_demo.jpg","true","0","80_20_practice",""
"","bandit","23","118768","0.0-18.0-5.0","21158184","wem/bandit_party_2","A2SWQM5X54P1O5","either","2","336","","","","","","","0","0","1","0.2","","0.5","0.5","","","","","","","0.8","0.2","","","","","","","","","","","","75","K","1","","true","0","80_20_practice",""
"","bandit","24","120608","0.0-18.0-6.0","21158184","wem/bandit_party_2","A2SWQM5X54P1O5","either","2","324","","","","","","","0","1","0","","0.2","0.5","0.5","","","0.8","0.2","","","","","","","","","","","","","","","","75","K","1","","true","0","80_20_practice",""
"","bandit","25","122444","0.0-18.0-7.0","21158184","wem/bandit_party_2","A2SWQM5X54P1O5","either","2","320","","","","","","","0","0","1","0.2","","0.5","0.5","","","","","","","0.8","0.2","","","","","","","","","","","","75","K","1","","true","0","80_20_practice",""
"","bandit","26","124300","0.0-18.0-8.0","21158184","wem/bandit_party_2","A2SWQM5X54P1O5","either","2","344","","","","","","","0","0","1","","0.2","0.5","0.5","","","0.8","0.2","","","","","","","","","","","","","","","","75","K","1","","true","0","80_20_practice",""
"","bandit","27","126112","0.0-18.0-9.0","21158184","wem/bandit_party_2","A2SWQM5X54P1O5","either","2","296","","","","","","","0","1","0","","0.2","0.5","0.5","","","0.8","0.2","","","","","","","","","","","","","","","","75","K","1","","true","0","80_20_practice",""
"","bandit","28","127932","0.0-18.0-10.0","21158184","wem/bandit_party_2","A2SWQM5X54P1O5","either","2","304","","","","","","","0","0","1","0.2","","0.5","0.5","","","","","","","0.8","0.2","","","","","","","","","","","","75","K","1","","true","0","80_20_practice",""
"","bandit","29","129728","0.0-18.0-11.0","21158184","wem/bandit_party_2","A2SWQM5X54P1O5","either","2","272","","","","","","","0","0","1","","0.2","0.5","0.5","","","0.8","0.2","","","","","","","","","","","","","","","","75","K","1","","true","0","80_20_practice",""
"","bandit","30","131730","0.0-18.0-12.0","21158184","wem/bandit_party_2","A2SWQM5X54P1O5","either","2","492","","","","","","","0","0","1","","0.8","0.5","0.5","","","0.8","0.2","","","","","","","","","","","","","","","","74","J","0","img/none_selected_demo.jpg","true","0","80_20_practice",""
"","bandit","31","133646","0.0-18.0-13.0","21158184","wem/bandit_party_2","A2SWQM5X54P1O5","either","2","396","","","","","","","0","1","0","","0.8","0.5","0.5","","","0.8","0.2","","","","","","","","","","","","","","","","74","J","0","img/none_selected_demo.jpg","true","0","80_20_practice",""
"","bandit","32","135441","0.0-18.0-14.0","21158184","wem/bandit_party_2","A2SWQM5X54P1O5","either","2","280","","","","","","","0","1","0","","0.8","0.5","0.5","","","0.8","0.2","","","","","","","","","","","","","","","","74","J","0","img/none_selected_demo.jpg","true","0","80_20_practice",""
"","bandit","33","137197","0.0-18.0-15.0","21158184","wem/bandit_party_2","A2SWQM5X54P1O5","either","2","240","","","","","","","0","1","0","","0.8","0.5","0.5","","","0.8","0.2","","","","","","","","","","","","","","","","74","J","0","img/none_selected_demo.jpg","true","0","80_20_practice",""
"","bandit","34","139625","0.0-18.0-16.0","21158184","wem/bandit_party_2","A2SWQM5X54P1O5","either","2","920","","","","","","","0","0","1","0.8","","0.5","0.5","","","","","","","0.8","0.2","","","","","","","","","","","","74","J","0","img/none_selected_demo.jpg","true","0","80_20_practice",""
"","bandit","35","141465","0.0-18.0-17.0","21158184","wem/bandit_party_2","A2SWQM5X54P1O5","either","2","328","","","","","","","1","0","0","0.8","","0.5","0.5","","","","","","","0.8","0.2","","","","","","","","","","","","74","J","0","img/none_selected_demo.jpg","true","0","80_20_practice",""
"","bandit","36","143281","0.0-18.0-18.0","21158184","wem/bandit_party_2","A2SWQM5X54P1O5","either","2","312","","","","","","","0","1","0","","0.8","0.5","0.5","","","0.8","0.2","","","","","","","","","","","","","","","","74","J","0","img/none_selected_demo.jpg","true","0","80_20_practice",""
"","bandit","37","145157","0.0-18.0-19.0","21158184","wem/bandit_party_2","A2SWQM5X54P1O5","either","2","368","","","","","","","1","0","0","0.8","","0.5","0.5","","","","","","","0.8","0.2","","","","","","","","","","","","74","J","0","img/none_selected_demo.jpg","true","0","80_20_practice",""
"","text-replacement","38","151029","0.0-19.0","21158184","wem/bandit_party_2","A2SWQM5X54P1O5","either","2","5868","","","32","","","","","","","","","","","","","","","","","","","","","","","","","","","","","","","","","","","","",""
"","bandit","39","153417","0.0-20.0-0.0","21158184","wem/bandit_party_2","A2SWQM5X54P1O5","either","2","860","","","","","","","1","0","0","1","0","","","","","0","1","","","1","0","","","","","","","","","","","","74","J","0","img/none_selected_demo.jpg","true","0","",""
"","text-replacement","40","156265","0.0-21.0","21158184","wem/bandit_party_2","A2SWQM5X54P1O5","either","2","2836","","","32","","","","","","","","","","","","","","","","","","","","","","","","","","","","","","","","","","","","",""
"","text-replacement","41","158129","0.0-22.0","21158184","wem/bandit_party_2","A2SWQM5X54P1O5","either","2","1856","","","32","","","","","","","","","","","","","","","","","","","","","","","","","","","","","","","","","","","","",""
"","text-replacement","42","160273","0.0-23.0","21158184","wem/bandit_party_2","A2SWQM5X54P1O5","either","2","2136","","","32","","","","","","","","","","","","","","","","","","","","","","","","","","","","","","","","","","","","",""
"","text-replacement","43","162241","0.0-24.0","21158184","wem/bandit_party_2","A2SWQM5X54P1O5","either","2","1964","","","32","","","","","","","","","","","","","","","","","","","","","","","","","","","","","","","","","","","","",""
"","text-replacement","44","165725","0.0-25.0","21158184","wem/bandit_party_2","A2SWQM5X54P1O5","either","2","3476","","","32","","","","","","","","","","","","","","","","","","","","","","","","","","","","","","","","","","","","",""
"","text-replacement","45","167737","0.0-26.0","21158184","wem/bandit_party_2","A2SWQM5X54P1O5","either","2","2008","","","32","","","","","","","","","","","","","","","","","","","","","","","","","","","","","","","","","","","","",""
"","text-replacement","46","171089","0.0-27.0","21158184","wem/bandit_party_2","A2SWQM5X54P1O5","either","2","3344","","","32","","","","","","","","","","","","","","","","","","","","","","","","","","","","","","","","","","","","",""
"","text-replacement","47","173627","0.0-28.0","21158184","wem/bandit_party_2","A2SWQM5X54P1O5","either","2","2530","","","32","","","","","","","","","","","","","","","","","","","","","","","","","","","","","","","","","","","","",""
"","text-replacement","48","177667","0.0-29.0","21158184","wem/bandit_party_2","A2SWQM5X54P1O5","either","2","4036","","","32","","","","","","","","","","","","","","","","","","","","","","","","","","","","","","","","","","","","",""
"","text-replacement","49","179091","0.0-30.0","21158184","wem/bandit_party_2","A2SWQM5X54P1O5","either","2","1416","","","32","","","","","","","","","","","","","","","","","","","","","","","","","","","","","","","","","","","","",""
"","text-replacement","50","186047","0.0-31.0","21158184","wem/bandit_party_2","A2SWQM5X54P1O5","either","2","6944","","","32","","","","","","","","","","","","","","","","","","","","","","","","","","","","","","","","","","","","",""
"","bandit","51","189059","0.0-32.0-0.0","21158184","wem/bandit_party_2","A2SWQM5X54P1O5","either","2","1496","","","","","","","0","1","0","","0.8","0.5","0.5","0.5","0.5","0.8","0.2","0.6","0.2","","","","","","","","","","","","","","72","H","0","img/none_selected.jpg","true","0","full_practice",""
"","bandit","52","190935","0.0-32.0-1.0","21158184","wem/bandit_party_2","A2SWQM5X54P1O5","either","2","368","","","","","","","0","1","0","","0.8","0.5","0.5","0.5","0.5","0.8","0.2","0.6","0.2","","","","","","","","","","","","","","72","H","0","img/none_selected.jpg","true","0","full_practice",""
"","bandit","53","193259","0.0-32.0-2.0","21158184","wem/bandit_party_2","A2SWQM5X54P1O5","either","2","808","","","","","","","0","1","0","","0.8","0.5","0.5","0.5","0.5","0.8","0.2","0.6","0.2","","","","","","","","","","","","","","72","H","0","img/none_selected.jpg","true","0","full_practice",""
"","bandit","54","195107","0.0-32.0-3.0","21158184","wem/bandit_party_2","A2SWQM5X54P1O5","either","2","332","","","","","","","1","0","0","0.8","","0.5","0.5","0.5","0.5","","","","","0.8","0.2","0.6","0.2","","","","","","","","","","72","H","0","img/none_selected.jpg","true","0","full_practice",""
"","bandit","55","197015","0.0-32.0-4.0","21158184","wem/bandit_party_2","A2SWQM5X54P1O5","either","2","380","","","","","","","0","1","0","","0.8","0.5","0.5","0.5","0.5","0.8","0.2","0.6","0.2","","","","","","","","","","","","","","72","H","0","img/none_selected.jpg","true","0","full_practice",""
"","bandit","56","198915","0.0-32.0-5.0","21158184","wem/bandit_party_2","A2SWQM5X54P1O5","either","2","384","","","","","","","0","0","1","0.2","","0.5","0.5","0.5","0.5","","","","","0.8","0.2","0.6","0.2","","","","","","","","","","74","J","1","","true","0","full_practice",""
"","bandit","57","200691","0.0-32.0-6.0","21158184","wem/bandit_party_2","A2SWQM5X54P1O5","either","2","264","","","","","","","1","0","0","0.2","","0.5","0.5","0.5","0.5","","","","","0.8","0.2","0.6","0.2","","","","","","","","","","74","J","1","","true","0","full_practice",""
"","bandit","58","202615","0.0-32.0-7.0","21158184","wem/bandit_party_2","A2SWQM5X54P1O5","either","2","408","","","","","","","1","0","0","0.2","","0.5","0.5","0.5","0.5","","","","","0.8","0.2","0.6","0.2","","","","","","","","","","74","J","1","","true","0","full_practice",""
"","bandit","59","204443","0.0-32.0-8.0","21158184","wem/bandit_party_2","A2SWQM5X54P1O5","either","2","296","","","","","","","0","1","0","","0.2","0.5","0.5","0.5","0.5","0.8","0.2","0.6","0.2","","","","","","","","","","","","","","74","J","1","","true","0","full_practice",""
"","bandit","60","206467","0.0-32.0-9.0","21158184","wem/bandit_party_2","A2SWQM5X54P1O5","either","2","508","","","","","","","0","1","0","","0.6","0.5","0.5","0.5","0.5","0.8","0.2","0.6","0.2","","","","","","","","","","","","","","75","K","2","","true","0","full_practice",""
"","bandit","61","208315","0.0-32.0-10.0","21158184","wem/bandit_party_2","A2SWQM5X54P1O5","either","2","332","","","","","","","0","0","1","0.2","","0.5","0.5","0.5","0.5","","","","","0.8","0.2","0.6","0.2","","","","","","","","","","76","L","3","","true","0","full_practice",""
"","bandit","62","210059","0.0-32.0-11.0","21158184","wem/bandit_party_2","A2SWQM5X54P1O5","either","2","228","","","","","","","0","0","1","","0.6","0.5","0.5","0.5","0.5","0.8","0.2","0.6","0.2","","","","","","","","","","","","","","75","K","2","","true","0","full_practice",""
"","bandit","63","211875","0.0-32.0-12.0","21158184","wem/bandit_party_2","A2SWQM5X54P1O5","either","2","288","","","","","","","0","0","1","0.6","","0.5","0.5","0.5","0.5","","","","","0.8","0.2","0.6","0.2","","","","","","","","","","75","K","2","","true","0","full_practice",""
"","bandit","64","213400","0.0-32.0-13.0","21158184","wem/bandit_party_2","A2SWQM5X54P1O5","either","2","0","","","","","","","0","0","1","0.2","","0.5","0.5","0.5","0.5","","","","","0.8","0.2","0.6","0.2","","","","","","","","","","76","L","3","","true","0","full_practice",""
"","bandit","65","215084","0.0-32.0-14.0","21158184","wem/bandit_party_2","A2SWQM5X54P1O5","either","2","156","","","","","","","0","0","1","","0.2","0.5","0.5","0.5","0.5","0.8","0.2","0.6","0.2","","","","","","","","","","","","","","76","L","3","","true","0","full_practice",""
"","bandit","66","216892","0.0-32.0-15.0","21158184","wem/bandit_party_2","A2SWQM5X54P1O5","either","2","296","","","","","","","0","0","1","","0.2","0.5","0.5","0.5","0.5","0.8","0.2","0.6","0.2","","","","","","","","","","","","","","74","J","1","","true","0","full_practice",""
"","bandit","67","218732","0.0-32.0-16.0","21158184","wem/bandit_party_2","A2SWQM5X54P1O5","either","2","328","","","","","","","0","0","1","","0.2","0.5","0.5","0.5","0.5","0.8","0.2","0.6","0.2","","","","","","","","","","","","","","74","J","1","","true","0","full_practice",""
"","bandit","68","220628","0.0-32.0-17.0","21158184","wem/bandit_party_2","A2SWQM5X54P1O5","either","2","376","","","","","","","1","0","0","0.2","","0.5","0.5","0.5","0.5","","","","","0.8","0.2","0.6","0.2","","","","","","","","","","74","J","1","","true","0","full_practice",""
"","bandit","69","222564","0.0-32.0-18.0","21158184","wem/bandit_party_2","A2SWQM5X54P1O5","either","2","424","","","","","","","0","0","1","","0.2","0.5","0.5","0.5","0.5","0.8","0.2","0.6","0.2","","","","","","","","","","","","","","74","J","1","","true","0","full_practice",""
"","bandit","70","224260","0.0-32.0-19.0","21158184","wem/bandit_party_2","A2SWQM5X54P1O5","either","2","172","","","","","","","0","0","1","0.8","","0.5","0.5","0.5","0.5","","","","","0.8","0.2","0.6","0.2","","","","","","","","","","72","H","0","img/none_selected.jpg","true","0","full_practice",""
"","text","71","228261","0.0-33.0","21158184","wem/bandit_party_2","A2SWQM5X54P1O5","either","2","3969","","","32","","","","","","","","","","","","","","","","","","","","","","","","","","","","","","","","","","","","",""
"","text-replacement","72","236831","0.0-34.0","21158184","wem/bandit_party_2","A2SWQM5X54P1O5","either","2","7554","","","32","","","","","","","","","","","","","","","","","","","","","","","","","","","","","","","","","","","","",""
"","text-replacement","73","248155","0.0-35.0","21158184","wem/bandit_party_2","A2SWQM5X54P1O5","either","2","11312","","","32","","","","","","","","","","","","","","","","","","","","","","","","","","","","","","","","","","","","",""
"","text-replacement","74","252143","0.0-36.0","21158184","wem/bandit_party_2","A2SWQM5X54P1O5","either","2","3980","","","32","","","","","","","","","","","","","","","","","","","","","","","","","","","","","","","","","","","","",""
"","text-replacement","75","256532","0.0-37.0","21158184","wem/bandit_party_2","A2SWQM5X54P1O5","either","2","4381","","","32","","","","","","","","","","","","","","","","","","","","","","","","","","","","","","","","","","","","",""
"","text-replacement","76","258905","0.0-38.0","21158184","wem/bandit_party_2","A2SWQM5X54P1O5","either","2","2361","","","32","","","","","","","","","","","","","","","","","","","","","","","","","","","","","","","","","","","","",""
"","survey-multi-choice-replacement","77","264969","0.0-39.0-0.0","21158184","wem/bandit_party_2","A2SWQM5X54P1O5","either","2","6036","","","","","","","","","","","","","","","","","","","","","","","","Money will be added to the pool for <span style='color:blue;'>DEMOCRATS</span>","","","","","","","attn_check","","","","","","","","","0"
"","survey-multi-choice-replacement","78","271065","0.0-40.0-0.0","21158184","wem/bandit_party_2","A2SWQM5X54P1O5","either","2","5072","","","","","","","","","","","","","","","","","","","","","","","","Equal amounts of money will be added to the pool for <span style='color:blue;'>DEMOCRATS</span> and subtracted from the pool for <span style='color:red;'>REPUBLICANS</span>","","","","","","","attn_check","","","","","","","","","2"
"","survey-multi-choice-replacement","79","273981","0.0-41.0-0.0","21158184","wem/bandit_party_2","A2SWQM5X54P1O5","either","2","1868","","","","","","","","","","","","","","","","","","","","","","","","No money will be added to either pool","","","","","","","attn_check","","","","","","","","","3"
"","bandit","80","278974","0.0-42.0-0.0","21158184","wem/bandit_party_2","A2SWQM5X54P1O5","either","2","2480","","","","","","","0","1","0","","0.9925337928","0.2","0.4","0.6","0.8","0.9925337928","0.7961415707","0.7092854079","0.4841938304","","","","","","","","","","","","","","72","H","0","img/none_selected.jpg","","1","main_expt",""
"","bandit","81","281150","0.0-43.0-0.0","21158184","wem/bandit_party_2","A2SWQM5X54P1O5","either","2","656","","","","","","","1","0","0","0.9909612399","","0.2","0.4","0.6","0.8","","","","","0.9909612399","0.7739630809","0.7343230146","0.5300888233","","","","","","","","","","72","H","0","img/none_selected.jpg","","2","main_expt",""
"","bandit","82","283118","0.0-44.0-0.0","21158184","wem/bandit_party_2","A2SWQM5X54P1O5","either","2","448","","","","","","","0","1","0","","0.9875934203","0.2","0.4","0.6","0.8","0.9875934203","0.807852523","0.7616266478","0.4747636274","","","","","","","","","","","","","","72","H","0","img/none_selected.jpg","","3","main_expt",""
"","bandit","83","284966","0.0-45.0-0.0","21158184","wem/bandit_party_2","A2SWQM5X54P1O5","either","2","336","","","","","","","0","1","0","","0.9782241123","0.2","0.4","0.6","0.8","0.9782241123","0.7922386472","0.7555889459","0.4841015375","","","","","","","","","","","","","","72","H","0","img/none_selected.jpg","","4","main_expt",""
"","bandit","84","286726","0.0-46.0-0.0","21158184","wem/bandit_party_2","A2SWQM5X54P1O5","either","2","244","","","","","","","0","1","0","","0.9756627961","0.2","0.4","0.6","0.8","0.9756627961","0.865094385","0.733520678","0.5545204825","","","","","","","","","","","","","","72","H","0","img/none_selected.jpg","","5","main_expt",""
"","bandit","85","288418","0.0-47.0-0.0","21158184","wem/bandit_party_2","A2SWQM5X54P1O5","either","2","176","","","","","","","0","1","0","","0.967089612","0.2","0.4","0.6","0.8","0.967089612","0.800956518","0.6705264102","0.6032406034","","","","","","","","","","","","","","72","H","0","img/none_selected.jpg","","6","main_expt",""
"","bandit","86","290178","0.0-48.0-0.0","21158184","wem/bandit_party_2","A2SWQM5X54P1O5","either","2","240","","","","","","","0","1","0","","0.9581374084","0.2","0.4","0.6","0.8","0.9581374084","0.826484282","0.6395389268","0.6629125932","","","","","","","","","","","","","","72","H","0","img/none_selected.jpg","","7","main_expt",""
"","bandit","87","291834","0.0-49.0-0.0","21158184","wem/bandit_party_2","A2SWQM5X54P1O5","either","2","148","","","","","","","0","1","0","","0.9470057872","0.2","0.4","0.6","0.8","0.9470057872","0.8721258401","0.6463283336","0.6179372523","","","","","","","","","","","","","","72","H","0","img/none_selected.jpg","","8","main_expt",""
"","bandit","88","293490","0.0-50.0-0.0","21158184","wem/bandit_party_2","A2SWQM5X54P1O5","either","2","136","","","","","","","0","1","0","","0.9776699295","0.2","0.4","0.6","0.8","0.9776699295","0.9123847657","0.5257156782","0.7126464358","","","","","","","","","","","","","","72","H","0","img/none_selected.jpg","","9","main_expt",""
"","bandit","89","295215","0.0-51.0-0.0","21158184","wem/bandit_party_2","A2SWQM5X54P1O5","either","2","200","","","","","","","1","0","0","0.9728878591","","0.2","0.4","0.6","0.8","","","","","0.9728878591","0.8996742502","0.4763364632","0.7356985298","","","","","","","","","","72","H","0","img/none_selected.jpg","","10","main_expt",""
"","bandit","90","297027","0.0-52.0-0.0","21158184","wem/bandit_party_2","A2SWQM5X54P1O5","either","2","288","","","","","","","0","1","0","","0.9593139104","0.2","0.4","0.6","0.8","0.9593139104","0.9131723876","0.4284616273","0.768711937","","","","","","","","","","","","","","72","H","0","img/none_selected.jpg","","11","main_expt",""
"","bandit","91","298815","0.0-53.0-0.0","21158184","wem/bandit_party_2","A2SWQM5X54P1O5","either","2","276","","","","","","","1","0","0","0.8766857583","","0.2","0.4","0.6","0.8","","","","","0.9498917819","0.8766857583","0.3846657661","0.775032537","","","","","","","","","","74","J","1","","","12","main_expt",""
"","bandit","92","300659","0.0-54.0-0.0","21158184","wem/bandit_party_2","A2SWQM5X54P1O5","either","2","320","","","","","","","0","1","0","","0.8395211377","0.2","0.4","0.6","0.8","0.9541602679","0.8395211377","0.4534267517","0.8005481332","","","","","","","","","","","","","","74","J","1","","","13","main_expt",""
"","bandit","93","302559","0.0-55.0-0.0","21158184","wem/bandit_party_2","A2SWQM5X54P1O5","either","2","352","","","","","","","0","1","0","","0.8716273459","0.2","0.4","0.6","0.8","0.9457654821","0.8716273459","0.5781166702","0.8437703121","","","","","","","","","","","","","","74","J","1","","","14","main_expt",""
"","bandit","94","304403","0.0-56.0-0.0","21158184","wem/bandit_party_2","A2SWQM5X54P1O5","either","2","324","","","","","","","1","0","0","0.8884181174","","0.2","0.4","0.6","0.8","","","","","0.961431504","0.8884181174","0.6683268695","0.7878475566","","","","","","","","","","74","J","1","","","15","main_expt",""
"","bandit","95","306231","0.0-57.0-0.0","21158184","wem/bandit_party_2","A2SWQM5X54P1O5","either","2","308","","","","","","","0","1","0","","0.9144873871","0.2","0.4","0.6","0.8","0.9614480804","0.9144873871","0.6948649322","0.7873795395","","","","","","","","","","","","","","74","J","1","","","16","main_expt",""
"","bandit","96","308167","0.0-58.0-0.0","21158184","wem/bandit_party_2","A2SWQM5X54P1O5","either","2","408","","","","","","","0","1","0","","0.7674725463","0.2","0.4","0.6","0.8","0.981184269","0.915766025","0.7674725463","0.8084550093","","","","","","","","","","","","","","75","K","2","","","17","main_expt",""
"","bandit","97","309999","0.0-59.0-0.0","21158184","wem/bandit_party_2","A2SWQM5X54P1O5","either","2","300","","","","","","","0","1","0","","0.7706733977","0.2","0.4","0.6","0.8","0.9861919244","0.9357816117","0.7706733977","0.8436933745","","","","","","","","","","","","","","75","K","2","","","18","main_expt",""
"","bandit","98","311847","0.0-60.0-0.0","21158184","wem/bandit_party_2","A2SWQM5X54P1O5","either","2","324","","","","","","","0","0","1","","0.7396491891","0.2","0.4","0.6","0.8","0.986789567","0.9482019282","0.7396491891","0.8059530903","","","","","","","","","","","","","","75","K","2","","","19","main_expt",""
"","bandit","99","313675","0.0-61.0-0.0","21158184","wem/bandit_party_2","A2SWQM5X54P1O5","either","2","312","","","","","","","0","1","0","","0.6712916173","0.2","0.4","0.6","0.8","0.986183881","0.9433726768","0.6712916173","0.7839513496","","","","","","","","","","","","","","75","K","2","","","20","main_expt",""
"","bandit","100","315493","0.0-62.0-0.0","21158184","wem/bandit_party_2","A2SWQM5X54P1O5","either","2","296","","","","","","","1","0","0","0.6728887443","","0.2","0.4","0.6","0.8","","","","","0.9887099493","0.9488284628","0.6728887443","0.7841815244","","","","","","","","","","75","K","2","","","21","main_expt",""
"","bandit","101","317381","0.0-63.0-0.0","21158184","wem/bandit_party_2","A2SWQM5X54P1O5","either","2","364","","","","","","","1","0","0","0.7838502077","","0.2","0.4","0.6","0.8","","","","","0.992558567","0.9500515088","0.7838502077","0.8256278583","","","","","","","","","","75","K","2","","","22","main_expt",""
"","bandit","102","319189","0.0-64.0-0.0","21158184","wem/bandit_party_2","A2SWQM5X54P1O5","either","2","296","","","","","","","0","1","0","","0.8711917965","0.2","0.4","0.6","0.8","0.9906074595","0.9645760881","0.8711917965","0.7043778873","","","","","","","","","","","","","","75","K","2","","","23","main_expt",""
"","bandit","103","321101","0.0-65.0-0.0","21158184","wem/bandit_party_2","A2SWQM5X54P1O5","either","2","392","","","","","","","1","0","0","0.861124964","","0.2","0.4","0.6","0.8","","","","","0.9828703082","0.946785539","0.861124964","0.7662705475","","","","","","","","","","75","K","2","","","24","main_expt",""
"","bandit","104","322953","0.0-66.0-0.0","21158184","wem/bandit_party_2","A2SWQM5X54P1O5","either","2","336","","","","","","","0","1","0","","0.8551403996","0.2","0.4","0.6","0.8","0.984618899","0.9229473608","0.8551403996","0.6915147264","","","","","","","","","","","","","","75","K","2","","","25","main_expt",""
"","bandit","105","324793","0.0-67.0-0.0","21158184","wem/bandit_party_2","A2SWQM5X54P1O5","either","2","328","","","","","","","0","0","1","0.6844606422","","0.2","0.4","0.6","0.8","","","","","0.9780938917","0.8729820127","0.8959771014","0.6844606422","","","","","","","","","","76","L","3","","","26","main_expt",""
"","bandit","106","326593","0.0-68.0-0.0","21158184","wem/bandit_party_2","A2SWQM5X54P1O5","either","2","280","","","","","","","1","0","0","0.7953701942","","0.2","0.4","0.6","0.8","","","","","0.9634866904","0.859067388","0.8786292531","0.7953701942","","","","","","","","","","76","L","3","","","27","main_expt",""
"","bandit","107","328405","0.0-69.0-0.0","21158184","wem/bandit_party_2","A2SWQM5X54P1O5","either","2","284","","","","","","","0","0","1","0.622657036","","0.2","0.4","0.6","0.8","","","","","0.946494378","0.836267867","0.8920593834","0.622657036","","","","","","","","","","76","L","3","","","28","main_expt",""
"","bandit","108","330021","0.0-70.0-0.0","21158184","wem/bandit_party_2","A2SWQM5X54P1O5","either","2","100","","","","","","","0","1","0","","0.7158546556","0.2","0.4","0.6","0.8","0.9338647731","0.7158546556","0.8234517222","0.5757463716","","","","","","","","","","","","","","74","J","1","","","29","main_expt",""
"","bandit","109","331697","0.0-71.0-0.0","21158184","wem/bandit_party_2","A2SWQM5X54P1O5","either","2","144","","","","","","","1","0","0","0.7262950886","","0.2","0.4","0.6","0.8","","","","","0.9354801528","0.7262950886","0.7963444676","0.6048158844","","","","","","","","","","74","J","1","","","30","main_expt",""
"","bandit","110","333493","0.0-72.0-0.0","21158184","wem/bandit_party_2","A2SWQM5X54P1O5","either","2","272","","","","","","","0","1","0","","0.7049485024","0.2","0.4","0.6","0.8","0.9323861487","0.7049485024","0.6847131082","0.4831208743","","","","","","","","","","","","","","74","J","1","","","31","main_expt",""
"","bandit","111","335197","0.0-73.0-0.0","21158184","wem/bandit_party_2","A2SWQM5X54P1O5","either","2","180","","","","","","","0","1","0","","0.6294605358","0.2","0.4","0.6","0.8","0.9159531952","0.6294605358","0.7745616343","0.4413454117","","","","","","","","","","","","","","74","J","1","","","32","main_expt",""
"","bandit","112","336970","0.0-74.0-0.0","21158184","wem/bandit_party_2","A2SWQM5X54P1O5","either","2","248","","","","","","","1","0","0","0.7097184707","","0.2","0.4","0.6","0.8","","","","","0.9501333659","0.7097184707","0.8111568365","0.589686364","","","","","","","","","","74","J","1","","","33","main_expt",""
"","bandit","113","338766","0.0-75.0-0.0","21158184","wem/bandit_party_2","A2SWQM5X54P1O5","either","2","268","","","","","","","0","0","1","","0.6324728327","0.2","0.4","0.6","0.8","0.9485118263","0.6324728327","0.7291364049","0.5789977489","","","","","","","","","","","","","","74","J","1","","","34","main_expt",""
"","bandit","114","340314","0.0-76.0-0.0","21158184","wem/bandit_party_2","A2SWQM5X54P1O5","either","2","4","","","","","","","0","1","0","","0.7920219322","0.2","0.4","0.6","0.8","0.959491173","0.6809104991","0.7920219322","0.5605822786","","","","","","","","","","","","","","75","K","2","","","35","main_expt",""
"","bandit","115","342098","0.0-77.0-0.0","21158184","wem/bandit_party_2","A2SWQM5X54P1O5","either","2","264","","","","","","","0","0","1","0.7889809596","","0.2","0.4","0.6","0.8","","","","","0.9523687656","0.5745256001","0.7889809596","0.3330948712","","","","","","","","","","75","K","2","","","36","main_expt",""
"","bandit","116","345194","0.0-78.0-0.0","21158184","wem/bandit_party_2","A2SWQM5X54P1O5","either","2","1576","","","","","","","0","0","1","","0.6249275122","0.2","0.4","0.6","0.8","0.9504344127","0.6249275122","0.8060385269","0.2430176499","","","","","","","","","","","","","","74","J","1","","","37","main_expt",""
"","bandit","117","347442","0.0-79.0-0.0","21158184","wem/bandit_party_2","A2SWQM5X54P1O5","either","2","720","","","","","","","0","0","1","","0.5582777804","0.2","0.4","0.6","0.8","0.9321408283","0.5582777804","0.7188782676","0.3106083343","","","","","","","","","","","","","","74","J","1","","","38","main_expt",""
"","bandit","118","349326","0.0-80.0-0.0","21158184","wem/bandit_party_2","A2SWQM5X54P1O5","either","2","352","","","","","","","0","1","0","","0.7387945131","0.2","0.4","0.6","0.8","0.9135525369","0.6619895395","0.7387945131","0.3239447463","","","","","","","","","","","","","","75","K","2","","","39","main_expt",""
"","bandit","119","351282","0.0-81.0-0.0","21158184","wem/bandit_party_2","A2SWQM5X54P1O5","either","2","428","","","","","","","0","1","0","","0.7478035428","0.2","0.4","0.6","0.8","0.8840916364","0.6522152691","0.7478035428","0.2946631509","","","","","","","","","","","","","","75","K","2","","","40","main_expt",""
"","bandit","120","353298","0.0-82.0-0.0","21158184","wem/bandit_party_2","A2SWQM5X54P1O5","either","2","484","","","","","","","0","1","0","","0.7802386085","0.2","0.4","0.6","0.8","0.8747037504","0.6714070371","0.7802386085","0.193597671","","","","","","","","","","","","","","75","K","2","","","41","main_expt",""
"","bandit","121","355366","0.0-83.0-0.0","21158184","wem/bandit_party_2","A2SWQM5X54P1O5","either","2","548","","","","","","","1","0","0","0.7994277013","","0.2","0.4","0.6","0.8","","","","","0.826315498","0.6390104416","0.7994277013","0.1834529884","","","","","","","","","","75","K","2","","","42","main_expt",""
"","bandit","122","357979","0.0-84.0-0.0","21158184","wem/bandit_party_2","A2SWQM5X54P1O5","either","2","1089","","","","","","","0","0","1","0.8718069658","","0.2","0.4","0.6","0.8","","","","","0.7681371561","0.6318841448","0.8718069658","0.1558663495","","","","","","","","","","75","K","2","","","43","main_expt",""
"","bandit","123","359907","0.0-85.0-0.0","21158184","wem/bandit_party_2","A2SWQM5X54P1O5","either","2","404","","","","","","","0","0","1","0.1573065196","","0.2","0.4","0.6","0.8","","","","","0.7584360225","0.5708139437","0.7725207311","0.1573065196","","","","","","","","","","76","L","3","","","44","main_expt",""
"","bandit","124","362307","0.0-86.0-0.0","21158184","wem/bandit_party_2","A2SWQM5X54P1O5","either","2","868","","","","","","","0","1","0","","0.816959585","0.2","0.4","0.6","0.8","0.816959585","0.5703812278","0.8399140445","0.1743203636","","","","","","","","","","","","","","72","H","0","img/none_selected.jpg","","45","main_expt",""
"","bandit","125","364315","0.0-87.0-0.0","21158184","wem/bandit_party_2","A2SWQM5X54P1O5","either","2","488","","","","","","","0","1","0","","0.7571269921","0.2","0.4","0.6","0.8","0.7571269921","0.4520700595","0.7830678696","0.1234040722","","","","","","","","","","","","","","72","H","0","img/none_selected.jpg","","46","main_expt",""
"","bandit","126","366415","0.0-88.0-0.0","21158184","wem/bandit_party_2","A2SWQM5X54P1O5","either","2","568","","","","","","","1","0","0","0.7086567283","","0.2","0.4","0.6","0.8","","","","","0.7086567283","0.4953600952","0.8255209912","0.1592846429","","","","","","","","","","72","H","0","img/none_selected.jpg","","47","main_expt",""
"","bandit","127","368355","0.0-89.0-0.0","21158184","wem/bandit_party_2","A2SWQM5X54P1O5","either","2","416","","","","","","","0","1","0","","0.6428227569","0.2","0.4","0.6","0.8","0.6428227569","0.4912921637","0.7728754614","0.1880090658","","","","","","","","","","","","","","72","H","0","img/none_selected.jpg","","48","main_expt",""
"","bandit","128","370371","0.0-90.0-0.0","21158184","wem/bandit_party_2","A2SWQM5X54P1O5","either","2","492","","","","","","","0","1","0","","0.7004196772","0.2","0.4","0.6","0.8","0.7004196772","0.4694413912","0.8607162984","0.3190576765","","","","","","","","","","","","","","72","H","0","img/none_selected.jpg","","49","main_expt",""
"","bandit","129","372407","0.0-91.0-0.0","21158184","wem/bandit_party_2","A2SWQM5X54P1O5","either","2","524","","","","","","","0","0","1","","0.6418514465","0.2","0.4","0.6","0.8","0.6418514465","0.5835687148","0.8526113732","0.277770718","","","","","","","","","","","","","","72","H","0","img/none_selected.jpg","","50","main_expt",""
"","bandit","130","374391","0.0-92.0-0.0","21158184","wem/bandit_party_2","A2SWQM5X54P1O5","either","2","460","","","","","","","0","1","0","","0.581499138","0.2","0.4","0.6","0.8","0.6322169777","0.581499138","0.8630835666","0.3304163056","","","","","","","","","","","","","","74","J","1","","","51","main_expt",""
"","bandit","131","376327","0.0-93.0-0.0","21158184","wem/bandit_party_2","A2SWQM5X54P1O5","either","2","416","","","","","","","0","0","1","","0.6521379128","0.2","0.4","0.6","0.8","0.6160259873","0.6521379128","0.8689990829","0.3074301744","","","","","","","","","","","","","","74","J","1","","","52","main_expt",""
"","bandit","132","378239","0.0-94.0-0.0","21158184","wem/bandit_party_2","A2SWQM5X54P1O5","either","2","400","","","","","","","0","1","0","","0.8829627288","0.2","0.4","0.6","0.8","0.6635838846","0.5743957808","0.8829627288","0.3292402402","","","","","","","","","","","","","","75","K","2","","","53","main_expt",""
"","bandit","133","380275","0.0-95.0-0.0","21158184","wem/bandit_party_2","A2SWQM5X54P1O5","either","2","500","","","","","","","1","0","0","0.8577096669","","0.2","0.4","0.6","0.8","","","","","0.7334380463","0.4765250731","0.8577096669","0.3701383524","","","","","","","","","","75","K","2","","","54","main_expt",""
"","bandit","134","382567","0.0-96.0-0.0","21158184","wem/bandit_party_2","A2SWQM5X54P1O5","either","2","772","","","","","","","1","0","0","0.7951355038","","0.2","0.4","0.6","0.8","","","","","0.6625049704","0.472038817","0.7951355038","0.4023440482","","","","","","","","","","75","K","2","","","55","main_expt",""
"","bandit","135","384455","0.0-97.0-0.0","21158184","wem/bandit_party_2","A2SWQM5X54P1O5","either","2","356","","","","","","","1","0","0","0.7832403428","","0.2","0.4","0.6","0.8","","","","","0.6244126183","0.6060805283","0.7832403428","0.3320470731","","","","","","","","","","75","K","2","","","56","main_expt",""
"","bandit","136","386195","0.0-98.0-0.0","21158184","wem/bandit_party_2","A2SWQM5X54P1O5","either","2","216","","","","","","","0","0","1","0.7165346004","","0.2","0.4","0.6","0.8","","","","","0.693445159","0.5733746242","0.7165346004","0.3398704556","","","","","","","","","","75","K","2","","","57","main_expt",""
"","bandit","137","387859","0.0-99.0-0.0","21158184","wem/bandit_party_2","A2SWQM5X54P1O5","either","2","140","","","","","","","0","0","1","0.3171476707","","0.2","0.4","0.6","0.8","","","","","0.6603141298","0.5268086549","0.7840704931","0.3171476707","","","","","","","","","","76","L","3","","","58","main_expt",""
"","bandit","138","389611","0.0-100.0-0.0","21158184","wem/bandit_party_2","A2SWQM5X54P1O5","either","2","240","","","","","","","0","0","1","","0.6435133917","0.2","0.4","0.6","0.8","0.6435133917","0.5298916697","0.7166558068","0.1868584885","","","","","","","","","","","","","","72","H","0","img/none_selected.jpg","","59","main_expt",""
"","bandit","139","391723","0.0-101.0-0.0","21158184","wem/bandit_party_2","A2SWQM5X54P1O5","either","2","588","","","","","","","0","1","0","","0.6720075741","0.2","0.4","0.6","0.8","0.6720075741","0.5547432704","0.6505055492","0.2163153633","","","","","","","","","","","","","","72","H","0","img/none_selected.jpg","","60","main_expt",""
"","bandit","140","393623","0.0-102.0-0.0","21158184","wem/bandit_party_2","A2SWQM5X54P1O5","either","2","360","","","","","","","0","0","1","0.6703611074","","0.2","0.4","0.6","0.8","","","","","0.6703611074","0.5407031957","0.6465946667","0.2086512551","","","","","","","","","","72","H","0","img/none_selected.jpg","","61","main_expt",""
"","bandit","141","395607","0.0-103.0-0.0","21158184","wem/bandit_party_2","A2SWQM5X54P1O5","either","2","476","","","","","","","1","0","0","0.6993449034","","0.2","0.4","0.6","0.8","","","","","0.64477312","0.6993449034","0.709990362","0.2250062338","","","","","","","","","","74","J","1","","","62","main_expt",""
"","bandit","142","397809","0.0-104.0-0.0","21158184","wem/bandit_party_2","A2SWQM5X54P1O5","either","2","680","","","","","","","0","1","0","","0.6342967703","0.2","0.4","0.6","0.8","0.509049177","0.6342967703","0.7542168012","0.2739380208","","","","","","","","","","","","","","74","J","1","","","63","main_expt",""
"","bandit","143","400029","0.0-105.0-0.0","21158184","wem/bandit_party_2","A2SWQM5X54P1O5","either","2","700","","","","","","","0","1","0","","0.5961490325","0.2","0.4","0.6","0.8","0.5535424332","0.5961490325","0.7660604158","0.3449536465","","","","","","","","","","","","","","74","J","1","","","64","main_expt",""
"","bandit","144","402345","0.0-106.0-0.0","21158184","wem/bandit_party_2","A2SWQM5X54P1O5","either","2","788","","","","","","","1","0","0","0.5771190674","","0.2","0.4","0.6","0.8","","","","","0.6608621899","0.5771190674","0.7572602099","0.34640195","","","","","","","","","","74","J","1","","","65","main_expt",""
"","bandit","145","404437","0.0-107.0-0.0","21158184","wem/bandit_party_2","A2SWQM5X54P1O5","either","2","560","","","","","","","0","0","1","","0.4765921407","0.2","0.4","0.6","0.8","0.6535341977","0.4765921407","0.686926195","0.5266288285","","","","","","","","","","","","","","74","J","1","","","66","main_expt",""
"","bandit","146","406841","0.0-108.0-0.0","21158184","wem/bandit_party_2","A2SWQM5X54P1O5","either","2","884","","","","","","","1","0","0","0.7334195653","","0.2","0.4","0.6","0.8","","","","","0.6592628399","0.5714361875","0.7334195653","0.5588671697","","","","","","","","","","75","K","2","","","67","main_expt",""
"","bandit","147","408881","0.0-109.0-0.0","21158184","wem/bandit_party_2","A2SWQM5X54P1O5","either","2","508","","","","","","","0","0","1","0.6114245881","","0.2","0.4","0.6","0.8","","","","","0.6735013879","0.6231829193","0.6114245881","0.6097536784","","","","","","","","","","75","K","2","","","68","main_expt",""
"","bandit","148","411165","0.0-110.0-0.0","21158184","wem/bandit_party_2","A2SWQM5X54P1O5","either","2","740","","","","","","","1","0","0","0.533457584","","0.2","0.4","0.6","0.8","","","","","0.7209687993","0.5130256365","0.6460921668","0.533457584","","","","","","","","","","76","L","3","","","69","main_expt",""
"","bandit","149","413109","0.0-111.0-0.0","21158184","wem/bandit_party_2","A2SWQM5X54P1O5","either","2","424","","","","","","","0","0","1","","0.4124750721","0.2","0.4","0.6","0.8","0.690528825","0.5167166","0.6700702736","0.4124750721","","","","","","","","","","","","","","76","L","3","","","70","main_expt",""
"","bandit","150","415057","0.0-112.0-0.0","21158184","wem/bandit_party_2","A2SWQM5X54P1O5","either","2","392","","","","","","","1","0","0","0.6388012411","","0.2","0.4","0.6","0.8","","","","","0.6453310316","0.6448170737","0.6388012411","0.4486526525","","","","","","","","","","75","K","2","","","71","main_expt",""
"","bandit","151","417197","0.0-113.0-0.0","21158184","wem/bandit_party_2","A2SWQM5X54P1O5","either","2","604","","","","","","","0","0","1","","0.6046900378","0.2","0.4","0.6","0.8","0.8140348339","0.5640434706","0.6046900378","0.4313602212","","","","","","","","","","","","","","75","K","2","","","72","main_expt",""
"","bandit","152","419141","0.0-114.0-0.0","21158184","wem/bandit_party_2","A2SWQM5X54P1O5","either","2","420","","","","","","","1","0","0","0.6296110197","","0.2","0.4","0.6","0.8","","","","","0.820931829","0.6296110197","0.6062428704","0.3639072561","","","","","","","","","","74","J","1","","","73","main_expt",""
"","bandit","153","421489","0.0-115.0-0.0","21158184","wem/bandit_party_2","A2SWQM5X54P1O5","either","2","820","","","","","","","0","1","0","","0.6730210969","0.2","0.4","0.6","0.8","0.8096233945","0.6730210969","0.6237194739","0.2882181569","","","","","","","","","","","","","","74","J","1","","","74","main_expt",""
"","bandit","154","423837","0.0-116.0-0.0","21158184","wem/bandit_party_2","A2SWQM5X54P1O5","either","2","824","","","","","","","0","1","0","","0.5720403827","0.2","0.4","0.6","0.8","0.7615001707","0.5720403827","0.5971007372","0.3561187133","","","","","","","","","","","","","","74","J","1","","","75","main_expt",""
"","bandit","155","426365","0.0-117.0-0.0","21158184","wem/bandit_party_2","A2SWQM5X54P1O5","either","2","1008","","","","","","","1","0","0","0.6303512149","","0.2","0.4","0.6","0.8","","","","","0.8147365981","0.6303512149","0.5810032438","0.4480894403","","","","","","","","","","74","J","1","","","76","main_expt",""
"","bandit","156","428717","0.0-118.0-0.0","21158184","wem/bandit_party_2","A2SWQM5X54P1O5","either","2","832","","","","","","","0","1","0","","0.5531797874","0.2","0.4","0.6","0.8","0.8926338818","0.5531797874","0.5792233978","0.3220850356","","","","","","","","","","","","","","74","J","1","","","77","main_expt",""
"","bandit","157","431109","0.0-119.0-0.0","21158184","wem/bandit_party_2","A2SWQM5X54P1O5","either","2","868","","","","","","","1","0","0","0.5449672882","","0.2","0.4","0.6","0.8","","","","","0.8669072201","0.5449672882","0.692511921","0.3281133775","","","","","","","","","","74","J","1","","","78","main_expt",""
"","bandit","158","433701","0.0-120.0-0.0","21158184","wem/bandit_party_2","A2SWQM5X54P1O5","either","2","1060","","","","","","","0","1","0","","0.4484013318","0.2","0.4","0.6","0.8","0.9114006046","0.4484013318","0.7019625083","0.3814329202","","","","","","","","","","","","","","74","J","1","","","79","main_expt",""
"","bandit","159","435837","0.0-121.0-0.0","21158184","wem/bandit_party_2","A2SWQM5X54P1O5","either","2","616","","","","","","","0","1","0","","0.5041425745","0.2","0.4","0.6","0.8","0.9268398106","0.5041425745","0.6785675641","0.3512572076","","","","","","","","","","","","","","74","J","1","","","80","main_expt",""
"","bandit","160","438136","0.0-122.0-0.0","21158184","wem/bandit_party_2","A2SWQM5X54P1O5","either","2","772","","","","","","","0","0","1","0.3462078978","","0.2","0.4","0.6","0.8","","","","","0.9582858862","0.3462078978","0.7101061672","0.3624285329","","","","","","","","","","74","J","1","","","81","main_expt",""
"","bandit","161","440469","0.0-123.0-0.0","21158184","wem/bandit_party_2","A2SWQM5X54P1O5","either","2","809","","","","","","","1","0","0","0.9590071975","","0.2","0.4","0.6","0.8","","","","","0.9590071975","0.3226795418","0.7217376576","0.3111883408","","","","","","","","","","72","H","0","img/none_selected.jpg","","82","main_expt",""
"","bandit","162","442693","0.0-124.0-0.0","21158184","wem/bandit_party_2","A2SWQM5X54P1O5","either","2","692","","","","","","","0","1","0","","0.9379973093","0.2","0.4","0.6","0.8","0.9379973093","0.3023868023","0.6437777395","0.243162563","","","","","","","","","","","","","","72","H","0","img/none_selected.jpg","","83","main_expt",""
"","bandit","163","445897","0.0-125.0-0.0","21158184","wem/bandit_party_2","A2SWQM5X54P1O5","either","2","1676","","","","","","","1","0","0","0.9411979228","","0.2","0.4","0.6","0.8","","","","","0.9411979228","0.4040419094","0.6533183273","0.347146949","","","","","","","","","","72","H","0","img/none_selected.jpg","","84","main_expt",""
"","bandit","164","447957","0.0-126.0-0.0","21158184","wem/bandit_party_2","A2SWQM5X54P1O5","either","2","548","","","","","","","1","0","0","0.9441700551","","0.2","0.4","0.6","0.8","","","","","0.9441700551","0.4716136817","0.7469548387","0.4416309426","","","","","","","","","","72","H","0","img/none_selected.jpg","","85","main_expt",""
"","bandit","165","451301","0.0-127.0-0.0","21158184","wem/bandit_party_2","A2SWQM5X54P1O5","either","2","1812","","","","","","","0","1","0","","0.9323605113","0.2","0.4","0.6","0.8","0.9323605113","0.4455883603","0.7366570046","0.4523797492","","","","","","","","","","","","","","72","H","0","img/none_selected.jpg","","86","main_expt",""
"","bandit","166","454817","0.0-128.0-0.0","21158184","wem/bandit_party_2","A2SWQM5X54P1O5","either","2","1980","","","","","","","0","1","0","","0.8871332711","0.2","0.4","0.6","0.8","0.8871332711","0.5952575165","0.7142428019","0.4621103264","","","","","","","","","","","","","","72","H","0","img/none_selected.jpg","","87","main_expt",""
"","bandit","167","457781","0.0-129.0-0.0","21158184","wem/bandit_party_2","A2SWQM5X54P1O5","either","2","1436","","","","","","","0","1","0","","0.8520973281","0.2","0.4","0.6","0.8","0.8520973281","0.5333825583","0.7057172343","0.3800084876","","","","","","","","","","","","","","72","H","0","img/none_selected.jpg","","88","main_expt",""
"","bandit","168","461195","0.0-130.0-0.0","21158184","wem/bandit_party_2","A2SWQM5X54P1O5","either","2","1878","","","","","","","0","1","0","","0.7882210871","0.2","0.4","0.6","0.8","0.7882210871","0.4583166828","0.7289934888","0.2354372355","","","","","","","","","","","","","","72","H","0","img/none_selected.jpg","","89","main_expt",""
"","bandit","169","464075","0.0-131.0-0.0","21158184","wem/bandit_party_2","A2SWQM5X54P1O5","either","2","1360","","","","","","","1","0","0","0.720110267","","0.2","0.4","0.6","0.8","","","","","0.720110267","0.4782349553","0.7475354559","0.2978482647","","","","","","","","","","72","H","0","img/none_selected.jpg","","90","main_expt",""
"","bandit","170","468211","0.0-132.0-0.0","21158184","wem/bandit_party_2","A2SWQM5X54P1O5","either","2","2600","","","","","","","0","0","1","","0.7390342074","0.2","0.4","0.6","0.8","0.7390342074","0.464138054","0.6316706059","0.3723871884","","","","","","","","","","","","","","72","H","0","img/none_selected.jpg","","91","main_expt",""
"","bandit","171","470983","0.0-133.0-0.0","21158184","wem/bandit_party_2","A2SWQM5X54P1O5","either","2","1240","","","","","","","1","0","0","0.5084128334","","0.2","0.4","0.6","0.8","","","","","0.8135224625","0.5084128334","0.6957908828","0.5400298203","","","","","","","","","","74","J","1","","","92","main_expt",""
"","bandit","172","473971","0.0-134.0-0.0","21158184","wem/bandit_party_2","A2SWQM5X54P1O5","either","2","1460","","","","","","","0","1","0","","0.5211356389","0.2","0.4","0.6","0.8","0.7814404678","0.5211356389","0.6812665662","0.5134744583","","","","","","","","","","","","","","74","J","1","","","93","main_expt",""
"","bandit","173","477107","0.0-135.0-0.0","21158184","wem/bandit_party_2","A2SWQM5X54P1O5","either","2","1604","","","","","","","0","0","1","0.4554037602","","0.2","0.4","0.6","0.8","","","","","0.7672416568","0.4554037602","0.6412933588","0.4101580275","","","","","","","","","","74","J","1","","","94","main_expt",""
"","bandit","174","479588","0.0-136.0-0.0","21158184","wem/bandit_party_2","A2SWQM5X54P1O5","either","2","952","","","","","","","1","0","0","0.5696630174","","0.2","0.4","0.6","0.8","","","","","0.7573973965","0.4195046205","0.5696630174","0.2995167601","","","","","","","","","","75","K","2","","","95","main_expt",""
"","bandit","175","481840","0.0-137.0-0.0","21158184","wem/bandit_party_2","A2SWQM5X54P1O5","either","2","724","","","","","","","0","0","1","0.6076398096","","0.2","0.4","0.6","0.8","","","","","0.8177369732","0.3638478563","0.6076398096","0.2934894425","","","","","","","","","","75","K","2","","","96","main_expt",""
"","bandit","176","483828","0.0-138.0-0.0","21158184","wem/bandit_party_2","A2SWQM5X54P1O5","either","2","460","","","","","","","0","0","1","0.2802715202","","0.2","0.4","0.6","0.8","","","","","0.8124666872","0.2839735208","0.5551612935","0.2802715202","","","","","","","","","","76","L","3","","","97","main_expt",""
"","bandit","177","485888","0.0-139.0-0.0","21158184","wem/bandit_party_2","A2SWQM5X54P1O5","either","2","524","","","","","","","0","1","0","","0.2703087955","0.2","0.4","0.6","0.8","0.881496875","0.2109275999","0.6354974245","0.2703087955","","","","","","","","","","","","","","76","L","3","","","98","main_expt",""
"","bandit","178","488044","0.0-140.0-0.0","21158184","wem/bandit_party_2","A2SWQM5X54P1O5","either","2","632","","","","","","","0","0","1","","0.3027543159","0.2","0.4","0.6","0.8","0.8785981907","0.1531506719","0.5945745664","0.3027543159","","","","","","","","","","","","","","76","L","3","","","99","main_expt",""
"","bandit","179","489868","0.0-141.0-0.0","21158184","wem/bandit_party_2","A2SWQM5X54P1O5","either","2","300","","","","","","","0","0","1","0.5679097985","","0.2","0.4","0.6","0.8","","","","","0.8494581726","0.1262108991","0.5679097985","0.3645318829","","","","","","","","","","75","K","2","","","100","main_expt",""
"","bandit","180","491748","0.0-142.0-0.0","21158184","wem/bandit_party_2","A2SWQM5X54P1O5","either","2","348","","","","","","","0","0","1","","0.1340220502","0.2","0.4","0.6","0.8","0.7754784616","0.1340220502","0.6430580454","0.4315832637","","","","","","","","","","","","","","74","J","1","","","101","main_expt",""
"","bandit","181","494132","0.0-143.0-0.0","21158184","wem/bandit_party_2","A2SWQM5X54P1O5","either","2","852","","","","","","","1","0","0","0.7626736499","","0.2","0.4","0.6","0.8","","","","","0.7626736499","0.2167126086","0.6340200926","0.3608531129","","","","","","","","","","72","H","0","img/none_selected.jpg","","102","main_expt",""
"","bandit","182","496768","0.0-144.0-0.0","21158184","wem/bandit_party_2","A2SWQM5X54P1O5","either","2","1116","","","","","","","0","0","1","","0.7329996306","0.2","0.4","0.6","0.8","0.7329996306","0.2796352144","0.6377668076","0.3688981903","","","","","","","","","","","","","","72","H","0","img/none_selected.jpg","","103","main_expt",""
"","bandit","183","498704","0.0-145.0-0.0","21158184","wem/bandit_party_2","A2SWQM5X54P1O5","either","2","408","","","","","","","0","0","1","","0.3556406549","0.2","0.4","0.6","0.8","0.7467689404","0.3556406549","0.6578341575","0.3758155051","","","","","","","","","","","","","","74","J","1","","","104","main_expt",""
"","bandit","184","500630","0.0-146.0-0.0","21158184","wem/bandit_party_2","A2SWQM5X54P1O5","either","2","392","","","","","","","0","0","1","","0.6727034752","0.2","0.4","0.6","0.8","0.737018723","0.3233911601","0.6727034752","0.4508947075","","","","","","","","","","","","","","75","K","2","","","105","main_expt",""
"","bandit","185","502590","0.0-147.0-0.0","21158184","wem/bandit_party_2","A2SWQM5X54P1O5","either","2","432","","","","","","","0","0","1","0.4132181144","","0.2","0.4","0.6","0.8","","","","","0.655194185","0.2024631506","0.6386482702","0.4132181144","","","","","","","","","","76","L","3","","","106","main_expt",""
"","bandit","186","504430","0.0-148.0-0.0","21158184","wem/bandit_party_2","A2SWQM5X54P1O5","either","2","316","","","","","","","0","0","1","","0.7122819559","0.2","0.4","0.6","0.8","0.7122819559","0.2290393164","0.6788938686","0.4393512677","","","","","","","","","","","","","","72","H","0","img/none_selected.jpg","","107","main_expt",""
"","bandit","187","506394","0.0-149.0-0.0","21158184","wem/bandit_party_2","A2SWQM5X54P1O5","either","2","440","","","","","","","1","0","0","0.7326995505","","0.2","0.4","0.6","0.8","","","","","0.7326995505","0.2217712157","0.7076498576","0.4964319729","","","","","","","","","","72","H","0","img/none_selected.jpg","","108","main_expt",""
"","bandit","188","508466","0.0-150.0-0.0","21158184","wem/bandit_party_2","A2SWQM5X54P1O5","either","2","548","","","","","","","0","1","0","","0.7165499475","0.2","0.4","0.6","0.8","0.7165499475","0.1566860935","0.6932550908","0.4790921069","","","","","","","","","","","","","","72","H","0","img/none_selected.jpg","","109","main_expt",""
"","bandit","189","510558","0.0-151.0-0.0","21158184","wem/bandit_party_2","A2SWQM5X54P1O5","either","2","568","","","","","","","0","0","1","","0.6058017554","0.2","0.4","0.6","0.8","0.6058017554","0.1083987113","0.7436061547","0.5856434505","","","","","","","","","","","","","","72","H","0","img/none_selected.jpg","","110","main_expt",""
"","bandit","190","512750","0.0-152.0-0.0","21158184","wem/bandit_party_2","A2SWQM5X54P1O5","either","2","660","","","","","","","0","0","1","","0.217828795","0.2","0.4","0.6","0.8","0.5476823758","0.217828795","0.657194241","0.6444230696","","","","","","","","","","","","","","74","J","1","","","111","main_expt",""
"","bandit","191","514906","0.0-153.0-0.0","21158184","wem/bandit_party_2","A2SWQM5X54P1O5","either","2","616","","","","","","","1","0","0","0.6317228327","","0.2","0.4","0.6","0.8","","","","","0.5688313193","0.2212119155","0.6317228327","0.603417252","","","","","","","","","","75","K","2","","","112","main_expt",""
"","bandit","192","517006","0.0-154.0-0.0","21158184","wem/bandit_party_2","A2SWQM5X54P1O5","either","2","576","","","","","","","0","0","1","0.4985892417","","0.2","0.4","0.6","0.8","","","","","0.50852785","0.2374112476","0.4985892417","0.420613871","","","","","","","","","","75","K","2","","","113","main_expt",""
"","bandit","193","519490","0.0-155.0-0.0","21158184","wem/bandit_party_2","A2SWQM5X54P1O5","either","2","952","","","","","","","1","0","0","0.2851569533","","0.2","0.4","0.6","0.8","","","","","0.5711084253","0.2703699348","0.579071345","0.2851569533","","","","","","","","","","76","L","3","","","114","main_expt",""
"","bandit","194","521654","0.0-156.0-0.0","21158184","wem/bandit_party_2","A2SWQM5X54P1O5","either","2","640","","","","","","","0","1","0","","0.3166589884","0.2","0.4","0.6","0.8","0.4177754351","0.1928485376","0.4595939904","0.3166589884","","","","","","","","","","","","","","76","L","3","","","115","main_expt",""
"","bandit","195","523594","0.0-157.0-0.0","21158184","wem/bandit_party_2","A2SWQM5X54P1O5","either","2","408","","","","","","","1","0","0","0.3928451607","","0.2","0.4","0.6","0.8","","","","","0.387840809","0.136356343","0.3744567546","0.3928451607","","","","","","","","","","76","L","3","","","116","main_expt",""
"","bandit","196","525434","0.0-158.0-0.0","21158184","wem/bandit_party_2","A2SWQM5X54P1O5","either","2","320","","","","","","","0","0","1","0.560845346","","0.2","0.4","0.6","0.8","","","","","0.4456731606","0.2193113504","0.302145019","0.560845346","","","","","","","","","","76","L","3","","","117","main_expt",""
"","bandit","197","527402","0.0-159.0-0.0","21158184","wem/bandit_party_2","A2SWQM5X54P1O5","either","2","432","","","","","","","1","0","0","0.3522466686","","0.2","0.4","0.6","0.8","","","","","0.3045880574","0.2686792008","0.3522466686","0.5536818424","","","","","","","","","","75","K","2","","","118","main_expt",""
"","bandit","198","529622","0.0-160.0-0.0","21158184","wem/bandit_party_2","A2SWQM5X54P1O5","either","2","696","","","","","","","0","0","1","","0.4425542362","0.2","0.4","0.6","0.8","0.3994134075","0.2668270476","0.4425542362","0.3617659687","","","","","","","","","","","","","","75","K","2","","","119","main_expt",""
"","bandit","199","531562","0.0-161.0-0.0","21158184","wem/bandit_party_2","A2SWQM5X54P1O5","either","2","404","","","","","","","0","1","0","","0.3377532805","0.2","0.4","0.6","0.8","0.351449483","0.3723992114","0.3377532805","0.3454740543","","","","","","","","","","","","","","75","K","2","","","120","main_expt",""
"","bandit","200","533554","0.0-162.0-0.0","21158184","wem/bandit_party_2","A2SWQM5X54P1O5","either","2","460","","","","","","","1","0","0","0.2929504356","","0.2","0.4","0.6","0.8","","","","","0.3641911367","0.4001238515","0.2929504356","0.2798257893","","","","","","","","","","75","K","2","","","121","main_expt",""
"","bandit","201","535466","0.0-163.0-0.0","21158184","wem/bandit_party_2","A2SWQM5X54P1O5","either","2","384","","","","","","","0","0","1","0.2504028886","","0.2","0.4","0.6","0.8","","","","","0.2673706252","0.4090120715","0.2504028886","0.2261540995","","","","","","","","","","75","K","2","","","122","main_expt",""
"","bandit","202","537422","0.0-164.0-0.0","21158184","wem/bandit_party_2","A2SWQM5X54P1O5","either","2","416","","","","","","","0","1","0","","0.4746108064","0.2","0.4","0.6","0.8","0.3455372181","0.4746108064","0.2414849785","0.2766663047","","","","","","","","","","","","","","74","J","1","","","123","main_expt",""
"","bandit","203","539394","0.0-165.0-0.0","21158184","wem/bandit_party_2","A2SWQM5X54P1O5","either","2","440","","","","","","","0","0","1","","0.453231646","0.2","0.4","0.6","0.8","0.3524137631","0.453231646","0.1791255979","0.3126864395","","","","","","","","","","","","","","74","J","1","","","124","main_expt",""
"","bandit","204","541318","0.0-166.0-0.0","21158184","wem/bandit_party_2","A2SWQM5X54P1O5","either","2","392","","","","","","","0","1","0","","0.3680881866","0.2","0.4","0.6","0.8","0.3680881866","0.4888945922","0.1952456852","0.2772507379","","","","","","","","","","","","","","72","H","0","img/none_selected.jpg","","125","main_expt",""
"","bandit","205","543374","0.0-167.0-0.0","21158184","wem/bandit_party_2","A2SWQM5X54P1O5","either","2","516","","","","","","","0","0","1","","0.2884444508","0.2","0.4","0.6","0.8","0.2884444508","0.396932523","0.2614303707","0.2441417391","","","","","","","","","","","","","","72","H","0","img/none_selected.jpg","","126","main_expt",""
"","bandit","206","545446","0.0-168.0-0.0","21158184","wem/bandit_party_2","A2SWQM5X54P1O5","either","2","552","","","","","","","0","1","0","","0.4026562496","0.2","0.4","0.6","0.8","0.2931854252","0.4026562496","0.267511235","0.2304038214","","","","","","","","","","","","","","74","J","1","","","127","main_expt",""
"","bandit","207","547738","0.0-169.0-0.0","21158184","wem/bandit_party_2","A2SWQM5X54P1O5","either","2","756","","","","","","","0","0","1","0.3072143153","","0.2","0.4","0.6","0.8","","","","","0.3115494401","0.3072143153","0.2582460394","0.2463692943","","","","","","","","","","74","J","1","","","128","main_expt",""
"","bandit","208","549850","0.0-170.0-0.0","21158184","wem/bandit_party_2","A2SWQM5X54P1O5","either","2","580","","","","","","","0","1","0","","0.249100023","0.2","0.4","0.6","0.8","0.287093163","0.3024431642","0.249100023","0.262841392","","","","","","","","","","","","","","75","K","2","","","129","main_expt",""
"","bandit","209","551870","0.0-171.0-0.0","21158184","wem/bandit_party_2","A2SWQM5X54P1O5","either","2","484","","","","","","","0","0","1","0.2014680341","","0.2","0.4","0.6","0.8","","","","","0.242368994","0.383823705","0.2014680341","0.3044503748","","","","","","","","","","75","K","2","","","130","main_expt",""
"","bandit","210","553786","0.0-172.0-0.0","21158184","wem/bandit_party_2","A2SWQM5X54P1O5","either","2","392","","","","","","","0","0","1","","0.2231782293","0.2","0.4","0.6","0.8","0.3141093292","0.5448185218","0.2514612397","0.2231782293","","","","","","","","","","","","","","76","L","3","","","131","main_expt",""
"","bandit","211","555682","0.0-173.0-0.0","21158184","wem/bandit_party_2","A2SWQM5X54P1O5","either","2","368","","","","","","","0","0","1","0.1719215191","","0.2","0.4","0.6","0.8","","","","","0.3186943837","0.5741986762","0.1719215191","0.265126842","","","","","","","","","","75","K","2","","","132","main_expt",""
"","bandit","212","557506","0.0-174.0-0.0","21158184","wem/bandit_party_2","A2SWQM5X54P1O5","either","2","292","","","","","","","0","1","0","","0.54298015","0.2","0.4","0.6","0.8","0.3218599317","0.54298015","0.151851594","0.1996467811","","","","","","","","","","","","","","74","J","1","","","133","main_expt",""
"","bandit","213","559534","0.0-175.0-0.0","21158184","wem/bandit_party_2","A2SWQM5X54P1O5","either","2","508","","","","","","","1","0","0","0.5504084981","","0.2","0.4","0.6","0.8","","","","","0.3372263261","0.5504084981","0.1693242304","0.1900899503","","","","","","","","","","74","J","1","","","134","main_expt",""
"","bandit","214","561455","0.0-176.0-0.0","21158184","wem/bandit_party_2","A2SWQM5X54P1O5","either","2","392","","","","","","","0","0","1","","0.4874659601","0.2","0.4","0.6","0.8","0.3515125386","0.4874659601","0.1541174352","0.172295534","","","","","","","","","","","","","","74","J","1","","","135","main_expt",""
"","bandit","215","563635","0.0-177.0-0.0","21158184","wem/bandit_party_2","A2SWQM5X54P1O5","either","2","664","","","","","","","0","1","0","","0.2312583875","0.2","0.4","0.6","0.8","0.2312583875","0.3677382912","0.1374012581","0.1171098277","","","","","","","","","","","","","","72","H","0","img/none_selected.jpg","","136","main_expt",""
"","bandit","216","565575","0.0-178.0-0.0","21158184","wem/bandit_party_2","A2SWQM5X54P1O5","either","2","408","","","","","","","0","0","1","0.3496768842","","0.2","0.4","0.6","0.8","","","","","0.3496768842","0.2944012193","0.2889288236","0.1390909791","","","","","","","","","","72","H","0","img/none_selected.jpg","","137","main_expt",""
"","bandit","217","567447","0.0-179.0-0.0","21158184","wem/bandit_party_2","A2SWQM5X54P1O5","either","2","336","","","","","","","0","1","0","","0.3020033879","0.2","0.4","0.6","0.8","0.4217982028","0.3020033879","0.2177367931","0.1209370274","","","","","","","","","","","","","","74","J","1","","","138","main_expt",""
"","bandit","218","569907","0.0-180.0-0.0","21158184","wem/bandit_party_2","A2SWQM5X54P1O5","either","2","936","","","","","","","1","0","0","0.2908104057","","0.2","0.4","0.6","0.8","","","","","0.5123523738","0.2908104057","0.1704259453","0.1441291996","","","","","","","","","","74","J","1","","","139","main_expt",""
"","bandit","219","572623","0.0-181.0-0.0","21158184","wem/bandit_party_2","A2SWQM5X54P1O5","either","2","1180","","","","","","","0","1","0","","0.2738290205","0.2","0.4","0.6","0.8","0.3892042576","0.2738290205","0.1827322183","0.1380406349","","","","","","","","","","","","","","74","J","1","","","140","main_expt",""
"","bandit","220","576255","0.0-182.0-0.0","21158184","wem/bandit_party_2","A2SWQM5X54P1O5","either","2","2104","","","","","","","0","0","1","0.3865798498","","0.2","0.4","0.6","0.8","","","","","0.4680147771","0.3865798498","0.2030288612","0.1312769784","","","","","","","","","","74","J","1","","","141","main_expt",""
"","bandit","221","578843","0.0-183.0-0.0","21158184","wem/bandit_party_2","A2SWQM5X54P1O5","either","2","1056","","","","","","","0","0","1","0.3970866904","","0.2","0.4","0.6","0.8","","","","","0.3970866904","0.3507917403","0.1760536641","0.1880730553","","","","","","","","","","72","H","0","img/none_selected.jpg","","142","main_expt",""
"","bandit","222","580999","0.0-184.0-0.0","21158184","wem/bandit_party_2","A2SWQM5X54P1O5","either","2","620","","","","","","","1","0","0","0.1428921374","","0.2","0.4","0.6","0.8","","","","","0.3609481858","0.2787839286","0.1428921374","0.1798266991","","","","","","","","","","75","K","2","","","143","main_expt",""
"","bandit","223","583287","0.0-185.0-0.0","21158184","wem/bandit_party_2","A2SWQM5X54P1O5","either","2","748","","","","","","","0","0","1","0.1260474704","","0.2","0.4","0.6","0.8","","","","","0.3701270871","0.2106619402","0.1260474704","0.1881666754","","","","","","","","","","75","K","2","","","144","main_expt",""
"","bandit","224","585163","0.0-186.0-0.0","21158184","wem/bandit_party_2","A2SWQM5X54P1O5","either","2","344","","","","","","","0","0","1","0.1683386122","","0.2","0.4","0.6","0.8","","","","","0.3110645609","0.3211677341","0.151337539","0.1683386122","","","","","","","","","","76","L","3","","","145","main_expt",""
"","bandit","225","587031","0.0-187.0-0.0","21158184","wem/bandit_party_2","A2SWQM5X54P1O5","either","2","336","","","","","","","0","0","1","0.1600114734","","0.2","0.4","0.6","0.8","","","","","0.356964637","0.4417580917","0.1600114734","0.2609121533","","","","","","","","","","75","K","2","","","146","main_expt",""
"","bandit","226","588997","0.0-188.0-0.0","21158184","wem/bandit_party_2","A2SWQM5X54P1O5","either","2","436","","","","","","","0","0","1","0.278611551","","0.2","0.4","0.6","0.8","","","","","0.5143633813","0.278611551","0.1262446547","0.280259565","","","","","","","","","","74","J","1","","","147","main_expt",""
"","bandit","227","590869","0.0-189.0-0.0","21158184","wem/bandit_party_2","A2SWQM5X54P1O5","either","2","344","","","","","","","1","0","0","0.5086187798","","0.2","0.4","0.6","0.8","","","","","0.5086187798","0.2811332351","0.1030311585","0.2972918914","","","","","","","","","","72","H","0","img/none_selected.jpg","","148","main_expt",""
"","bandit","228","593025","0.0-190.0-0.0","21158184","wem/bandit_party_2","A2SWQM5X54P1O5","either","2","616","","","","","","","1","0","0","0.4676315778","","0.2","0.4","0.6","0.8","","","","","0.4676315778","0.2606345315","0.123834606","0.3284309668","","","","","","","","","","72","H","0","img/none_selected.jpg","","149","main_expt",""
"","bandit","229","595037","0.0-191.0-0.0","21158184","wem/bandit_party_2","A2SWQM5X54P1O5","either","2","484","","","","","","","0","1","0","","0.4737351686","0.2","0.4","0.6","0.8","0.4737351686","0.260677327","0.06566206942","0.3186890608","","","","","","","","","","","","","","72","H","0","img/none_selected.jpg","","150","main_expt",""
"","bandit","230","597133","0.0-192.0-0.0","21158184","wem/bandit_party_2","A2SWQM5X54P1O5","either","2","576","","","","","","","0","1","0","","0.5387476985","0.2","0.4","0.6","0.8","0.5387476985","0.2579624968","0.06342121736","0.3331747037","","","","","","","","","","","","","","72","H","0","img/none_selected.jpg","","151","main_expt",""
"","bandit","231","599193","0.0-193.0-0.0","21158184","wem/bandit_party_2","A2SWQM5X54P1O5","either","2","520","","","","","","","0","1","0","","0.5065138565","0.2","0.4","0.6","0.8","0.5065138565","0.2536911072","0.1162046696","0.364096089","","","","","","","","","","","","","","72","H","0","img/none_selected.jpg","","152","main_expt",""
"","bandit","232","601365","0.0-194.0-0.0","21158184","wem/bandit_party_2","A2SWQM5X54P1O5","either","2","644","","","","","","","0","1","0","","0.5190676077","0.2","0.4","0.6","0.8","0.5190676077","0.1427943183","0.1388943584","0.3189440566","","","","","","","","","","","","","","72","H","0","img/none_selected.jpg","","153","main_expt",""
"","bandit","233","603313","0.0-195.0-0.0","21158184","wem/bandit_party_2","A2SWQM5X54P1O5","either","2","416","","","","","","","0","1","0","","0.4944482457","0.2","0.4","0.6","0.8","0.4944482457","0.08934943386","0.1188489222","0.486858514","","","","","","","","","","","","","","72","H","0","img/none_selected.jpg","","154","main_expt",""
"","bandit","234","605309","0.0-196.0-0.0","21158184","wem/bandit_party_2","A2SWQM5X54P1O5","either","2","460","","","","","","","0","0","1","","0.4987902374","0.2","0.4","0.6","0.8","0.4987902374","0.1048919666","0.1255079792","0.398958755","","","","","","","","","","","","","","72","H","0","img/none_selected.jpg","","155","main_expt",""
"","bandit","235","607689","0.0-197.0-0.0","21158184","wem/bandit_party_2","A2SWQM5X54P1O5","either","2","856","","","","","","","0","0","1","","0.1348874752","0.2","0.4","0.6","0.8","0.4151199053","0.1348874752","0.1705129017","0.3508932217","","","","","","","","","","","","","","74","J","1","","","156","main_expt",""
"","bandit","236","609776","0.0-198.0-0.0","21158184","wem/bandit_party_2","A2SWQM5X54P1O5","either","2","552","","","","","","","1","0","0","0.1197456909","","0.2","0.4","0.6","0.8","","","","","0.4215128153","0.1197456909","0.1892203872","0.3736640956","","","","","","","","","","74","J","1","","","157","main_expt",""
"","bandit","237","611812","0.0-199.0-0.0","21158184","wem/bandit_party_2","A2SWQM5X54P1O5","either","2","504","","","","","","","0","0","1","0.1343935597","","0.2","0.4","0.6","0.8","","","","","0.3666899102","0.1343935597","0.1589595026","0.3215678611","","","","","","","","","","74","J","1","","","158","main_expt",""
"","bandit","238","614296","0.0-200.0-0.0","21158184","wem/bandit_party_2","A2SWQM5X54P1O5","either","2","948","","","","","","","0","0","1","","0.3906786657","0.2","0.4","0.6","0.8","0.3906786657","0.04604274909","0.1426383857","0.2732838962","","","","","","","","","","","","","","72","H","0","img/none_selected.jpg","","159","main_expt",""
"","bandit","239","616204","0.0-201.0-0.0","21158184","wem/bandit_party_2","A2SWQM5X54P1O5","either","2","380","","","","","","","0","0","1","0.2323229575","","0.2","0.4","0.6","0.8","","","","","0.4769972016","0.08927965808","0.2747613825","0.2323229575","","","","","","","","","","76","L","3","","","160","main_expt",""
"","bandit","240","618020","0.0-202.0-0.0","21158184","wem/bandit_party_2","A2SWQM5X54P1O5","either","2","284","","","","","","","0","0","1","0.2046882866","","0.2","0.4","0.6","0.8","","","","","0.4405879513","0.1038156196","0.2046882866","0.399022808","","","","","","","","","","75","K","2","","","161","main_expt",""
"","bandit","241","619916","0.0-203.0-0.0","21158184","wem/bandit_party_2","A2SWQM5X54P1O5","either","2","360","","","","","","","1","0","0","0.1715152701","","0.2","0.4","0.6","0.8","","","","","0.44055992","0.1470739062","0.1715152701","0.4967313539","","","","","","","","","","75","K","2","","","162","main_expt",""
"","bandit","242","622196","0.0-204.0-0.0","21158184","wem/bandit_party_2","A2SWQM5X54P1O5","either","2","740","","","","","","","0","0","1","","0.2396687428","0.2","0.4","0.6","0.8","0.3434222481","0.1214264794","0.2396687428","0.5245029489","","","","","","","","","","","","","","75","K","2","","","163","main_expt",""
"","bandit","243","624232","0.0-205.0-0.0","21158184","wem/bandit_party_2","A2SWQM5X54P1O5","either","2","504","","","","","","","0","1","0","","0.1563758897","0.2","0.4","0.6","0.8","0.3862652833","0.1563758897","0.3359744524","0.5808119749","","","","","","","","","","","","","","74","J","1","","","164","main_expt",""
"","bandit","244","626296","0.0-206.0-0.0","21158184","wem/bandit_party_2","A2SWQM5X54P1O5","either","2","524","","","","","","","0","0","1","","0.1311500467","0.2","0.4","0.6","0.8","0.4270444342","0.1311500467","0.4940159592","0.6473032069","","","","","","","","","","","","","","74","J","1","","","165","main_expt",""
"","bandit","245","628236","0.0-207.0-0.0","21158184","wem/bandit_party_2","A2SWQM5X54P1O5","either","2","392","","","","","","","0","0","1","0.1419689761","","0.2","0.4","0.6","0.8","","","","","0.5073102058","0.1419689761","0.5922229292","0.6790689848","","","","","","","","","","74","J","1","","","166","main_expt",""
"","bandit","246","630157","0.0-208.0-0.0","21158184","wem/bandit_party_2","A2SWQM5X54P1O5","either","2","392","","","","","","","0","1","0","","0.5417092253","0.2","0.4","0.6","0.8","0.5417092253","0.150246256","0.5562626425","0.5959653185","","","","","","","","","","","","","","72","H","0","img/none_selected.jpg","","167","main_expt",""
"","bandit","247","632137","0.0-209.0-0.0","21158184","wem/bandit_party_2","A2SWQM5X54P1O5","either","2","444","","","","","","","0","0","1","","0.6505471885","0.2","0.4","0.6","0.8","0.6505471885","0.2070971521","0.6489587791","0.361841396","","","","","","","","","","","","","","72","H","0","img/none_selected.jpg","","168","main_expt",""
"","bandit","248","633973","0.0-210.0-0.0","21158184","wem/bandit_party_2","A2SWQM5X54P1O5","either","2","316","","","","","","","0","0","1","0.2564452127","","0.2","0.4","0.6","0.8","","","","","0.6226729341","0.2564452127","0.5652428614","0.2594844845","","","","","","","","","","74","J","1","","","169","main_expt",""
"","bandit","249","635817","0.0-211.0-0.0","21158184","wem/bandit_party_2","A2SWQM5X54P1O5","either","2","308","","","","","","","1","0","0","0.5344749526","","0.2","0.4","0.6","0.8","","","","","0.7574543886","0.2845729388","0.5344749526","0.1987556041","","","","","","","","","","75","K","2","","","170","main_expt",""
"","bandit","250","637837","0.0-212.0-0.0","21158184","wem/bandit_party_2","A2SWQM5X54P1O5","either","2","488","","","","","","","0","0","1","0.6364900983","","0.2","0.4","0.6","0.8","","","","","0.774201251","0.2360657399","0.6364900983","0.1583585206","","","","","","","","","","75","K","2","","","171","main_expt",""
"","bandit","251","639993","0.0-213.0-0.0","21158184","wem/bandit_party_2","A2SWQM5X54P1O5","either","2","612","","","","","","","0","0","1","0.7739789177","","0.2","0.4","0.6","0.8","","","","","0.7739789177","0.3453554921","0.5516193693","0.1494938987","","","","","","","","","","72","H","0","img/none_selected.jpg","","172","main_expt",""
"","bandit","252","641893","0.0-214.0-0.0","21158184","wem/bandit_party_2","A2SWQM5X54P1O5","either","2","364","","","","","","","0","0","1","0.7146420849","","0.2","0.4","0.6","0.8","","","","","0.7146420849","0.2909261263","0.5081608063","0.1996494969","","","","","","","","","","72","H","0","img/none_selected.jpg","","173","main_expt",""
"","bandit","253","643813","0.0-215.0-0.0","21158184","wem/bandit_party_2","A2SWQM5X54P1O5","either","2","380","","","","","","","1","0","0","0.683245412","","0.2","0.4","0.6","0.8","","","","","0.683245412","0.3807546558","0.5247340446","0.2200767262","","","","","","","","","","72","H","0","img/none_selected.jpg","","174","main_expt",""
"","bandit","254","645773","0.0-216.0-0.0","21158184","wem/bandit_party_2","A2SWQM5X54P1O5","either","2","432","","","","","","","0","1","0","","0.7163731774","0.2","0.4","0.6","0.8","0.7163731774","0.3889518003","0.5823110366","0.1929710708","","","","","","","","","","","","","","72","H","0","img/none_selected.jpg","","175","main_expt",""
"","bandit","255","647949","0.0-217.0-0.0","21158184","wem/bandit_party_2","A2SWQM5X54P1O5","either","2","644","","","","","","","0","0","1","","0.6676116703","0.2","0.4","0.6","0.8","0.6676116703","0.3662842853","0.7693722391","0.1756556012","","","","","","","","","","","","","","72","H","0","img/none_selected.jpg","","176","main_expt",""
"","bandit","256","649902","0.0-218.0-0.0","21158184","wem/bandit_party_2","A2SWQM5X54P1O5","either","2","416","","","","","","","0","0","1","","0.3102656016","0.2","0.4","0.6","0.8","0.711116056","0.3102656016","0.8048595062","0.2404611203","","","","","","","","","","","","","","74","J","1","","","177","main_expt",""
"","bandit","257","652134","0.0-219.0-0.0","21158184","wem/bandit_party_2","A2SWQM5X54P1O5","either","2","692","","","","","","","0","1","0","","0.3272385177","0.2","0.4","0.6","0.8","0.6541247318","0.3272385177","0.8147320782","0.1651874793","","","","","","","","","","","","","","74","J","1","","","178","main_expt",""
"","bandit","258","654314","0.0-220.0-0.0","21158184","wem/bandit_party_2","A2SWQM5X54P1O5","either","2","640","","","","","","","0","1","0","","0.3185807274","0.2","0.4","0.6","0.8","0.600925469","0.3185807274","0.7755432213","0.1297692321","","","","","","","","","","","","","","74","J","1","","","179","main_expt",""
"","bandit","259","656334","0.0-221.0-0.0","21158184","wem/bandit_party_2","A2SWQM5X54P1O5","either","2","496","","","","","","","0","0","1","0.3896265469","","0.2","0.4","0.6","0.8","","","","","0.6321701674","0.3896265469","0.7309951384","0.1311169289","","","","","","","","","","74","J","1","","","180","main_expt",""
"","bandit","260","658666","0.0-222.0-0.0","21158184","wem/bandit_party_2","A2SWQM5X54P1O5","either","2","800","","","","","","","0","0","1","0.2184653543","","0.2","0.4","0.6","0.8","","","","","0.7040606398","0.4381139349","0.8068071681","0.2184653543","","","","","","","","","","76","L","3","","","181","main_expt",""
"","bandit","261","660554","0.0-223.0-0.0","21158184","wem/bandit_party_2","A2SWQM5X54P1O5","either","2","352","","","","","","","0","0","1","0.156745214","","0.2","0.4","0.6","0.8","","","","","0.6551517927","0.4339703771","0.8096694819","0.156745214","","","","","","","","","","76","L","3","","","182","main_expt",""
"","bandit","262","662486","0.0-224.0-0.0","21158184","wem/bandit_party_2","A2SWQM5X54P1O5","either","2","392","","","","","","","0","0","1","0.07710569088","","0.2","0.4","0.6","0.8","","","","","0.7709035389","0.5270594011","0.8522040983","0.07710569088","","","","","","","","","","76","L","3","","","183","main_expt",""
"","bandit","263","664266","0.0-225.0-0.0","21158184","wem/bandit_party_2","A2SWQM5X54P1O5","either","2","268","","","","","","","1","0","0","0.8636776132","","0.2","0.4","0.6","0.8","","","","","0.7869666122","0.4791569234","0.8636776132","0.07901501252","","","","","","","","","","75","K","2","","","184","main_expt",""
"","bandit","264","666190","0.0-226.0-0.0","21158184","wem/bandit_party_2","A2SWQM5X54P1O5","either","2","388","","","","","","","0","1","0","","0.8605951951","0.2","0.4","0.6","0.8","0.804571828","0.464074867","0.8605951951","0.05695362571","","","","","","","","","","","","","","75","K","2","","","185","main_expt",""
"","bandit","265","668038","0.0-227.0-0.0","21158184","wem/bandit_party_2","A2SWQM5X54P1O5","either","2","312","","","","","","","0","1","0","","0.8578427848","0.2","0.4","0.6","0.8","0.7866627628","0.4654947356","0.8578427848","0.03796608352","","","","","","","","","","","","","","75","K","2","","","186","main_expt",""
"","bandit","266","669886","0.0-228.0-0.0","21158184","wem/bandit_party_2","A2SWQM5X54P1O5","either","2","316","","","","","","","0","1","0","","0.8253306036","0.2","0.4","0.6","0.8","0.8006736442","0.4338668179","0.8253306036","0.05986429342","","","","","","","","","","","","","","75","K","2","","","187","main_expt",""
"","bandit","267","671774","0.0-229.0-0.0","21158184","wem/bandit_party_2","A2SWQM5X54P1O5","either","2","356","","","","","","","0","1","0","","0.8118593573","0.2","0.4","0.6","0.8","0.7687627789","0.4679469354","0.8118593573","0.05827831728","","","","","","","","","","","","","","75","K","2","","","188","main_expt",""
"","bandit","268","673706","0.0-230.0-0.0","21158184","wem/bandit_party_2","A2SWQM5X54P1O5","either","2","384","","","","","","","0","1","0","","0.8319104568","0.2","0.4","0.6","0.8","0.7009429779","0.4645116859","0.8319104568","0.06499387038","","","","","","","","","","","","","","75","K","2","","","189","main_expt",""
"","bandit","269","675566","0.0-231.0-0.0","21158184","wem/bandit_party_2","A2SWQM5X54P1O5","either","2","324","","","","","","","0","1","0","","0.8949986836","0.2","0.4","0.6","0.8","0.7531121838","0.4260553166","0.8949986836","0.0878029059","","","","","","","","","","","","","","75","K","2","","","190","main_expt",""
"","bandit","270","677410","0.0-232.0-0.0","21158184","wem/bandit_party_2","A2SWQM5X54P1O5","either","2","300","","","","","","","0","1","0","","0.9258368343","0.2","0.4","0.6","0.8","0.6174616994","0.5323747461","0.9258368343","0.1101088583","","","","","","","","","","","","","","75","K","2","","","191","main_expt",""
"","bandit","271","679270","0.0-233.0-0.0","21158184","wem/bandit_party_2","A2SWQM5X54P1O5","either","2","308","","","","","","","0","1","0","","0.9221438833","0.2","0.4","0.6","0.8","0.6331996982","0.6013900654","0.9221438833","0.1559643099","","","","","","","","","","","","","","75","K","2","","","192","main_expt",""
"","bandit","272","681134","0.0-234.0-0.0","21158184","wem/bandit_party_2","A2SWQM5X54P1O5","either","2","320","","","","","","","1","0","0","0.878376231","","0.2","0.4","0.6","0.8","","","","","0.5596167322","0.5332063066","0.878376231","0.1348882638","","","","","","","","","","75","K","2","","","193","main_expt",""
"","bandit","273","682710","0.0-235.0-0.0","21158184","wem/bandit_party_2","A2SWQM5X54P1O5","either","2","36","","","","","","","1","0","0","0.7914694382","","0.2","0.4","0.6","0.8","","","","","0.5887018809","0.5499496643","0.7914694382","0.243093686","","","","","","","","","","75","K","2","","","194","main_expt",""
"","bandit","274","684514","0.0-236.0-0.0","21158184","wem/bandit_party_2","A2SWQM5X54P1O5","either","2","276","","","","","","","0","1","0","","0.7843027812","0.2","0.4","0.6","0.8","0.561552955","0.4170732774","0.7843027812","0.2792315856","","","","","","","","","","","","","","75","K","2","","","195","main_expt",""
"","bandit","275","686378","0.0-237.0-0.0","21158184","wem/bandit_party_2","A2SWQM5X54P1O5","either","2","328","","","","","","","0","1","0","","0.7888241066","0.2","0.4","0.6","0.8","0.6199522587","0.4050854298","0.7888241066","0.2075419965","","","","","","","","","","","","","","75","K","2","","","196","main_expt",""
"","bandit","276","688299","0.0-238.0-0.0","21158184","wem/bandit_party_2","A2SWQM5X54P1O5","either","2","388","","","","","","","0","0","1","0.8145025162","","0.2","0.4","0.6","0.8","","","","","0.6886125155","0.4522405917","0.8145025162","0.1899284635","","","","","","","","","","75","K","2","","","197","main_expt",""
"","bandit","277","690215","0.0-239.0-0.0","21158184","wem/bandit_party_2","A2SWQM5X54P1O5","either","2","384","","","","","","","1","0","0","0.8795467387","","0.2","0.4","0.6","0.8","","","","","0.6468609917","0.4547961131","0.8795467387","0.1632143895","","","","","","","","","","75","K","2","","","198","main_expt",""
"","bandit","278","692056","0.0-240.0-0.0","21158184","wem/bandit_party_2","A2SWQM5X54P1O5","either","2","305","","","","","","","1","0","0","0.8716255916","","0.2","0.4","0.6","0.8","","","","","0.7134983028","0.456709553","0.8716255916","0.1580048483","","","","","","","","","","75","K","2","","","199","main_expt",""
"","bandit","279","693896","0.0-241.0-0.0","21158184","wem/bandit_party_2","A2SWQM5X54P1O5","either","2","300","","","","","","","1","0","0","0.8596876402","","0.2","0.4","0.6","0.8","","","","","0.6545285445","0.4197111003","0.8596876402","0.1815025648","","","","","","","","","","75","K","2","","","200","main_expt",""
"","bandit","280","695776","0.0-242.0-0.0","21158184","wem/bandit_party_2","A2SWQM5X54P1O5","either","2","348","","","","","","","0","1","0","","0.8714244785","0.2","0.4","0.6","0.8","0.6827561938","0.4468864226","0.8714244785","0.1453003075","","","","","","","","","","","","","","75","K","2","","","201","main_expt",""
"","bandit","281","697680","0.0-243.0-0.0","21158184","wem/bandit_party_2","A2SWQM5X54P1O5","either","2","348","","","","","","","1","0","0","0.8679491409","","0.2","0.4","0.6","0.8","","","","","0.6590680519","0.3852152277","0.8679491409","0.1061510446","","","","","","","","","","75","K","2","","","202","main_expt",""
"","bandit","282","699604","0.0-244.0-0.0","21158184","wem/bandit_party_2","A2SWQM5X54P1O5","either","2","392","","","","","","","1","0","0","0.8421855008","","0.2","0.4","0.6","0.8","","","","","0.67998256","0.3481501846","0.8421855008","0.09667757311","","","","","","","","","","75","K","2","","","203","main_expt",""
"","bandit","283","702012","0.0-245.0-0.0","21158184","wem/bandit_party_2","A2SWQM5X54P1O5","either","2","884","","","","","","","1","0","0","0.8741547355","","0.2","0.4","0.6","0.8","","","","","0.7157802034","0.3688904748","0.8741547355","0.109576977","","","","","","","","","","75","K","2","","","204","main_expt",""
"","bandit","284","703924","0.0-246.0-0.0","21158184","wem/bandit_party_2","A2SWQM5X54P1O5","either","2","372","","","","","","","0","1","0","","0.8589537271","0.2","0.4","0.6","0.8","0.6750594522","0.4196025605","0.8589537271","0.1370524017","","","","","","","","","","","","","","75","K","2","","","205","main_expt",""
"","bandit","285","705804","0.0-247.0-0.0","21158184","wem/bandit_party_2","A2SWQM5X54P1O5","either","2","344","","","","","","","0","1","0","","0.8009191088","0.2","0.4","0.6","0.8","0.7170784861","0.3558717694","0.8009191088","0.1005848846","","","","","","","","","","","","","","75","K","2","","","206","main_expt",""
"","bandit","286","707732","0.0-248.0-0.0","21158184","wem/bandit_party_2","A2SWQM5X54P1O5","either","2","396","","","","","","","1","0","0","0.8146279372","","0.2","0.4","0.6","0.8","","","","","0.6886550294","0.3978287694","0.8146279372","0.1100528349","","","","","","","","","","75","K","2","","","207","main_expt",""
"","bandit","287","709572","0.0-249.0-0.0","21158184","wem/bandit_party_2","A2SWQM5X54P1O5","either","2","304","","","","","","","1","0","0","0.7498886323","","0.2","0.4","0.6","0.8","","","","","0.7340041914","0.3647175361","0.7498886323","0.1165568201","","","","","","","","","","75","K","2","","","208","main_expt",""
"","bandit","288","711450","0.0-250.0-0.0","21158184","wem/bandit_party_2","A2SWQM5X54P1O5","either","2","356","","","","","","","1","0","0","0.781298432","","0.2","0.4","0.6","0.8","","","","","0.7108339061","0.2942091963","0.781298432","0.1607141963","","","","","","","","","","75","K","2","","","209","main_expt",""
"","bandit","289","713678","0.0-251.0-0.0","21158184","wem/bandit_party_2","A2SWQM5X54P1O5","either","2","688","","","","","","","0","0","1","0.8374694261","","0.2","0.4","0.6","0.8","","","","","0.7322658343","0.3228874634","0.8374694261","0.2005879304","","","","","","","","","","75","K","2","","","210","main_expt",""
"","bandit","290","715474","0.0-252.0-0.0","21158184","wem/bandit_party_2","A2SWQM5X54P1O5","either","2","248","","","","","","","1","0","0","0.7461264045","","0.2","0.4","0.6","0.8","","","","","0.6220956771","0.3300931135","0.7461264045","0.1999716741","","","","","","","","","","75","K","2","","","211","main_expt",""
"","bandit","291","717382","0.0-253.0-0.0","21158184","wem/bandit_party_2","A2SWQM5X54P1O5","either","2","372","","","","","","","1","0","0","0.7267359419","","0.2","0.4","0.6","0.8","","","","","0.5400145011","0.4044608811","0.7267359419","0.2135957141","","","","","","","","","","75","K","2","","","212","main_expt",""
"","bandit","292","720078","0.0-254.0-0.0","21158184","wem/bandit_party_2","A2SWQM5X54P1O5","either","2","1172","","","","","","","0","0","1","0.6529835343","","0.2","0.4","0.6","0.8","","","","","0.5419994818","0.4916994921","0.6529835343","0.2041793084","","","","","","","","","","75","K","2","","","213","main_expt",""
"","bandit","293","722378","0.0-255.0-0.0","21158184","wem/bandit_party_2","A2SWQM5X54P1O5","either","2","744","","","","","","","0","1","0","","0.5734554779","0.2","0.4","0.6","0.8","0.6195319152","0.5387088508","0.5734554779","0.2563089198","","","","","","","","","","","","","","75","K","2","","","214","main_expt",""
"","bandit","294","724490","0.0-256.0-0.0","21158184","wem/bandit_party_2","A2SWQM5X54P1O5","either","2","588","","","","","","","0","0","1","0.7056003711","","0.2","0.4","0.6","0.8","","","","","0.7405966814","0.567041903","0.7056003711","0.2870699064","","","","","","","","","","75","K","2","","","215","main_expt",""
"","bandit","295","726586","0.0-257.0-0.0","21158184","wem/bandit_party_2","A2SWQM5X54P1O5","either","2","572","","","","","","","1","0","0","0.539749723","","0.2","0.4","0.6","0.8","","","","","0.8005734678","0.539749723","0.7717913507","0.2715554895","","","","","","","","","","74","J","1","","","216","main_expt",""
"","bandit","296","728746","0.0-258.0-0.0","21158184","wem/bandit_party_2","A2SWQM5X54P1O5","either","2","604","","","","","","","0","0","1","0.3803352486","","0.2","0.4","0.6","0.8","","","","","0.8392159132","0.3803352486","0.834894728","0.2027777883","","","","","","","","","","74","J","1","","","217","main_expt",""
"","bandit","297","730950","0.0-259.0-0.0","21158184","wem/bandit_party_2","A2SWQM5X54P1O5","either","2","668","","","","","","","0","0","1","","0.3236333655","0.2","0.4","0.6","0.8","0.7445585264","0.3236333655","0.868580258","0.2169787163","","","","","","","","","","","","","","74","J","1","","","218","main_expt",""
"","bandit","298","733115","0.0-260.0-0.0","21158184","wem/bandit_party_2","A2SWQM5X54P1O5","either","2","625","","","","","","","0","1","0","","0.7174829008","0.2","0.4","0.6","0.8","0.7174829008","0.2612589469","0.8236231074","0.2292932202","","","","","","","","","","","","","","72","H","0","img/none_selected.jpg","","219","main_expt",""
"","bandit","299","735011","0.0-261.0-0.0","21158184","wem/bandit_party_2","A2SWQM5X54P1O5","either","2","356","","","","","","","0","1","0","","0.6601767392","0.2","0.4","0.6","0.8","0.6601767392","0.2228319794","0.7719294443","0.2829053382","","","","","","","","","","","","","","72","H","0","img/none_selected.jpg","","220","main_expt",""
"","bandit","300","736943","0.0-262.0-0.0","21158184","wem/bandit_party_2","A2SWQM5X54P1O5","either","2","384","","","","","","","0","1","0","","0.703996204","0.2","0.4","0.6","0.8","0.703996204","0.2204856404","0.7609360252","0.2691731019","","","","","","","","","","","","","","72","H","0","img/none_selected.jpg","","221","main_expt",""
"","bandit","301","738843","0.0-263.0-0.0","21158184","wem/bandit_party_2","A2SWQM5X54P1O5","either","2","360","","","","","","","0","0","1","","0.6188024556","0.2","0.4","0.6","0.8","0.6188024556","0.2269951902","0.7319851961","0.1974112065","","","","","","","","","","","","","","72","H","0","img/none_selected.jpg","","222","main_expt",""
"","bandit","302","741075","0.0-264.0-0.0","21158184","wem/bandit_party_2","A2SWQM5X54P1O5","either","2","692","","","","","","","0","0","1","","0.5695888615","0.2","0.4","0.6","0.8","0.5695888615","0.3417830843","0.6994646324","0.08486155027","","","","","","","","","","","","","","72","H","0","img/none_selected.jpg","","223","main_expt",""
"","bandit","303","743023","0.0-265.0-0.0","21158184","wem/bandit_party_2","A2SWQM5X54P1O5","either","2","384","","","","","","","1","0","0","0.6590173842","","0.2","0.4","0.6","0.8","","","","","0.6590173842","0.4057490183","0.6817307813","0.1930609847","","","","","","","","","","72","H","0","img/none_selected.jpg","","224","main_expt",""
"","bandit","304","744999","0.0-266.0-0.0","21158184","wem/bandit_party_2","A2SWQM5X54P1O5","either","2","428","","","","","","","1","0","0","0.6779124893","","0.2","0.4","0.6","0.8","","","","","0.6779124893","0.4266979185","0.67394888","0.2026087193","","","","","","","","","","72","H","0","img/none_selected.jpg","","225","main_expt",""
"","bandit","305","747151","0.0-267.0-0.0","21158184","wem/bandit_party_2","A2SWQM5X54P1O5","either","2","621","","","","","","","1","0","0","0.6433757785","","0.2","0.4","0.6","0.8","","","","","0.6433757785","0.4723095555","0.6520670614","0.1295559036","","","","","","","","","","72","H","0","img/none_selected.jpg","","226","main_expt",""
"","bandit","306","749156","0.0-268.0-0.0","21158184","wem/bandit_party_2","A2SWQM5X54P1O5","either","2","474","","","","","","","0","1","0","","0.6050090536","0.2","0.4","0.6","0.8","0.6050090536","0.4396274322","0.6598054912","0.1014701128","","","","","","","","","","","","","","72","H","0","img/none_selected.jpg","","227","main_expt",""
"","bandit","307","751145","0.0-269.0-0.0","21158184","wem/bandit_party_2","A2SWQM5X54P1O5","either","2","447","","","","","","","0","0","1","","0.5614220587","0.2","0.4","0.6","0.8","0.5614220587","0.4581465293","0.7313296172","0.1374428951","","","","","","","","","","","","","","72","H","0","img/none_selected.jpg","","228","main_expt",""
"","bandit","308","753033","0.0-270.0-0.0","21158184","wem/bandit_party_2","A2SWQM5X54P1O5","either","2","354","","","","","","","0","0","1","","0.3635076811","0.2","0.4","0.6","0.8","0.536938762","0.3635076811","0.5771612872","0.2147377822","","","","","","","","","","","","","","74","J","1","","","229","main_expt",""
"","bandit","309","754920","0.0-271.0-0.0","21158184","wem/bandit_party_2","A2SWQM5X54P1O5","either","2","338","","","","","","","0","0","1","","0.4109812081","0.2","0.4","0.6","0.8","0.4691369301","0.4109812081","0.6474737632","0.2128984172","","","","","","","","","","","","","","74","J","1","","","230","main_expt",""
"","bandit","310","757465","0.0-272.0-0.0","21158184","wem/bandit_party_2","A2SWQM5X54P1O5","either","2","1012","","","","","","","0","1","0","","0.3769467169","0.2","0.4","0.6","0.8","0.3801843724","0.3769467169","0.77083729","0.2566260117","","","","","","","","","","","","","","74","J","1","","","231","main_expt",""
"","bandit","311","759750","0.0-273.0-0.0","21158184","wem/bandit_party_2","A2SWQM5X54P1O5","either","2","739","","","","","","","0","0","1","0.4489681289","","0.2","0.4","0.6","0.8","","","","","0.4401380948","0.4489681289","0.7372448464","0.307190163","","","","","","","","","","74","J","1","","","232","main_expt",""
"","bandit","312","761616","0.0-274.0-0.0","21158184","wem/bandit_party_2","A2SWQM5X54P1O5","either","2","317","","","","","","","1","0","0","0.8061851957","","0.2","0.4","0.6","0.8","","","","","0.4589823784","0.5191563331","0.8061851957","0.3235632008","","","","","","","","","","75","K","2","","","233","main_expt",""
"","bandit","313","763460","0.0-275.0-0.0","21158184","wem/bandit_party_2","A2SWQM5X54P1O5","either","2","297","","","","","","","0","1","0","","0.7628128465","0.2","0.4","0.6","0.8","0.412850409","0.5635532962","0.7628128465","0.2229472669","","","","","","","","","","","","","","75","K","2","","","234","main_expt",""
"","bandit","314","765157","0.0-276.0-0.0","21158184","wem/bandit_party_2","A2SWQM5X54P1O5","either","2","169","","","","","","","1","0","0","0.7139354314","","0.2","0.4","0.6","0.8","","","","","0.3071086281","0.6059211115","0.7139354314","0.3245092944","","","","","","","","","","75","K","2","","","235","main_expt",""
"","bandit","315","767073","0.0-277.0-0.0","21158184","wem/bandit_party_2","A2SWQM5X54P1O5","either","2","364","","","","","","","0","1","0","","0.8459685894","0.2","0.4","0.6","0.8","0.3088172556","0.5767319418","0.8459685894","0.3817813951","","","","","","","","","","","","","","75","K","2","","","236","main_expt",""
"","bandit","316","768918","0.0-278.0-0.0","21158184","wem/bandit_party_2","A2SWQM5X54P1O5","either","2","292","","","","","","","1","0","0","0.8258062243","","0.2","0.4","0.6","0.8","","","","","0.2725525041","0.6195352853","0.8258062243","0.5108794425","","","","","","","","","","75","K","2","","","237","main_expt",""
