"consent","trial_type","trial_index","time_elapsed","internal_node_id","subjID","study","MID","cond","drift","rt","responses","button_pressed","key_press","like","value","connected","gems","bombs","no_reward","GemPrChosen","BombPrChosen","GainOverPainPr_0","GainOverPainPr_1","GainOverPainPr_2","GainOverPainPr_3","LosePr_0","LosePr_1","LosePr_2","LosePr_3","WinPr_0","WinPr_1","WinPr_2","WinPr_3","Q0","Q1","Q2","gender","age","ethnicity","label","expt_phase","target","respCharCode","respKey","respChoiceNum","respChoice","practice","trial_counter","trial_label","Q0_index"
"GDM/GDM_behavioral_consent_30min_online.html","consent","0","13979","0.0-0.0","22283544","wem/bandit_party_2","A2E3TO92MCQ9XU","either","1","","","","","","","","","","","","","","","","","","","","","","","","","","","","","","","","","","","","","","","","",""
"","survey-text","1","20962","0.0-1.0","22283544","wem/bandit_party_2","A2E3TO92MCQ9XU","either","1","5976","{""Q0"":""A2E3TO92MCQ9XU""}","","","","","","","","","","","","","","","","","","","","","","","","","","","","","","","","","","","","","","",""
"","button-response","2","24001","0.0-2.0","22283544","wem/bandit_party_2","A2E3TO92MCQ9XU","either","1","2034","","1","","","","","","","","","","","","","","","","","","","","","","","","","","","","","","","","","","","","","",""
"","text-replacement","3","37272","0.0-3.0","22283544","wem/bandit_party_2","A2E3TO92MCQ9XU","either","1","12267","","","32","","","","","","","","","","","","","","","","","","","","","","","","","","","","","","","","","","","","",""
"","text-replacement","4","42908","0.0-4.0","22283544","wem/bandit_party_2","A2E3TO92MCQ9XU","either","1","5634","","","32","","","","","","","","","","","","","","","","","","","","","","","","","","","","","","","","","","","","",""
"","identification","5","49007","0.0-6.0-0.0","22283544","wem/bandit_party_2","A2E3TO92MCQ9XU","either","1","6090","","","","0","0","0","","","","","","","","","","","","","","","","","","","","","","","","pre","identification_pre","the Republican Party","","","","","","","",""
"","identification","6","54389","0.0-6.0-1.0","22283544","wem/bandit_party_2","A2E3TO92MCQ9XU","either","1","4372","","","","4","5","3","","","","","","","","","","","","","","","","","","","","","","","","pre","identification_pre","the Democratic Party","","","","","","","",""
"","text-replacement","7","58656","0.0-7.0","22283544","wem/bandit_party_2","A2E3TO92MCQ9XU","either","1","3263","","","32","","","","","","","","","","","","","","","","","","","","","","","","","","","","","","","","","","","","",""
"","text-replacement","8","62901","0.0-8.0","22283544","wem/bandit_party_2","A2E3TO92MCQ9XU","either","1","4243","","","32","","","","","","","","","","","","","","","","","","","","","","","","","","","","","","","","","","","","",""
"","text-replacement","9","70645","0.0-9.0","22283544","wem/bandit_party_2","A2E3TO92MCQ9XU","either","1","7742","","","32","","","","","","","","","","","","","","","","","","","","","","","","","","","","","","","","","","","","",""
"","text-replacement","10","71916","0.0-10.0","22283544","wem/bandit_party_2","A2E3TO92MCQ9XU","either","1","1270","","","32","","","","","","","","","","","","","","","","","","","","","","","","","","","","","","","","","","","","",""
"","text-replacement","11","75388","0.0-11.0","22283544","wem/bandit_party_2","A2E3TO92MCQ9XU","either","1","3471","","","32","","","","","","","","","","","","","","","","","","","","","","","","","","","","","","","","","","","","",""
"","bandit","12","83184","0.0-12.0-0.0","22283544","wem/bandit_party_2","A2E3TO92MCQ9XU","either","1","6288","","","","","","","0","0","1","0","0","","","","","0","","","","0","","","","","","","","","","","","","74","J","0","img/none_selected_demo.jpg","true","0","",""
"","bandit","13","87018","0.0-13.0-0.0","22283544","wem/bandit_party_2","A2E3TO92MCQ9XU","either","1","2330","","","","","","","0","0","1","0","0","","","","","0","","","","0","","","","","","","","","","","","","75","K","0","img/none_selected_demo.jpg","true","0","",""
"","text-replacement","14","92295","0.0-14.0","22283544","wem/bandit_party_2","A2E3TO92MCQ9XU","either","1","5275","","","32","","","","","","","","","","","","","","","","","","","","","","","","","","","","","","","","","","","","",""
"","text-replacement","15","97852","0.0-15.0","22283544","wem/bandit_party_2","A2E3TO92MCQ9XU","either","1","5556","","","32","","","","","","","","","","","","","","","","","","","","","","","","","","","","","","","","","","","","",""
"","text-replacement","16","102636","0.0-16.0","22283544","wem/bandit_party_2","A2E3TO92MCQ9XU","either","1","4783","","","32","","","","","","","","","","","","","","","","","","","","","","","","","","","","","","","","","","","","",""
"","text-replacement","17","105044","0.0-17.0","22283544","wem/bandit_party_2","A2E3TO92MCQ9XU","either","1","2406","","","32","","","","","","","","","","","","","","","","","","","","","","","","","","","","","","","","","","","","",""
"","bandit","18","107091","0.0-18.0-0.0","22283544","wem/bandit_party_2","A2E3TO92MCQ9XU","either","1","543","","","","","","","0","1","0","","0.8","0.5","0.5","","","0.8","0.2","","","","","","","","","","","","","","","","74","J","0","img/none_selected_demo.jpg","true","0","80_20_practice",""
"","bandit","19","108890","0.0-18.0-1.0","22283544","wem/bandit_party_2","A2E3TO92MCQ9XU","either","1","295","","","","","","","0","1","0","","0.8","0.5","0.5","","","0.8","0.2","","","","","","","","","","","","","","","","74","J","0","img/none_selected_demo.jpg","true","0","80_20_practice",""
"","bandit","20","110653","0.0-18.0-2.0","22283544","wem/bandit_party_2","A2E3TO92MCQ9XU","either","1","260","","","","","","","0","1","0","","0.8","0.5","0.5","","","0.8","0.2","","","","","","","","","","","","","","","","74","J","0","img/none_selected_demo.jpg","true","0","80_20_practice",""
"","bandit","21","112395","0.0-18.0-3.0","22283544","wem/bandit_party_2","A2E3TO92MCQ9XU","either","1","236","","","","","","","0","0","1","0.2","","0.5","0.5","","","","","","","0.8","0.2","","","","","","","","","","","","75","K","1","","true","0","80_20_practice",""
"","bandit","22","114124","0.0-18.0-4.0","22283544","wem/bandit_party_2","A2E3TO92MCQ9XU","either","1","222","","","","","","","0","0","1","","0.2","0.5","0.5","","","0.8","0.2","","","","","","","","","","","","","","","","75","K","1","","true","0","80_20_practice",""
"","bandit","23","115879","0.0-18.0-5.0","22283544","wem/bandit_party_2","A2E3TO92MCQ9XU","either","1","248","","","","","","","1","0","0","0.8","","0.5","0.5","","","","","","","0.8","0.2","","","","","","","","","","","","74","J","0","img/none_selected_demo.jpg","true","0","80_20_practice",""
"","bandit","24","117708","0.0-18.0-6.0","22283544","wem/bandit_party_2","A2E3TO92MCQ9XU","either","1","323","","","","","","","0","1","0","","0.8","0.5","0.5","","","0.8","0.2","","","","","","","","","","","","","","","","74","J","0","img/none_selected_demo.jpg","true","0","80_20_practice",""
"","bandit","25","119524","0.0-18.0-7.0","22283544","wem/bandit_party_2","A2E3TO92MCQ9XU","either","1","311","","","","","","","1","0","0","0.8","","0.5","0.5","","","","","","","0.8","0.2","","","","","","","","","","","","74","J","0","img/none_selected_demo.jpg","true","0","80_20_practice",""
"","bandit","26","121338","0.0-18.0-8.0","22283544","wem/bandit_party_2","A2E3TO92MCQ9XU","either","1","308","","","","","","","0","1","0","","0.8","0.5","0.5","","","0.8","0.2","","","","","","","","","","","","","","","","74","J","0","img/none_selected_demo.jpg","true","0","80_20_practice",""
"","bandit","27","123131","0.0-18.0-9.0","22283544","wem/bandit_party_2","A2E3TO92MCQ9XU","either","1","287","","","","","","","1","0","0","0.8","","0.5","0.5","","","","","","","0.8","0.2","","","","","","","","","","","","74","J","0","img/none_selected_demo.jpg","true","0","80_20_practice",""
"","bandit","28","124931","0.0-18.0-10.0","22283544","wem/bandit_party_2","A2E3TO92MCQ9XU","either","1","295","","","","","","","1","0","0","0.8","","0.5","0.5","","","","","","","0.8","0.2","","","","","","","","","","","","74","J","0","img/none_selected_demo.jpg","true","0","80_20_practice",""
"","bandit","29","126628","0.0-18.0-11.0","22283544","wem/bandit_party_2","A2E3TO92MCQ9XU","either","1","191","","","","","","","0","1","0","","0.8","0.5","0.5","","","0.8","0.2","","","","","","","","","","","","","","","","74","J","0","img/none_selected_demo.jpg","true","0","80_20_practice",""
"","bandit","30","128380","0.0-18.0-12.0","22283544","wem/bandit_party_2","A2E3TO92MCQ9XU","either","1","245","","","","","","","1","0","0","0.8","","0.5","0.5","","","","","","","0.8","0.2","","","","","","","","","","","","74","J","0","img/none_selected_demo.jpg","true","0","80_20_practice",""
"","bandit","31","130189","0.0-18.0-13.0","22283544","wem/bandit_party_2","A2E3TO92MCQ9XU","either","1","301","","","","","","","0","1","0","","0.8","0.5","0.5","","","0.8","0.2","","","","","","","","","","","","","","","","74","J","0","img/none_selected_demo.jpg","true","0","80_20_practice",""
"","bandit","32","131931","0.0-18.0-14.0","22283544","wem/bandit_party_2","A2E3TO92MCQ9XU","either","1","238","","","","","","","0","1","0","","0.8","0.5","0.5","","","0.8","0.2","","","","","","","","","","","","","","","","74","J","0","img/none_selected_demo.jpg","true","0","80_20_practice",""
"","bandit","33","133755","0.0-18.0-15.0","22283544","wem/bandit_party_2","A2E3TO92MCQ9XU","either","1","318","","","","","","","1","0","0","0.8","","0.5","0.5","","","","","","","0.8","0.2","","","","","","","","","","","","74","J","0","img/none_selected_demo.jpg","true","0","80_20_practice",""
"","bandit","34","135507","0.0-18.0-16.0","22283544","wem/bandit_party_2","A2E3TO92MCQ9XU","either","1","248","","","","","","","0","1","0","","0.8","0.5","0.5","","","0.8","0.2","","","","","","","","","","","","","","","","74","J","0","img/none_selected_demo.jpg","true","0","80_20_practice",""
"","bandit","35","137287","0.0-18.0-17.0","22283544","wem/bandit_party_2","A2E3TO92MCQ9XU","either","1","272","","","","","","","1","0","0","0.8","","0.5","0.5","","","","","","","0.8","0.2","","","","","","","","","","","","74","J","0","img/none_selected_demo.jpg","true","0","80_20_practice",""
"","bandit","36","139170","0.0-18.0-18.0","22283544","wem/bandit_party_2","A2E3TO92MCQ9XU","either","1","379","","","","","","","0","1","0","","0.8","0.5","0.5","","","0.8","0.2","","","","","","","","","","","","","","","","74","J","0","img/none_selected_demo.jpg","true","0","80_20_practice",""
"","bandit","37","141011","0.0-18.0-19.0","22283544","wem/bandit_party_2","A2E3TO92MCQ9XU","either","1","334","","","","","","","0","0","1","0.8","","0.5","0.5","","","","","","","0.8","0.2","","","","","","","","","","","","74","J","0","img/none_selected_demo.jpg","true","0","80_20_practice",""
"","text-replacement","38","145595","0.0-19.0","22283544","wem/bandit_party_2","A2E3TO92MCQ9XU","either","1","4583","","","32","","","","","","","","","","","","","","","","","","","","","","","","","","","","","","","","","","","","",""
"","bandit","39","147723","0.0-20.0-0.0","22283544","wem/bandit_party_2","A2E3TO92MCQ9XU","either","1","623","","","","","","","1","0","0","1","0","","","","","0","1","","","1","0","","","","","","","","","","","","74","J","0","img/none_selected_demo.jpg","true","0","",""
"","text-replacement","40","150883","0.0-21.0","22283544","wem/bandit_party_2","A2E3TO92MCQ9XU","either","1","3158","","","32","","","","","","","","","","","","","","","","","","","","","","","","","","","","","","","","","","","","",""
"","text-replacement","41","152364","0.0-22.0","22283544","wem/bandit_party_2","A2E3TO92MCQ9XU","either","1","1479","","","32","","","","","","","","","","","","","","","","","","","","","","","","","","","","","","","","","","","","",""
"","text-replacement","42","153612","0.0-23.0","22283544","wem/bandit_party_2","A2E3TO92MCQ9XU","either","1","1246","","","32","","","","","","","","","","","","","","","","","","","","","","","","","","","","","","","","","","","","",""
"","text-replacement","43","155796","0.0-24.0","22283544","wem/bandit_party_2","A2E3TO92MCQ9XU","either","1","2182","","","32","","","","","","","","","","","","","","","","","","","","","","","","","","","","","","","","","","","","",""
"","text-replacement","44","159702","0.0-25.0","22283544","wem/bandit_party_2","A2E3TO92MCQ9XU","either","1","3904","","","32","","","","","","","","","","","","","","","","","","","","","","","","","","","","","","","","","","","","",""
"","text-replacement","45","161588","0.0-26.0","22283544","wem/bandit_party_2","A2E3TO92MCQ9XU","either","1","1884","","","32","","","","","","","","","","","","","","","","","","","","","","","","","","","","","","","","","","","","",""
"","text-replacement","46","164479","0.0-27.0","22283544","wem/bandit_party_2","A2E3TO92MCQ9XU","either","1","2889","","","32","","","","","","","","","","","","","","","","","","","","","","","","","","","","","","","","","","","","",""
"","text-replacement","47","166883","0.0-28.0","22283544","wem/bandit_party_2","A2E3TO92MCQ9XU","either","1","2401","","","32","","","","","","","","","","","","","","","","","","","","","","","","","","","","","","","","","","","","",""
"","text-replacement","48","169621","0.0-29.0","22283544","wem/bandit_party_2","A2E3TO92MCQ9XU","either","1","2736","","","32","","","","","","","","","","","","","","","","","","","","","","","","","","","","","","","","","","","","",""
"","text-replacement","49","170861","0.0-30.0","22283544","wem/bandit_party_2","A2E3TO92MCQ9XU","either","1","1237","","","32","","","","","","","","","","","","","","","","","","","","","","","","","","","","","","","","","","","","",""
"","text-replacement","50","171533","0.0-31.0","22283544","wem/bandit_party_2","A2E3TO92MCQ9XU","either","1","670","","","32","","","","","","","","","","","","","","","","","","","","","","","","","","","","","","","","","","","","",""
"","bandit","51","173274","0.0-32.0-0.0","22283544","wem/bandit_party_2","A2E3TO92MCQ9XU","either","1","234","","","","","","","1","0","0","0.8","","0.5","0.5","0.5","0.5","","","","","0.8","0.2","0.6","0.2","","","","","","","","","","72","H","0","img/none_selected.jpg","true","0","full_practice",""
"","bandit","52","174873","0.0-32.0-1.0","22283544","wem/bandit_party_2","A2E3TO92MCQ9XU","either","1","96","","","","","","","0","1","0","","0.8","0.5","0.5","0.5","0.5","0.8","0.2","0.6","0.2","","","","","","","","","","","","","","72","H","0","img/none_selected.jpg","true","0","full_practice",""
"","bandit","53","176642","0.0-32.0-2.0","22283544","wem/bandit_party_2","A2E3TO92MCQ9XU","either","1","264","","","","","","","0","1","0","","0.8","0.5","0.5","0.5","0.5","0.8","0.2","0.6","0.2","","","","","","","","","","","","","","72","H","0","img/none_selected.jpg","true","0","full_practice",""
"","bandit","54","178530","0.0-32.0-3.0","22283544","wem/bandit_party_2","A2E3TO92MCQ9XU","either","1","376","","","","","","","0","1","0","","0.8","0.5","0.5","0.5","0.5","0.8","0.2","0.6","0.2","","","","","","","","","","","","","","72","H","0","img/none_selected.jpg","true","0","full_practice",""
"","bandit","55","180353","0.0-32.0-4.0","22283544","wem/bandit_party_2","A2E3TO92MCQ9XU","either","1","318","","","","","","","0","1","0","","0.8","0.5","0.5","0.5","0.5","0.8","0.2","0.6","0.2","","","","","","","","","","","","","","72","H","0","img/none_selected.jpg","true","0","full_practice",""
"","bandit","56","182066","0.0-32.0-5.0","22283544","wem/bandit_party_2","A2E3TO92MCQ9XU","either","1","209","","","","","","","1","0","0","0.8","","0.5","0.5","0.5","0.5","","","","","0.8","0.2","0.6","0.2","","","","","","","","","","72","H","0","img/none_selected.jpg","true","0","full_practice",""
"","bandit","57","183812","0.0-32.0-6.0","22283544","wem/bandit_party_2","A2E3TO92MCQ9XU","either","1","238","","","","","","","0","0","1","0.8","","0.5","0.5","0.5","0.5","","","","","0.8","0.2","0.6","0.2","","","","","","","","","","72","H","0","img/none_selected.jpg","true","0","full_practice",""
"","bandit","58","185549","0.0-32.0-7.0","22283544","wem/bandit_party_2","A2E3TO92MCQ9XU","either","1","232","","","","","","","1","0","0","0.8","","0.5","0.5","0.5","0.5","","","","","0.8","0.2","0.6","0.2","","","","","","","","","","72","H","0","img/none_selected.jpg","true","0","full_practice",""
"","bandit","59","187429","0.0-32.0-8.0","22283544","wem/bandit_party_2","A2E3TO92MCQ9XU","either","1","372","","","","","","","0","1","0","","0.8","0.5","0.5","0.5","0.5","0.8","0.2","0.6","0.2","","","","","","","","","","","","","","72","H","0","img/none_selected.jpg","true","0","full_practice",""
"","bandit","60","189187","0.0-32.0-9.0","22283544","wem/bandit_party_2","A2E3TO92MCQ9XU","either","1","254","","","","","","","0","1","0","","0.8","0.5","0.5","0.5","0.5","0.8","0.2","0.6","0.2","","","","","","","","","","","","","","72","H","0","img/none_selected.jpg","true","0","full_practice",""
"","bandit","61","190890","0.0-32.0-10.0","22283544","wem/bandit_party_2","A2E3TO92MCQ9XU","either","1","199","","","","","","","1","0","0","0.8","","0.5","0.5","0.5","0.5","","","","","0.8","0.2","0.6","0.2","","","","","","","","","","72","H","0","img/none_selected.jpg","true","0","full_practice",""
"","bandit","62","192435","0.0-32.0-11.0","22283544","wem/bandit_party_2","A2E3TO92MCQ9XU","either","1","40","","","","","","","1","0","0","0.8","","0.5","0.5","0.5","0.5","","","","","0.8","0.2","0.6","0.2","","","","","","","","","","72","H","0","img/none_selected.jpg","true","0","full_practice",""
"","bandit","63","194120","0.0-32.0-12.0","22283544","wem/bandit_party_2","A2E3TO92MCQ9XU","either","1","170","","","","","","","0","1","0","","0.8","0.5","0.5","0.5","0.5","0.8","0.2","0.6","0.2","","","","","","","","","","","","","","72","H","0","img/none_selected.jpg","true","0","full_practice",""
"","bandit","64","195917","0.0-32.0-13.0","22283544","wem/bandit_party_2","A2E3TO92MCQ9XU","either","1","282","","","","","","","0","0","1","","0.8","0.5","0.5","0.5","0.5","0.8","0.2","0.6","0.2","","","","","","","","","","","","","","72","H","0","img/none_selected.jpg","true","0","full_practice",""
"","bandit","65","197611","0.0-32.0-14.0","22283544","wem/bandit_party_2","A2E3TO92MCQ9XU","either","1","189","","","","","","","1","0","0","0.8","","0.5","0.5","0.5","0.5","","","","","0.8","0.2","0.6","0.2","","","","","","","","","","72","H","0","img/none_selected.jpg","true","0","full_practice",""
"","bandit","66","199387","0.0-32.0-15.0","22283544","wem/bandit_party_2","A2E3TO92MCQ9XU","either","1","269","","","","","","","1","0","0","0.8","","0.5","0.5","0.5","0.5","","","","","0.8","0.2","0.6","0.2","","","","","","","","","","72","H","0","img/none_selected.jpg","true","0","full_practice",""
"","bandit","67","201242","0.0-32.0-16.0","22283544","wem/bandit_party_2","A2E3TO92MCQ9XU","either","1","350","","","","","","","1","0","0","0.8","","0.5","0.5","0.5","0.5","","","","","0.8","0.2","0.6","0.2","","","","","","","","","","72","H","0","img/none_selected.jpg","true","0","full_practice",""
"","bandit","68","203043","0.0-32.0-17.0","22283544","wem/bandit_party_2","A2E3TO92MCQ9XU","either","1","290","","","","","","","1","0","0","0.8","","0.5","0.5","0.5","0.5","","","","","0.8","0.2","0.6","0.2","","","","","","","","","","72","H","0","img/none_selected.jpg","true","0","full_practice",""
"","bandit","69","204886","0.0-32.0-18.0","22283544","wem/bandit_party_2","A2E3TO92MCQ9XU","either","1","336","","","","","","","1","0","0","0.8","","0.5","0.5","0.5","0.5","","","","","0.8","0.2","0.6","0.2","","","","","","","","","","72","H","0","img/none_selected.jpg","true","0","full_practice",""
"","bandit","70","206597","0.0-32.0-19.0","22283544","wem/bandit_party_2","A2E3TO92MCQ9XU","either","1","203","","","","","","","0","0","1","","0.8","0.5","0.5","0.5","0.5","0.8","0.2","0.6","0.2","","","","","","","","","","","","","","72","H","0","img/none_selected.jpg","true","0","full_practice",""
"","text","71","209163","0.0-33.0","22283544","wem/bandit_party_2","A2E3TO92MCQ9XU","either","1","2561","","","32","","","","","","","","","","","","","","","","","","","","","","","","","","","","","","","","","","","","",""
"","text-replacement","72","217414","0.0-34.0","22283544","wem/bandit_party_2","A2E3TO92MCQ9XU","either","1","7247","","","32","","","","","","","","","","","","","","","","","","","","","","","","","","","","","","","","","","","","",""
"","text-replacement","73","259909","0.0-35.0","22283544","wem/bandit_party_2","A2E3TO92MCQ9XU","either","1","42491","","","32","","","","","","","","","","","","","","","","","","","","","","","","","","","","","","","","","","","","",""
"","text-replacement","74","263172","0.0-36.0","22283544","wem/bandit_party_2","A2E3TO92MCQ9XU","either","1","3262","","","32","","","","","","","","","","","","","","","","","","","","","","","","","","","","","","","","","","","","",""
"","text-replacement","75","267197","0.0-37.0","22283544","wem/bandit_party_2","A2E3TO92MCQ9XU","either","1","4023","","","32","","","","","","","","","","","","","","","","","","","","","","","","","","","","","","","","","","","","",""
"","text-replacement","76","319822","0.0-38.0","22283544","wem/bandit_party_2","A2E3TO92MCQ9XU","either","1","52623","","","32","","","","","","","","","","","","","","","","","","","","","","","","","","","","","","","","","","","","",""
"","survey-multi-choice-replacement","77","323664","0.0-39.0-0.0","22283544","wem/bandit_party_2","A2E3TO92MCQ9XU","either","1","3831","","","","","","","","","","","","","","","","","","","","","","","","Money will be added to the pool for <span style='color:blue;'>DEMOCRATS</span>","","","","","","","attn_check","","","","","","","","","0"
"","survey-multi-choice-replacement","78","326861","0.0-40.0-0.0","22283544","wem/bandit_party_2","A2E3TO92MCQ9XU","either","1","2190","","","","","","","","","","","","","","","","","","","","","","","","Equal amounts of money will be added to the pool for <span style='color:blue;'>DEMOCRATS</span> and subtracted from the pool for <span style='color:red;'>REPUBLICANS</span>","","","","","","","attn_check","","","","","","","","","2"
"","survey-multi-choice-replacement","79","332000","0.0-41.0-0.0","22283544","wem/bandit_party_2","A2E3TO92MCQ9XU","either","1","4133","","","","","","","","","","","","","","","","","","","","","","","","No money will be added to either pool","","","","","","","attn_check","","","","","","","","","3"
"","bandit","80","335298","0.0-42.0-0.0","22283544","wem/bandit_party_2","A2E3TO92MCQ9XU","either","1","791","","","","","","","0","1","0","","0.8101107889","0.4","0.6","0.2","0.8","0.8101107889","0.4995060561","0.7674833066","0.5202783506","","","","","","","","","","","","","","72","H","0","img/none_selected.jpg","","1","main_expt",""
"","bandit","81","337132","0.0-43.0-0.0","22283544","wem/bandit_party_2","A2E3TO92MCQ9XU","either","1","328","","","","","","","0","1","0","","0.8827976921","0.4","0.6","0.2","0.8","0.8827976921","0.4452888422","0.7786696111","0.4559554218","","","","","","","","","","","","","","72","H","0","img/none_selected.jpg","","2","main_expt",""
"","bandit","82","338994","0.0-44.0-0.0","22283544","wem/bandit_party_2","A2E3TO92MCQ9XU","either","1","358","","","","","","","0","1","0","","0.918633781","0.4","0.6","0.2","0.8","0.918633781","0.4956599627","0.7883912796","0.3791335739","","","","","","","","","","","","","","72","H","0","img/none_selected.jpg","","3","main_expt",""
"","bandit","83","340797","0.0-45.0-0.0","22283544","wem/bandit_party_2","A2E3TO92MCQ9XU","either","1","293","","","","","","","0","1","0","","0.8961075186","0.4","0.6","0.2","0.8","0.8961075186","0.3939226057","0.8311681014","0.362446662","","","","","","","","","","","","","","72","H","0","img/none_selected.jpg","","4","main_expt",""
"","bandit","84","342572","0.0-46.0-0.0","22283544","wem/bandit_party_2","A2E3TO92MCQ9XU","either","1","270","","","","","","","0","1","0","","0.9065038385","0.4","0.6","0.2","0.8","0.9065038385","0.4737796053","0.706748425","0.4337427147","","","","","","","","","","","","","","72","H","0","img/none_selected.jpg","","5","main_expt",""
"","bandit","85","344330","0.0-47.0-0.0","22283544","wem/bandit_party_2","A2E3TO92MCQ9XU","either","1","253","","","","","","","1","0","0","0.9628954729","","0.4","0.6","0.2","0.8","","","","","0.9628954729","0.5798080576","0.7246132019","0.4260566605","","","","","","","","","","72","H","0","img/none_selected.jpg","","6","main_expt",""
"","bandit","86","346082","0.0-48.0-0.0","22283544","wem/bandit_party_2","A2E3TO92MCQ9XU","either","1","248","","","","","","","0","1","0","","0.9244273404","0.4","0.6","0.2","0.8","0.9244273404","0.6184433593","0.822103072","0.5595739282","","","","","","","","","","","","","","72","H","0","img/none_selected.jpg","","7","main_expt",""
"","bandit","87","347911","0.0-49.0-0.0","22283544","wem/bandit_party_2","A2E3TO92MCQ9XU","either","1","323","","","","","","","1","0","0","0.9214665689","","0.4","0.6","0.2","0.8","","","","","0.9214665689","0.5380809204","0.8176183596","0.5757792393","","","","","","","","","","72","H","0","img/none_selected.jpg","","8","main_expt",""
"","bandit","88","349707","0.0-50.0-0.0","22283544","wem/bandit_party_2","A2E3TO92MCQ9XU","either","1","289","","","","","","","1","0","0","0.9604963414","","0.4","0.6","0.2","0.8","","","","","0.9604963414","0.4884558296","0.7421782695","0.5508288143","","","","","","","","","","72","H","0","img/none_selected.jpg","","9","main_expt",""
"","bandit","89","351442","0.0-51.0-0.0","22283544","wem/bandit_party_2","A2E3TO92MCQ9XU","either","1","231","","","","","","","0","1","0","","0.973544224","0.4","0.6","0.2","0.8","0.973544224","0.6062827564","0.7112185725","0.4615344473","","","","","","","","","","","","","","72","H","0","img/none_selected.jpg","","10","main_expt",""
"","bandit","90","353237","0.0-52.0-0.0","22283544","wem/bandit_party_2","A2E3TO92MCQ9XU","either","1","286","","","","","","","1","0","0","0.9756729976","","0.4","0.6","0.2","0.8","","","","","0.9756729976","0.6618996933","0.6656122322","0.4731032433","","","","","","","","","","72","H","0","img/none_selected.jpg","","11","main_expt",""
"","bandit","91","354988","0.0-53.0-0.0","22283544","wem/bandit_party_2","A2E3TO92MCQ9XU","either","1","245","","","","","","","1","0","0","0.9824084628","","0.4","0.6","0.2","0.8","","","","","0.9824084628","0.6589688621","0.632951522","0.5028989732","","","","","","","","","","72","H","0","img/none_selected.jpg","","12","main_expt",""
"","bandit","92","356764","0.0-54.0-0.0","22283544","wem/bandit_party_2","A2E3TO92MCQ9XU","either","1","269","","","","","","","0","1","0","","0.9852841122","0.4","0.6","0.2","0.8","0.9852841122","0.7483501345","0.6428643634","0.5252386458","","","","","","","","","","","","","","72","H","0","img/none_selected.jpg","","13","main_expt",""
"","bandit","93","358505","0.0-55.0-0.0","22283544","wem/bandit_party_2","A2E3TO92MCQ9XU","either","1","236","","","","","","","0","1","0","","0.9844185579","0.4","0.6","0.2","0.8","0.9844185579","0.7642220585","0.5693663763","0.4883642101","","","","","","","","","","","","","","72","H","0","img/none_selected.jpg","","14","main_expt",""
"","bandit","94","360332","0.0-56.0-0.0","22283544","wem/bandit_party_2","A2E3TO92MCQ9XU","either","1","320","","","","","","","0","1","0","","0.9716790186","0.4","0.6","0.2","0.8","0.9716790186","0.8255663415","0.6354763258","0.5125695872","","","","","","","","","","","","","","72","H","0","img/none_selected.jpg","","15","main_expt",""
"","bandit","95","362154","0.0-57.0-0.0","22283544","wem/bandit_party_2","A2E3TO92MCQ9XU","either","1","316","","","","","","","0","1","0","","0.9724226268","0.4","0.6","0.2","0.8","0.9724226268","0.8262734196","0.6074668868","0.483313844","","","","","","","","","","","","","","72","H","0","img/none_selected.jpg","","16","main_expt",""
"","bandit","96","363965","0.0-58.0-0.0","22283544","wem/bandit_party_2","A2E3TO92MCQ9XU","either","1","304","","","","","","","0","1","0","","0.969397438","0.4","0.6","0.2","0.8","0.969397438","0.8957105494","0.634379517","0.4764119597","","","","","","","","","","","","","","72","H","0","img/none_selected.jpg","","17","main_expt",""
"","bandit","97","365733","0.0-59.0-0.0","22283544","wem/bandit_party_2","A2E3TO92MCQ9XU","either","1","262","","","","","","","0","1","0","","0.9487821198","0.4","0.6","0.2","0.8","0.9487821198","0.8243017832","0.7399013172","0.4742144938","","","","","","","","","","","","","","72","H","0","img/none_selected.jpg","","18","main_expt",""
"","bandit","98","367546","0.0-60.0-0.0","22283544","wem/bandit_party_2","A2E3TO92MCQ9XU","either","1","303","","","","","","","0","1","0","","0.8822386923","0.4","0.6","0.2","0.8","0.8822386923","0.8174393347","0.6892422428","0.5445729057","","","","","","","","","","","","","","72","H","0","img/none_selected.jpg","","19","main_expt",""
"","bandit","99","369340","0.0-61.0-0.0","22283544","wem/bandit_party_2","A2E3TO92MCQ9XU","either","1","286","","","","","","","1","0","0","0.8658452863","","0.4","0.6","0.2","0.8","","","","","0.8658452863","0.8457625901","0.5544472153","0.5114357523","","","","","","","","","","72","H","0","img/none_selected.jpg","","20","main_expt",""
"","bandit","100","371061","0.0-62.0-0.0","22283544","wem/bandit_party_2","A2E3TO92MCQ9XU","either","1","214","","","","","","","0","0","1","0.8597265301","","0.4","0.6","0.2","0.8","","","","","0.8597265301","0.8565453533","0.4705077418","0.4948626968","","","","","","","","","","72","H","0","img/none_selected.jpg","","21","main_expt",""
"","bandit","101","372924","0.0-63.0-0.0","22283544","wem/bandit_party_2","A2E3TO92MCQ9XU","either","1","355","","","","","","","0","1","0","","0.8821281293","0.4","0.6","0.2","0.8","0.929530396","0.8821281293","0.5364913494","0.3750889156","","","","","","","","","","","","","","74","J","1","","","22","main_expt",""
"","bandit","102","374817","0.0-64.0-0.0","22283544","wem/bandit_party_2","A2E3TO92MCQ9XU","either","1","381","","","","","","","1","0","0","0.8253896901","","0.4","0.6","0.2","0.8","","","","","0.9149061772","0.8253896901","0.5450887529","0.3874093852","","","","","","","","","","74","J","1","","","23","main_expt",""
"","bandit","103","376586","0.0-65.0-0.0","22283544","wem/bandit_party_2","A2E3TO92MCQ9XU","either","1","265","","","","","","","0","1","0","","0.8682133559","0.4","0.6","0.2","0.8","0.9389899916","0.8682133559","0.6013055931","0.4126546177","","","","","","","","","","","","","","74","J","1","","","24","main_expt",""
"","bandit","104","378420","0.0-66.0-0.0","22283544","wem/bandit_party_2","A2E3TO92MCQ9XU","either","1","326","","","","","","","1","0","0","0.8186134727","","0.4","0.6","0.2","0.8","","","","","0.9583062328","0.8186134727","0.7116226269","0.3871809826","","","","","","","","","","74","J","1","","","25","main_expt",""
"","bandit","105","380227","0.0-67.0-0.0","22283544","wem/bandit_party_2","A2E3TO92MCQ9XU","either","1","303","","","","","","","0","0","1","0.841170918","","0.4","0.6","0.2","0.8","","","","","0.9349434311","0.841170918","0.7284905038","0.4162773602","","","","","","","","","","74","J","1","","","26","main_expt",""
"","bandit","106","382010","0.0-68.0-0.0","22283544","wem/bandit_party_2","A2E3TO92MCQ9XU","either","1","278","","","","","","","1","0","0","0.9147743466","","0.4","0.6","0.2","0.8","","","","","0.9147743466","0.8332298301","0.7007901837","0.4153433109","","","","","","","","","","72","H","0","img/none_selected.jpg","","27","main_expt",""
"","bandit","107","383795","0.0-69.0-0.0","22283544","wem/bandit_party_2","A2E3TO92MCQ9XU","either","1","279","","","","","","","1","0","0","0.8913744663","","0.4","0.6","0.2","0.8","","","","","0.8913744663","0.8340804883","0.7197690037","0.3083156359","","","","","","","","","","72","H","0","img/none_selected.jpg","","28","main_expt",""
"","bandit","108","386210","0.0-70.0-0.0","22283544","wem/bandit_party_2","A2E3TO92MCQ9XU","either","1","910","","","","","","","0","1","0","","0.9004815278","0.4","0.6","0.2","0.8","0.9004815278","0.8800986549","0.7569205749","0.4048150761","","","","","","","","","","","","","","72","H","0","img/none_selected.jpg","","29","main_expt",""
"","bandit","109","388187","0.0-71.0-0.0","22283544","wem/bandit_party_2","A2E3TO92MCQ9XU","either","1","471","","","","","","","0","1","0","","0.8335499875","0.4","0.6","0.2","0.8","0.8335499875","0.800988266","0.7007062976","0.5604470694","","","","","","","","","","","","","","72","H","0","img/none_selected.jpg","","30","main_expt",""
"","bandit","110","389955","0.0-72.0-0.0","22283544","wem/bandit_party_2","A2E3TO92MCQ9XU","either","1","262","","","","","","","0","1","0","","0.7904098286","0.4","0.6","0.2","0.8","0.7904098286","0.8092707987","0.6218809145","0.5114456598","","","","","","","","","","","","","","72","H","0","img/none_selected.jpg","","31","main_expt",""
"","bandit","111","391750","0.0-73.0-0.0","22283544","wem/bandit_party_2","A2E3TO92MCQ9XU","either","1","282","","","","","","","1","0","0","0.8156470634","","0.4","0.6","0.2","0.8","","","","","0.8156470634","0.7600689364","0.5448888872","0.5195843055","","","","","","","","","","72","H","0","img/none_selected.jpg","","32","main_expt",""
"","bandit","112","393506","0.0-74.0-0.0","22283544","wem/bandit_party_2","A2E3TO92MCQ9XU","either","1","251","","","","","","","0","1","0","","0.7458483223","0.4","0.6","0.2","0.8","0.7458483223","0.7268405739","0.4396040002","0.4278216128","","","","","","","","","","","","","","72","H","0","img/none_selected.jpg","","33","main_expt",""
"","bandit","113","395285","0.0-75.0-0.0","22283544","wem/bandit_party_2","A2E3TO92MCQ9XU","either","1","271","","","","","","","0","0","1","0.8745519215","","0.4","0.6","0.2","0.8","","","","","0.8745519215","0.7867385379","0.3418027302","0.4581725564","","","","","","","","","","72","H","0","img/none_selected.jpg","","34","main_expt",""
"","bandit","114","396996","0.0-76.0-0.0","22283544","wem/bandit_party_2","A2E3TO92MCQ9XU","either","1","204","","","","","","","0","0","1","0.8761773117","","0.4","0.6","0.2","0.8","","","","","0.8761773117","0.7776722478","0.3770378826","0.5170179058","","","","","","","","","","72","H","0","img/none_selected.jpg","","35","main_expt",""
"","bandit","115","398716","0.0-77.0-0.0","22283544","wem/bandit_party_2","A2E3TO92MCQ9XU","either","1","213","","","","","","","0","0","1","","0.3264650107","0.4","0.6","0.2","0.8","0.8898579413","0.8110731924","0.3264650107","0.5761285305","","","","","","","","","","","","","","75","K","2","","","36","main_expt",""
"","bandit","116","400725","0.0-78.0-0.0","22283544","wem/bandit_party_2","A2E3TO92MCQ9XU","either","1","502","","","","","","","0","0","1","0.5824592389","","0.4","0.6","0.2","0.8","","","","","0.9189960073","0.8371501114","0.1696248696","0.5824592389","","","","","","","","","","76","L","3","","","37","main_expt",""
"","bandit","117","402499","0.0-79.0-0.0","22283544","wem/bandit_party_2","A2E3TO92MCQ9XU","either","1","267","","","","","","","1","0","0","0.801984358","","0.4","0.6","0.2","0.8","","","","","0.9429067042","0.801984358","0.3008725236","0.5039158184","","","","","","","","","","74","J","1","","","38","main_expt",""
"","bandit","118","404402","0.0-80.0-0.0","22283544","wem/bandit_party_2","A2E3TO92MCQ9XU","either","1","398","","","","","","","0","1","0","","0.836760671","0.4","0.6","0.2","0.8","0.8860185862","0.836760671","0.3612597963","0.4906961915","","","","","","","","","","","","","","74","J","1","","","39","main_expt",""
"","bandit","119","406258","0.0-81.0-0.0","22283544","wem/bandit_party_2","A2E3TO92MCQ9XU","either","1","346","","","","","","","1","0","0","0.7930168878","","0.4","0.6","0.2","0.8","","","","","0.8958725565","0.7930168878","0.3316001813","0.5118773476","","","","","","","","","","74","J","1","","","40","main_expt",""
"","bandit","120","408083","0.0-82.0-0.0","22283544","wem/bandit_party_2","A2E3TO92MCQ9XU","either","1","317","","","","","","","1","0","0","0.6758505439","","0.4","0.6","0.2","0.8","","","","","0.8369757826","0.6758505439","0.251761063","0.5207000815","","","","","","","","","","74","J","1","","","41","main_expt",""
"","bandit","121","409905","0.0-83.0-0.0","22283544","wem/bandit_party_2","A2E3TO92MCQ9XU","either","1","316","","","","","","","0","1","0","","0.669091732","0.4","0.6","0.2","0.8","0.8724413244","0.669091732","0.3764367217","0.6208632684","","","","","","","","","","","","","","74","J","1","","","42","main_expt",""
"","bandit","122","411690","0.0-84.0-0.0","22283544","wem/bandit_party_2","A2E3TO92MCQ9XU","either","1","278","","","","","","","0","1","0","","0.5774386383","0.4","0.6","0.2","0.8","0.8721156492","0.5774386383","0.4280411123","0.6736877605","","","","","","","","","","","","","","74","J","1","","","43","main_expt",""
"","bandit","123","413462","0.0-85.0-0.0","22283544","wem/bandit_party_2","A2E3TO92MCQ9XU","either","1","264","","","","","","","0","1","0","","0.5402750746","0.4","0.6","0.2","0.8","0.874486911","0.5402750746","0.4250007774","0.6770598463","","","","","","","","","","","","","","74","J","1","","","44","main_expt",""
"","bandit","124","415293","0.0-86.0-0.0","22283544","wem/bandit_party_2","A2E3TO92MCQ9XU","either","1","323","","","","","","","0","1","0","","0.4769525635","0.4","0.6","0.2","0.8","0.7653026016","0.4769525635","0.3964774122","0.6811336834","","","","","","","","","","","","","","74","J","1","","","45","main_expt",""
"","bandit","125","417294","0.0-87.0-0.0","22283544","wem/bandit_party_2","A2E3TO92MCQ9XU","either","1","487","","","","","","","1","0","0","0.460739512","","0.4","0.6","0.2","0.8","","","","","0.6884850605","0.460739512","0.3755541509","0.7409040253","","","","","","","","","","74","J","1","","","46","main_expt",""
"","bandit","126","419140","0.0-88.0-0.0","22283544","wem/bandit_party_2","A2E3TO92MCQ9XU","either","1","333","","","","","","","1","0","0","0.3953603582","","0.4","0.6","0.2","0.8","","","","","0.6869729855","0.3953603582","0.3698766084","0.8602274841","","","","","","","","","","74","J","1","","","47","main_expt",""
"","bandit","127","421251","0.0-89.0-0.0","22283544","wem/bandit_party_2","A2E3TO92MCQ9XU","either","1","605","","","","","","","1","0","0","0.5194217752","","0.4","0.6","0.2","0.8","","","","","0.624749708","0.5194217752","0.2924141828","0.8947369126","","","","","","","","","","74","J","1","","","48","main_expt",""
"","bandit","128","423172","0.0-90.0-0.0","22283544","wem/bandit_party_2","A2E3TO92MCQ9XU","either","1","411","","","","","","","0","0","1","0.5015721984","","0.4","0.6","0.2","0.8","","","","","0.6269608649","0.5015721984","0.2506794134","0.9071052574","","","","","","","","","","74","J","1","","","49","main_expt",""
"","bandit","129","425003","0.0-91.0-0.0","22283544","wem/bandit_party_2","A2E3TO92MCQ9XU","either","1","324","","","","","","","1","0","0","0.4427204185","","0.4","0.6","0.2","0.8","","","","","0.5394470416","0.4427204185","0.2200095001","0.8569531155","","","","","","","","","","74","J","1","","","50","main_expt",""
"","bandit","130","427170","0.0-92.0-0.0","22283544","wem/bandit_party_2","A2E3TO92MCQ9XU","either","1","661","","","","","","","0","0","1","0.5194544998","","0.4","0.6","0.2","0.8","","","","","0.4991806479","0.5194544998","0.2703780474","0.8728609703","","","","","","","","","","74","J","1","","","51","main_expt",""
"","bandit","131","429236","0.0-93.0-0.0","22283544","wem/bandit_party_2","A2E3TO92MCQ9XU","either","1","559","","","","","","","1","0","0","0.4420680866","","0.4","0.6","0.2","0.8","","","","","0.5431464126","0.4420680866","0.3215640211","0.902184381","","","","","","","","","","74","J","1","","","52","main_expt",""
"","bandit","132","431018","0.0-94.0-0.0","22283544","wem/bandit_party_2","A2E3TO92MCQ9XU","either","1","277","","","","","","","0","1","0","","0.5541791803","0.4","0.6","0.2","0.8","0.4799783957","0.5541791803","0.2918797996","0.8975054296","","","","","","","","","","","","","","74","J","1","","","53","main_expt",""
"","bandit","133","433117","0.0-95.0-0.0","22283544","wem/bandit_party_2","A2E3TO92MCQ9XU","either","1","584","","","","","","","0","0","1","","0.6187664305","0.4","0.6","0.2","0.8","0.3946877269","0.6187664305","0.2432815539","0.9436546011","","","","","","","","","","","","","","74","J","1","","","54","main_expt",""
"","bandit","134","434885","0.0-96.0-0.0","22283544","wem/bandit_party_2","A2E3TO92MCQ9XU","either","1","260","","","","","","","1","0","0","0.1993500609","","0.4","0.6","0.2","0.8","","","","","0.3892466866","0.538030076","0.1993500609","0.9411334538","","","","","","","","","","75","K","2","","","55","main_expt",""
"","bandit","135","436739","0.0-97.0-0.0","22283544","wem/bandit_party_2","A2E3TO92MCQ9XU","either","1","343","","","","","","","0","0","1","","0.1832364248","0.4","0.6","0.2","0.8","0.347268188","0.5137881872","0.1832364248","0.862285227","","","","","","","","","","","","","","75","K","2","","","56","main_expt",""
"","bandit","136","438491","0.0-98.0-0.0","22283544","wem/bandit_party_2","A2E3TO92MCQ9XU","either","1","244","","","","","","","1","0","0","0.9034803314","","0.4","0.6","0.2","0.8","","","","","0.3462231845","0.6274604021","0.1703919496","0.9034803314","","","","","","","","","","76","L","3","","","57","main_expt",""
"","bandit","137","440644","0.0-99.0-0.0","22283544","wem/bandit_party_2","A2E3TO92MCQ9XU","either","1","637","","","","","","","1","0","0","0.9062052911","","0.4","0.6","0.2","0.8","","","","","0.3707442777","0.5636132077","0.2146973212","0.9062052911","","","","","","","","","","76","L","3","","","58","main_expt",""
"","bandit","138","443187","0.0-100.0-0.0","22283544","wem/bandit_party_2","A2E3TO92MCQ9XU","either","1","1036","","","","","","","0","1","0","","0.9169546289","0.4","0.6","0.2","0.8","0.4530366532","0.6555757088","0.2118107272","0.9169546289","","","","","","","","","","","","","","76","L","3","","","59","main_expt",""
"","bandit","139","445307","0.0-101.0-0.0","22283544","wem/bandit_party_2","A2E3TO92MCQ9XU","either","1","609","","","","","","","1","0","0","0.9048679239","","0.4","0.6","0.2","0.8","","","","","0.4335409142","0.6555481193","0.2096036334","0.9048679239","","","","","","","","","","76","L","3","","","60","main_expt",""
"","bandit","140","447132","0.0-102.0-0.0","22283544","wem/bandit_party_2","A2E3TO92MCQ9XU","either","1","317","","","","","","","1","0","0","0.9346572725","","0.4","0.6","0.2","0.8","","","","","0.3601573371","0.6988977931","0.1985607356","0.9346572725","","","","","","","","","","76","L","3","","","61","main_expt",""
"","bandit","141","449266","0.0-103.0-0.0","22283544","wem/bandit_party_2","A2E3TO92MCQ9XU","either","1","628","","","","","","","1","0","0","0.9332729597","","0.4","0.6","0.2","0.8","","","","","0.3187004912","0.6124712875","0.2352246004","0.9332729597","","","","","","","","","","76","L","3","","","62","main_expt",""
"","bandit","142","451584","0.0-104.0-0.0","22283544","wem/bandit_party_2","A2E3TO92MCQ9XU","either","1","811","","","","","","","1","0","0","0.9300142507","","0.4","0.6","0.2","0.8","","","","","0.331276396","0.4881994696","0.1989126294","0.9300142507","","","","","","","","","","76","L","3","","","63","main_expt",""
"","bandit","143","453442","0.0-105.0-0.0","22283544","wem/bandit_party_2","A2E3TO92MCQ9XU","either","1","352","","","","","","","0","1","0","","0.8992917639","0.4","0.6","0.2","0.8","0.3984677","0.5007509184","0.2231035509","0.8992917639","","","","","","","","","","","","","","76","L","3","","","64","main_expt",""
"","bandit","144","455851","0.0-106.0-0.0","22283544","wem/bandit_party_2","A2E3TO92MCQ9XU","either","1","899","","","","","","","1","0","0","0.7939475476","","0.4","0.6","0.2","0.8","","","","","0.3012021372","0.6077525222","0.174077904","0.7939475476","","","","","","","","","","76","L","3","","","65","main_expt",""
"","bandit","145","457694","0.0-107.0-0.0","22283544","wem/bandit_party_2","A2E3TO92MCQ9XU","either","1","336","","","","","","","0","0","1","0.7848839068","","0.4","0.6","0.2","0.8","","","","","0.2848395029","0.4876759876","0.1505104035","0.7848839068","","","","","","","","","","76","L","3","","","66","main_expt",""
"","bandit","146","471933","0.0-108.0-0.0","22283544","wem/bandit_party_2","A2E3TO92MCQ9XU","either","1","12729","","","","","","","1","0","0","0.2908363747","","0.4","0.6","0.2","0.8","","","","","0.2908363747","0.4705728971","0.1706094741","0.7712869283","","","","","","","","","","72","H","0","img/none_selected.jpg","","67","main_expt",""
"","bandit","147","473690","0.0-109.0-0.0","22283544","wem/bandit_party_2","A2E3TO92MCQ9XU","either","1","247","","","","","","","0","0","1","0.3226378352","","0.4","0.6","0.2","0.8","","","","","0.3226378352","0.5822594153","0.193375558","0.7426915226","","","","","","","","","","72","H","0","img/none_selected.jpg","","68","main_expt",""
"","bandit","148","475387","0.0-110.0-0.0","22283544","wem/bandit_party_2","A2E3TO92MCQ9XU","either","1","191","","","","","","","0","1","0","","0.6189715015","0.4","0.6","0.2","0.8","0.4490581071","0.6189715015","0.226811003","0.592712881","","","","","","","","","","","","","","74","J","1","","","69","main_expt",""
"","bandit","149","477139","0.0-111.0-0.0","22283544","wem/bandit_party_2","A2E3TO92MCQ9XU","either","1","245","","","","","","","0","1","0","","0.5307799745","0.4","0.6","0.2","0.8","0.42365523","0.5307799745","0.191142909","0.6587085967","","","","","","","","","","","","","","74","J","1","","","70","main_expt",""
"","bandit","150","478940","0.0-112.0-0.0","22283544","wem/bandit_party_2","A2E3TO92MCQ9XU","either","1","293","","","","","","","0","0","1","0.5205551237","","0.4","0.6","0.2","0.8","","","","","0.427101634","0.5205551237","0.2371486809","0.7562029562","","","","","","","","","","74","J","1","","","71","main_expt",""
"","bandit","151","480652","0.0-113.0-0.0","22283544","wem/bandit_party_2","A2E3TO92MCQ9XU","either","1","203","","","","","","","1","0","0","0.5913901284","","0.4","0.6","0.2","0.8","","","","","0.5387899421","0.5913901284","0.2602117984","0.670676276","","","","","","","","","","74","J","1","","","72","main_expt",""
"","bandit","152","482420","0.0-114.0-0.0","22283544","wem/bandit_party_2","A2E3TO92MCQ9XU","either","1","258","","","","","","","1","0","0","0.7127465592","","0.4","0.6","0.2","0.8","","","","","0.4931252492","0.7127465592","0.1837165363","0.6870219419","","","","","","","","","","74","J","1","","","73","main_expt",""
"","bandit","153","484185","0.0-115.0-0.0","22283544","wem/bandit_party_2","A2E3TO92MCQ9XU","either","1","260","","","","","","","1","0","0","0.7804212289","","0.4","0.6","0.2","0.8","","","","","0.3888626504","0.7804212289","0.2032334464","0.582898469","","","","","","","","","","74","J","1","","","74","main_expt",""
"","bandit","154","485931","0.0-116.0-0.0","22283544","wem/bandit_party_2","A2E3TO92MCQ9XU","either","1","238","","","","","","","0","1","0","","0.7966502287","0.4","0.6","0.2","0.8","0.3866429177","0.7966502287","0.2782751631","0.6452442043","","","","","","","","","","","","","","74","J","1","","","75","main_expt",""
"","bandit","155","487796","0.0-117.0-0.0","22283544","wem/bandit_party_2","A2E3TO92MCQ9XU","either","1","352","","","","","","","1","0","0","0.7775959854","","0.4","0.6","0.2","0.8","","","","","0.3948468247","0.7775959854","0.3318782676","0.7031137023","","","","","","","","","","74","J","1","","","76","main_expt",""
"","bandit","156","489508","0.0-118.0-0.0","22283544","wem/bandit_party_2","A2E3TO92MCQ9XU","either","1","205","","","","","","","1","0","0","0.8523583745","","0.4","0.6","0.2","0.8","","","","","0.4853082722","0.8523583745","0.312607664","0.6096498107","","","","","","","","","","74","J","1","","","77","main_expt",""
"","bandit","157","491286","0.0-119.0-0.0","22283544","wem/bandit_party_2","A2E3TO92MCQ9XU","either","1","272","","","","","","","0","0","1","","0.7707034136","0.4","0.6","0.2","0.8","0.4971609959","0.7707034136","0.3250695504","0.532302087","","","","","","","","","","","","","","74","J","1","","","78","main_expt",""
"","bandit","158","492938","0.0-120.0-0.0","22283544","wem/bandit_party_2","A2E3TO92MCQ9XU","either","1","145","","","","","","","0","0","1","","0.7919080975","0.4","0.6","0.2","0.8","0.5349041547","0.7919080975","0.277144637","0.4448734945","","","","","","","","","","","","","","74","J","1","","","79","main_expt",""
"","bandit","159","494595","0.0-121.0-0.0","22283544","wem/bandit_party_2","A2E3TO92MCQ9XU","either","1","150","","","","","","","0","0","1","","0.293018971","0.4","0.6","0.2","0.8","0.4713204996","0.8107458935","0.293018971","0.34513516","","","","","","","","","","","","","","75","K","2","","","80","main_expt",""
"","bandit","160","496435","0.0-122.0-0.0","22283544","wem/bandit_party_2","A2E3TO92MCQ9XU","either","1","333","","","","","","","0","1","0","","0.2730851157","0.4","0.6","0.2","0.8","0.4132476049","0.7851591746","0.2730851157","0.406584365","","","","","","","","","","","","","","75","K","2","","","81","main_expt",""
"","bandit","161","498194","0.0-123.0-0.0","22283544","wem/bandit_party_2","A2E3TO92MCQ9XU","either","1","255","","","","","","","0","0","1","","0.2436011542","0.4","0.6","0.2","0.8","0.4640808921","0.8067558171","0.2436011542","0.5068312928","","","","","","","","","","","","","","75","K","2","","","82","main_expt",""
"","bandit","162","500003","0.0-124.0-0.0","22283544","wem/bandit_party_2","A2E3TO92MCQ9XU","either","1","300","","","","","","","1","0","0","0.5209063211","","0.4","0.6","0.2","0.8","","","","","0.442115463","0.7777816444","0.2009218657","0.5209063211","","","","","","","","","","76","L","3","","","83","main_expt",""
"","bandit","163","501701","0.0-125.0-0.0","22283544","wem/bandit_party_2","A2E3TO92MCQ9XU","either","1","191","","","","","","","0","0","1","0.6221591745","","0.4","0.6","0.2","0.8","","","","","0.5117806844","0.7801041195","0.1550904625","0.6221591745","","","","","","","","","","76","L","3","","","84","main_expt",""
"","bandit","164","503476","0.0-126.0-0.0","22283544","wem/bandit_party_2","A2E3TO92MCQ9XU","either","1","264","","","","","","","1","0","0","0.6939346182","","0.4","0.6","0.2","0.8","","","","","0.5309627618","0.7593249252","0.1193398435","0.6939346182","","","","","","","","","","76","L","3","","","85","main_expt",""
"","bandit","165","505203","0.0-127.0-0.0","22283544","wem/bandit_party_2","A2E3TO92MCQ9XU","either","1","220","","","","","","","1","0","0","0.7533471596","","0.4","0.6","0.2","0.8","","","","","0.5482659382","0.7911667705","0.1398572341","0.7533471596","","","","","","","","","","76","L","3","","","86","main_expt",""
"","bandit","166","506935","0.0-128.0-0.0","22283544","wem/bandit_party_2","A2E3TO92MCQ9XU","either","1","221","","","","","","","0","0","1","","0.8040573679","0.4","0.6","0.2","0.8","0.4772076429","0.8480662183","0.1941505275","0.8040573679","","","","","","","","","","","","","","76","L","3","","","87","main_expt",""
"","bandit","167","508737","0.0-129.0-0.0","22283544","wem/bandit_party_2","A2E3TO92MCQ9XU","either","1","292","","","","","","","0","0","1","","0.5202977678","0.4","0.6","0.2","0.8","0.5202977678","0.8110462569","0.09645570925","0.7800800897","","","","","","","","","","","","","","72","H","0","img/none_selected.jpg","","88","main_expt",""
"","bandit","168","510522","0.0-130.0-0.0","22283544","wem/bandit_party_2","A2E3TO92MCQ9XU","either","1","279","","","","","","","0","1","0","","0.4970482359","0.4","0.6","0.2","0.8","0.4970482359","0.7924414871","0.1304326216","0.7329239748","","","","","","","","","","","","","","72","H","0","img/none_selected.jpg","","89","main_expt",""
"","bandit","169","512372","0.0-131.0-0.0","22283544","wem/bandit_party_2","A2E3TO92MCQ9XU","either","1","340","","","","","","","0","0","1","","0.4671205494","0.4","0.6","0.2","0.8","0.4671205494","0.8190855249","0.1410434261","0.7202813078","","","","","","","","","","","","","","72","H","0","img/none_selected.jpg","","90","main_expt",""
"","bandit","170","514132","0.0-132.0-0.0","22283544","wem/bandit_party_2","A2E3TO92MCQ9XU","either","1","251","","","","","","","1","0","0","0.858270253","","0.4","0.6","0.2","0.8","","","","","0.5518401665","0.858270253","0.1277095213","0.698586111","","","","","","","","","","74","J","1","","","91","main_expt",""
"","bandit","171","515900","0.0-133.0-0.0","22283544","wem/bandit_party_2","A2E3TO92MCQ9XU","either","1","261","","","","","","","1","0","0","0.8583259383","","0.4","0.6","0.2","0.8","","","","","0.620788192","0.8583259383","0.08596821216","0.6054304462","","","","","","","","","","74","J","1","","","92","main_expt",""
"","bandit","172","517691","0.0-134.0-0.0","22283544","wem/bandit_party_2","A2E3TO92MCQ9XU","either","1","284","","","","","","","1","0","0","0.8335107661","","0.4","0.6","0.2","0.8","","","","","0.679669404","0.8335107661","0.05652587691","0.6829204303","","","","","","","","","","74","J","1","","","93","main_expt",""
"","bandit","173","519858","0.0-135.0-0.0","22283544","wem/bandit_party_2","A2E3TO92MCQ9XU","either","1","660","","","","","","","0","0","1","0.8849423118","","0.4","0.6","0.2","0.8","","","","","0.6726581754","0.8849423118","0.07490457358","0.6084783934","","","","","","","","","","74","J","1","","","94","main_expt",""
"","bandit","174","521730","0.0-136.0-0.0","22283544","wem/bandit_party_2","A2E3TO92MCQ9XU","either","1","355","","","","","","","1","0","0","0.9175662658","","0.4","0.6","0.2","0.8","","","","","0.5983950962","0.9175662658","0.05201682933","0.51962455","","","","","","","","","","74","J","1","","","95","main_expt",""
"","bandit","175","523603","0.0-137.0-0.0","22283544","wem/bandit_party_2","A2E3TO92MCQ9XU","either","1","366","","","","","","","0","1","0","","0.8726153548","0.4","0.6","0.2","0.8","0.6316158747","0.8726153548","0.0353667714","0.453067158","","","","","","","","","","","","","","74","J","1","","","96","main_expt",""
"","bandit","176","525466","0.0-138.0-0.0","22283544","wem/bandit_party_2","A2E3TO92MCQ9XU","either","1","352","","","","","","","1","0","0","0.7260562137","","0.4","0.6","0.2","0.8","","","","","0.6660601513","0.7260562137","0.04301306848","0.4090095009","","","","","","","","","","74","J","1","","","97","main_expt",""
"","bandit","177","527394","0.0-139.0-0.0","22283544","wem/bandit_party_2","A2E3TO92MCQ9XU","either","1","422","","","","","","","0","1","0","","0.6506148609","0.4","0.6","0.2","0.8","0.6185462561","0.6506148609","0.03950067624","0.360727585","","","","","","","","","","","","","","74","J","1","","","98","main_expt",""
"","bandit","178","529466","0.0-140.0-0.0","22283544","wem/bandit_party_2","A2E3TO92MCQ9XU","either","1","565","","","","","","","0","0","1","","0.5816342488","0.4","0.6","0.2","0.8","0.581128502","0.5816342488","0.03156699585","0.3351327477","","","","","","","","","","","","","","74","J","1","","","99","main_expt",""
"","bandit","179","531235","0.0-141.0-0.0","22283544","wem/bandit_party_2","A2E3TO92MCQ9XU","either","1","261","","","","","","","0","0","1","","0.5521464449","0.4","0.6","0.2","0.8","0.479775063","0.5521464449","0.0248161238","0.3491912274","","","","","","","","","","","","","","74","J","1","","","100","main_expt",""
"","bandit","180","533172","0.0-142.0-0.0","22283544","wem/bandit_party_2","A2E3TO92MCQ9XU","either","1","431","","","","","","","0","0","1","0.6063232436","","0.4","0.6","0.2","0.8","","","","","0.5114647241","0.6063232436","0.02218075004","0.4105375765","","","","","","","","","","74","J","1","","","101","main_expt",""
"","bandit","181","534948","0.0-143.0-0.0","22283544","wem/bandit_party_2","A2E3TO92MCQ9XU","either","1","269","","","","","","","0","0","1","0.01802152149","","0.4","0.6","0.2","0.8","","","","","0.4718740674","0.5636213764","0.01802152149","0.438632671","","","","","","","","","","75","K","2","","","102","main_expt",""
"","bandit","182","536771","0.0-144.0-0.0","22283544","wem/bandit_party_2","A2E3TO92MCQ9XU","either","1","314","","","","","","","0","0","1","","0.01877214671","0.4","0.6","0.2","0.8","0.5245129891","0.5370473259","0.01877214671","0.372838406","","","","","","","","","","","","","","75","K","2","","","103","main_expt",""
"","bandit","183","538498","0.0-145.0-0.0","22283544","wem/bandit_party_2","A2E3TO92MCQ9XU","either","1","221","","","","","","","0","0","1","","0.3057692375","0.4","0.6","0.2","0.8","0.5170751474","0.549647281","0.01556743346","0.3057692375","","","","","","","","","","","","","","76","L","3","","","104","main_expt",""
"","bandit","184","540260","0.0-146.0-0.0","22283544","wem/bandit_party_2","A2E3TO92MCQ9XU","either","1","254","","","","","","","0","0","1","0.37369274","","0.4","0.6","0.2","0.8","","","","","0.472330124","0.4225976111","0.03717147126","0.37369274","","","","","","","","","","76","L","3","","","105","main_expt",""
"","bandit","185","541987","0.0-147.0-0.0","22283544","wem/bandit_party_2","A2E3TO92MCQ9XU","either","1","219","","","","","","","0","1","0","","0.568133852","0.4","0.6","0.2","0.8","0.568133852","0.5005163425","0.07687033395","0.3179799449","","","","","","","","","","","","","","72","H","0","img/none_selected.jpg","","106","main_expt",""
"","bandit","186","543755","0.0-148.0-0.0","22283544","wem/bandit_party_2","A2E3TO92MCQ9XU","either","1","258","","","","","","","0","1","0","","0.536018559","0.4","0.6","0.2","0.8","0.536018559","0.3995396385","0.07659049968","0.3053765494","","","","","","","","","","","","","","72","H","0","img/none_selected.jpg","","107","main_expt",""
"","bandit","187","545532","0.0-149.0-0.0","22283544","wem/bandit_party_2","A2E3TO92MCQ9XU","either","1","267","","","","","","","0","1","0","","0.3880888981","0.4","0.6","0.2","0.8","0.3880888981","0.3855926336","0.07827602418","0.2732860947","","","","","","","","","","","","","","72","H","0","img/none_selected.jpg","","108","main_expt",""
"","bandit","188","547319","0.0-150.0-0.0","22283544","wem/bandit_party_2","A2E3TO92MCQ9XU","either","1","270","","","","","","","0","1","0","","0.3675045314","0.4","0.6","0.2","0.8","0.3675045314","0.3059937163","0.1352418701","0.2624197952","","","","","","","","","","","","","","72","H","0","img/none_selected.jpg","","109","main_expt",""
"","bandit","189","549140","0.0-151.0-0.0","22283544","wem/bandit_party_2","A2E3TO92MCQ9XU","either","1","314","","","","","","","0","0","1","","0.4560700489","0.4","0.6","0.2","0.8","0.4560700489","0.2752892785","0.1705666919","0.3303210632","","","","","","","","","","","","","","72","H","0","img/none_selected.jpg","","110","main_expt",""
"","bandit","190","550925","0.0-152.0-0.0","22283544","wem/bandit_party_2","A2E3TO92MCQ9XU","either","1","278","","","","","","","0","0","1","0.5366389876","","0.4","0.6","0.2","0.8","","","","","0.5366389876","0.3038626008","0.2202970635","0.3541452024","","","","","","","","","","72","H","0","img/none_selected.jpg","","111","main_expt",""
"","bandit","191","552899","0.0-153.0-0.0","22283544","wem/bandit_party_2","A2E3TO92MCQ9XU","either","1","468","","","","","","","0","0","1","0.2308866464","","0.4","0.6","0.2","0.8","","","","","0.5742054707","0.2308866464","0.2368742277","0.4468573219","","","","","","","","","","74","J","1","","","112","main_expt",""
"","bandit","192","554658","0.0-154.0-0.0","22283544","wem/bandit_party_2","A2E3TO92MCQ9XU","either","1","253","","","","","","","1","0","0","0.2487241586","","0.4","0.6","0.2","0.8","","","","","0.6014260319","0.2420052043","0.2487241586","0.5163231944","","","","","","","","","","75","K","2","","","113","main_expt",""
"","bandit","193","556438","0.0-155.0-0.0","22283544","wem/bandit_party_2","A2E3TO92MCQ9XU","either","1","273","","","","","","","0","0","1","","0.238824581","0.4","0.6","0.2","0.8","0.5398035654","0.3277817495","0.238824581","0.4064640458","","","","","","","","","","","","","","75","K","2","","","114","main_expt",""
"","bandit","194","558266","0.0-156.0-0.0","22283544","wem/bandit_party_2","A2E3TO92MCQ9XU","either","1","322","","","","","","","0","0","1","","0.1480638281","0.4","0.6","0.2","0.8","0.5008208772","0.3280884562","0.1480638281","0.4085425191","","","","","","","","","","","","","","75","K","2","","","115","main_expt",""
"","bandit","195","559970","0.0-157.0-0.0","22283544","wem/bandit_party_2","A2E3TO92MCQ9XU","either","1","196","","","","","","","1","0","0","0.4412864427","","0.4","0.6","0.2","0.8","","","","","0.4200837231","0.4137256642","0.1246447603","0.4412864427","","","","","","","","","","76","L","3","","","116","main_expt",""
"","bandit","196","561796","0.0-158.0-0.0","22283544","wem/bandit_party_2","A2E3TO92MCQ9XU","either","1","317","","","","","","","0","0","1","0.5188885271","","0.4","0.6","0.2","0.8","","","","","0.4094987027","0.372751341","0.1308085784","0.5188885271","","","","","","","","","","76","L","3","","","117","main_expt",""
"","bandit","197","563522","0.0-159.0-0.0","22283544","wem/bandit_party_2","A2E3TO92MCQ9XU","either","1","219","","","","","","","0","0","1","","0.5728151575","0.4","0.6","0.2","0.8","0.3862907493","0.4225631273","0.09076242324","0.5728151575","","","","","","","","","","","","","","76","L","3","","","118","main_expt",""
"","bandit","198","565205","0.0-160.0-0.0","22283544","wem/bandit_party_2","A2E3TO92MCQ9XU","either","1","174","","","","","","","0","1","0","","0.4437318585","0.4","0.6","0.2","0.8","0.4437318585","0.4188482812","0.09057925276","0.5065624602","","","","","","","","","","","","","","72","H","0","img/none_selected.jpg","","119","main_expt",""
"","bandit","199","566934","0.0-161.0-0.0","22283544","wem/bandit_party_2","A2E3TO92MCQ9XU","either","1","216","","","","","","","0","0","1","","0.293469011","0.4","0.6","0.2","0.8","0.293469011","0.3729077829","0.1288926122","0.4064427813","","","","","","","","","","","","","","72","H","0","img/none_selected.jpg","","120","main_expt",""
"","bandit","200","568716","0.0-162.0-0.0","22283544","wem/bandit_party_2","A2E3TO92MCQ9XU","either","1","267","","","","","","","0","1","0","","0.2141601759","0.4","0.6","0.2","0.8","0.2141601759","0.3817262037","0.1479701512","0.3948988447","","","","","","","","","","","","","","72","H","0","img/none_selected.jpg","","121","main_expt",""
"","bandit","201","570404","0.0-163.0-0.0","22283544","wem/bandit_party_2","A2E3TO92MCQ9XU","either","1","177","","","","","","","0","0","1","0.2594293103","","0.4","0.6","0.2","0.8","","","","","0.2594293103","0.3537210734","0.1663524813","0.316823658","","","","","","","","","","72","H","0","img/none_selected.jpg","","122","main_expt",""
"","bandit","202","572157","0.0-164.0-0.0","22283544","wem/bandit_party_2","A2E3TO92MCQ9XU","either","1","244","","","","","","","0","1","0","","0.1519240937","0.4","0.6","0.2","0.8","0.1519240937","0.3633727708","0.1993917655","0.3045978244","","","","","","","","","","","","","","72","H","0","img/none_selected.jpg","","123","main_expt",""
"","bandit","203","573947","0.0-165.0-0.0","22283544","wem/bandit_party_2","A2E3TO92MCQ9XU","either","1","283","","","","","","","0","0","1","","0.2311656533","0.4","0.6","0.2","0.8","0.2311656533","0.4139908316","0.2948689786","0.2389028675","","","","","","","","","","","","","","72","H","0","img/none_selected.jpg","","124","main_expt",""
"","bandit","204","575635","0.0-166.0-0.0","22283544","wem/bandit_party_2","A2E3TO92MCQ9XU","either","1","174","","","","","","","0","0","1","0.1956748967","","0.4","0.6","0.2","0.8","","","","","0.1956748967","0.3619800754","0.4054398129","0.2166803268","","","","","","","","","","72","H","0","img/none_selected.jpg","","125","main_expt",""
"","bandit","205","577349","0.0-167.0-0.0","22283544","wem/bandit_party_2","A2E3TO92MCQ9XU","either","1","205","","","","","","","1","0","0","0.353362548","","0.4","0.6","0.2","0.8","","","","","0.1419383156","0.353362548","0.5337661481","0.1613674106","","","","","","","","","","74","J","1","","","126","main_expt",""
"","bandit","206","579099","0.0-168.0-0.0","22283544","wem/bandit_party_2","A2E3TO92MCQ9XU","either","1","238","","","","","","","1","0","0","0.2888217425","","0.4","0.6","0.2","0.8","","","","","0.1768105291","0.2888217425","0.5510518781","0.1682412955","","","","","","","","","","74","J","1","","","127","main_expt",""
"","bandit","207","580953","0.0-169.0-0.0","22283544","wem/bandit_party_2","A2E3TO92MCQ9XU","either","1","347","","","","","","","0","0","1","0.3131893798","","0.4","0.6","0.2","0.8","","","","","0.1187699492","0.3131893798","0.4746642732","0.1655910943","","","","","","","","","","74","J","1","","","128","main_expt",""
"","bandit","208","582634","0.0-170.0-0.0","22283544","wem/bandit_party_2","A2E3TO92MCQ9XU","either","1","175","","","","","","","1","0","0","0.2826861836","","0.4","0.6","0.2","0.8","","","","","0.1860330609","0.2826861836","0.5345142674","0.1845506081","","","","","","","","","","74","J","1","","","129","main_expt",""
"","bandit","209","584412","0.0-171.0-0.0","22283544","wem/bandit_party_2","A2E3TO92MCQ9XU","either","1","272","","","","","","","0","0","1","0.3434973012","","0.4","0.6","0.2","0.8","","","","","0.09722607165","0.3434973012","0.6617219445","0.1548240476","","","","","","","","","","74","J","1","","","130","main_expt",""
"","bandit","210","586233","0.0-172.0-0.0","22283544","wem/bandit_party_2","A2E3TO92MCQ9XU","either","1","312","","","","","","","0","0","1","0.3848082556","","0.4","0.6","0.2","0.8","","","","","0.05626421391","0.3848082556","0.6183560712","0.1503989","","","","","","","","","","74","J","1","","","131","main_expt",""
"","bandit","211","588087","0.0-173.0-0.0","22283544","wem/bandit_party_2","A2E3TO92MCQ9XU","either","1","342","","","","","","","0","1","0","","0.4140069858","0.4","0.6","0.2","0.8","0.1149854728","0.4140069858","0.7009512511","0.1199593994","","","","","","","","","","","","","","74","J","1","","","132","main_expt",""
"","bandit","212","589883","0.0-174.0-0.0","22283544","wem/bandit_party_2","A2E3TO92MCQ9XU","either","1","288","","","","","","","1","0","0","0.3745017877","","0.4","0.6","0.2","0.8","","","","","0.1698175541","0.3745017877","0.5838974895","0.1518383839","","","","","","","","","","74","J","1","","","133","main_expt",""
"","bandit","213","591804","0.0-175.0-0.0","22283544","wem/bandit_party_2","A2E3TO92MCQ9XU","either","1","411","","","","","","","0","1","0","","0.3918835711","0.4","0.6","0.2","0.8","0.1925371395","0.3918835711","0.6628563986","0.1855528241","","","","","","","","","","","","","","74","J","1","","","134","main_expt",""
"","bandit","214","594060","0.0-176.0-0.0","22283544","wem/bandit_party_2","A2E3TO92MCQ9XU","either","1","733","","","","","","","0","0","1","","0.3405764209","0.4","0.6","0.2","0.8","0.246136332","0.3405764209","0.5610912218","0.2187769305","","","","","","","","","","","","","","74","J","1","","","135","main_expt",""
"","bandit","215","595955","0.0-177.0-0.0","22283544","wem/bandit_party_2","A2E3TO92MCQ9XU","either","1","386","","","","","","","0","0","1","","0.4155430462","0.4","0.6","0.2","0.8","0.2277518718","0.4155430462","0.4834649218","0.2001534018","","","","","","","","","","","","","","74","J","1","","","136","main_expt",""
"","bandit","216","597732","0.0-178.0-0.0","22283544","wem/bandit_party_2","A2E3TO92MCQ9XU","either","1","268","","","","","","","0","1","0","","0.513072369","0.4","0.6","0.2","0.8","0.252962458","0.3389252929","0.513072369","0.176995917","","","","","","","","","","","","","","75","K","2","","","137","main_expt",""
"","bandit","217","599541","0.0-179.0-0.0","22283544","wem/bandit_party_2","A2E3TO92MCQ9XU","either","1","300","","","","","","","0","0","1","","0.5502636267","0.4","0.6","0.2","0.8","0.3018696236","0.2698753193","0.5502636267","0.1460019238","","","","","","","","","","","","","","75","K","2","","","138","main_expt",""
"","bandit","218","601323","0.0-180.0-0.0","22283544","wem/bandit_party_2","A2E3TO92MCQ9XU","either","1","268","","","","","","","0","0","1","","0.4564922144","0.4","0.6","0.2","0.8","0.347353107","0.2821570394","0.4564922144","0.06707115951","","","","","","","","","","","","","","75","K","2","","","139","main_expt",""
"","bandit","219","603099","0.0-181.0-0.0","22283544","wem/bandit_party_2","A2E3TO92MCQ9XU","either","1","270","","","","","","","0","1","0","","0.4116013625","0.4","0.6","0.2","0.8","0.2477375586","0.3577533322","0.4116013625","0.1071331831","","","","","","","","","","","","","","75","K","2","","","140","main_expt",""
"","bandit","220","604906","0.0-182.0-0.0","22283544","wem/bandit_party_2","A2E3TO92MCQ9XU","either","1","302","","","","","","","0","1","0","","0.4498847811","0.4","0.6","0.2","0.8","0.2880826197","0.4250900652","0.4498847811","0.1224459691","","","","","","","","","","","","","","75","K","2","","","141","main_expt",""
"","bandit","221","606787","0.0-183.0-0.0","22283544","wem/bandit_party_2","A2E3TO92MCQ9XU","either","1","370","","","","","","","0","1","0","","0.4822150968","0.4","0.6","0.2","0.8","0.2287108423","0.3451055681","0.4822150968","0.1127900777","","","","","","","","","","","","","","75","K","2","","","142","main_expt",""
"","bandit","222","608611","0.0-184.0-0.0","22283544","wem/bandit_party_2","A2E3TO92MCQ9XU","either","1","318","","","","","","","0","0","1","0.513506041","","0.4","0.6","0.2","0.8","","","","","0.2096850542","0.4661026996","0.513506041","0.1736101882","","","","","","","","","","75","K","2","","","143","main_expt",""
"","bandit","223","610395","0.0-185.0-0.0","22283544","wem/bandit_party_2","A2E3TO92MCQ9XU","either","1","278","","","","","","","0","0","1","","0.556822441","0.4","0.6","0.2","0.8","0.2214165798","0.4683168179","0.556822441","0.1231714597","","","","","","","","","","","","","","75","K","2","","","144","main_expt",""
"","bandit","224","612147","0.0-186.0-0.0","22283544","wem/bandit_party_2","A2E3TO92MCQ9XU","either","1","243","","","","","","","0","0","1","","0.5633269006","0.4","0.6","0.2","0.8","0.2412424024","0.448697065","0.5633269006","0.10514291","","","","","","","","","","","","","","75","K","2","","","145","main_expt",""
"","bandit","225","613868","0.0-187.0-0.0","22283544","wem/bandit_party_2","A2E3TO92MCQ9XU","either","1","212","","","","","","","0","0","1","0.0972381369","","0.4","0.6","0.2","0.8","","","","","0.1841611904","0.4560677512","0.6482805244","0.0972381369","","","","","","","","","","76","L","3","","","146","main_expt",""
"","bandit","226","615652","0.0-188.0-0.0","22283544","wem/bandit_party_2","A2E3TO92MCQ9XU","either","1","276","","","","","","","0","0","1","0.1897119627","","0.4","0.6","0.2","0.8","","","","","0.1577922033","0.513472809","0.6036290043","0.1897119627","","","","","","","","","","76","L","3","","","147","main_expt",""
"","bandit","227","617388","0.0-189.0-0.0","22283544","wem/bandit_party_2","A2E3TO92MCQ9XU","either","1","225","","","","","","","0","0","1","","0.1663963597","0.4","0.6","0.2","0.8","0.1663963597","0.3820674583","0.6110248825","0.1759094881","","","","","","","","","","","","","","72","H","0","img/none_selected.jpg","","148","main_expt",""
"","bandit","228","619070","0.0-190.0-0.0","22283544","wem/bandit_party_2","A2E3TO92MCQ9XU","either","1","171","","","","","","","0","1","0","","0.319747154","0.4","0.6","0.2","0.8","0.319747154","0.3116557105","0.6453676348","0.2204336569","","","","","","","","","","","","","","72","H","0","img/none_selected.jpg","","149","main_expt",""
"","bandit","229","620789","0.0-191.0-0.0","22283544","wem/bandit_party_2","A2E3TO92MCQ9XU","either","1","210","","","","","","","1","0","0","0.5410110608","","0.4","0.6","0.2","0.8","","","","","0.5410110608","0.3039338698","0.66235511","0.2328853871","","","","","","","","","","72","H","0","img/none_selected.jpg","","150","main_expt",""
"","bandit","230","622604","0.0-192.0-0.0","22283544","wem/bandit_party_2","A2E3TO92MCQ9XU","either","1","300","","","","","","","0","0","1","","0.5584745132","0.4","0.6","0.2","0.8","0.5584745132","0.3092958796","0.5547575852","0.2652525627","","","","","","","","","","","","","","72","H","0","img/none_selected.jpg","","151","main_expt",""
"","bandit","231","624364","0.0-193.0-0.0","22283544","wem/bandit_party_2","A2E3TO92MCQ9XU","either","1","248","","","","","","","0","0","1","","0.5709378499","0.4","0.6","0.2","0.8","0.5709378499","0.3097370874","0.5223098228","0.2654363334","","","","","","","","","","","","","","72","H","0","img/none_selected.jpg","","152","main_expt",""
"","bandit","232","626068","0.0-194.0-0.0","22283544","wem/bandit_party_2","A2E3TO92MCQ9XU","either","1","192","","","","","","","1","0","0","0.2955649657","","0.4","0.6","0.2","0.8","","","","","0.6314515046","0.2955649657","0.5137303037","0.3505589273","","","","","","","","","","74","J","1","","","153","main_expt",""
"","bandit","233","627811","0.0-195.0-0.0","22283544","wem/bandit_party_2","A2E3TO92MCQ9XU","either","1","234","","","","","","","0","1","0","","0.221553637","0.4","0.6","0.2","0.8","0.6734276465","0.221553637","0.5193194566","0.39889796","","","","","","","","","","","","","","74","J","1","","","154","main_expt",""
"","bandit","234","629587","0.0-196.0-0.0","22283544","wem/bandit_party_2","A2E3TO92MCQ9XU","either","1","264","","","","","","","0","0","1","0.2231547498","","0.4","0.6","0.2","0.8","","","","","0.7019144477","0.2231547498","0.4736812385","0.4202606707","","","","","","","","","","74","J","1","","","155","main_expt",""
"","bandit","235","631371","0.0-197.0-0.0","22283544","wem/bandit_party_2","A2E3TO92MCQ9XU","either","1","269","","","","","","","0","0","1","","0.2750957943","0.4","0.6","0.2","0.8","0.6695455193","0.2750957943","0.4616442501","0.4814159609","","","","","","","","","","","","","","74","J","1","","","156","main_expt",""
"","bandit","236","633106","0.0-198.0-0.0","22283544","wem/bandit_party_2","A2E3TO92MCQ9XU","either","1","217","","","","","","","0","1","0","","0.2005793054","0.4","0.6","0.2","0.8","0.6179864128","0.2005793054","0.5025740222","0.5316807058","","","","","","","","","","","","","","74","J","1","","","157","main_expt",""
"","bandit","237","634877","0.0-199.0-0.0","22283544","wem/bandit_party_2","A2E3TO92MCQ9XU","either","1","260","","","","","","","0","0","1","0.2502080146","","0.4","0.6","0.2","0.8","","","","","0.7380689997","0.2502080146","0.4548105643","0.5429668589","","","","","","","","","","74","J","1","","","158","main_expt",""
"","bandit","238","636821","0.0-200.0-0.0","22283544","wem/bandit_party_2","A2E3TO92MCQ9XU","either","1","433","","","","","","","0","0","1","0.2729805177","","0.4","0.6","0.2","0.8","","","","","0.7632184112","0.2729805177","0.4622667215","0.5991419929","","","","","","","","","","74","J","1","","","159","main_expt",""
"","bandit","239","638525","0.0-201.0-0.0","22283544","wem/bandit_party_2","A2E3TO92MCQ9XU","either","1","193","","","","","","","0","0","1","","0.4600517474","0.4","0.6","0.2","0.8","0.6917664031","0.2801697818","0.4600517474","0.6480894682","","","","","","","","","","","","","","75","K","2","","","160","main_expt",""
"","bandit","240","640340","0.0-202.0-0.0","22283544","wem/bandit_party_2","A2E3TO92MCQ9XU","either","1","300","","","","","","","0","1","0","","0.481388234","0.4","0.6","0.2","0.8","0.7106531984","0.2437938608","0.481388234","0.6776161973","","","","","","","","","","","","","","75","K","2","","","161","main_expt",""
"","bandit","241","642115","0.0-203.0-0.0","22283544","wem/bandit_party_2","A2E3TO92MCQ9XU","either","1","267","","","","","","","0","0","1","","0.3850106192","0.4","0.6","0.2","0.8","0.809310282","0.2687553501","0.3850106192","0.7134031715","","","","","","","","","","","","","","75","K","2","","","162","main_expt",""
"","bandit","242","643827","0.0-204.0-0.0","22283544","wem/bandit_party_2","A2E3TO92MCQ9XU","either","1","203","","","","","","","1","0","0","0.3498723973","","0.4","0.6","0.2","0.8","","","","","0.7492875705","0.245991677","0.3498723973","0.6215635068","","","","","","","","","","75","K","2","","","163","main_expt",""
"","bandit","243","645633","0.0-205.0-0.0","22283544","wem/bandit_party_2","A2E3TO92MCQ9XU","either","1","300","","","","","","","0","0","1","","0.4287417444","0.4","0.6","0.2","0.8","0.7561394707","0.270385563","0.4287417444","0.5219240024","","","","","","","","","","","","","","75","K","2","","","164","main_expt",""
"","bandit","244","647394","0.0-206.0-0.0","22283544","wem/bandit_party_2","A2E3TO92MCQ9XU","either","1","256","","","","","","","0","0","1","0.4727302842","","0.4","0.6","0.2","0.8","","","","","0.8111415702","0.3037855967","0.3150145745","0.4727302842","","","","","","","","","","76","L","3","","","165","main_expt",""
"","bandit","245","649147","0.0-207.0-0.0","22283544","wem/bandit_party_2","A2E3TO92MCQ9XU","either","1","247","","","","","","","0","0","1","","0.5181018645","0.4","0.6","0.2","0.8","0.7759938205","0.3395577104","0.2927018344","0.5181018645","","","","","","","","","","","","","","76","L","3","","","166","main_expt",""
"","bandit","246","650917","0.0-208.0-0.0","22283544","wem/bandit_party_2","A2E3TO92MCQ9XU","either","1","258","","","","","","","1","0","0","0.8267633335","","0.4","0.6","0.2","0.8","","","","","0.8267633335","0.3443901906","0.3610256338","0.5280433419","","","","","","","","","","72","H","0","img/none_selected.jpg","","167","main_expt",""
"","bandit","247","653131","0.0-209.0-0.0","22283544","wem/bandit_party_2","A2E3TO92MCQ9XU","either","1","705","","","","","","","0","1","0","","0.8136073627","0.4","0.6","0.2","0.8","0.8136073627","0.2552323567","0.3137127159","0.5470010145","","","","","","","","","","","","","","72","H","0","img/none_selected.jpg","","168","main_expt",""
"","bandit","248","655021","0.0-210.0-0.0","22283544","wem/bandit_party_2","A2E3TO92MCQ9XU","either","1","380","","","","","","","0","0","1","","0.7308533614","0.4","0.6","0.2","0.8","0.7308533614","0.289352286","0.2292796242","0.5558845962","","","","","","","","","","","","","","72","H","0","img/none_selected.jpg","","169","main_expt",""
"","bandit","249","656778","0.0-211.0-0.0","22283544","wem/bandit_party_2","A2E3TO92MCQ9XU","either","1","243","","","","","","","1","0","0","0.7090730391","","0.4","0.6","0.2","0.8","","","","","0.7090730391","0.2262743404","0.221948569","0.5799309324","","","","","","","","","","72","H","0","img/none_selected.jpg","","170","main_expt",""
"","bandit","250","658706","0.0-212.0-0.0","22283544","wem/bandit_party_2","A2E3TO92MCQ9XU","either","1","417","","","","","","","0","1","0","","0.7229684446","0.4","0.6","0.2","0.8","0.7229684446","0.2644351609","0.159615594","0.6643953266","","","","","","","","","","","","","","72","H","0","img/none_selected.jpg","","171","main_expt",""
"","bandit","251","660652","0.0-213.0-0.0","22283544","wem/bandit_party_2","A2E3TO92MCQ9XU","either","1","429","","","","","","","1","0","0","0.6612043244","","0.4","0.6","0.2","0.8","","","","","0.6612043244","0.4136296373","0.1303854457","0.7610666705","","","","","","","","","","72","H","0","img/none_selected.jpg","","172","main_expt",""
"","bandit","252","662987","0.0-214.0-0.0","22283544","wem/bandit_party_2","A2E3TO92MCQ9XU","either","1","827","","","","","","","1","0","0","0.7669021743","","0.4","0.6","0.2","0.8","","","","","0.7669021743","0.491318492","0.07729024622","0.8006149786","","","","","","","","","","72","H","0","img/none_selected.jpg","","173","main_expt",""
"","bandit","253","664799","0.0-215.0-0.0","22283544","wem/bandit_party_2","A2E3TO92MCQ9XU","either","1","295","","","","","","","0","1","0","","0.8111867287","0.4","0.6","0.2","0.8","0.8111867287","0.4966763124","0.1227026474","0.791095403","","","","","","","","","","","","","","72","H","0","img/none_selected.jpg","","174","main_expt",""
"","bandit","254","666635","0.0-216.0-0.0","22283544","wem/bandit_party_2","A2E3TO92MCQ9XU","either","1","330","","","","","","","0","1","0","","0.8192498968","0.4","0.6","0.2","0.8","0.8192498968","0.5109350621","0.09483306355","0.8572088762","","","","","","","","","","","","","","72","H","0","img/none_selected.jpg","","175","main_expt",""
"","bandit","255","668426","0.0-217.0-0.0","22283544","wem/bandit_party_2","A2E3TO92MCQ9XU","either","1","274","","","","","","","1","0","0","0.8371283275","","0.4","0.6","0.2","0.8","","","","","0.8371283275","0.6321295754","0.143069758","0.8576080684","","","","","","","","","","72","H","0","img/none_selected.jpg","","176","main_expt",""
"","bandit","256","670235","0.0-218.0-0.0","22283544","wem/bandit_party_2","A2E3TO92MCQ9XU","either","1","296","","","","","","","0","1","0","","0.8545140947","0.4","0.6","0.2","0.8","0.8545140947","0.5515755996","0.1741656422","0.8678158231","","","","","","","","","","","","","","72","H","0","img/none_selected.jpg","","177","main_expt",""
"","bandit","257","672034","0.0-219.0-0.0","22283544","wem/bandit_party_2","A2E3TO92MCQ9XU","either","1","292","","","","","","","0","1","0","","0.8794893657","0.4","0.6","0.2","0.8","0.8794893657","0.5086275016","0.1904086474","0.8820542777","","","","","","","","","","","","","","72","H","0","img/none_selected.jpg","","178","main_expt",""
"","bandit","258","673786","0.0-220.0-0.0","22283544","wem/bandit_party_2","A2E3TO92MCQ9XU","either","1","244","","","","","","","1","0","0","0.8939587296","","0.4","0.6","0.2","0.8","","","","","0.8939587296","0.5215192908","0.1778905233","0.8907334788","","","","","","","","","","72","H","0","img/none_selected.jpg","","179","main_expt",""
"","bandit","259","675628","0.0-221.0-0.0","22283544","wem/bandit_party_2","A2E3TO92MCQ9XU","either","1","331","","","","","","","1","0","0","0.868077767","","0.4","0.6","0.2","0.8","","","","","0.868077767","0.5193414217","0.2112817454","0.9161653667","","","","","","","","","","72","H","0","img/none_selected.jpg","","180","main_expt",""
"","bandit","260","677405","0.0-222.0-0.0","22283544","wem/bandit_party_2","A2E3TO92MCQ9XU","either","1","269","","","","","","","0","1","0","","0.9295405476","0.4","0.6","0.2","0.8","0.9295405476","0.4613460131","0.2236312472","0.9327112184","","","","","","","","","","","","","","72","H","0","img/none_selected.jpg","","181","main_expt",""
"","bandit","261","679139","0.0-223.0-0.0","22283544","wem/bandit_party_2","A2E3TO92MCQ9XU","either","1","226","","","","","","","0","1","0","","0.9213574857","0.4","0.6","0.2","0.8","0.9213574857","0.4468633868","0.264467441","0.9284398706","","","","","","","","","","","","","","72","H","0","img/none_selected.jpg","","182","main_expt",""
"","bandit","262","681751","0.0-224.0-0.0","22283544","wem/bandit_party_2","A2E3TO92MCQ9XU","either","1","1102","","","","","","","1","0","0","0.9374560388","","0.4","0.6","0.2","0.8","","","","","0.9374560388","0.4985091709","0.2240632979","0.89591471","","","","","","","","","","72","H","0","img/none_selected.jpg","","183","main_expt",""
"","bandit","263","683563","0.0-225.0-0.0","22283544","wem/bandit_party_2","A2E3TO92MCQ9XU","either","1","299","","","","","","","0","1","0","","0.9120054929","0.4","0.6","0.2","0.8","0.9120054929","0.6057575335","0.1671404848","0.9146434193","","","","","","","","","","","","","","72","H","0","img/none_selected.jpg","","184","main_expt",""
"","bandit","264","685437","0.0-226.0-0.0","22283544","wem/bandit_party_2","A2E3TO92MCQ9XU","either","1","367","","","","","","","0","1","0","","0.8428471033","0.4","0.6","0.2","0.8","0.8428471033","0.4915456485","0.1932257563","0.8575823977","","","","","","","","","","","","","","72","H","0","img/none_selected.jpg","","185","main_expt",""
"","bandit","265","687251","0.0-227.0-0.0","22283544","wem/bandit_party_2","A2E3TO92MCQ9XU","either","1","308","","","","","","","0","1","0","","0.7734335662","0.4","0.6","0.2","0.8","0.7734335662","0.5976273718","0.155472597","0.8487952361","","","","","","","","","","","","","","72","H","0","img/none_selected.jpg","","186","main_expt",""
"","bandit","266","689138","0.0-228.0-0.0","22283544","wem/bandit_party_2","A2E3TO92MCQ9XU","either","1","381","","","","","","","0","1","0","","0.7667319261","0.4","0.6","0.2","0.8","0.7667319261","0.5743595779","0.1895871356","0.8603972339","","","","","","","","","","","","","","72","H","0","img/none_selected.jpg","","187","main_expt",""
"","bandit","267","690908","0.0-229.0-0.0","22283544","wem/bandit_party_2","A2E3TO92MCQ9XU","either","1","258","","","","","","","0","0","1","","0.5945875292","0.4","0.6","0.2","0.8","0.5945875292","0.6833173747","0.2119556673","0.8834510925","","","","","","","","","","","","","","72","H","0","img/none_selected.jpg","","188","main_expt",""
"","bandit","268","692700","0.0-230.0-0.0","22283544","wem/bandit_party_2","A2E3TO92MCQ9XU","either","1","276","","","","","","","0","0","1","","0.7406569186","0.4","0.6","0.2","0.8","0.7406569186","0.651089354","0.2255007403","0.8973947779","","","","","","","","","","","","","","72","H","0","img/none_selected.jpg","","189","main_expt",""
"","bandit","269","694467","0.0-231.0-0.0","22283544","wem/bandit_party_2","A2E3TO92MCQ9XU","either","1","256","","","","","","","0","0","1","0.7371931777","","0.4","0.6","0.2","0.8","","","","","0.7371931777","0.6599652607","0.1754842532","0.8824587855","","","","","","","","","","72","H","0","img/none_selected.jpg","","190","main_expt",""
"","bandit","270","696250","0.0-232.0-0.0","22283544","wem/bandit_party_2","A2E3TO92MCQ9XU","either","1","277","","","","","","","0","0","1","","0.6960236584","0.4","0.6","0.2","0.8","0.7019705866","0.6960236584","0.1936311571","0.9076431997","","","","","","","","","","","","","","74","J","1","","","191","main_expt",""
"","bandit","271","698030","0.0-233.0-0.0","22283544","wem/bandit_party_2","A2E3TO92MCQ9XU","either","1","270","","","","","","","1","0","0","0.6713911156","","0.4","0.6","0.2","0.8","","","","","0.6198122665","0.6713911156","0.215612591","0.8673165995","","","","","","","","","","74","J","1","","","192","main_expt",""
"","bandit","272","699795","0.0-234.0-0.0","22283544","wem/bandit_party_2","A2E3TO92MCQ9XU","either","1","258","","","","","","","1","0","0","0.7244072205","","0.4","0.6","0.2","0.8","","","","","0.6100930929","0.7244072205","0.2818734505","0.8264401474","","","","","","","","","","74","J","1","","","193","main_expt",""
"","bandit","273","701562","0.0-235.0-0.0","22283544","wem/bandit_party_2","A2E3TO92MCQ9XU","either","1","257","","","","","","","0","1","0","","0.7397798508","0.4","0.6","0.2","0.8","0.6332739585","0.7397798508","0.3616108755","0.8546086414","","","","","","","","","","","","","","74","J","1","","","194","main_expt",""
"","bandit","274","703491","0.0-236.0-0.0","22283544","wem/bandit_party_2","A2E3TO92MCQ9XU","either","1","421","","","","","","","0","1","0","","0.7602069811","0.4","0.6","0.2","0.8","0.609207161","0.7602069811","0.3979961615","0.7914914872","","","","","","","","","","","","","","74","J","1","","","195","main_expt",""
"","bandit","275","705275","0.0-237.0-0.0","22283544","wem/bandit_party_2","A2E3TO92MCQ9XU","either","1","273","","","","","","","1","0","0","0.7114092524","","0.4","0.6","0.2","0.8","","","","","0.6560649547","0.7114092524","0.4366641927","0.7608346536","","","","","","","","","","74","J","1","","","196","main_expt",""
"","bandit","276","707052","0.0-238.0-0.0","22283544","wem/bandit_party_2","A2E3TO92MCQ9XU","either","1","265","","","","","","","0","0","1","","0.6917424169","0.4","0.6","0.2","0.8","0.6656533059","0.6917424169","0.560782874","0.7003784325","","","","","","","","","","","","","","74","J","1","","","197","main_expt",""
"","bandit","277","708812","0.0-239.0-0.0","22283544","wem/bandit_party_2","A2E3TO92MCQ9XU","either","1","251","","","","","","","0","1","0","","0.6561069913","0.4","0.6","0.2","0.8","0.6841747727","0.6561069913","0.5649388288","0.6036075577","","","","","","","","","","","","","","74","J","1","","","198","main_expt",""
"","bandit","278","710532","0.0-240.0-0.0","22283544","wem/bandit_party_2","A2E3TO92MCQ9XU","either","1","212","","","","","","","1","0","0","0.6948346643","","0.4","0.6","0.2","0.8","","","","","0.7105065455","0.6948346643","0.5375892324","0.5843314555","","","","","","","","","","74","J","1","","","199","main_expt",""
"","bandit","279","712293","0.0-241.0-0.0","22283544","wem/bandit_party_2","A2E3TO92MCQ9XU","either","1","248","","","","","","","1","0","0","0.7369743936","","0.4","0.6","0.2","0.8","","","","","0.7380433654","0.7369743936","0.5625167851","0.539414212","","","","","","","","","","74","J","1","","","200","main_expt",""
"","bandit","280","714061","0.0-242.0-0.0","22283544","wem/bandit_party_2","A2E3TO92MCQ9XU","either","1","255","","","","","","","1","0","0","0.8347268415","","0.4","0.6","0.2","0.8","","","","","0.6432951689","0.8347268415","0.6266810217","0.3774065742","","","","","","","","","","74","J","1","","","201","main_expt",""
"","bandit","281","715842","0.0-243.0-0.0","22283544","wem/bandit_party_2","A2E3TO92MCQ9XU","either","1","274","","","","","","","0","1","0","","0.7612264534","0.4","0.6","0.2","0.8","0.4995879772","0.7612264534","0.6661075828","0.2824615609","","","","","","","","","","","","","","74","J","1","","","202","main_expt",""
"","bandit","282","717404","0.0-244.0-0.0","22283544","wem/bandit_party_2","A2E3TO92MCQ9XU","either","1","50","","","","","","","1","0","0","0.6904596671","","0.4","0.6","0.2","0.8","","","","","0.4767352753","0.6904596671","0.7534099026","0.210170224","","","","","","","","","","74","J","1","","","203","main_expt",""
"","bandit","283","719180","0.0-245.0-0.0","22283544","wem/bandit_party_2","A2E3TO92MCQ9XU","either","1","270","","","","","","","0","1","0","","0.6855485072","0.4","0.6","0.2","0.8","0.3680612217","0.6855485072","0.7033522103","0.2708138581","","","","","","","","","","","","","","74","J","1","","","204","main_expt",""
"","bandit","284","721027","0.0-246.0-0.0","22283544","wem/bandit_party_2","A2E3TO92MCQ9XU","either","1","335","","","","","","","1","0","0","0.7006332368","","0.4","0.6","0.2","0.8","","","","","0.3404512965","0.7006332368","0.6105989365","0.3319820794","","","","","","","","","","74","J","1","","","205","main_expt",""
"","bandit","285","722938","0.0-247.0-0.0","22283544","wem/bandit_party_2","A2E3TO92MCQ9XU","either","1","386","","","","","","","0","1","0","","0.7533130943","0.4","0.6","0.2","0.8","0.2774568564","0.7533130943","0.725137222","0.3517339603","","","","","","","","","","","","","","74","J","1","","","206","main_expt",""
"","bandit","286","724747","0.0-248.0-0.0","22283544","wem/bandit_party_2","A2E3TO92MCQ9XU","either","1","292","","","","","","","0","0","1","","0.7191760557","0.4","0.6","0.2","0.8","0.2228883469","0.7191760557","0.5888984072","0.2871079035","","","","","","","","","","","","","","74","J","1","","","207","main_expt",""
"","bandit","287","726626","0.0-249.0-0.0","22283544","wem/bandit_party_2","A2E3TO92MCQ9XU","either","1","373","","","","","","","1","0","0","0.6264293856","","0.4","0.6","0.2","0.8","","","","","0.2829247412","0.6264293856","0.4650323514","0.2642306377","","","","","","","","","","74","J","1","","","208","main_expt",""
"","bandit","288","729123","0.0-250.0-0.0","22283544","wem/bandit_party_2","A2E3TO92MCQ9XU","either","1","986","","","","","","","1","0","0","0.6500478562","","0.4","0.6","0.2","0.8","","","","","0.3169104167","0.6500478562","0.4100719568","0.3587725811","","","","","","","","","","74","J","1","","","209","main_expt",""
"","bandit","289","730968","0.0-251.0-0.0","22283544","wem/bandit_party_2","A2E3TO92MCQ9XU","either","1","334","","","","","","","0","1","0","","0.6498865343","0.4","0.6","0.2","0.8","0.2090062306","0.6498865343","0.5177296744","0.3103342645","","","","","","","","","","","","","","74","J","1","","","210","main_expt",""
"","bandit","290","732757","0.0-252.0-0.0","22283544","wem/bandit_party_2","A2E3TO92MCQ9XU","either","1","265","","","","","","","0","1","0","","0.6056301442","0.4","0.6","0.2","0.8","0.1481662818","0.6056301442","0.5950812693","0.3760595068","","","","","","","","","","","","","","74","J","1","","","211","main_expt",""
"","bandit","291","734622","0.0-253.0-0.0","22283544","wem/bandit_party_2","A2E3TO92MCQ9XU","either","1","350","","","","","","","0","0","1","0.5524844402","","0.4","0.6","0.2","0.8","","","","","0.2114888193","0.5524844402","0.7169745983","0.447023013","","","","","","","","","","74","J","1","","","212","main_expt",""
"","bandit","292","736636","0.0-254.0-0.0","22283544","wem/bandit_party_2","A2E3TO92MCQ9XU","either","1","505","","","","","","","1","0","0","0.6984249358","","0.4","0.6","0.2","0.8","","","","","0.2234642754","0.6984249358","0.6766124197","0.4529182837","","","","","","","","","","74","J","1","","","213","main_expt",""
"","bandit","293","738933","0.0-255.0-0.0","22283544","wem/bandit_party_2","A2E3TO92MCQ9XU","either","1","788","","","","","","","1","0","0","0.5996975418","","0.4","0.6","0.2","0.8","","","","","0.2315139555","0.5996975418","0.8005648136","0.4306534983","","","","","","","","","","74","J","1","","","214","main_expt",""
"","bandit","294","741357","0.0-256.0-0.0","22283544","wem/bandit_party_2","A2E3TO92MCQ9XU","either","1","917","","","","","","","0","0","1","","0.6067129047","0.4","0.6","0.2","0.8","0.1949488974","0.6067129047","0.8487964291","0.4314469479","","","","","","","","","","","","","","74","J","1","","","215","main_expt",""
"","bandit","295","743230","0.0-257.0-0.0","22283544","wem/bandit_party_2","A2E3TO92MCQ9XU","either","1","364","","","","","","","1","0","0","0.6297976658","","0.4","0.6","0.2","0.8","","","","","0.2333303883","0.6297976658","0.8674123454","0.45439575","","","","","","","","","","74","J","1","","","216","main_expt",""
"","bandit","296","745237","0.0-258.0-0.0","22283544","wem/bandit_party_2","A2E3TO92MCQ9XU","either","1","494","","","","","","","0","0","1","0.6095272491","","0.4","0.6","0.2","0.8","","","","","0.2027763819","0.6095272491","0.8774404243","0.5228861726","","","","","","","","","","74","J","1","","","217","main_expt",""
"","bandit","297","747205","0.0-259.0-0.0","22283544","wem/bandit_party_2","A2E3TO92MCQ9XU","either","1","460","","","","","","","0","1","0","","0.8836448068","0.4","0.6","0.2","0.8","0.1895874514","0.7058099393","0.8836448068","0.463703458","","","","","","","","","","","","","","75","K","2","","","218","main_expt",""
"","bandit","298","749083","0.0-260.0-0.0","22283544","wem/bandit_party_2","A2E3TO92MCQ9XU","either","1","372","","","","","","","0","1","0","","0.880498508","0.4","0.6","0.2","0.8","0.1537120117","0.7396246451","0.880498508","0.4522864467","","","","","","","","","","","","","","75","K","2","","","219","main_expt",""
"","bandit","299","751101","0.0-261.0-0.0","22283544","wem/bandit_party_2","A2E3TO92MCQ9XU","either","1","510","","","","","","","0","0","1","","0.8740874997","0.4","0.6","0.2","0.8","0.2022747423","0.7091968036","0.8740874997","0.4561576612","","","","","","","","","","","","","","75","K","2","","","220","main_expt",""
"","bandit","300","752979","0.0-262.0-0.0","22283544","wem/bandit_party_2","A2E3TO92MCQ9XU","either","1","372","","","","","","","0","1","0","","0.8527830905","0.4","0.6","0.2","0.8","0.3174413427","0.7116308873","0.8527830905","0.4264657168","","","","","","","","","","","","","","75","K","2","","","221","main_expt",""
"","bandit","301","754804","0.0-263.0-0.0","22283544","wem/bandit_party_2","A2E3TO92MCQ9XU","either","1","315","","","","","","","0","1","0","","0.7717907476","0.4","0.6","0.2","0.8","0.2315667073","0.769465391","0.7717907476","0.3055141729","","","","","","","","","","","","","","75","K","2","","","222","main_expt",""
"","bandit","302","756702","0.0-264.0-0.0","22283544","wem/bandit_party_2","A2E3TO92MCQ9XU","either","1","385","","","","","","","0","0","1","","0.8359700354","0.4","0.6","0.2","0.8","0.2261006122","0.7509006974","0.8359700354","0.2868954791","","","","","","","","","","","","","","75","K","2","","","223","main_expt",""
"","bandit","303","758469","0.0-265.0-0.0","22283544","wem/bandit_party_2","A2E3TO92MCQ9XU","either","1","258","","","","","","","0","1","0","","0.819670806","0.4","0.6","0.2","0.8","0.2662378096","0.7007688409","0.819670806","0.2698185242","","","","","","","","","","","","","","75","K","2","","","224","main_expt",""
"","bandit","304","760268","0.0-266.0-0.0","22283544","wem/bandit_party_2","A2E3TO92MCQ9XU","either","1","290","","","","","","","0","1","0","","0.8512382749","0.4","0.6","0.2","0.8","0.2163280173","0.7409020096","0.8512382749","0.213842325","","","","","","","","","","","","","","75","K","2","","","225","main_expt",""
"","bandit","305","762083","0.0-267.0-0.0","22283544","wem/bandit_party_2","A2E3TO92MCQ9XU","either","1","304","","","","","","","0","0","1","","0.8342861847","0.4","0.6","0.2","0.8","0.2809353625","0.7052945704","0.8342861847","0.1616408491","","","","","","","","","","","","","","75","K","2","","","226","main_expt",""
"","bandit","306","763838","0.0-268.0-0.0","22283544","wem/bandit_party_2","A2E3TO92MCQ9XU","either","1","246","","","","","","","0","1","0","","0.7736041865","0.4","0.6","0.2","0.8","0.2396571279","0.606091252","0.7736041865","0.1777599287","","","","","","","","","","","","","","75","K","2","","","227","main_expt",""
"","bandit","307","765661","0.0-269.0-0.0","22283544","wem/bandit_party_2","A2E3TO92MCQ9XU","either","1","310","","","","","","","0","1","0","","0.8094350608","0.4","0.6","0.2","0.8","0.3430446928","0.5834203199","0.8094350608","0.2866543064","","","","","","","","","","","","","","75","K","2","","","228","main_expt",""
"","bandit","308","767469","0.0-270.0-0.0","22283544","wem/bandit_party_2","A2E3TO92MCQ9XU","either","1","291","","","","","","","0","0","1","","0.8078722129","0.4","0.6","0.2","0.8","0.2886233194","0.5466214007","0.8078722129","0.3948293382","","","","","","","","","","","","","","75","K","2","","","229","main_expt",""
"","bandit","309","769309","0.0-271.0-0.0","22283544","wem/bandit_party_2","A2E3TO92MCQ9XU","either","1","327","","","","","","","1","0","0","0.7719043616","","0.4","0.6","0.2","0.8","","","","","0.3213731463","0.5519014059","0.7719043616","0.3291786684","","","","","","","","","","75","K","2","","","230","main_expt",""
"","bandit","310","771131","0.0-272.0-0.0","22283544","wem/bandit_party_2","A2E3TO92MCQ9XU","either","1","313","","","","","","","0","0","1","","0.8049264475","0.4","0.6","0.2","0.8","0.2771614906","0.4527164215","0.8049264475","0.2378236032","","","","","","","","","","","","","","75","K","2","","","231","main_expt",""
"","bandit","311","772902","0.0-273.0-0.0","22283544","wem/bandit_party_2","A2E3TO92MCQ9XU","either","1","262","","","","","","","0","1","0","","0.8850589997","0.4","0.6","0.2","0.8","0.2249105956","0.5135082398","0.8850589997","0.246393804","","","","","","","","","","","","","","75","K","2","","","232","main_expt",""
"","bandit","312","774772","0.0-274.0-0.0","22283544","wem/bandit_party_2","A2E3TO92MCQ9XU","either","1","364","","","","","","","0","1","0","","0.9183615156","0.4","0.6","0.2","0.8","0.2447973041","0.5502454751","0.9183615156","0.2141634692","","","","","","","","","","","","","","75","K","2","","","233","main_expt",""
"","bandit","313","776531","0.0-275.0-0.0","22283544","wem/bandit_party_2","A2E3TO92MCQ9XU","either","1","252","","","","","","","1","0","0","0.9639410842","","0.4","0.6","0.2","0.8","","","","","0.24601643","0.3783923662","0.9639410842","0.2876436191","","","","","","","","","","75","K","2","","","234","main_expt",""
"","bandit","314","778301","0.0-276.0-0.0","22283544","wem/bandit_party_2","A2E3TO92MCQ9XU","either","1","256","","","","","","","0","1","0","","0.9697187448","0.4","0.6","0.2","0.8","0.1629844561","0.2814299379","0.9697187448","0.2769077257","","","","","","","","","","","","","","75","K","2","","","235","main_expt",""
