"consent","trial_type","trial_index","time_elapsed","internal_node_id","subjID","study","MID","cond","drift","rt","responses","button_pressed","key_press","like","value","connected","gems","bombs","no_reward","GemPrChosen","BombPrChosen","GainOverPainPr_0","GainOverPainPr_1","GainOverPainPr_2","GainOverPainPr_3","LosePr_0","LosePr_1","LosePr_2","LosePr_3","WinPr_0","WinPr_1","WinPr_2","WinPr_3","Q0","Q1","Q2","gender","age","ethnicity","label","expt_phase","target","respCharCode","respKey","respChoiceNum","respChoice","practice","trial_counter","trial_label","Q0_index"
"GDM/GDM_behavioral_consent_30min_online.html","consent","0","41453","0.0-0.0","22701897","wem/bandit_party_2","A1V77062YB882H","either","8","","","","","","","","","","","","","","","","","","","","","","","","","","","","","","","","","","","","","","","","",""
"","survey-text","1","53248","0.0-1.0","22701897","wem/bandit_party_2","A1V77062YB882H","either","8","10787","{""Q0"":""A1V77062YB882H""}","","","","","","","","","","","","","","","","","","","","","","","","","","","","","","","","","","","","","","",""
"","button-response","2","56836","0.0-2.0","22701897","wem/bandit_party_2","A1V77062YB882H","either","8","2582","","1","","","","","","","","","","","","","","","","","","","","","","","","","","","","","","","","","","","","","",""
"","text-replacement","3","74464","0.0-3.0","22701897","wem/bandit_party_2","A1V77062YB882H","either","8","16620","","","32","","","","","","","","","","","","","","","","","","","","","","","","","","","","","","","","","","","","",""
"","text-replacement","4","88039","0.0-4.0","22701897","wem/bandit_party_2","A1V77062YB882H","either","8","13573","","","32","","","","","","","","","","","","","","","","","","","","","","","","","","","","","","","","","","","","",""
"","identification","5","97896","0.0-6.0-0.0","22701897","wem/bandit_party_2","A1V77062YB882H","either","8","9846","","","","0","0","0","","","","","","","","","","","","","","","","","","","","","","","","pre","identification_pre","the Republican Party","","","","","","","",""
"","identification","6","109522","0.0-6.0-1.0","22701897","wem/bandit_party_2","A1V77062YB882H","either","8","10610","","","","5","5","4","","","","","","","","","","","","","","","","","","","","","","","","pre","identification_pre","the Democratic Party","","","","","","","",""
"","text-replacement","7","121674","0.0-7.0","22701897","wem/bandit_party_2","A1V77062YB882H","either","8","11147","","","32","","","","","","","","","","","","","","","","","","","","","","","","","","","","","","","","","","","","",""
"","text-replacement","8","133881","0.0-8.0","22701897","wem/bandit_party_2","A1V77062YB882H","either","8","12204","","","32","","","","","","","","","","","","","","","","","","","","","","","","","","","","","","","","","","","","",""
"","text-replacement","9","152256","0.0-9.0","22701897","wem/bandit_party_2","A1V77062YB882H","either","8","18373","","","32","","","","","","","","","","","","","","","","","","","","","","","","","","","","","","","","","","","","",""
"","text-replacement","10","158131","0.0-10.0","22701897","wem/bandit_party_2","A1V77062YB882H","either","8","5873","","","32","","","","","","","","","","","","","","","","","","","","","","","","","","","","","","","","","","","","",""
"","text-replacement","11","162914","0.0-11.0","22701897","wem/bandit_party_2","A1V77062YB882H","either","8","4781","","","32","","","","","","","","","","","","","","","","","","","","","","","","","","","","","","","","","","","","",""
"","bandit","12","167195","0.0-12.0-0.0","22701897","wem/bandit_party_2","A1V77062YB882H","either","8","2770","","","","","","","0","0","1","0","0","","","","","0","","","","0","","","","","","","","","","","","","74","J","0","img/none_selected_demo.jpg","true","0","",""
"","bandit","13","170021","0.0-13.0-0.0","22701897","wem/bandit_party_2","A1V77062YB882H","either","8","1314","","","","","","","0","0","1","0","0","","","","","0","","","","0","","","","","","","","","","","","","75","K","0","img/none_selected_demo.jpg","true","0","",""
"","text-replacement","14","177630","0.0-14.0","22701897","wem/bandit_party_2","A1V77062YB882H","either","8","7607","","","32","","","","","","","","","","","","","","","","","","","","","","","","","","","","","","","","","","","","",""
"","text-replacement","15","184931","0.0-15.0","22701897","wem/bandit_party_2","A1V77062YB882H","either","8","7299","","","32","","","","","","","","","","","","","","","","","","","","","","","","","","","","","","","","","","","","",""
"","text-replacement","16","195565","0.0-16.0","22701897","wem/bandit_party_2","A1V77062YB882H","either","8","10633","","","32","","","","","","","","","","","","","","","","","","","","","","","","","","","","","","","","","","","","",""
"","text-replacement","17","205004","0.0-17.0","22701897","wem/bandit_party_2","A1V77062YB882H","either","8","9437","","","32","","","","","","","","","","","","","","","","","","","","","","","","","","","","","","","","","","","","",""
"","bandit","18","208085","0.0-18.0-0.0","22701897","wem/bandit_party_2","A1V77062YB882H","either","8","1571","","","","","","","1","0","0","0.8","","0.5","0.5","","","","","","","0.8","0.2","","","","","","","","","","","","74","J","0","img/none_selected_demo.jpg","true","0","80_20_practice",""
"","bandit","19","211074","0.0-18.0-1.0","22701897","wem/bandit_party_2","A1V77062YB882H","either","8","1479","","","","","","","1","0","0","0.8","","0.5","0.5","","","","","","","0.8","0.2","","","","","","","","","","","","74","J","0","img/none_selected_demo.jpg","true","0","80_20_practice",""
"","bandit","20","213886","0.0-18.0-2.0","22701897","wem/bandit_party_2","A1V77062YB882H","either","8","1297","","","","","","","1","0","0","0.8","","0.5","0.5","","","","","","","0.8","0.2","","","","","","","","","","","","74","J","0","img/none_selected_demo.jpg","true","0","80_20_practice",""
"","bandit","21","216316","0.0-18.0-3.0","22701897","wem/bandit_party_2","A1V77062YB882H","either","8","918","","","","","","","0","1","0","","0.8","0.5","0.5","","","0.8","0.2","","","","","","","","","","","","","","","","74","J","0","img/none_selected_demo.jpg","true","0","80_20_practice",""
"","bandit","22","218834","0.0-18.0-4.0","22701897","wem/bandit_party_2","A1V77062YB882H","either","8","1005","","","","","","","0","0","1","0.2","","0.5","0.5","","","","","","","0.8","0.2","","","","","","","","","","","","75","K","1","","true","0","80_20_practice",""
"","bandit","23","221377","0.0-18.0-5.0","22701897","wem/bandit_party_2","A1V77062YB882H","either","8","1031","","","","","","","0","0","1","0.2","","0.5","0.5","","","","","","","0.8","0.2","","","","","","","","","","","","75","K","1","","true","0","80_20_practice",""
"","bandit","24","223652","0.0-18.0-6.0","22701897","wem/bandit_party_2","A1V77062YB882H","either","8","763","","","","","","","0","0","1","","0.2","0.5","0.5","","","0.8","0.2","","","","","","","","","","","","","","","","75","K","1","","true","0","80_20_practice",""
"","bandit","25","225979","0.0-18.0-7.0","22701897","wem/bandit_party_2","A1V77062YB882H","either","8","818","","","","","","","0","0","1","0.2","","0.5","0.5","","","","","","","0.8","0.2","","","","","","","","","","","","75","K","1","","true","0","80_20_practice",""
"","bandit","26","232840","0.0-18.0-8.0","22701897","wem/bandit_party_2","A1V77062YB882H","either","8","5351","","","","","","","0","1","0","","0.8","0.5","0.5","","","0.8","0.2","","","","","","","","","","","","","","","","74","J","0","img/none_selected_demo.jpg","true","0","80_20_practice",""
"","bandit","27","235353","0.0-18.0-9.0","22701897","wem/bandit_party_2","A1V77062YB882H","either","8","1007","","","","","","","0","1","0","","0.8","0.5","0.5","","","0.8","0.2","","","","","","","","","","","","","","","","74","J","0","img/none_selected_demo.jpg","true","0","80_20_practice",""
"","bandit","28","237689","0.0-18.0-10.0","22701897","wem/bandit_party_2","A1V77062YB882H","either","8","825","","","","","","","1","0","0","0.8","","0.5","0.5","","","","","","","0.8","0.2","","","","","","","","","","","","74","J","0","img/none_selected_demo.jpg","true","0","80_20_practice",""
"","bandit","29","239776","0.0-18.0-11.0","22701897","wem/bandit_party_2","A1V77062YB882H","either","8","578","","","","","","","0","1","0","","0.8","0.5","0.5","","","0.8","0.2","","","","","","","","","","","","","","","","74","J","0","img/none_selected_demo.jpg","true","0","80_20_practice",""
"","bandit","30","241842","0.0-18.0-12.0","22701897","wem/bandit_party_2","A1V77062YB882H","either","8","556","","","","","","","0","0","1","","0.8","0.5","0.5","","","0.8","0.2","","","","","","","","","","","","","","","","74","J","0","img/none_selected_demo.jpg","true","0","80_20_practice",""
"","bandit","31","244170","0.0-18.0-13.0","22701897","wem/bandit_party_2","A1V77062YB882H","either","8","819","","","","","","","0","1","0","","0.8","0.5","0.5","","","0.8","0.2","","","","","","","","","","","","","","","","74","J","0","img/none_selected_demo.jpg","true","0","80_20_practice",""
"","bandit","32","246203","0.0-18.0-14.0","22701897","wem/bandit_party_2","A1V77062YB882H","either","8","522","","","","","","","0","0","1","0.8","","0.5","0.5","","","","","","","0.8","0.2","","","","","","","","","","","","74","J","0","img/none_selected_demo.jpg","true","0","80_20_practice",""
"","bandit","33","248477","0.0-18.0-15.0","22701897","wem/bandit_party_2","A1V77062YB882H","either","8","762","","","","","","","0","0","1","","0.2","0.5","0.5","","","0.8","0.2","","","","","","","","","","","","","","","","75","K","1","","true","0","80_20_practice",""
"","bandit","34","250489","0.0-18.0-16.0","22701897","wem/bandit_party_2","A1V77062YB882H","either","8","499","","","","","","","0","0","1","0.2","","0.5","0.5","","","","","","","0.8","0.2","","","","","","","","","","","","75","K","1","","true","0","80_20_practice",""
"","bandit","35","252644","0.0-18.0-17.0","22701897","wem/bandit_party_2","A1V77062YB882H","either","8","643","","","","","","","0","1","0","","0.8","0.5","0.5","","","0.8","0.2","","","","","","","","","","","","","","","","74","J","0","img/none_selected_demo.jpg","true","0","80_20_practice",""
"","bandit","36","255037","0.0-18.0-18.0","22701897","wem/bandit_party_2","A1V77062YB882H","either","8","880","","","","","","","0","1","0","","0.8","0.5","0.5","","","0.8","0.2","","","","","","","","","","","","","","","","74","J","0","img/none_selected_demo.jpg","true","0","80_20_practice",""
"","bandit","37","257125","0.0-18.0-19.0","22701897","wem/bandit_party_2","A1V77062YB882H","either","8","579","","","","","","","0","1","0","","0.8","0.5","0.5","","","0.8","0.2","","","","","","","","","","","","","","","","74","J","0","img/none_selected_demo.jpg","true","0","80_20_practice",""
"","text-replacement","38","261334","0.0-19.0","22701897","wem/bandit_party_2","A1V77062YB882H","either","8","4207","","","32","","","","","","","","","","","","","","","","","","","","","","","","","","","","","","","","","","","","",""
"","bandit","39","265751","0.0-20.0-0.0","22701897","wem/bandit_party_2","A1V77062YB882H","either","8","2905","","","","","","","1","0","0","1","0","","","","","0","1","","","1","0","","","","","","","","","","","","74","J","0","img/none_selected_demo.jpg","true","0","",""
"","text-replacement","40","272649","0.0-21.0","22701897","wem/bandit_party_2","A1V77062YB882H","either","8","6895","","","32","","","","","","","","","","","","","","","","","","","","","","","","","","","","","","","","","","","","",""
"","text-replacement","41","275734","0.0-22.0","22701897","wem/bandit_party_2","A1V77062YB882H","either","8","3084","","","32","","","","","","","","","","","","","","","","","","","","","","","","","","","","","","","","","","","","",""
"","text-replacement","42","279466","0.0-23.0","22701897","wem/bandit_party_2","A1V77062YB882H","either","8","3730","","","32","","","","","","","","","","","","","","","","","","","","","","","","","","","","","","","","","","","","",""
"","text-replacement","43","285652","0.0-24.0","22701897","wem/bandit_party_2","A1V77062YB882H","either","8","6183","","","32","","","","","","","","","","","","","","","","","","","","","","","","","","","","","","","","","","","","",""
"","text-replacement","44","294725","0.0-25.0","22701897","wem/bandit_party_2","A1V77062YB882H","either","8","9071","","","32","","","","","","","","","","","","","","","","","","","","","","","","","","","","","","","","","","","","",""
"","text-replacement","45","298445","0.0-26.0","22701897","wem/bandit_party_2","A1V77062YB882H","either","8","3718","","","32","","","","","","","","","","","","","","","","","","","","","","","","","","","","","","","","","","","","",""
"","text-replacement","46","302128","0.0-27.0","22701897","wem/bandit_party_2","A1V77062YB882H","either","8","3681","","","32","","","","","","","","","","","","","","","","","","","","","","","","","","","","","","","","","","","","",""
"","text-replacement","47","308692","0.0-28.0","22701897","wem/bandit_party_2","A1V77062YB882H","either","8","6563","","","32","","","","","","","","","","","","","","","","","","","","","","","","","","","","","","","","","","","","",""
"","text-replacement","48","315196","0.0-29.0","22701897","wem/bandit_party_2","A1V77062YB882H","either","8","6502","","","32","","","","","","","","","","","","","","","","","","","","","","","","","","","","","","","","","","","","",""
"","text-replacement","49","319535","0.0-30.0","22701897","wem/bandit_party_2","A1V77062YB882H","either","8","4336","","","32","","","","","","","","","","","","","","","","","","","","","","","","","","","","","","","","","","","","",""
"","text-replacement","50","321727","0.0-31.0","22701897","wem/bandit_party_2","A1V77062YB882H","either","8","2190","","","32","","","","","","","","","","","","","","","","","","","","","","","","","","","","","","","","","","","","",""
"","bandit","51","324616","0.0-32.0-0.0","22701897","wem/bandit_party_2","A1V77062YB882H","either","8","1381","","","","","","","0","0","1","","0.8","0.5","0.5","0.5","0.5","0.8","0.2","0.6","0.2","","","","","","","","","","","","","","72","H","0","img/none_selected.jpg","true","0","full_practice",""
"","bandit","52","327008","0.0-32.0-1.0","22701897","wem/bandit_party_2","A1V77062YB882H","either","8","879","","","","","","","0","0","1","","0.2","0.5","0.5","0.5","0.5","0.8","0.2","0.6","0.2","","","","","","","","","","","","","","74","J","1","","true","0","full_practice",""
"","bandit","53","329010","0.0-32.0-2.0","22701897","wem/bandit_party_2","A1V77062YB882H","either","8","490","","","","","","","0","0","1","","0.6","0.5","0.5","0.5","0.5","0.8","0.2","0.6","0.2","","","","","","","","","","","","","","75","K","2","","true","0","full_practice",""
"","bandit","54","331094","0.0-32.0-3.0","22701897","wem/bandit_party_2","A1V77062YB882H","either","8","571","","","","","","","0","1","0","","0.2","0.5","0.5","0.5","0.5","0.8","0.2","0.6","0.2","","","","","","","","","","","","","","76","L","3","","true","0","full_practice",""
"","bandit","55","333166","0.0-32.0-4.0","22701897","wem/bandit_party_2","A1V77062YB882H","either","8","559","","","","","","","1","0","0","0.2","","0.5","0.5","0.5","0.5","","","","","0.8","0.2","0.6","0.2","","","","","","","","","","76","L","3","","true","0","full_practice",""
"","bandit","56","335419","0.0-32.0-5.0","22701897","wem/bandit_party_2","A1V77062YB882H","either","8","740","","","","","","","0","0","1","","0.2","0.5","0.5","0.5","0.5","0.8","0.2","0.6","0.2","","","","","","","","","","","","","","76","L","3","","true","0","full_practice",""
"","bandit","57","339270","0.0-32.0-6.0","22701897","wem/bandit_party_2","A1V77062YB882H","either","8","2336","","","","","","","0","0","1","0.2","","0.5","0.5","0.5","0.5","","","","","0.8","0.2","0.6","0.2","","","","","","","","","","76","L","3","","true","0","full_practice",""
"","bandit","58","341607","0.0-32.0-7.0","22701897","wem/bandit_party_2","A1V77062YB882H","either","8","826","","","","","","","0","0","1","","0.8","0.5","0.5","0.5","0.5","0.8","0.2","0.6","0.2","","","","","","","","","","","","","","72","H","0","img/none_selected.jpg","true","0","full_practice",""
"","bandit","59","343820","0.0-32.0-8.0","22701897","wem/bandit_party_2","A1V77062YB882H","either","8","700","","","","","","","0","0","1","","0.2","0.5","0.5","0.5","0.5","0.8","0.2","0.6","0.2","","","","","","","","","","","","","","74","J","1","","true","0","full_practice",""
"","bandit","60","345819","0.0-32.0-9.0","22701897","wem/bandit_party_2","A1V77062YB882H","either","8","487","","","","","","","1","0","0","0.6","","0.5","0.5","0.5","0.5","","","","","0.8","0.2","0.6","0.2","","","","","","","","","","75","K","2","","true","0","full_practice",""
"","bandit","61","348040","0.0-32.0-10.0","22701897","wem/bandit_party_2","A1V77062YB882H","either","8","707","","","","","","","0","1","0","","0.6","0.5","0.5","0.5","0.5","0.8","0.2","0.6","0.2","","","","","","","","","","","","","","75","K","2","","true","0","full_practice",""
"","bandit","62","350097","0.0-32.0-11.0","22701897","wem/bandit_party_2","A1V77062YB882H","either","8","544","","","","","","","1","0","0","0.6","","0.5","0.5","0.5","0.5","","","","","0.8","0.2","0.6","0.2","","","","","","","","","","75","K","2","","true","0","full_practice",""
"","bandit","63","352326","0.0-32.0-12.0","22701897","wem/bandit_party_2","A1V77062YB882H","either","8","715","","","","","","","0","0","1","0.6","","0.5","0.5","0.5","0.5","","","","","0.8","0.2","0.6","0.2","","","","","","","","","","75","K","2","","true","0","full_practice",""
"","bandit","64","354707","0.0-32.0-13.0","22701897","wem/bandit_party_2","A1V77062YB882H","either","8","869","","","","","","","0","0","1","","0.6","0.5","0.5","0.5","0.5","0.8","0.2","0.6","0.2","","","","","","","","","","","","","","75","K","2","","true","0","full_practice",""
"","bandit","65","356952","0.0-32.0-14.0","22701897","wem/bandit_party_2","A1V77062YB882H","either","8","731","","","","","","","1","0","0","0.8","","0.5","0.5","0.5","0.5","","","","","0.8","0.2","0.6","0.2","","","","","","","","","","72","H","0","img/none_selected.jpg","true","0","full_practice",""
"","bandit","66","359099","0.0-32.0-15.0","22701897","wem/bandit_party_2","A1V77062YB882H","either","8","633","","","","","","","1","0","0","0.8","","0.5","0.5","0.5","0.5","","","","","0.8","0.2","0.6","0.2","","","","","","","","","","72","H","0","img/none_selected.jpg","true","0","full_practice",""
"","bandit","67","361253","0.0-32.0-16.0","22701897","wem/bandit_party_2","A1V77062YB882H","either","8","638","","","","","","","0","1","0","","0.8","0.5","0.5","0.5","0.5","0.8","0.2","0.6","0.2","","","","","","","","","","","","","","72","H","0","img/none_selected.jpg","true","0","full_practice",""
"","bandit","68","363603","0.0-32.0-17.0","22701897","wem/bandit_party_2","A1V77062YB882H","either","8","839","","","","","","","1","0","0","0.8","","0.5","0.5","0.5","0.5","","","","","0.8","0.2","0.6","0.2","","","","","","","","","","72","H","0","img/none_selected.jpg","true","0","full_practice",""
"","bandit","69","365722","0.0-32.0-18.0","22701897","wem/bandit_party_2","A1V77062YB882H","either","8","606","","","","","","","1","0","0","0.8","","0.5","0.5","0.5","0.5","","","","","0.8","0.2","0.6","0.2","","","","","","","","","","72","H","0","img/none_selected.jpg","true","0","full_practice",""
"","bandit","70","367655","0.0-32.0-19.0","22701897","wem/bandit_party_2","A1V77062YB882H","either","8","422","","","","","","","1","0","0","0.8","","0.5","0.5","0.5","0.5","","","","","0.8","0.2","0.6","0.2","","","","","","","","","","72","H","0","img/none_selected.jpg","true","0","full_practice",""
"","text","71","371681","0.0-33.0","22701897","wem/bandit_party_2","A1V77062YB882H","either","8","4019","","","32","","","","","","","","","","","","","","","","","","","","","","","","","","","","","","","","","","","","",""
"","text-replacement","72","396331","0.0-34.0","22701897","wem/bandit_party_2","A1V77062YB882H","either","8","23644","","","32","","","","","","","","","","","","","","","","","","","","","","","","","","","","","","","","","","","","",""
"","text-replacement","73","413068","0.0-35.0","22701897","wem/bandit_party_2","A1V77062YB882H","either","8","16734","","","32","","","","","","","","","","","","","","","","","","","","","","","","","","","","","","","","","","","","",""
"","text-replacement","74","421155","0.0-36.0","22701897","wem/bandit_party_2","A1V77062YB882H","either","8","8085","","","32","","","","","","","","","","","","","","","","","","","","","","","","","","","","","","","","","","","","",""
"","text-replacement","75","428394","0.0-37.0","22701897","wem/bandit_party_2","A1V77062YB882H","either","8","7236","","","32","","","","","","","","","","","","","","","","","","","","","","","","","","","","","","","","","","","","",""
"","text-replacement","76","437533","0.0-38.0","22701897","wem/bandit_party_2","A1V77062YB882H","either","8","9137","","","32","","","","","","","","","","","","","","","","","","","","","","","","","","","","","","","","","","","","",""
"","survey-multi-choice-replacement","77","444843","0.0-39.0-0.0","22701897","wem/bandit_party_2","A1V77062YB882H","either","8","7303","","","","","","","","","","","","","","","","","","","","","","","","Money will be added to the pool for <span style='color:blue;'>DEMOCRATS</span>","","","","","","","attn_check","","","","","","","","","0"
"","survey-multi-choice-replacement","78","453856","0.0-40.0-0.0","22701897","wem/bandit_party_2","A1V77062YB882H","either","8","7999","","","","","","","","","","","","","","","","","","","","","","","","Equal amounts of money will be added to the pool for <span style='color:blue;'>DEMOCRATS</span> and subtracted from the pool for <span style='color:red;'>REPUBLICANS</span>","","","","","","","attn_check","","","","","","","","","2"
"","survey-multi-choice-replacement","79","459876","0.0-41.0-0.0","22701897","wem/bandit_party_2","A1V77062YB882H","either","8","5006","","","","","","","","","","","","","","","","","","","","","","","","No money will be added to either pool","","","","","","","attn_check","","","","","","","","","3"
"","bandit","80","464690","0.0-42.0-0.0","22701897","wem/bandit_party_2","A1V77062YB882H","either","8","2299","","","","","","","0","1","0","","0.4468950172","0.4","0.2","0.6","0.8","0.4468950172","0.6337563202","0.2428949588","0.3040937467","","","","","","","","","","","","","","72","H","0","img/none_selected.jpg","","1","main_expt",""
"","bandit","81","467267","0.0-43.0-0.0","22701897","wem/bandit_party_2","A1V77062YB882H","either","8","1066","","","","","","","0","1","0","","0.3846124694","0.4","0.2","0.6","0.8","0.3846124694","0.7380673114","0.248961424","0.2687625136","","","","","","","","","","","","","","72","H","0","img/none_selected.jpg","","2","main_expt",""
"","bandit","82","469461","0.0-44.0-0.0","22701897","wem/bandit_party_2","A1V77062YB882H","either","8","681","","","","","","","0","0","1","0.3885967974","","0.4","0.2","0.6","0.8","","","","","0.3885967974","0.7715549737","0.1878604038","0.3017919557","","","","","","","","","","72","H","0","img/none_selected.jpg","","3","main_expt",""
"","bandit","83","472351","0.0-45.0-0.0","22701897","wem/bandit_party_2","A1V77062YB882H","either","8","1379","","","","","","","0","0","1","","0.8257013646","0.4","0.2","0.6","0.8","0.2891644394","0.8257013646","0.1194049449","0.3388517529","","","","","","","","","","","","","","74","J","1","","","4","main_expt",""
"","bandit","84","474534","0.0-46.0-0.0","22701897","wem/bandit_party_2","A1V77062YB882H","either","8","671","","","","","","","1","0","0","0.197046458","","0.4","0.2","0.6","0.8","","","","","0.2654579937","0.8617886559","0.197046458","0.389096829","","","","","","","","","","75","K","2","","","5","main_expt",""
"","bandit","85","476629","0.0-47.0-0.0","22701897","wem/bandit_party_2","A1V77062YB882H","either","8","580","","","","","","","0","0","1","0.2312720201","","0.4","0.2","0.6","0.8","","","","","0.355160999","0.8452125903","0.2312720201","0.4799636182","","","","","","","","","","75","K","2","","","6","main_expt",""
"","bandit","86","478875","0.0-48.0-0.0","22701897","wem/bandit_party_2","A1V77062YB882H","either","8","737","","","","","","","0","0","1","0.5316557606","","0.4","0.2","0.6","0.8","","","","","0.4733904832","0.8765288384","0.3255591742","0.5316557606","","","","","","","","","","76","L","3","","","7","main_expt",""
"","bandit","87","481057","0.0-49.0-0.0","22701897","wem/bandit_party_2","A1V77062YB882H","either","8","670","","","","","","","1","0","0","0.4900136729","","0.4","0.2","0.6","0.8","","","","","0.4900136729","0.8625068071","0.163151729","0.4935712437","","","","","","","","","","72","H","0","img/none_selected.jpg","","8","main_expt",""
"","bandit","88","483339","0.0-50.0-0.0","22701897","wem/bandit_party_2","A1V77062YB882H","either","8","769","","","","","","","0","0","1","0.4543552171","","0.4","0.2","0.6","0.8","","","","","0.4543552171","0.8385781597","0.1671639775","0.5400450001","","","","","","","","","","72","H","0","img/none_selected.jpg","","9","main_expt",""
"","bandit","89","486426","0.0-51.0-0.0","22701897","wem/bandit_party_2","A1V77062YB882H","either","8","1577","","","","","","","1","0","0","0.833356221","","0.4","0.2","0.6","0.8","","","","","0.4523920981","0.833356221","0.1315225434","0.6510952772","","","","","","","","","","74","J","1","","","10","main_expt",""
"","bandit","90","488957","0.0-52.0-0.0","22701897","wem/bandit_party_2","A1V77062YB882H","either","8","1017","","","","","","","0","1","0","","0.9030756702","0.4","0.2","0.6","0.8","0.4053083118","0.9030756702","0.1287002637","0.6117649901","","","","","","","","","","","","","","74","J","1","","","11","main_expt",""
"","bandit","91","491465","0.0-53.0-0.0","22701897","wem/bandit_party_2","A1V77062YB882H","either","8","997","","","","","","","0","1","0","","0.9129290363","0.4","0.2","0.6","0.8","0.4059907931","0.9129290363","0.1026596936","0.6360746298","","","","","","","","","","","","","","74","J","1","","","12","main_expt",""
"","bandit","92","493775","0.0-54.0-0.0","22701897","wem/bandit_party_2","A1V77062YB882H","either","8","800","","","","","","","0","1","0","","0.8638417716","0.4","0.2","0.6","0.8","0.2934167972","0.8638417716","0.1287514256","0.5673960652","","","","","","","","","","","","","","74","J","1","","","13","main_expt",""
"","bandit","93","496067","0.0-55.0-0.0","22701897","wem/bandit_party_2","A1V77062YB882H","either","8","778","","","","","","","0","0","1","","0.787806988","0.4","0.2","0.6","0.8","0.3260927596","0.787806988","0.1786171179","0.6747725803","","","","","","","","","","","","","","74","J","1","","","14","main_expt",""
"","bandit","94","498192","0.0-56.0-0.0","22701897","wem/bandit_party_2","A1V77062YB882H","either","8","611","","","","","","","0","0","1","0.1459410532","","0.4","0.2","0.6","0.8","","","","","0.3355382734","0.7254212376","0.1459410532","0.6277188345","","","","","","","","","","75","K","2","","","15","main_expt",""
"","bandit","95","500362","0.0-57.0-0.0","22701897","wem/bandit_party_2","A1V77062YB882H","either","8","661","","","","","","","1","0","0","0.5435568235","","0.4","0.2","0.6","0.8","","","","","0.3040928121","0.7238415528","0.2255600906","0.5435568235","","","","","","","","","","76","L","3","","","16","main_expt",""
"","bandit","96","502556","0.0-58.0-0.0","22701897","wem/bandit_party_2","A1V77062YB882H","either","8","679","","","","","","","0","0","1","0.4180161478","","0.4","0.2","0.6","0.8","","","","","0.2730366263","0.7796243455","0.2052013943","0.4180161478","","","","","","","","","","76","L","3","","","17","main_expt",""
"","bandit","97","504501","0.0-59.0-0.0","22701897","wem/bandit_party_2","A1V77062YB882H","either","8","432","","","","","","","0","0","1","0.1780354615","","0.4","0.2","0.6","0.8","","","","","0.4105298721","0.6928902724","0.1780354615","0.4961111773","","","","","","","","","","75","K","2","","","18","main_expt",""
"","bandit","98","506486","0.0-60.0-0.0","22701897","wem/bandit_party_2","A1V77062YB882H","either","8","472","","","","","","","0","0","1","0.3586923344","","0.4","0.2","0.6","0.8","","","","","0.3586923344","0.7658630901","0.1576496117","0.445530788","","","","","","","","","","72","H","0","img/none_selected.jpg","","19","main_expt",""
"","bandit","99","508407","0.0-61.0-0.0","22701897","wem/bandit_party_2","A1V77062YB882H","either","8","407","","","","","","","1","0","0","0.7584200513","","0.4","0.2","0.6","0.8","","","","","0.3220075653","0.7584200513","0.1618752313","0.3443163705","","","","","","","","","","74","J","1","","","20","main_expt",""
"","bandit","100","510415","0.0-62.0-0.0","22701897","wem/bandit_party_2","A1V77062YB882H","either","8","493","","","","","","","0","1","0","","0.7727038765","0.4","0.2","0.6","0.8","0.2729660799","0.7727038765","0.2152187387","0.3012808647","","","","","","","","","","","","","","74","J","1","","","21","main_expt",""
"","bandit","101","512441","0.0-63.0-0.0","22701897","wem/bandit_party_2","A1V77062YB882H","either","8","515","","","","","","","1","0","0","0.8152565923","","0.4","0.2","0.6","0.8","","","","","0.2712352107","0.8152565923","0.3547982299","0.2882062485","","","","","","","","","","74","J","1","","","22","main_expt",""
"","bandit","102","514496","0.0-64.0-0.0","22701897","wem/bandit_party_2","A1V77062YB882H","either","8","542","","","","","","","0","1","0","","0.7537075358","0.4","0.2","0.6","0.8","0.3390855774","0.7537075358","0.323805638","0.2113421372","","","","","","","","","","","","","","74","J","1","","","23","main_expt",""
"","bandit","103","516597","0.0-65.0-0.0","22701897","wem/bandit_party_2","A1V77062YB882H","either","8","588","","","","","","","0","1","0","","0.7108822858","0.4","0.2","0.6","0.8","0.3483259141","0.7108822858","0.3588909826","0.2201805416","","","","","","","","","","","","","","74","J","1","","","24","main_expt",""
"","bandit","104","518593","0.0-66.0-0.0","22701897","wem/bandit_party_2","A1V77062YB882H","either","8","485","","","","","","","0","1","0","","0.6930515954","0.4","0.2","0.6","0.8","0.3416976173","0.6930515954","0.3885553436","0.2580956466","","","","","","","","","","","","","","74","J","1","","","25","main_expt",""
"","bandit","105","520613","0.0-67.0-0.0","22701897","wem/bandit_party_2","A1V77062YB882H","either","8","507","","","","","","","0","1","0","","0.6905393417","0.4","0.2","0.6","0.8","0.4243476322","0.6905393417","0.4871556374","0.2153432854","","","","","","","","","","","","","","74","J","1","","","26","main_expt",""
"","bandit","106","522645","0.0-68.0-0.0","22701897","wem/bandit_party_2","A1V77062YB882H","either","8","516","","","","","","","0","1","0","","0.7531652131","0.4","0.2","0.6","0.8","0.5257754898","0.7531652131","0.4934119911","0.1727955236","","","","","","","","","","","","","","74","J","1","","","27","main_expt",""
"","bandit","107","524747","0.0-69.0-0.0","22701897","wem/bandit_party_2","A1V77062YB882H","either","8","588","","","","","","","0","1","0","","0.8001777041","0.4","0.2","0.6","0.8","0.5246232361","0.8001777041","0.4322092846","0.1894296703","","","","","","","","","","","","","","74","J","1","","","28","main_expt",""
"","bandit","108","526772","0.0-70.0-0.0","22701897","wem/bandit_party_2","A1V77062YB882H","either","8","511","","","","","","","0","1","0","","0.8118404327","0.4","0.2","0.6","0.8","0.375994784","0.8118404327","0.3459113699","0.2128919211","","","","","","","","","","","","","","74","J","1","","","29","main_expt",""
"","bandit","109","528780","0.0-71.0-0.0","22701897","wem/bandit_party_2","A1V77062YB882H","either","8","492","","","","","","","1","0","0","0.7839534503","","0.4","0.2","0.6","0.8","","","","","0.2936890161","0.7839534503","0.280789843","0.206056468","","","","","","","","","","74","J","1","","","30","main_expt",""
"","bandit","110","530765","0.0-72.0-0.0","22701897","wem/bandit_party_2","A1V77062YB882H","either","8","470","","","","","","","1","0","0","0.8066372971","","0.4","0.2","0.6","0.8","","","","","0.2878812258","0.8066372971","0.2613810438","0.1725623241","","","","","","","","","","74","J","1","","","31","main_expt",""
"","bandit","111","532837","0.0-73.0-0.0","22701897","wem/bandit_party_2","A1V77062YB882H","either","8","561","","","","","","","0","1","0","","0.8049259064","0.4","0.2","0.6","0.8","0.2451492808","0.8049259064","0.3821585683","0.1629883914","","","","","","","","","","","","","","74","J","1","","","32","main_expt",""
"","bandit","112","534805","0.0-74.0-0.0","22701897","wem/bandit_party_2","A1V77062YB882H","either","8","456","","","","","","","0","1","0","","0.7891664673","0.4","0.2","0.6","0.8","0.2802113289","0.7891664673","0.2714925976","0.2107911223","","","","","","","","","","","","","","74","J","1","","","33","main_expt",""
"","bandit","113","536906","0.0-75.0-0.0","22701897","wem/bandit_party_2","A1V77062YB882H","either","8","586","","","","","","","1","0","0","0.7854278051","","0.4","0.2","0.6","0.8","","","","","0.2892342718","0.7854278051","0.2755575364","0.1025901997","","","","","","","","","","74","J","1","","","34","main_expt",""
"","bandit","114","538918","0.0-76.0-0.0","22701897","wem/bandit_party_2","A1V77062YB882H","either","8","497","","","","","","","1","0","0","0.7260182018","","0.4","0.2","0.6","0.8","","","","","0.2486893666","0.7260182018","0.2697856654","0.1289879153","","","","","","","","","","74","J","1","","","35","main_expt",""
"","bandit","115","540934","0.0-77.0-0.0","22701897","wem/bandit_party_2","A1V77062YB882H","either","8","498","","","","","","","0","0","1","","0.7910957192","0.4","0.2","0.6","0.8","0.3536408983","0.7910957192","0.2483646443","0.1645491317","","","","","","","","","","","","","","74","J","1","","","36","main_expt",""
"","bandit","116","543134","0.0-78.0-0.0","22701897","wem/bandit_party_2","A1V77062YB882H","either","8","689","","","","","","","1","0","0","0.2493566902","","0.4","0.2","0.6","0.8","","","","","0.2493566902","0.7996551039","0.2103950957","0.1698046746","","","","","","","","","","72","H","0","img/none_selected.jpg","","37","main_expt",""
"","bandit","117","545107","0.0-79.0-0.0","22701897","wem/bandit_party_2","A1V77062YB882H","either","8","463","","","","","","","0","0","1","","0.2948354516","0.4","0.2","0.6","0.8","0.2948354516","0.6717479894","0.2128944509","0.2281502886","","","","","","","","","","","","","","72","H","0","img/none_selected.jpg","","38","main_expt",""
"","bandit","118","547034","0.0-80.0-0.0","22701897","wem/bandit_party_2","A1V77062YB882H","either","8","413","","","","","","","0","1","0","","0.7121128808","0.4","0.2","0.6","0.8","0.3373274679","0.7121128808","0.2965153327","0.1561271762","","","","","","","","","","","","","","74","J","1","","","39","main_expt",""
"","bandit","119","549118","0.0-81.0-0.0","22701897","wem/bandit_party_2","A1V77062YB882H","either","8","572","","","","","","","0","1","0","","0.7157410044","0.4","0.2","0.6","0.8","0.4138768052","0.7157410044","0.4447532253","0.1543620621","","","","","","","","","","","","","","74","J","1","","","40","main_expt",""
"","bandit","120","551149","0.0-82.0-0.0","22701897","wem/bandit_party_2","A1V77062YB882H","either","8","517","","","","","","","0","0","1","","0.681196038","0.4","0.2","0.6","0.8","0.438096834","0.681196038","0.5330008696","0.2271499981","","","","","","","","","","","","","","74","J","1","","","41","main_expt",""
"","bandit","121","553059","0.0-83.0-0.0","22701897","wem/bandit_party_2","A1V77062YB882H","either","8","399","","","","","","","1","0","0","0.573861049","","0.4","0.2","0.6","0.8","","","","","0.4185173612","0.6504320647","0.573861049","0.2882452936","","","","","","","","","","75","K","2","","","42","main_expt",""
"","bandit","122","555125","0.0-84.0-0.0","22701897","wem/bandit_party_2","A1V77062YB882H","either","8","556","","","","","","","0","1","0","","0.6654349765","0.4","0.2","0.6","0.8","0.3796335567","0.7369830744","0.6654349765","0.298522686","","","","","","","","","","","","","","75","K","2","","","43","main_expt",""
"","bandit","123","557162","0.0-85.0-0.0","22701897","wem/bandit_party_2","A1V77062YB882H","either","8","525","","","","","","","0","0","1","","0.691198465","0.4","0.2","0.6","0.8","0.31766129","0.6797935378","0.691198465","0.3188886026","","","","","","","","","","","","","","75","K","2","","","44","main_expt",""
"","bandit","124","559124","0.0-86.0-0.0","22701897","wem/bandit_party_2","A1V77062YB882H","either","8","448","","","","","","","0","0","1","0.2705760174","","0.4","0.2","0.6","0.8","","","","","0.4047397141","0.6507473666","0.7652674903","0.2705760174","","","","","","","","","","76","L","3","","","45","main_expt",""
"","bandit","125","560999","0.0-87.0-0.0","22701897","wem/bandit_party_2","A1V77062YB882H","either","8","361","","","","","","","0","0","1","","0.6334510787","0.4","0.2","0.6","0.8","0.4961613307","0.6334510787","0.8065230058","0.2506880939","","","","","","","","","","","","","","74","J","1","","","46","main_expt",""
"","bandit","126","562973","0.0-88.0-0.0","22701897","wem/bandit_party_2","A1V77062YB882H","either","8","460","","","","","","","0","0","1","","0.4624468315","0.4","0.2","0.6","0.8","0.4624468315","0.6143175143","0.7774474893","0.2491585872","","","","","","","","","","","","","","72","H","0","img/none_selected.jpg","","47","main_expt",""
"","bandit","127","564929","0.0-89.0-0.0","22701897","wem/bandit_party_2","A1V77062YB882H","either","8","442","","","","","","","0","1","0","","0.7693176975","0.4","0.2","0.6","0.8","0.4886537242","0.6404512611","0.7693176975","0.1997021219","","","","","","","","","","","","","","75","K","2","","","48","main_expt",""
"","bandit","128","566966","0.0-90.0-0.0","22701897","wem/bandit_party_2","A1V77062YB882H","either","8","526","","","","","","","0","0","1","0.807419373","","0.4","0.2","0.6","0.8","","","","","0.4270302022","0.6758621215","0.807419373","0.2119577724","","","","","","","","","","75","K","2","","","49","main_expt",""
"","bandit","129","568911","0.0-91.0-0.0","22701897","wem/bandit_party_2","A1V77062YB882H","either","8","432","","","","","","","0","1","0","","0.6873234502","0.4","0.2","0.6","0.8","0.5151345658","0.6873234502","0.8562769227","0.2615271711","","","","","","","","","","","","","","74","J","1","","","50","main_expt",""
"","bandit","130","571075","0.0-92.0-0.0","22701897","wem/bandit_party_2","A1V77062YB882H","either","8","650","","","","","","","0","1","0","","0.7776044395","0.4","0.2","0.6","0.8","0.5134524181","0.7776044395","0.8705114925","0.2764427577","","","","","","","","","","","","","","74","J","1","","","51","main_expt",""
"","bandit","131","573124","0.0-93.0-0.0","22701897","wem/bandit_party_2","A1V77062YB882H","either","8","538","","","","","","","0","1","0","","0.8403410939","0.4","0.2","0.6","0.8","0.4842684999","0.8403410939","0.9310361031","0.3833776697","","","","","","","","","","","","","","74","J","1","","","52","main_expt",""
"","bandit","132","575170","0.0-94.0-0.0","22701897","wem/bandit_party_2","A1V77062YB882H","either","8","531","","","","","","","0","0","1","","0.8151983534","0.4","0.2","0.6","0.8","0.4412850773","0.8151983534","0.905794742","0.4356502318","","","","","","","","","","","","","","74","J","1","","","53","main_expt",""
"","bandit","133","577170","0.0-95.0-0.0","22701897","wem/bandit_party_2","A1V77062YB882H","either","8","489","","","","","","","0","0","1","0.4397693946","","0.4","0.2","0.6","0.8","","","","","0.4397693946","0.8081222638","0.9391541593","0.4120588364","","","","","","","","","","72","H","0","img/none_selected.jpg","","54","main_expt",""
"","bandit","134","579097","0.0-96.0-0.0","22701897","wem/bandit_party_2","A1V77062YB882H","either","8","414","","","","","","","0","1","0","","0.9596285882","0.4","0.2","0.6","0.8","0.3928202278","0.742009976","0.9596285882","0.2714296105","","","","","","","","","","","","","","75","K","2","","","55","main_expt",""
"","bandit","135","581122","0.0-97.0-0.0","22701897","wem/bandit_party_2","A1V77062YB882H","either","8","511","","","","","","","1","0","0","0.9565658233","","0.4","0.2","0.6","0.8","","","","","0.4593665993","0.7065076074","0.9565658233","0.2122311877","","","","","","","","","","75","K","2","","","56","main_expt",""
"","bandit","136","583066","0.0-98.0-0.0","22701897","wem/bandit_party_2","A1V77062YB882H","either","8","431","","","","","","","0","1","0","","0.9681540372","0.4","0.2","0.6","0.8","0.4006145211","0.6860695476","0.9681540372","0.2282278588","","","","","","","","","","","","","","75","K","2","","","57","main_expt",""
"","bandit","137","585139","0.0-99.0-0.0","22701897","wem/bandit_party_2","A1V77062YB882H","either","8","559","","","","","","","1","0","0","0.9207083952","","0.4","0.2","0.6","0.8","","","","","0.4597890412","0.742301155","0.9207083952","0.1392076118","","","","","","","","","","75","K","2","","","58","main_expt",""
"","bandit","138","587124","0.0-100.0-0.0","22701897","wem/bandit_party_2","A1V77062YB882H","either","8","467","","","","","","","0","1","0","","0.9178227258","0.4","0.2","0.6","0.8","0.4232266093","0.5291004622","0.9178227258","0.1706239206","","","","","","","","","","","","","","75","K","2","","","59","main_expt",""
"","bandit","139","589173","0.0-101.0-0.0","22701897","wem/bandit_party_2","A1V77062YB882H","either","8","537","","","","","","","1","0","0","0.8951285427","","0.4","0.2","0.6","0.8","","","","","0.3565880291","0.6348838793","0.8951285427","0.1674269281","","","","","","","","","","75","K","2","","","60","main_expt",""
"","bandit","140","591158","0.0-102.0-0.0","22701897","wem/bandit_party_2","A1V77062YB882H","either","8","471","","","","","","","1","0","0","0.8506814954","","0.4","0.2","0.6","0.8","","","","","0.3663276413","0.6796423313","0.8506814954","0.2182313474","","","","","","","","","","75","K","2","","","61","main_expt",""
"","bandit","141","593154","0.0-103.0-0.0","22701897","wem/bandit_party_2","A1V77062YB882H","either","8","483","","","","","","","0","1","0","","0.8513854559","0.4","0.2","0.6","0.8","0.3193005293","0.6928172916","0.8513854559","0.2949218256","","","","","","","","","","","","","","75","K","2","","","62","main_expt",""
"","bandit","142","595296","0.0-104.0-0.0","22701897","wem/bandit_party_2","A1V77062YB882H","either","8","628","","","","","","","1","0","0","0.8927579502","","0.4","0.2","0.6","0.8","","","","","0.1562068481","0.6996506825","0.8927579502","0.3170222383","","","","","","","","","","75","K","2","","","63","main_expt",""
"","bandit","143","597299","0.0-105.0-0.0","22701897","wem/bandit_party_2","A1V77062YB882H","either","8","490","","","","","","","0","0","1","","0.9217936765","0.4","0.2","0.6","0.8","0.2300477965","0.7294442249","0.9217936765","0.3033511374","","","","","","","","","","","","","","75","K","2","","","64","main_expt",""
"","bandit","144","599436","0.0-106.0-0.0","22701897","wem/bandit_party_2","A1V77062YB882H","either","8","623","","","","","","","0","0","1","","0.6605354899","0.4","0.2","0.6","0.8","0.2869838185","0.6605354899","0.9357047413","0.3973690147","","","","","","","","","","","","","","74","J","1","","","65","main_expt",""
"","bandit","145","601419","0.0-107.0-0.0","22701897","wem/bandit_party_2","A1V77062YB882H","either","8","470","","","","","","","0","0","1","","0.4320294497","0.4","0.2","0.6","0.8","0.3287476356","0.6959621059","0.910343843","0.4320294497","","","","","","","","","","","","","","76","L","3","","","66","main_expt",""
"","bandit","146","603439","0.0-108.0-0.0","22701897","wem/bandit_party_2","A1V77062YB882H","either","8","506","","","","","","","0","0","1","","0.3018365728","0.4","0.2","0.6","0.8","0.3018365728","0.653899752","0.9022080512","0.3208465419","","","","","","","","","","","","","","72","H","0","img/none_selected.jpg","","67","main_expt",""
"","bandit","147","605669","0.0-109.0-0.0","22701897","wem/bandit_party_2","A1V77062YB882H","either","8","718","","","","","","","0","1","0","","0.3208616414","0.4","0.2","0.6","0.8","0.3208616414","0.6517851336","0.8492414063","0.3570730799","","","","","","","","","","","","","","72","H","0","img/none_selected.jpg","","68","main_expt",""
"","bandit","148","607672","0.0-110.0-0.0","22701897","wem/bandit_party_2","A1V77062YB882H","either","8","488","","","","","","","0","1","0","","0.386863802","0.4","0.2","0.6","0.8","0.386863802","0.7011615004","0.768219052","0.3451514791","","","","","","","","","","","","","","72","H","0","img/none_selected.jpg","","69","main_expt",""
"","bandit","149","609700","0.0-111.0-0.0","22701897","wem/bandit_party_2","A1V77062YB882H","either","8","520","","","","","","","0","1","0","","0.3628244161","0.4","0.2","0.6","0.8","0.3628244161","0.6278947594","0.7996218848","0.3127714871","","","","","","","","","","","","","","72","H","0","img/none_selected.jpg","","70","main_expt",""
"","bandit","150","611641","0.0-112.0-0.0","22701897","wem/bandit_party_2","A1V77062YB882H","either","8","426","","","","","","","0","0","1","0.2969295023","","0.4","0.2","0.6","0.8","","","","","0.2969295023","0.688517509","0.9130189757","0.3855297895","","","","","","","","","","72","H","0","img/none_selected.jpg","","71","main_expt",""
"","bandit","151","613794","0.0-113.0-0.0","22701897","wem/bandit_party_2","A1V77062YB882H","either","8","641","","","","","","","0","1","0","","0.6125440106","0.4","0.2","0.6","0.8","0.3512325323","0.6125440106","0.9016843832","0.3555010044","","","","","","","","","","","","","","74","J","1","","","72","main_expt",""
"","bandit","152","615744","0.0-114.0-0.0","22701897","wem/bandit_party_2","A1V77062YB882H","either","8","441","","","","","","","0","1","0","","0.4884410468","0.4","0.2","0.6","0.8","0.3845321254","0.4884410468","0.9166584401","0.3278360739","","","","","","","","","","","","","","74","J","1","","","73","main_expt",""
"","bandit","153","617840","0.0-115.0-0.0","22701897","wem/bandit_party_2","A1V77062YB882H","either","8","583","","","","","","","0","0","1","","0.5800760741","0.4","0.2","0.6","0.8","0.3760614253","0.5800760741","0.8699410266","0.3275161349","","","","","","","","","","","","","","74","J","1","","","74","main_expt",""
"","bandit","154","620127","0.0-116.0-0.0","22701897","wem/bandit_party_2","A1V77062YB882H","either","8","775","","","","","","","0","0","1","0.370831352","","0.4","0.2","0.6","0.8","","","","","0.370831352","0.6614390465","0.8192171788","0.3454333807","","","","","","","","","","72","H","0","img/none_selected.jpg","","75","main_expt",""
"","bandit","155","622117","0.0-117.0-0.0","22701897","wem/bandit_party_2","A1V77062YB882H","either","8","476","","","","","","","0","1","0","","0.8990587115","0.4","0.2","0.6","0.8","0.4008199491","0.6861570843","0.8990587115","0.4213924804","","","","","","","","","","","","","","75","K","2","","","76","main_expt",""
"","bandit","156","624132","0.0-118.0-0.0","22701897","wem/bandit_party_2","A1V77062YB882H","either","8","500","","","","","","","1","0","0","0.9062137116","","0.4","0.2","0.6","0.8","","","","","0.3928984844","0.5980737028","0.9062137116","0.439510692","","","","","","","","","","75","K","2","","","77","main_expt",""
"","bandit","157","626093","0.0-119.0-0.0","22701897","wem/bandit_party_2","A1V77062YB882H","either","8","448","","","","","","","1","0","0","0.9215914722","","0.4","0.2","0.6","0.8","","","","","0.4709058574","0.6754083514","0.9215914722","0.4419424199","","","","","","","","","","75","K","2","","","78","main_expt",""
"","bandit","158","628090","0.0-120.0-0.0","22701897","wem/bandit_party_2","A1V77062YB882H","either","8","484","","","","","","","1","0","0","0.895443078","","0.4","0.2","0.6","0.8","","","","","0.4971614577","0.7012934339","0.895443078","0.5056762283","","","","","","","","","","75","K","2","","","79","main_expt",""
"","bandit","159","630203","0.0-121.0-0.0","22701897","wem/bandit_party_2","A1V77062YB882H","either","8","599","","","","","","","0","1","0","","0.7789772955","0.4","0.2","0.6","0.8","0.4828267768","0.7067798052","0.7789772955","0.4558190996","","","","","","","","","","","","","","75","K","2","","","80","main_expt",""
"","bandit","160","632176","0.0-122.0-0.0","22701897","wem/bandit_party_2","A1V77062YB882H","either","8","457","","","","","","","1","0","0","0.755426824","","0.4","0.2","0.6","0.8","","","","","0.4280570329","0.7259433061","0.755426824","0.4774921548","","","","","","","","","","75","K","2","","","81","main_expt",""
"","bandit","161","634202","0.0-123.0-0.0","22701897","wem/bandit_party_2","A1V77062YB882H","either","8","512","","","","","","","1","0","0","0.8356426425","","0.4","0.2","0.6","0.8","","","","","0.486136241","0.7022130872","0.8356426425","0.3611036613","","","","","","","","","","75","K","2","","","82","main_expt",""
"","bandit","162","636216","0.0-124.0-0.0","22701897","wem/bandit_party_2","A1V77062YB882H","either","8","501","","","","","","","1","0","0","0.8783145762","","0.4","0.2","0.6","0.8","","","","","0.3539143083","0.75927227","0.8783145762","0.3341354767","","","","","","","","","","75","K","2","","","83","main_expt",""
"","bandit","163","638232","0.0-125.0-0.0","22701897","wem/bandit_party_2","A1V77062YB882H","either","8","500","","","","","","","1","0","0","0.9087743635","","0.4","0.2","0.6","0.8","","","","","0.374811954","0.8556046088","0.9087743635","0.288479151","","","","","","","","","","75","K","2","","","84","main_expt",""
"","bandit","164","640198","0.0-126.0-0.0","22701897","wem/bandit_party_2","A1V77062YB882H","either","8","453","","","","","","","1","0","0","0.8632011641","","0.4","0.2","0.6","0.8","","","","","0.4518264681","0.7835234447","0.8632011641","0.3061923995","","","","","","","","","","75","K","2","","","85","main_expt",""
"","bandit","165","642126","0.0-127.0-0.0","22701897","wem/bandit_party_2","A1V77062YB882H","either","8","414","","","","","","","1","0","0","0.8341253046","","0.4","0.2","0.6","0.8","","","","","0.461936863","0.7037548709","0.8341253046","0.3370204437","","","","","","","","","","75","K","2","","","86","main_expt",""
"","bandit","166","644168","0.0-128.0-0.0","22701897","wem/bandit_party_2","A1V77062YB882H","either","8","530","","","","","","","0","0","1","0.8728746981","","0.4","0.2","0.6","0.8","","","","","0.3681660755","0.6903674631","0.8728746981","0.3900809043","","","","","","","","","","75","K","2","","","87","main_expt",""
"","bandit","167","646129","0.0-129.0-0.0","22701897","wem/bandit_party_2","A1V77062YB882H","either","8","450","","","","","","","0","0","1","0.4296615172","","0.4","0.2","0.6","0.8","","","","","0.3788462328","0.5883284312","0.8408980459","0.4296615172","","","","","","","","","","76","L","3","","","88","main_expt",""
"","bandit","168","648196","0.0-130.0-0.0","22701897","wem/bandit_party_2","A1V77062YB882H","either","8","551","","","","","","","1","0","0","0.8585781628","","0.4","0.2","0.6","0.8","","","","","0.3316952272","0.5258490985","0.8585781628","0.4636560077","","","","","","","","","","75","K","2","","","89","main_expt",""
"","bandit","169","650210","0.0-131.0-0.0","22701897","wem/bandit_party_2","A1V77062YB882H","either","8","501","","","","","","","0","0","1","0.925840658","","0.4","0.2","0.6","0.8","","","","","0.438068917","0.6395041767","0.925840658","0.4463585346","","","","","","","","","","75","K","2","","","90","main_expt",""
"","bandit","170","652160","0.0-132.0-0.0","22701897","wem/bandit_party_2","A1V77062YB882H","either","8","436","","","","","","","0","1","0","","0.6931091445","0.4","0.2","0.6","0.8","0.5158843935","0.6931091445","0.9201841885","0.4734463503","","","","","","","","","","","","","","74","J","1","","","91","main_expt",""
"","bandit","171","654209","0.0-133.0-0.0","22701897","wem/bandit_party_2","A1V77062YB882H","either","8","533","","","","","","","0","1","0","","0.6725373887","0.4","0.2","0.6","0.8","0.5182757575","0.6725373887","0.8508076908","0.5248255385","","","","","","","","","","","","","","74","J","1","","","92","main_expt",""
"","bandit","172","656205","0.0-134.0-0.0","22701897","wem/bandit_party_2","A1V77062YB882H","either","8","483","","","","","","","0","1","0","","0.7388835399","0.4","0.2","0.6","0.8","0.5498130742","0.7388835399","0.8106711147","0.3386726181","","","","","","","","","","","","","","74","J","1","","","93","main_expt",""
"","bandit","173","658178","0.0-135.0-0.0","22701897","wem/bandit_party_2","A1V77062YB882H","either","8","460","","","","","","","1","0","0","0.697373586","","0.4","0.2","0.6","0.8","","","","","0.6049407638","0.697373586","0.8543263914","0.3718894848","","","","","","","","","","74","J","1","","","94","main_expt",""
"","bandit","174","660205","0.0-136.0-0.0","22701897","wem/bandit_party_2","A1V77062YB882H","either","8","515","","","","","","","1","0","0","0.7550322224","","0.4","0.2","0.6","0.8","","","","","0.6604115927","0.7550322224","0.8387782901","0.4005278521","","","","","","","","","","74","J","1","","","95","main_expt",""
"","bandit","175","662242","0.0-137.0-0.0","22701897","wem/bandit_party_2","A1V77062YB882H","either","8","522","","","","","","","0","1","0","","0.6576962358","0.4","0.2","0.6","0.8","0.7003847986","0.6576962358","0.8208071174","0.3694595514","","","","","","","","","","","","","","74","J","1","","","96","main_expt",""
"","bandit","176","664314","0.0-138.0-0.0","22701897","wem/bandit_party_2","A1V77062YB882H","either","8","557","","","","","","","1","0","0","0.6802484638","","0.4","0.2","0.6","0.8","","","","","0.6793148949","0.6802484638","0.765358829","0.3186037095","","","","","","","","","","74","J","1","","","97","main_expt",""
"","bandit","177","666438","0.0-139.0-0.0","22701897","wem/bandit_party_2","A1V77062YB882H","either","8","609","","","","","","","0","0","1","0.7042077447","","0.4","0.2","0.6","0.8","","","","","0.6204607354","0.7042077447","0.7823463211","0.2786717818","","","","","","","","","","74","J","1","","","98","main_expt",""
"","bandit","178","668405","0.0-140.0-0.0","22701897","wem/bandit_party_2","A1V77062YB882H","either","8","456","","","","","","","0","0","1","0.6166262367","","0.4","0.2","0.6","0.8","","","","","0.6166262367","0.7355617892","0.7523003034","0.32929866","","","","","","","","","","72","H","0","img/none_selected.jpg","","99","main_expt",""
"","bandit","179","670368","0.0-141.0-0.0","22701897","wem/bandit_party_2","A1V77062YB882H","either","8","450","","","","","","","1","0","0","0.7174790615","","0.4","0.2","0.6","0.8","","","","","0.5347115766","0.7117411671","0.7174790615","0.3115323478","","","","","","","","","","75","K","2","","","100","main_expt",""
"","bandit","180","672405","0.0-142.0-0.0","22701897","wem/bandit_party_2","A1V77062YB882H","either","8","521","","","","","","","0","1","0","","0.7660578318","0.4","0.2","0.6","0.8","0.3418016043","0.7263903312","0.7660578318","0.4221749579","","","","","","","","","","","","","","75","K","2","","","101","main_expt",""
"","bandit","181","674402","0.0-143.0-0.0","22701897","wem/bandit_party_2","A1V77062YB882H","either","8","483","","","","","","","0","0","1","0.7201180075","","0.4","0.2","0.6","0.8","","","","","0.2550922237","0.7357346189","0.7201180075","0.2718078598","","","","","","","","","","75","K","2","","","102","main_expt",""
"","bandit","182","676729","0.0-144.0-0.0","22701897","wem/bandit_party_2","A1V77062YB882H","either","8","816","","","","","","","0","0","1","0.3011307106","","0.4","0.2","0.6","0.8","","","","","0.3181696353","0.7026134783","0.8452780714","0.3011307106","","","","","","","","","","76","L","3","","","103","main_expt",""
"","bandit","183","678650","0.0-145.0-0.0","22701897","wem/bandit_party_2","A1V77062YB882H","either","8","406","","","","","","","0","1","0","","0.8073666152","0.4","0.2","0.6","0.8","0.3383579412","0.8073666152","0.7236924273","0.3659291838","","","","","","","","","","","","","","74","J","1","","","104","main_expt",""
"","bandit","184","680757","0.0-146.0-0.0","22701897","wem/bandit_party_2","A1V77062YB882H","either","8","591","","","","","","","0","1","0","","0.824483439","0.4","0.2","0.6","0.8","0.2354673658","0.824483439","0.743719778","0.3499435223","","","","","","","","","","","","","","74","J","1","","","105","main_expt",""
"","bandit","185","682766","0.0-147.0-0.0","22701897","wem/bandit_party_2","A1V77062YB882H","either","8","497","","","","","","","0","1","0","","0.9208810438","0.4","0.2","0.6","0.8","0.159398249","0.9208810438","0.7985687284","0.3602262465","","","","","","","","","","","","","","74","J","1","","","106","main_expt",""
"","bandit","186","684745","0.0-148.0-0.0","22701897","wem/bandit_party_2","A1V77062YB882H","either","8","464","","","","","","","0","1","0","","0.8911910097","0.4","0.2","0.6","0.8","0.1295169146","0.8911910097","0.799345197","0.3252215163","","","","","","","","","","","","","","74","J","1","","","107","main_expt",""
"","bandit","187","686724","0.0-149.0-0.0","22701897","wem/bandit_party_2","A1V77062YB882H","either","8","469","","","","","","","0","1","0","","0.8450149587","0.4","0.2","0.6","0.8","0.07754053308","0.8450149587","0.8681690713","0.2812406992","","","","","","","","","","","","","","74","J","1","","","108","main_expt",""
"","bandit","188","688697","0.0-150.0-0.0","22701897","wem/bandit_party_2","A1V77062YB882H","either","8","461","","","","","","","1","0","0","0.868327257","","0.4","0.2","0.6","0.8","","","","","0.06591215473","0.868327257","0.8556732204","0.2559497519","","","","","","","","","","74","J","1","","","109","main_expt",""
"","bandit","189","690654","0.0-151.0-0.0","22701897","wem/bandit_party_2","A1V77062YB882H","either","8","442","","","","","","","0","1","0","","0.8868335222","0.4","0.2","0.6","0.8","0.1189546392","0.8868335222","0.8669893864","0.2817400418","","","","","","","","","","","","","","74","J","1","","","110","main_expt",""
"","bandit","190","692633","0.0-152.0-0.0","22701897","wem/bandit_party_2","A1V77062YB882H","either","8","467","","","","","","","0","1","0","","0.8770728171","0.4","0.2","0.6","0.8","0.09523351692","0.8770728171","0.799383849","0.2773620367","","","","","","","","","","","","","","74","J","1","","","111","main_expt",""
"","bandit","191","694560","0.0-153.0-0.0","22701897","wem/bandit_party_2","A1V77062YB882H","either","8","416","","","","","","","1","0","0","0.8481710002","","0.4","0.2","0.6","0.8","","","","","0.107489667","0.8481710002","0.859799476","0.2833316415","","","","","","","","","","74","J","1","","","112","main_expt",""
"","bandit","192","696545","0.0-154.0-0.0","22701897","wem/bandit_party_2","A1V77062YB882H","either","8","470","","","","","","","1","0","0","0.8573528835","","0.4","0.2","0.6","0.8","","","","","0.1026187258","0.8573528835","0.7932436089","0.3433702059","","","","","","","","","","74","J","1","","","113","main_expt",""
"","bandit","193","698501","0.0-155.0-0.0","22701897","wem/bandit_party_2","A1V77062YB882H","either","8","442","","","","","","","0","1","0","","0.8291807482","0.4","0.2","0.6","0.8","0.1044839951","0.8291807482","0.849407262","0.4828882278","","","","","","","","","","","","","","74","J","1","","","114","main_expt",""
"","bandit","194","700526","0.0-156.0-0.0","22701897","wem/bandit_party_2","A1V77062YB882H","either","8","510","","","","","","","0","1","0","","0.761972944","0.4","0.2","0.6","0.8","0.1213931844","0.761972944","0.8882716547","0.54932579","","","","","","","","","","","","","","74","J","1","","","115","main_expt",""
"","bandit","195","702453","0.0-157.0-0.0","22701897","wem/bandit_party_2","A1V77062YB882H","either","8","412","","","","","","","0","1","0","","0.786197192","0.4","0.2","0.6","0.8","0.1184144227","0.786197192","0.8741354715","0.6971345968","","","","","","","","","","","","","","74","J","1","","","116","main_expt",""
"","bandit","196","704351","0.0-158.0-0.0","22701897","wem/bandit_party_2","A1V77062YB882H","either","8","386","","","","","","","0","1","0","","0.7834453561","0.4","0.2","0.6","0.8","0.1983931569","0.7834453561","0.8083823922","0.5396272374","","","","","","","","","","","","","","74","J","1","","","117","main_expt",""
"","bandit","197","706313","0.0-159.0-0.0","22701897","wem/bandit_party_2","A1V77062YB882H","either","8","450","","","","","","","0","1","0","","0.6742380839","0.4","0.2","0.6","0.8","0.2840039584","0.6742380839","0.868525306","0.5544567993","","","","","","","","","","","","","","74","J","1","","","118","main_expt",""
"","bandit","198","708223","0.0-160.0-0.0","22701897","wem/bandit_party_2","A1V77062YB882H","either","8","398","","","","","","","0","1","0","","0.7350700153","0.4","0.2","0.6","0.8","0.3563325119","0.7350700153","0.8386471998","0.5504896642","","","","","","","","","","","","","","74","J","1","","","119","main_expt",""
"","bandit","199","710185","0.0-161.0-0.0","22701897","wem/bandit_party_2","A1V77062YB882H","either","8","446","","","","","","","0","1","0","","0.70601835","0.4","0.2","0.6","0.8","0.5682387565","0.70601835","0.8103559508","0.5812137135","","","","","","","","","","","","","","74","J","1","","","120","main_expt",""
"","bandit","200","712187","0.0-162.0-0.0","22701897","wem/bandit_party_2","A1V77062YB882H","either","8","491","","","","","","","0","1","0","","0.7347719752","0.4","0.2","0.6","0.8","0.5189107771","0.7347719752","0.8193015173","0.6033058466","","","","","","","","","","","","","","74","J","1","","","121","main_expt",""
"","bandit","201","714091","0.0-163.0-0.0","22701897","wem/bandit_party_2","A1V77062YB882H","either","8","391","","","","","","","0","1","0","","0.8270923978","0.4","0.2","0.6","0.8","0.4428493372","0.8270923978","0.8025146027","0.6102220397","","","","","","","","","","","","","","74","J","1","","","122","main_expt",""
"","bandit","202","716099","0.0-164.0-0.0","22701897","wem/bandit_party_2","A1V77062YB882H","either","8","493","","","","","","","0","1","0","","0.7980631313","0.4","0.2","0.6","0.8","0.472724465","0.7980631313","0.8121847492","0.6108151959","","","","","","","","","","","","","","74","J","1","","","123","main_expt",""
"","bandit","203","718166","0.0-165.0-0.0","22701897","wem/bandit_party_2","A1V77062YB882H","either","8","552","","","","","","","0","1","0","","0.7369852887","0.4","0.2","0.6","0.8","0.4799585558","0.7369852887","0.8299418439","0.7117385939","","","","","","","","","","","","","","74","J","1","","","124","main_expt",""
"","bandit","204","720151","0.0-166.0-0.0","22701897","wem/bandit_party_2","A1V77062YB882H","either","8","473","","","","","","","0","1","0","","0.7465944313","0.4","0.2","0.6","0.8","0.5080184993","0.7465944313","0.825688343","0.7554186078","","","","","","","","","","","","","","74","J","1","","","125","main_expt",""
"","bandit","205","722107","0.0-167.0-0.0","22701897","wem/bandit_party_2","A1V77062YB882H","either","8","444","","","","","","","0","0","1","0.7596834852","","0.4","0.2","0.6","0.8","","","","","0.4555098289","0.7596834852","0.8372054396","0.8855751833","","","","","","","","","","74","J","1","","","126","main_expt",""
"","bandit","206","724155","0.0-168.0-0.0","22701897","wem/bandit_party_2","A1V77062YB882H","either","8","536","","","","","","","0","0","1","","0.5475411796","0.4","0.2","0.6","0.8","0.5475411796","0.7398299979","0.7906689898","0.8003015049","","","","","","","","","","","","","","72","H","0","img/none_selected.jpg","","127","main_expt",""
"","bandit","207","726071","0.0-169.0-0.0","22701897","wem/bandit_party_2","A1V77062YB882H","either","8","403","","","","","","","0","1","0","","0.7764866849","0.4","0.2","0.6","0.8","0.612647382","0.7764866849","0.8008571507","0.8403113951","","","","","","","","","","","","","","74","J","1","","","128","main_expt",""
"","bandit","208","728085","0.0-170.0-0.0","22701897","wem/bandit_party_2","A1V77062YB882H","either","8","499","","","","","","","0","0","1","","0.6435675963","0.4","0.2","0.6","0.8","0.7128970287","0.6435675963","0.7829297973","0.8826872071","","","","","","","","","","","","","","74","J","1","","","129","main_expt",""
"","bandit","209","729988","0.0-171.0-0.0","22701897","wem/bandit_party_2","A1V77062YB882H","either","8","392","","","","","","","0","0","1","","0.6898445721","0.4","0.2","0.6","0.8","0.7309911721","0.7030252038","0.6898445721","0.8641000085","","","","","","","","","","","","","","75","K","2","","","130","main_expt",""
"","bandit","210","731823","0.0-172.0-0.0","22701897","wem/bandit_party_2","A1V77062YB882H","either","8","317","","","","","","","1","0","0","0.8752037592","","0.4","0.2","0.6","0.8","","","","","0.73180147","0.6829232191","0.5864867529","0.8752037592","","","","","","","","","","76","L","3","","","131","main_expt",""
"","bandit","211","733773","0.0-173.0-0.0","22701897","wem/bandit_party_2","A1V77062YB882H","either","8","437","","","","","","","0","0","1","0.8279556795","","0.4","0.2","0.6","0.8","","","","","0.8467134838","0.7406452387","0.560122833","0.8279556795","","","","","","","","","","76","L","3","","","132","main_expt",""
"","bandit","212","735694","0.0-174.0-0.0","22701897","wem/bandit_party_2","A1V77062YB882H","either","8","407","","","","","","","1","0","0","0.48439517","","0.4","0.2","0.6","0.8","","","","","0.8481264083","0.6666234363","0.48439517","0.8194722428","","","","","","","","","","75","K","2","","","133","main_expt",""
"","bandit","213","737610","0.0-175.0-0.0","22701897","wem/bandit_party_2","A1V77062YB882H","either","8","404","","","","","","","0","0","1","0.3919863126","","0.4","0.2","0.6","0.8","","","","","0.8771050955","0.680542061","0.3919863126","0.8037084922","","","","","","","","","","75","K","2","","","134","main_expt",""
"","bandit","214","739502","0.0-176.0-0.0","22701897","wem/bandit_party_2","A1V77062YB882H","either","8","378","","","","","","","0","1","0","","0.7006187635","0.4","0.2","0.6","0.8","0.9103241533","0.7006187635","0.5174750093","0.8155916457","","","","","","","","","","","","","","74","J","1","","","135","main_expt",""
"","bandit","215","741435","0.0-177.0-0.0","22701897","wem/bandit_party_2","A1V77062YB882H","either","8","420","","","","","","","0","1","0","","0.6936815578","0.4","0.2","0.6","0.8","0.9126032517","0.6936815578","0.4264762493","0.8281957705","","","","","","","","","","","","","","74","J","1","","","136","main_expt",""
"","bandit","216","743362","0.0-178.0-0.0","22701897","wem/bandit_party_2","A1V77062YB882H","either","8","414","","","","","","","1","0","0","0.6531428085","","0.4","0.2","0.6","0.8","","","","","0.8983360858","0.6531428085","0.5351999402","0.7055403129","","","","","","","","","","74","J","1","","","137","main_expt",""
"","bandit","217","745271","0.0-179.0-0.0","22701897","wem/bandit_party_2","A1V77062YB882H","either","8","397","","","","","","","0","1","0","","0.6769758131","0.4","0.2","0.6","0.8","0.8851370462","0.6769758131","0.4758748922","0.6884351598","","","","","","","","","","","","","","74","J","1","","","138","main_expt",""
"","bandit","218","747204","0.0-180.0-0.0","22701897","wem/bandit_party_2","A1V77062YB882H","either","8","418","","","","","","","0","1","0","","0.7649589049","0.4","0.2","0.6","0.8","0.8662270416","0.7649589049","0.4039793023","0.6090423031","","","","","","","","","","","","","","74","J","1","","","139","main_expt",""
"","bandit","219","749137","0.0-181.0-0.0","22701897","wem/bandit_party_2","A1V77062YB882H","either","8","419","","","","","","","1","0","0","0.7674202191","","0.4","0.2","0.6","0.8","","","","","0.8345767194","0.7674202191","0.384774136","0.7000077187","","","","","","","","","","74","J","1","","","140","main_expt",""
"","bandit","220","751075","0.0-182.0-0.0","22701897","wem/bandit_party_2","A1V77062YB882H","either","8","424","","","","","","","0","1","0","","0.8575114448","0.4","0.2","0.6","0.8","0.8783670964","0.8575114448","0.327254859","0.6643185619","","","","","","","","","","","","","","74","J","1","","","141","main_expt",""
"","bandit","221","753008","0.0-183.0-0.0","22701897","wem/bandit_party_2","A1V77062YB882H","either","8","419","","","","","","","1","0","0","0.8134430427","","0.4","0.2","0.6","0.8","","","","","0.8895828315","0.8134430427","0.4536641492","0.7079845674","","","","","","","","","","74","J","1","","","142","main_expt",""
"","bandit","222","754953","0.0-184.0-0.0","22701897","wem/bandit_party_2","A1V77062YB882H","either","8","432","","","","","","","0","1","0","","0.8345505038","0.4","0.2","0.6","0.8","0.9053928798","0.8345505038","0.4348486293","0.6624187643","","","","","","","","","","","","","","74","J","1","","","143","main_expt",""
"","bandit","223","756955","0.0-185.0-0.0","22701897","wem/bandit_party_2","A1V77062YB882H","either","8","489","","","","","","","0","1","0","","0.7482817554","0.4","0.2","0.6","0.8","0.9033088386","0.7482817554","0.4086594597","0.6779247185","","","","","","","","","","","","","","74","J","1","","","144","main_expt",""
"","bandit","224","758946","0.0-186.0-0.0","22701897","wem/bandit_party_2","A1V77062YB882H","either","8","474","","","","","","","1","0","0","0.7400387939","","0.4","0.2","0.6","0.8","","","","","0.8572864227","0.7400387939","0.4420772456","0.7216102374","","","","","","","","","","74","J","1","","","145","main_expt",""
"","bandit","225","760896","0.0-187.0-0.0","22701897","wem/bandit_party_2","A1V77062YB882H","either","8","436","","","","","","","0","0","1","","0.795971973","0.4","0.2","0.6","0.8","0.8687508917","0.795971973","0.508741462","0.7837267619","","","","","","","","","","","","","","74","J","1","","","146","main_expt",""
"","bandit","226","762817","0.0-188.0-0.0","22701897","wem/bandit_party_2","A1V77062YB882H","either","8","405","","","","","","","1","0","0","0.8657621525","","0.4","0.2","0.6","0.8","","","","","0.8657621525","0.7503502301","0.4624398998","0.7652264833","","","","","","","","","","72","H","0","img/none_selected.jpg","","147","main_expt",""
"","bandit","227","764738","0.0-189.0-0.0","22701897","wem/bandit_party_2","A1V77062YB882H","either","8","408","","","","","","","0","0","1","0.8362891365","","0.4","0.2","0.6","0.8","","","","","0.8362891365","0.8200474043","0.4062589849","0.7358716413","","","","","","","","","","72","H","0","img/none_selected.jpg","","148","main_expt",""
"","bandit","228","766655","0.0-190.0-0.0","22701897","wem/bandit_party_2","A1V77062YB882H","either","8","401","","","","","","","0","1","0","","0.8509010271","0.4","0.2","0.6","0.8","0.8144386017","0.8509010271","0.4895331913","0.7129200786","","","","","","","","","","","","","","74","J","1","","","149","main_expt",""
"","bandit","229","768581","0.0-191.0-0.0","22701897","wem/bandit_party_2","A1V77062YB882H","either","8","415","","","","","","","0","1","0","","0.8298908313","0.4","0.2","0.6","0.8","0.6948055455","0.8298908313","0.4704746919","0.705531668","","","","","","","","","","","","","","74","J","1","","","150","main_expt",""
"","bandit","230","770588","0.0-192.0-0.0","22701897","wem/bandit_party_2","A1V77062YB882H","either","8","495","","","","","","","0","1","0","","0.7362749002","0.4","0.2","0.6","0.8","0.6231991314","0.7362749002","0.4725745774","0.5744604188","","","","","","","","","","","","","","74","J","1","","","151","main_expt",""
"","bandit","231","772522","0.0-193.0-0.0","22701897","wem/bandit_party_2","A1V77062YB882H","either","8","419","","","","","","","0","1","0","","0.7601791643","0.4","0.2","0.6","0.8","0.7045057733","0.7601791643","0.4943906398","0.5372669321","","","","","","","","","","","","","","74","J","1","","","152","main_expt",""
"","bandit","232","774461","0.0-194.0-0.0","22701897","wem/bandit_party_2","A1V77062YB882H","either","8","424","","","","","","","0","0","1","","0.7590648118","0.4","0.2","0.6","0.8","0.5331338622","0.7590648118","0.4639524782","0.5447545218","","","","","","","","","","","","","","74","J","1","","","153","main_expt",""
"","bandit","233","776381","0.0-195.0-0.0","22701897","wem/bandit_party_2","A1V77062YB882H","either","8","405","","","","","","","1","0","0","0.3935792086","","0.4","0.2","0.6","0.8","","","","","0.5096720896","0.7805387907","0.3935792086","0.4191749193","","","","","","","","","","75","K","2","","","154","main_expt",""
"","bandit","234","778332","0.0-196.0-0.0","22701897","wem/bandit_party_2","A1V77062YB882H","either","8","439","","","","","","","0","0","1","","0.4127348605","0.4","0.2","0.6","0.8","0.4719011365","0.8450805748","0.4127348605","0.4269770229","","","","","","","","","","","","","","75","K","2","","","155","main_expt",""
"","bandit","235","780241","0.0-197.0-0.0","22701897","wem/bandit_party_2","A1V77062YB882H","either","8","395","","","","","","","0","0","1","0.4589862704","","0.4","0.2","0.6","0.8","","","","","0.5818713095","0.8513110265","0.3697675558","0.4589862704","","","","","","","","","","76","L","3","","","156","main_expt",""
"","bandit","236","782100","0.0-198.0-0.0","22701897","wem/bandit_party_2","A1V77062YB882H","either","8","346","","","","","","","0","1","0","","0.8226236001","0.4","0.2","0.6","0.8","0.5804022203","0.8226236001","0.3604398023","0.5370818316","","","","","","","","","","","","","","74","J","1","","","157","main_expt",""
"","bandit","237","784107","0.0-199.0-0.0","22701897","wem/bandit_party_2","A1V77062YB882H","either","8","496","","","","","","","0","1","0","","0.8843141367","0.4","0.2","0.6","0.8","0.4773166223","0.8843141367","0.4061750625","0.4757376888","","","","","","","","","","","","","","74","J","1","","","158","main_expt",""
"","bandit","238","786052","0.0-200.0-0.0","22701897","wem/bandit_party_2","A1V77062YB882H","either","8","430","","","","","","","1","0","0","0.8078798749","","0.4","0.2","0.6","0.8","","","","","0.419048585","0.8078798749","0.4696417586","0.4887287223","","","","","","","","","","74","J","1","","","159","main_expt",""
"","bandit","239","787996","0.0-201.0-0.0","22701897","wem/bandit_party_2","A1V77062YB882H","either","8","429","","","","","","","0","1","0","","0.7689164465","0.4","0.2","0.6","0.8","0.4672574386","0.7689164465","0.4659569923","0.4588489809","","","","","","","","","","","","","","74","J","1","","","160","main_expt",""
"","bandit","240","789964","0.0-202.0-0.0","22701897","wem/bandit_party_2","A1V77062YB882H","either","8","456","","","","","","","0","0","1","","0.7863156869","0.4","0.2","0.6","0.8","0.5612985374","0.7863156869","0.3947207546","0.4920004413","","","","","","","","","","","","","","74","J","1","","","161","main_expt",""
"","bandit","241","792100","0.0-203.0-0.0","22701897","wem/bandit_party_2","A1V77062YB882H","either","8","620","","","","","","","0","1","0","","0.8098475403","0.4","0.2","0.6","0.8","0.5288680036","0.8098475403","0.2460097942","0.5389881207","","","","","","","","","","","","","","74","J","1","","","162","main_expt",""
"","bandit","242","794096","0.0-204.0-0.0","22701897","wem/bandit_party_2","A1V77062YB882H","either","8","482","","","","","","","0","1","0","","0.8222712862","0.4","0.2","0.6","0.8","0.6096883849","0.8222712862","0.3603606056","0.6040136001","","","","","","","","","","","","","","74","J","1","","","163","main_expt",""
"","bandit","243","796041","0.0-205.0-0.0","22701897","wem/bandit_party_2","A1V77062YB882H","either","8","429","","","","","","","0","1","0","","0.7876031225","0.4","0.2","0.6","0.8","0.4868922288","0.7876031225","0.2507209727","0.623756827","","","","","","","","","","","","","","74","J","1","","","164","main_expt",""
"","bandit","244","798037","0.0-206.0-0.0","22701897","wem/bandit_party_2","A1V77062YB882H","either","8","485","","","","","","","0","1","0","","0.7435052823","0.4","0.2","0.6","0.8","0.4055552053","0.7435052823","0.2162043423","0.6164515281","","","","","","","","","","","","","","74","J","1","","","165","main_expt",""
"","bandit","245","800022","0.0-207.0-0.0","22701897","wem/bandit_party_2","A1V77062YB882H","either","8","468","","","","","","","0","1","0","","0.6545739251","0.4","0.2","0.6","0.8","0.4748236382","0.6545739251","0.2573409732","0.4660222187","","","","","","","","","","","","","","74","J","1","","","166","main_expt",""
"","bandit","246","801944","0.0-208.0-0.0","22701897","wem/bandit_party_2","A1V77062YB882H","either","8","408","","","","","","","0","1","0","","0.6645907447","0.4","0.2","0.6","0.8","0.4725242185","0.6645907447","0.4016088623","0.3336058786","","","","","","","","","","","","","","74","J","1","","","167","main_expt",""
"","bandit","247","803865","0.0-209.0-0.0","22701897","wem/bandit_party_2","A1V77062YB882H","either","8","406","","","","","","","0","1","0","","0.7243751722","0.4","0.2","0.6","0.8","0.4775208721","0.7243751722","0.5522858252","0.2887723434","","","","","","","","","","","","","","74","J","1","","","168","main_expt",""
"","bandit","248","805838","0.0-210.0-0.0","22701897","wem/bandit_party_2","A1V77062YB882H","either","8","456","","","","","","","0","1","0","","0.6453105543","0.4","0.2","0.6","0.8","0.4682732781","0.6453105543","0.5461138513","0.3357056981","","","","","","","","","","","","","","74","J","1","","","169","main_expt",""
"","bandit","249","807720","0.0-211.0-0.0","22701897","wem/bandit_party_2","A1V77062YB882H","either","8","367","","","","","","","0","1","0","","0.5334010147","0.4","0.2","0.6","0.8","0.4246621539","0.5334010147","0.4402798015","0.4179693295","","","","","","","","","","","","","","74","J","1","","","170","main_expt",""
"","bandit","250","809646","0.0-212.0-0.0","22701897","wem/bandit_party_2","A1V77062YB882H","either","8","411","","","","","","","0","0","1","0.498122785","","0.4","0.2","0.6","0.8","","","","","0.2843380906","0.498122785","0.450294849","0.3050406521","","","","","","","","","","74","J","1","","","171","main_expt",""
"","bandit","251","811625","0.0-213.0-0.0","22701897","wem/bandit_party_2","A1V77062YB882H","either","8","462","","","","","","","0","0","1","","0.4356988635","0.4","0.2","0.6","0.8","0.2668952485","0.4356988635","0.6475755847","0.3364500029","","","","","","","","","","","","","","74","J","1","","","172","main_expt",""
"","bandit","252","813540","0.0-214.0-0.0","22701897","wem/bandit_party_2","A1V77062YB882H","either","8","402","","","","","","","0","0","1","0.3802819164","","0.4","0.2","0.6","0.8","","","","","0.3802819164","0.3964199688","0.6095255177","0.421339117","","","","","","","","","","72","H","0","img/none_selected.jpg","","173","main_expt",""
"","bandit","253","815380","0.0-215.0-0.0","22701897","wem/bandit_party_2","A1V77062YB882H","either","8","326","","","","","","","0","0","1","","0.5003628493","0.4","0.2","0.6","0.8","0.4042455133","0.3194345802","0.5003628493","0.4913704717","","","","","","","","","","","","","","75","K","2","","","174","main_expt",""
"","bandit","254","817307","0.0-216.0-0.0","22701897","wem/bandit_party_2","A1V77062YB882H","either","8","412","","","","","","","1","0","0","0.5882611891","","0.4","0.2","0.6","0.8","","","","","0.4393989914","0.2865230234","0.5576212716","0.5882611891","","","","","","","","","","76","L","3","","","175","main_expt",""
"","bandit","255","819263","0.0-217.0-0.0","22701897","wem/bandit_party_2","A1V77062YB882H","either","8","438","","","","","","","0","0","1","0.6313830356","","0.4","0.2","0.6","0.8","","","","","0.4705173801","0.3352692614","0.6230679906","0.6313830356","","","","","","","","","","76","L","3","","","176","main_expt",""
"","bandit","256","821173","0.0-218.0-0.0","22701897","wem/bandit_party_2","A1V77062YB882H","either","8","394","","","","","","","0","0","1","","0.3389264817","0.4","0.2","0.6","0.8","0.4698597734","0.3389264817","0.6501784685","0.5531265137","","","","","","","","","","","","","","74","J","1","","","177","main_expt",""
"","bandit","257","823083","0.0-219.0-0.0","22701897","wem/bandit_party_2","A1V77062YB882H","either","8","396","","","","","","","0","1","0","","0.6334155083","0.4","0.2","0.6","0.8","0.3570804947","0.3709673039","0.6334155083","0.4621004187","","","","","","","","","","","","","","75","K","2","","","178","main_expt",""
"","bandit","258","825085","0.0-220.0-0.0","22701897","wem/bandit_party_2","A1V77062YB882H","either","8","484","","","","","","","1","0","0","0.7548338289","","0.4","0.2","0.6","0.8","","","","","0.3441184995","0.2940579202","0.7548338289","0.512884041","","","","","","","","","","75","K","2","","","179","main_expt",""
"","bandit","259","827047","0.0-221.0-0.0","22701897","wem/bandit_party_2","A1V77062YB882H","either","8","446","","","","","","","1","0","0","0.8074073351","","0.4","0.2","0.6","0.8","","","","","0.3646136501","0.3218724025","0.8074073351","0.506744284","","","","","","","","","","75","K","2","","","180","main_expt",""
"","bandit","260","828939","0.0-222.0-0.0","22701897","wem/bandit_party_2","A1V77062YB882H","either","8","377","","","","","","","1","0","0","0.780721516","","0.4","0.2","0.6","0.8","","","","","0.3777688814","0.3633286182","0.780721516","0.4556494723","","","","","","","","","","75","K","2","","","181","main_expt",""
"","bandit","261","830854","0.0-223.0-0.0","22701897","wem/bandit_party_2","A1V77062YB882H","either","8","403","","","","","","","1","0","0","0.7647415088","","0.4","0.2","0.6","0.8","","","","","0.4578236703","0.3324048704","0.7647415088","0.4494525508","","","","","","","","","","75","K","2","","","182","main_expt",""
"","bandit","262","832775","0.0-224.0-0.0","22701897","wem/bandit_party_2","A1V77062YB882H","either","8","405","","","","","","","0","1","0","","0.7349307529","0.4","0.2","0.6","0.8","0.4244895098","0.3092830871","0.7349307529","0.5189143621","","","","","","","","","","","","","","75","K","2","","","183","main_expt",""
"","bandit","263","834697","0.0-225.0-0.0","22701897","wem/bandit_party_2","A1V77062YB882H","either","8","409","","","","","","","0","1","0","","0.8298088288","0.4","0.2","0.6","0.8","0.3566779322","0.3905692936","0.8298088288","0.5167606333","","","","","","","","","","","","","","75","K","2","","","184","main_expt",""
"","bandit","264","836629","0.0-226.0-0.0","22701897","wem/bandit_party_2","A1V77062YB882H","either","8","415","","","","","","","0","1","0","","0.7894193193","0.4","0.2","0.6","0.8","0.3737416658","0.4626192444","0.7894193193","0.5270237034","","","","","","","","","","","","","","75","K","2","","","185","main_expt",""
"","bandit","265","838574","0.0-227.0-0.0","22701897","wem/bandit_party_2","A1V77062YB882H","either","8","428","","","","","","","1","0","0","0.7665022487","","0.4","0.2","0.6","0.8","","","","","0.3120176694","0.6061762586","0.7665022487","0.5556036571","","","","","","","","","","75","K","2","","","186","main_expt",""
"","bandit","266","840478","0.0-228.0-0.0","22701897","wem/bandit_party_2","A1V77062YB882H","either","8","391","","","","","","","0","1","0","","0.7394266891","0.4","0.2","0.6","0.8","0.4134691065","0.530958695","0.7394266891","0.5865134094","","","","","","","","","","","","","","75","K","2","","","187","main_expt",""
"","bandit","267","842410","0.0-229.0-0.0","22701897","wem/bandit_party_2","A1V77062YB882H","either","8","420","","","","","","","0","1","0","","0.6567361442","0.4","0.2","0.6","0.8","0.4637770407","0.380024655","0.6567361442","0.5034866795","","","","","","","","","","","","","","75","K","2","","","188","main_expt",""
"","bandit","268","844285","0.0-230.0-0.0","22701897","wem/bandit_party_2","A1V77062YB882H","either","8","359","","","","","","","1","0","0","0.6572443956","","0.4","0.2","0.6","0.8","","","","","0.5739034088","0.4563575644","0.6572443956","0.5761715841","","","","","","","","","","75","K","2","","","189","main_expt",""
"","bandit","269","846154","0.0-231.0-0.0","22701897","wem/bandit_party_2","A1V77062YB882H","either","8","353","","","","","","","1","0","0","0.6735764162","","0.4","0.2","0.6","0.8","","","","","0.5859504021","0.4540853102","0.6735764162","0.5325489933","","","","","","","","","","75","K","2","","","190","main_expt",""
"","bandit","270","848098","0.0-232.0-0.0","22701897","wem/bandit_party_2","A1V77062YB882H","either","8","428","","","","","","","1","0","0","0.5997518312","","0.4","0.2","0.6","0.8","","","","","0.5325822721","0.4328006462","0.5997518312","0.5614919892","","","","","","","","","","75","K","2","","","191","main_expt",""
"","bandit","271","850026","0.0-233.0-0.0","22701897","wem/bandit_party_2","A1V77062YB882H","either","8","414","","","","","","","1","0","0","0.6582178794","","0.4","0.2","0.6","0.8","","","","","0.4622441745","0.4979354652","0.6582178794","0.5972832049","","","","","","","","","","75","K","2","","","192","main_expt",""
"","bandit","272","851912","0.0-234.0-0.0","22701897","wem/bandit_party_2","A1V77062YB882H","either","8","374","","","","","","","0","0","1","0.7246172867","","0.4","0.2","0.6","0.8","","","","","0.4765036663","0.4887187701","0.7246172867","0.6997951875","","","","","","","","","","75","K","2","","","193","main_expt",""
"","bandit","273","853949","0.0-235.0-0.0","22701897","wem/bandit_party_2","A1V77062YB882H","either","8","524","","","","","","","1","0","0","0.7721250451","","0.4","0.2","0.6","0.8","","","","","0.4504155567","0.4993882896","0.7721250451","0.7511051992","","","","","","","","","","75","K","2","","","194","main_expt",""
"","bandit","274","855923","0.0-236.0-0.0","22701897","wem/bandit_party_2","A1V77062YB882H","either","8","460","","","","","","","0","1","0","","0.8366496483","0.4","0.2","0.6","0.8","0.4354252764","0.5011331455","0.8366496483","0.8281457055","","","","","","","","","","","","","","75","K","2","","","195","main_expt",""
"","bandit","275","857919","0.0-237.0-0.0","22701897","wem/bandit_party_2","A1V77062YB882H","either","8","478","","","","","","","0","1","0","","0.8484646997","0.4","0.2","0.6","0.8","0.4170899215","0.4487960683","0.8484646997","0.8248544968","","","","","","","","","","","","","","75","K","2","","","196","main_expt",""
"","bandit","276","859812","0.0-238.0-0.0","22701897","wem/bandit_party_2","A1V77062YB882H","either","8","375","","","","","","","1","0","0","0.8734060335","","0.4","0.2","0.6","0.8","","","","","0.4149059055","0.3975590019","0.8734060335","0.8532714289","","","","","","","","","","75","K","2","","","197","main_expt",""
"","bandit","277","861715","0.0-239.0-0.0","22701897","wem/bandit_party_2","A1V77062YB882H","either","8","391","","","","","","","0","1","0","","0.8515360685","0.4","0.2","0.6","0.8","0.4737306044","0.4161601929","0.8515360685","0.7587337752","","","","","","","","","","","","","","75","K","2","","","198","main_expt",""
"","bandit","278","863619","0.0-240.0-0.0","22701897","wem/bandit_party_2","A1V77062YB882H","either","8","389","","","","","","","1","0","0","0.8805923715","","0.4","0.2","0.6","0.8","","","","","0.4541760911","0.4483979408","0.8805923715","0.8124408481","","","","","","","","","","75","K","2","","","199","main_expt",""
"","bandit","279","865668","0.0-241.0-0.0","22701897","wem/bandit_party_2","A1V77062YB882H","either","8","534","","","","","","","1","0","0","0.9645818821","","0.4","0.2","0.6","0.8","","","","","0.3964714959","0.5303380975","0.9645818821","0.7935778268","","","","","","","","","","75","K","2","","","200","main_expt",""
"","bandit","280","867875","0.0-242.0-0.0","22701897","wem/bandit_party_2","A1V77062YB882H","either","8","689","","","","","","","0","1","0","","0.9689478708","0.4","0.2","0.6","0.8","0.3815447649","0.4014045657","0.9689478708","0.736942723","","","","","","","","","","","","","","75","K","2","","","201","main_expt",""
"","bandit","281","870625","0.0-243.0-0.0","22701897","wem/bandit_party_2","A1V77062YB882H","either","8","1235","","","","","","","1","0","0","0.9678291885","","0.4","0.2","0.6","0.8","","","","","0.3726367513","0.5115169607","0.9678291885","0.7001951276","","","","","","","","","","75","K","2","","","202","main_expt",""
"","bandit","282","872581","0.0-244.0-0.0","22701897","wem/bandit_party_2","A1V77062YB882H","either","8","443","","","","","","","0","1","0","","0.9633244117","0.4","0.2","0.6","0.8","0.3062653216","0.5026191452","0.9633244117","0.7209300446","","","","","","","","","","","","","","75","K","2","","","203","main_expt",""
"","bandit","283","874566","0.0-245.0-0.0","22701897","wem/bandit_party_2","A1V77062YB882H","either","8","469","","","","","","","1","0","0","0.9730812582","","0.4","0.2","0.6","0.8","","","","","0.2848501254","0.4736298566","0.9730812582","0.8574132932","","","","","","","","","","75","K","2","","","204","main_expt",""
"","bandit","284","876682","0.0-246.0-0.0","22701897","wem/bandit_party_2","A1V77062YB882H","either","8","605","","","","","","","1","0","0","0.9521206422","","0.4","0.2","0.6","0.8","","","","","0.3457586416","0.6121858428","0.9521206422","0.9038760074","","","","","","","","","","75","K","2","","","205","main_expt",""
"","bandit","285","878606","0.0-247.0-0.0","22701897","wem/bandit_party_2","A1V77062YB882H","either","8","408","","","","","","","0","1","0","","0.9614764056","0.4","0.2","0.6","0.8","0.4609097875","0.6377028942","0.9614764056","0.9273356803","","","","","","","","","","","","","","75","K","2","","","206","main_expt",""
"","bandit","286","880881","0.0-248.0-0.0","22701897","wem/bandit_party_2","A1V77062YB882H","either","8","759","","","","","","","0","1","0","","0.9625830716","0.4","0.2","0.6","0.8","0.4980316736","0.5700483165","0.9625830716","0.9502037039","","","","","","","","","","","","","","75","K","2","","","207","main_expt",""
"","bandit","287","883082","0.0-249.0-0.0","22701897","wem/bandit_party_2","A1V77062YB882H","either","8","687","","","","","","","1","0","0","0.9359306517","","0.4","0.2","0.6","0.8","","","","","0.4537691537","0.624428721","0.9359306517","0.944094639","","","","","","","","","","75","K","2","","","208","main_expt",""
"","bandit","288","885489","0.0-250.0-0.0","22701897","wem/bandit_party_2","A1V77062YB882H","either","8","888","","","","","","","0","1","0","","0.9632917203","0.4","0.2","0.6","0.8","0.4475842875","0.4861871301","0.9632917203","0.9070839441","","","","","","","","","","","","","","75","K","2","","","209","main_expt",""
"","bandit","289","887440","0.0-251.0-0.0","22701897","wem/bandit_party_2","A1V77062YB882H","either","8","432","","","","","","","1","0","0","0.9633226214","","0.4","0.2","0.6","0.8","","","","","0.4803454055","0.3956361612","0.9633226214","0.8960653589","","","","","","","","","","75","K","2","","","210","main_expt",""
"","bandit","290","889442","0.0-252.0-0.0","22701897","wem/bandit_party_2","A1V77062YB882H","either","8","488","","","","","","","1","0","0","0.9719781217","","0.4","0.2","0.6","0.8","","","","","0.4126443349","0.3599204452","0.9719781217","0.9155455821","","","","","","","","","","75","K","2","","","211","main_expt",""
"","bandit","291","891741","0.0-253.0-0.0","22701897","wem/bandit_party_2","A1V77062YB882H","either","8","784","","","","","","","0","1","0","","0.9700781686","0.4","0.2","0.6","0.8","0.3384802849","0.3349000901","0.9700781686","0.9087954588","","","","","","","","","","","","","","75","K","2","","","212","main_expt",""
"","bandit","292","894259","0.0-254.0-0.0","22701897","wem/bandit_party_2","A1V77062YB882H","either","8","1004","","","","","","","0","1","0","","0.971165811","0.4","0.2","0.6","0.8","0.3039242722","0.3183344176","0.971165811","0.8528540962","","","","","","","","","","","","","","75","K","2","","","213","main_expt",""
"","bandit","293","896198","0.0-255.0-0.0","22701897","wem/bandit_party_2","A1V77062YB882H","either","8","425","","","","","","","1","0","0","0.9627117","","0.4","0.2","0.6","0.8","","","","","0.4541530846","0.2390758011","0.9627117","0.8506041988","","","","","","","","","","75","K","2","","","214","main_expt",""
"","bandit","294","898131","0.0-256.0-0.0","22701897","wem/bandit_party_2","A1V77062YB882H","either","8","417","","","","","","","1","0","0","0.9552130497","","0.4","0.2","0.6","0.8","","","","","0.5101749692","0.1997060473","0.9552130497","0.8001829978","","","","","","","","","","75","K","2","","","215","main_expt",""
"","bandit","295","900058","0.0-257.0-0.0","22701897","wem/bandit_party_2","A1V77062YB882H","either","8","409","","","","","","","1","0","0","0.9220350188","","0.4","0.2","0.6","0.8","","","","","0.5580520347","0.2326539104","0.9220350188","0.733614842","","","","","","","","","","75","K","2","","","216","main_expt",""
"","bandit","296","902055","0.0-258.0-0.0","22701897","wem/bandit_party_2","A1V77062YB882H","either","8","482","","","","","","","0","0","1","0.8736667029","","0.4","0.2","0.6","0.8","","","","","0.4368451062","0.2319826337","0.8736667029","0.7479737912","","","","","","","","","","75","K","2","","","217","main_expt",""
"","bandit","297","904376","0.0-259.0-0.0","22701897","wem/bandit_party_2","A1V77062YB882H","either","8","809","","","","","","","1","0","0","0.7602784417","","0.4","0.2","0.6","0.8","","","","","0.3963441813","0.3143382807","0.7602784417","0.7713398237","","","","","","","","","","75","K","2","","","218","main_expt",""
"","bandit","298","906518","0.0-260.0-0.0","22701897","wem/bandit_party_2","A1V77062YB882H","either","8","627","","","","","","","1","0","0","0.7643050859","","0.4","0.2","0.6","0.8","","","","","0.4809426617","0.3304972923","0.7643050859","0.8077055691","","","","","","","","","","75","K","2","","","219","main_expt",""
"","bandit","299","908629","0.0-261.0-0.0","22701897","wem/bandit_party_2","A1V77062YB882H","either","8","592","","","","","","","0","1","0","","0.7793587236","0.4","0.2","0.6","0.8","0.397759556","0.2866104843","0.7793587236","0.7778114837","","","","","","","","","","","","","","75","K","2","","","220","main_expt",""
"","bandit","300","910851","0.0-262.0-0.0","22701897","wem/bandit_party_2","A1V77062YB882H","either","8","706","","","","","","","0","1","0","","0.82086311","0.4","0.2","0.6","0.8","0.4087677593","0.3602561646","0.82086311","0.7214198583","","","","","","","","","","","","","","75","K","2","","","221","main_expt",""
"","bandit","301","913030","0.0-263.0-0.0","22701897","wem/bandit_party_2","A1V77062YB882H","either","8","664","","","","","","","1","0","0","0.8543662658","","0.4","0.2","0.6","0.8","","","","","0.4561280915","0.3228749062","0.8543662658","0.8091526303","","","","","","","","","","75","K","2","","","222","main_expt",""
"","bandit","302","915253","0.0-264.0-0.0","22701897","wem/bandit_party_2","A1V77062YB882H","either","8","709","","","","","","","1","0","0","0.8599459829","","0.4","0.2","0.6","0.8","","","","","0.4419858618","0.2549485676","0.8599459829","0.8240838469","","","","","","","","","","75","K","2","","","223","main_expt",""
"","bandit","303","917865","0.0-265.0-0.0","22701897","wem/bandit_party_2","A1V77062YB882H","either","8","1096","","","","","","","1","0","0","0.8747991669","","0.4","0.2","0.6","0.8","","","","","0.494409337","0.2389333491","0.8747991669","0.7670685714","","","","","","","","","","75","K","2","","","224","main_expt",""
"","bandit","304","919903","0.0-266.0-0.0","22701897","wem/bandit_party_2","A1V77062YB882H","either","8","520","","","","","","","1","0","0","0.7910409491","","0.4","0.2","0.6","0.8","","","","","0.3713348049","0.1517307125","0.7910409491","0.8775689376","","","","","","","","","","75","K","2","","","225","main_expt",""
"","bandit","305","922155","0.0-267.0-0.0","22701897","wem/bandit_party_2","A1V77062YB882H","either","8","741","","","","","","","0","0","1","","0.7212928749","0.4","0.2","0.6","0.8","0.4013452417","0.1002450003","0.7212928749","0.8846504348","","","","","","","","","","","","","","75","K","2","","","226","main_expt",""
"","bandit","306","924184","0.0-268.0-0.0","22701897","wem/bandit_party_2","A1V77062YB882H","either","8","514","","","","","","","1","0","0","0.7090989562","","0.4","0.2","0.6","0.8","","","","","0.393451628","0.1049945928","0.7090989562","0.851087938","","","","","","","","","","75","K","2","","","227","main_expt",""
"","bandit","307","926246","0.0-269.0-0.0","22701897","wem/bandit_party_2","A1V77062YB882H","either","8","545","","","","","","","0","1","0","","0.6606736223","0.4","0.2","0.6","0.8","0.4175844788","0.03915988122","0.6606736223","0.9074720337","","","","","","","","","","","","","","75","K","2","","","228","main_expt",""
"","bandit","308","928284","0.0-270.0-0.0","22701897","wem/bandit_party_2","A1V77062YB882H","either","8","519","","","","","","","0","1","0","","0.6893924153","0.4","0.2","0.6","0.8","0.408368909","0.03767516843","0.6893924153","0.872332114","","","","","","","","","","","","","","75","K","2","","","229","main_expt",""
"","bandit","309","930327","0.0-271.0-0.0","22701897","wem/bandit_party_2","A1V77062YB882H","either","8","530","","","","","","","0","1","0","","0.6067604319","0.4","0.2","0.6","0.8","0.4777699032","0.05804790214","0.6067604319","0.7967167456","","","","","","","","","","","","","","75","K","2","","","230","main_expt",""
"","bandit","310","932335","0.0-272.0-0.0","22701897","wem/bandit_party_2","A1V77062YB882H","either","8","491","","","","","","","0","0","1","0.5037419277","","0.4","0.2","0.6","0.8","","","","","0.4935442242","0.04963095007","0.5037419277","0.7760618079","","","","","","","","","","75","K","2","","","231","main_expt",""
"","bandit","311","935034","0.0-273.0-0.0","22701897","wem/bandit_party_2","A1V77062YB882H","either","8","1183","","","","","","","0","0","1","","0.03759782928","0.4","0.2","0.6","0.8","0.4889590317","0.03759782928","0.4339479185","0.7765467853","","","","","","","","","","","","","","74","J","1","","","232","main_expt",""
"","bandit","312","937037","0.0-274.0-0.0","22701897","wem/bandit_party_2","A1V77062YB882H","either","8","485","","","","","","","0","1","0","","0.4525546635","0.4","0.2","0.6","0.8","0.5212294662","0.03147013274","0.4525546635","0.7895219362","","","","","","","","","","","","","","75","K","2","","","233","main_expt",""
"","bandit","313","939122","0.0-275.0-0.0","22701897","wem/bandit_party_2","A1V77062YB882H","either","8","567","","","","","","","0","0","1","0.3680080929","","0.4","0.2","0.6","0.8","","","","","0.4420617392","0.03547440544","0.3680080929","0.7491899586","","","","","","","","","","75","K","2","","","234","main_expt",""
"","bandit","314","941135","0.0-276.0-0.0","22701897","wem/bandit_party_2","A1V77062YB882H","either","8","496","","","","","","","1","0","0","0.7397351474","","0.4","0.2","0.6","0.8","","","","","0.4816955248","0.04486782706","0.3416373547","0.7397351474","","","","","","","","","","76","L","3","","","235","main_expt",""
"","bandit","315","943178","0.0-277.0-0.0","22701897","wem/bandit_party_2","A1V77062YB882H","either","8","529","","","","","","","0","1","0","","0.6587673302","0.4","0.2","0.6","0.8","0.3028121716","0.03122339122","0.3722877153","0.6587673302","","","","","","","","","","","","","","76","L","3","","","236","main_expt",""
"","bandit","316","945163","0.0-278.0-0.0","22701897","wem/bandit_party_2","A1V77062YB882H","either","8","472","","","","","","","1","0","0","0.7534934878","","0.4","0.2","0.6","0.8","","","","","0.3802502189","0.04191117605","0.3081002542","0.7534934878","","","","","","","","","","76","L","3","","","237","main_expt",""
"","bandit","317","947252","0.0-279.0-0.0","22701897","wem/bandit_party_2","A1V77062YB882H","either","8","575","","","","","","","0","1","0","","0.8023031038","0.4","0.2","0.6","0.8","0.4160754302","0.06367740527","0.2546656634","0.8023031038","","","","","","","","","","","","","","76","L","3","","","238","main_expt",""
"","bandit","318","949225","0.0-280.0-0.0","22701897","wem/bandit_party_2","A1V77062YB882H","either","8","458","","","","","","","0","0","1","0.8333986962","","0.4","0.2","0.6","0.8","","","","","0.3510440385","0.06315957527","0.3038323055","0.8333986962","","","","","","","","","","76","L","3","","","239","main_expt",""
