"consent","trial_type","trial_index","time_elapsed","internal_node_id","subjID","study","MID","cond","drift","rt","responses","button_pressed","key_press","like","value","connected","gems","bombs","no_reward","GemPrChosen","BombPrChosen","GainOverPainPr_0","GainOverPainPr_1","GainOverPainPr_2","GainOverPainPr_3","LosePr_0","LosePr_1","LosePr_2","LosePr_3","WinPr_0","WinPr_1","WinPr_2","WinPr_3","Q0","Q1","Q2","gender","age","ethnicity","label","expt_phase","target","respCharCode","respKey","respChoiceNum","respChoice","practice","trial_counter","trial_label","Q0_index"
"GDM/GDM_behavioral_consent_30min_online.html","consent","0","7947","0.0-0.0","22713938","wem/bandit_party_2","AESEZX8S7Z3IC","either","1","","","","","","","","","","","","","","","","","","","","","","","","","","","","","","","","","","","","","","","","",""
"","survey-text","1","12120","0.0-1.0","22713938","wem/bandit_party_2","AESEZX8S7Z3IC","either","1","3155","{""Q0"":""AESEZX8S7Z3IC""}","","","","","","","","","","","","","","","","","","","","","","","","","","","","","","","","","","","","","","",""
"","button-response","2","15249","0.0-2.0","22713938","wem/bandit_party_2","AESEZX8S7Z3IC","either","1","2122","","0","","","","","","","","","","","","","","","","","","","","","","","","","","","","","","","","","","","","","",""
"","text-replacement","3","24224","0.0-3.0","22713938","wem/bandit_party_2","AESEZX8S7Z3IC","either","1","7969","","","32","","","","","","","","","","","","","","","","","","","","","","","","","","","","","","","","","","","","",""
"","text-replacement","4","30237","0.0-4.0","22713938","wem/bandit_party_2","AESEZX8S7Z3IC","either","1","6009","","","32","","","","","","","","","","","","","","","","","","","","","","","","","","","","","","","","","","","","",""
"","identification","5","35641","0.0-6.0-0.0","22713938","wem/bandit_party_2","AESEZX8S7Z3IC","either","1","5378","","","","0","1","1","","","","","","","","","","","","","","","","","","","","","","","","pre","identification_pre","the Republican Party","","","","","","","",""
"","identification","6","40780","0.0-6.0-1.0","22713938","wem/bandit_party_2","AESEZX8S7Z3IC","either","1","4115","","","","1","2","1","","","","","","","","","","","","","","","","","","","","","","","","pre","identification_pre","the Democratic Party","","","","","","","",""
"","text-replacement","7","48906","0.0-7.0","22713938","wem/bandit_party_2","AESEZX8S7Z3IC","either","1","7124","","","32","","","","","","","","","","","","","","","","","","","","","","","","","","","","","","","","","","","","",""
"","text-replacement","8","52335","0.0-8.0","22713938","wem/bandit_party_2","AESEZX8S7Z3IC","either","1","3421","","","32","","","","","","","","","","","","","","","","","","","","","","","","","","","","","","","","","","","","",""
"","text-replacement","9","58322","0.0-9.0","22713938","wem/bandit_party_2","AESEZX8S7Z3IC","either","1","5984","","","32","","","","","","","","","","","","","","","","","","","","","","","","","","","","","","","","","","","","",""
"","text-replacement","10","64180","0.0-10.0","22713938","wem/bandit_party_2","AESEZX8S7Z3IC","either","1","5855","","","32","","","","","","","","","","","","","","","","","","","","","","","","","","","","","","","","","","","","",""
"","text-replacement","11","68633","0.0-11.0","22713938","wem/bandit_party_2","AESEZX8S7Z3IC","either","1","4452","","","32","","","","","","","","","","","","","","","","","","","","","","","","","","","","","","","","","","","","",""
"","bandit","12","72460","0.0-12.0-0.0","22713938","wem/bandit_party_2","AESEZX8S7Z3IC","either","1","2322","","","","","","","0","0","1","0","0","","","","","0","","","","0","","","","","","","","","","","","","74","J","0","img/none_selected_demo.jpg","true","0","",""
"","bandit","13","75232","0.0-13.0-0.0","22713938","wem/bandit_party_2","AESEZX8S7Z3IC","either","1","1264","","","","","","","0","0","1","0","0","","","","","0","","","","0","","","","","","","","","","","","","75","K","0","img/none_selected_demo.jpg","true","0","",""
"","text-replacement","14","80192","0.0-14.0","22713938","wem/bandit_party_2","AESEZX8S7Z3IC","either","1","4958","","","32","","","","","","","","","","","","","","","","","","","","","","","","","","","","","","","","","","","","",""
"","text-replacement","15","84604","0.0-15.0","22713938","wem/bandit_party_2","AESEZX8S7Z3IC","either","1","4410","","","32","","","","","","","","","","","","","","","","","","","","","","","","","","","","","","","","","","","","",""
"","text-replacement","16","92215","0.0-16.0","22713938","wem/bandit_party_2","AESEZX8S7Z3IC","either","1","7610","","","32","","","","","","","","","","","","","","","","","","","","","","","","","","","","","","","","","","","","",""
"","text-replacement","17","94991","0.0-17.0","22713938","wem/bandit_party_2","AESEZX8S7Z3IC","either","1","2772","","","32","","","","","","","","","","","","","","","","","","","","","","","","","","","","","","","","","","","","",""
"","bandit","18","97409","0.0-18.0-0.0","22713938","wem/bandit_party_2","AESEZX8S7Z3IC","either","1","909","","","","","","","1","0","0","0.8","","0.5","0.5","","","","","","","0.8","0.2","","","","","","","","","","","","74","J","0","img/none_selected_demo.jpg","true","0","80_20_practice",""
"","bandit","19","99144","0.0-18.0-1.0","22713938","wem/bandit_party_2","AESEZX8S7Z3IC","either","1","226","","","","","","","1","0","0","0.8","","0.5","0.5","","","","","","","0.8","0.2","","","","","","","","","","","","74","J","0","img/none_selected_demo.jpg","true","0","80_20_practice",""
"","bandit","20","101164","0.0-18.0-2.0","22713938","wem/bandit_party_2","AESEZX8S7Z3IC","either","1","512","","","","","","","0","1","0","","0.8","0.5","0.5","","","0.8","0.2","","","","","","","","","","","","","","","","74","J","0","img/none_selected_demo.jpg","true","0","80_20_practice",""
"","bandit","21","103038","0.0-18.0-3.0","22713938","wem/bandit_party_2","AESEZX8S7Z3IC","either","1","363","","","","","","","0","1","0","","0.8","0.5","0.5","","","0.8","0.2","","","","","","","","","","","","","","","","74","J","0","img/none_selected_demo.jpg","true","0","80_20_practice",""
"","bandit","22","104897","0.0-18.0-4.0","22713938","wem/bandit_party_2","AESEZX8S7Z3IC","either","1","351","","","","","","","1","0","0","0.8","","0.5","0.5","","","","","","","0.8","0.2","","","","","","","","","","","","74","J","0","img/none_selected_demo.jpg","true","0","80_20_practice",""
"","bandit","23","106685","0.0-18.0-5.0","22713938","wem/bandit_party_2","AESEZX8S7Z3IC","either","1","280","","","","","","","0","0","1","","0.8","0.5","0.5","","","0.8","0.2","","","","","","","","","","","","","","","","74","J","0","img/none_selected_demo.jpg","true","0","80_20_practice",""
"","bandit","24","108726","0.0-18.0-6.0","22713938","wem/bandit_party_2","AESEZX8S7Z3IC","either","1","532","","","","","","","0","0","1","","0.8","0.5","0.5","","","0.8","0.2","","","","","","","","","","","","","","","","74","J","0","img/none_selected_demo.jpg","true","0","80_20_practice",""
"","bandit","25","110885","0.0-18.0-7.0","22713938","wem/bandit_party_2","AESEZX8S7Z3IC","either","1","653","","","","","","","0","1","0","","0.8","0.5","0.5","","","0.8","0.2","","","","","","","","","","","","","","","","74","J","0","img/none_selected_demo.jpg","true","0","80_20_practice",""
"","bandit","26","112543","0.0-18.0-8.0","22713938","wem/bandit_party_2","AESEZX8S7Z3IC","either","1","152","","","","","","","0","1","0","","0.8","0.5","0.5","","","0.8","0.2","","","","","","","","","","","","","","","","74","J","0","img/none_selected_demo.jpg","true","0","80_20_practice",""
"","bandit","27","114262","0.0-18.0-9.0","22713938","wem/bandit_party_2","AESEZX8S7Z3IC","either","1","213","","","","","","","0","0","1","","0.2","0.5","0.5","","","0.8","0.2","","","","","","","","","","","","","","","","75","K","1","","true","0","80_20_practice",""
"","bandit","28","116092","0.0-18.0-10.0","22713938","wem/bandit_party_2","AESEZX8S7Z3IC","either","1","320","","","","","","","0","0","1","0.2","","0.5","0.5","","","","","","","0.8","0.2","","","","","","","","","","","","75","K","1","","true","0","80_20_practice",""
"","bandit","29","117873","0.0-18.0-11.0","22713938","wem/bandit_party_2","AESEZX8S7Z3IC","either","1","273","","","","","","","0","0","1","0.2","","0.5","0.5","","","","","","","0.8","0.2","","","","","","","","","","","","75","K","1","","true","0","80_20_practice",""
"","bandit","30","119743","0.0-18.0-12.0","22713938","wem/bandit_party_2","AESEZX8S7Z3IC","either","1","362","","","","","","","0","0","1","0.2","","0.5","0.5","","","","","","","0.8","0.2","","","","","","","","","","","","75","K","1","","true","0","80_20_practice",""
"","bandit","31","121934","0.0-18.0-13.0","22713938","wem/bandit_party_2","AESEZX8S7Z3IC","either","1","686","","","","","","","0","0","1","","0.2","0.5","0.5","","","0.8","0.2","","","","","","","","","","","","","","","","75","K","1","","true","0","80_20_practice",""
"","bandit","32","123538","0.0-18.0-14.0","22713938","wem/bandit_party_2","AESEZX8S7Z3IC","either","1","100","","","","","","","0","0","1","","0.2","0.5","0.5","","","0.8","0.2","","","","","","","","","","","","","","","","75","K","1","","true","0","80_20_practice",""
"","bandit","33","125438","0.0-18.0-15.0","22713938","wem/bandit_party_2","AESEZX8S7Z3IC","either","1","397","","","","","","","0","0","1","","0.2","0.5","0.5","","","0.8","0.2","","","","","","","","","","","","","","","","75","K","1","","true","0","80_20_practice",""
"","bandit","34","127245","0.0-18.0-16.0","22713938","wem/bandit_party_2","AESEZX8S7Z3IC","either","1","300","","","","","","","0","0","1","","0.2","0.5","0.5","","","0.8","0.2","","","","","","","","","","","","","","","","75","K","1","","true","0","80_20_practice",""
"","bandit","35","129036","0.0-18.0-17.0","22713938","wem/bandit_party_2","AESEZX8S7Z3IC","either","1","287","","","","","","","0","0","1","","0.2","0.5","0.5","","","0.8","0.2","","","","","","","","","","","","","","","","75","K","1","","true","0","80_20_practice",""
"","bandit","36","130891","0.0-18.0-18.0","22713938","wem/bandit_party_2","AESEZX8S7Z3IC","either","1","350","","","","","","","0","1","0","","0.8","0.5","0.5","","","0.8","0.2","","","","","","","","","","","","","","","","74","J","0","img/none_selected_demo.jpg","true","0","80_20_practice",""
"","bandit","37","132589","0.0-18.0-19.0","22713938","wem/bandit_party_2","AESEZX8S7Z3IC","either","1","191","","","","","","","0","0","1","0.8","","0.5","0.5","","","","","","","0.8","0.2","","","","","","","","","","","","74","J","0","img/none_selected_demo.jpg","true","0","80_20_practice",""
"","text-replacement","38","139825","0.0-19.0","22713938","wem/bandit_party_2","AESEZX8S7Z3IC","either","1","7233","","","32","","","","","","","","","","","","","","","","","","","","","","","","","","","","","","","","","","","","",""
"","bandit","39","142124","0.0-20.0-0.0","22713938","wem/bandit_party_2","AESEZX8S7Z3IC","either","1","794","","","","","","","1","0","0","1","0","","","","","0","1","","","1","0","","","","","","","","","","","","74","J","0","img/none_selected_demo.jpg","true","0","",""
"","text-replacement","40","145171","0.0-21.0","22713938","wem/bandit_party_2","AESEZX8S7Z3IC","either","1","3045","","","32","","","","","","","","","","","","","","","","","","","","","","","","","","","","","","","","","","","","",""
"","text-replacement","41","147513","0.0-22.0","22713938","wem/bandit_party_2","AESEZX8S7Z3IC","either","1","2341","","","32","","","","","","","","","","","","","","","","","","","","","","","","","","","","","","","","","","","","",""
"","text-replacement","42","149578","0.0-23.0","22713938","wem/bandit_party_2","AESEZX8S7Z3IC","either","1","2061","","","32","","","","","","","","","","","","","","","","","","","","","","","","","","","","","","","","","","","","",""
"","text-replacement","43","152318","0.0-24.0","22713938","wem/bandit_party_2","AESEZX8S7Z3IC","either","1","2737","","","32","","","","","","","","","","","","","","","","","","","","","","","","","","","","","","","","","","","","",""
"","text-replacement","44","155504","0.0-25.0","22713938","wem/bandit_party_2","AESEZX8S7Z3IC","either","1","3183","","","32","","","","","","","","","","","","","","","","","","","","","","","","","","","","","","","","","","","","",""
"","text-replacement","45","157357","0.0-26.0","22713938","wem/bandit_party_2","AESEZX8S7Z3IC","either","1","1850","","","32","","","","","","","","","","","","","","","","","","","","","","","","","","","","","","","","","","","","",""
"","text-replacement","46","159164","0.0-27.0","22713938","wem/bandit_party_2","AESEZX8S7Z3IC","either","1","1804","","","32","","","","","","","","","","","","","","","","","","","","","","","","","","","","","","","","","","","","",""
"","text-replacement","47","161025","0.0-28.0","22713938","wem/bandit_party_2","AESEZX8S7Z3IC","either","1","1857","","","32","","","","","","","","","","","","","","","","","","","","","","","","","","","","","","","","","","","","",""
"","text-replacement","48","165822","0.0-29.0","22713938","wem/bandit_party_2","AESEZX8S7Z3IC","either","1","4797","","","32","","","","","","","","","","","","","","","","","","","","","","","","","","","","","","","","","","","","",""
"","text-replacement","49","166940","0.0-30.0","22713938","wem/bandit_party_2","AESEZX8S7Z3IC","either","1","1117","","","32","","","","","","","","","","","","","","","","","","","","","","","","","","","","","","","","","","","","",""
"","text-replacement","50","170701","0.0-31.0","22713938","wem/bandit_party_2","AESEZX8S7Z3IC","either","1","3759","","","32","","","","","","","","","","","","","","","","","","","","","","","","","","","","","","","","","","","","",""
"","bandit","51","172700","0.0-32.0-0.0","22713938","wem/bandit_party_2","AESEZX8S7Z3IC","either","1","489","","","","","","","0","1","0","","0.8","0.5","0.5","0.5","0.5","0.8","0.2","0.6","0.2","","","","","","","","","","","","","","72","H","0","img/none_selected.jpg","true","0","full_practice",""
"","bandit","52","174523","0.0-32.0-1.0","22713938","wem/bandit_party_2","AESEZX8S7Z3IC","either","1","314","","","","","","","0","1","0","","0.8","0.5","0.5","0.5","0.5","0.8","0.2","0.6","0.2","","","","","","","","","","","","","","72","H","0","img/none_selected.jpg","true","0","full_practice",""
"","bandit","53","176336","0.0-32.0-2.0","22713938","wem/bandit_party_2","AESEZX8S7Z3IC","either","1","305","","","","","","","0","1","0","","0.8","0.5","0.5","0.5","0.5","0.8","0.2","0.6","0.2","","","","","","","","","","","","","","72","H","0","img/none_selected.jpg","true","0","full_practice",""
"","bandit","54","178108","0.0-32.0-3.0","22713938","wem/bandit_party_2","AESEZX8S7Z3IC","either","1","263","","","","","","","0","1","0","","0.8","0.5","0.5","0.5","0.5","0.8","0.2","0.6","0.2","","","","","","","","","","","","","","72","H","0","img/none_selected.jpg","true","0","full_practice",""
"","bandit","55","179919","0.0-32.0-4.0","22713938","wem/bandit_party_2","AESEZX8S7Z3IC","either","1","305","","","","","","","0","1","0","","0.8","0.5","0.5","0.5","0.5","0.8","0.2","0.6","0.2","","","","","","","","","","","","","","72","H","0","img/none_selected.jpg","true","0","full_practice",""
"","bandit","56","181832","0.0-32.0-5.0","22713938","wem/bandit_party_2","AESEZX8S7Z3IC","either","1","402","","","","","","","0","0","1","0.2","","0.5","0.5","0.5","0.5","","","","","0.8","0.2","0.6","0.2","","","","","","","","","","74","J","1","","true","0","full_practice",""
"","bandit","57","183347","0.0-32.0-6.0","22713938","wem/bandit_party_2","AESEZX8S7Z3IC","either","1","2","","","","","","","0","0","1","","0.2","0.5","0.5","0.5","0.5","0.8","0.2","0.6","0.2","","","","","","","","","","","","","","74","J","1","","true","0","full_practice",""
"","bandit","58","185051","0.0-32.0-7.0","22713938","wem/bandit_party_2","AESEZX8S7Z3IC","either","1","199","","","","","","","0","0","1","0.2","","0.5","0.5","0.5","0.5","","","","","0.8","0.2","0.6","0.2","","","","","","","","","","74","J","1","","true","0","full_practice",""
"","bandit","59","186773","0.0-32.0-8.0","22713938","wem/bandit_party_2","AESEZX8S7Z3IC","either","1","214","","","","","","","0","0","1","0.2","","0.5","0.5","0.5","0.5","","","","","0.8","0.2","0.6","0.2","","","","","","","","","","74","J","1","","true","0","full_practice",""
"","bandit","60","188521","0.0-32.0-9.0","22713938","wem/bandit_party_2","AESEZX8S7Z3IC","either","1","240","","","","","","","0","0","1","0.2","","0.5","0.5","0.5","0.5","","","","","0.8","0.2","0.6","0.2","","","","","","","","","","74","J","1","","true","0","full_practice",""
"","bandit","61","190087","0.0-32.0-10.0","22713938","wem/bandit_party_2","AESEZX8S7Z3IC","either","1","55","","","","","","","0","0","1","","0.6","0.5","0.5","0.5","0.5","0.8","0.2","0.6","0.2","","","","","","","","","","","","","","75","K","2","","true","0","full_practice",""
"","bandit","62","191649","0.0-32.0-11.0","22713938","wem/bandit_party_2","AESEZX8S7Z3IC","either","1","55","","","","","","","1","0","0","0.6","","0.5","0.5","0.5","0.5","","","","","0.8","0.2","0.6","0.2","","","","","","","","","","75","K","2","","true","0","full_practice",""
"","bandit","63","193475","0.0-32.0-12.0","22713938","wem/bandit_party_2","AESEZX8S7Z3IC","either","1","321","","","","","","","0","0","1","","0.6","0.5","0.5","0.5","0.5","0.8","0.2","0.6","0.2","","","","","","","","","","","","","","75","K","2","","true","0","full_practice",""
"","bandit","64","195124","0.0-32.0-13.0","22713938","wem/bandit_party_2","AESEZX8S7Z3IC","either","1","143","","","","","","","0","1","0","","0.6","0.5","0.5","0.5","0.5","0.8","0.2","0.6","0.2","","","","","","","","","","","","","","75","K","2","","true","0","full_practice",""
"","bandit","65","196777","0.0-32.0-14.0","22713938","wem/bandit_party_2","AESEZX8S7Z3IC","either","1","140","","","","","","","0","0","1","0.6","","0.5","0.5","0.5","0.5","","","","","0.8","0.2","0.6","0.2","","","","","","","","","","75","K","2","","true","0","full_practice",""
"","bandit","66","198471","0.0-32.0-15.0","22713938","wem/bandit_party_2","AESEZX8S7Z3IC","either","1","184","","","","","","","0","1","0","","0.2","0.5","0.5","0.5","0.5","0.8","0.2","0.6","0.2","","","","","","","","","","","","","","76","L","3","","true","0","full_practice",""
"","bandit","67","200029","0.0-32.0-16.0","22713938","wem/bandit_party_2","AESEZX8S7Z3IC","either","1","48","","","","","","","0","0","1","","0.2","0.5","0.5","0.5","0.5","0.8","0.2","0.6","0.2","","","","","","","","","","","","","","76","L","3","","true","0","full_practice",""
"","bandit","68","201840","0.0-32.0-17.0","22713938","wem/bandit_party_2","AESEZX8S7Z3IC","either","1","298","","","","","","","0","0","1","0.2","","0.5","0.5","0.5","0.5","","","","","0.8","0.2","0.6","0.2","","","","","","","","","","76","L","3","","true","0","full_practice",""
"","bandit","69","203639","0.0-32.0-18.0","22713938","wem/bandit_party_2","AESEZX8S7Z3IC","either","1","291","","","","","","","0","0","1","0.2","","0.5","0.5","0.5","0.5","","","","","0.8","0.2","0.6","0.2","","","","","","","","","","76","L","3","","true","0","full_practice",""
"","bandit","70","205313","0.0-32.0-19.0","22713938","wem/bandit_party_2","AESEZX8S7Z3IC","either","1","165","","","","","","","0","0","1","0.2","","0.5","0.5","0.5","0.5","","","","","0.8","0.2","0.6","0.2","","","","","","","","","","76","L","3","","true","0","full_practice",""
"","text","71","209855","0.0-33.0","22713938","wem/bandit_party_2","AESEZX8S7Z3IC","either","1","4530","","","32","","","","","","","","","","","","","","","","","","","","","","","","","","","","","","","","","","","","",""
"","text-replacement","72","223113","0.0-34.0","22713938","wem/bandit_party_2","AESEZX8S7Z3IC","either","1","12257","","","32","","","","","","","","","","","","","","","","","","","","","","","","","","","","","","","","","","","","",""
"","text-replacement","73","232429","0.0-35.0","22713938","wem/bandit_party_2","AESEZX8S7Z3IC","either","1","9311","","","32","","","","","","","","","","","","","","","","","","","","","","","","","","","","","","","","","","","","",""
"","text-replacement","74","238291","0.0-36.0","22713938","wem/bandit_party_2","AESEZX8S7Z3IC","either","1","5856","","","32","","","","","","","","","","","","","","","","","","","","","","","","","","","","","","","","","","","","",""
"","text-replacement","75","241819","0.0-37.0","22713938","wem/bandit_party_2","AESEZX8S7Z3IC","either","1","3521","","","32","","","","","","","","","","","","","","","","","","","","","","","","","","","","","","","","","","","","",""
"","text-replacement","76","246547","0.0-38.0","22713938","wem/bandit_party_2","AESEZX8S7Z3IC","either","1","4727","","","32","","","","","","","","","","","","","","","","","","","","","","","","","","","","","","","","","","","","",""
"","survey-multi-choice-replacement","77","252951","0.0-39.0-0.0","22713938","wem/bandit_party_2","AESEZX8S7Z3IC","either","1","6397","","","","","","","","","","","","","","","","","","","","","","","","Money will be added to the pool for <span style='color:red;'>REPUBLICANS</span>","","","","","","","attn_check","","","","","","","","","0"
"","survey-multi-choice-replacement","78","259965","0.0-40.0-0.0","22713938","wem/bandit_party_2","AESEZX8S7Z3IC","either","1","6006","","","","","","","","","","","","","","","","","","","","","","","","Equal amounts of money will be added to the pool for <span style='color:red;'>REPUBLICANS</span> and subtracted from the pool for <span style='color:blue;'>DEMOCRATS</span>","","","","","","","attn_check","","","","","","","","","2"
"","survey-multi-choice-replacement","79","264187","0.0-41.0-0.0","22713938","wem/bandit_party_2","AESEZX8S7Z3IC","either","1","3215","","","","","","","","","","","","","","","","","","","","","","","","No money will be added to either pool","","","","","","","attn_check","","","","","","","","","3"
"","bandit","80","268212","0.0-42.0-0.0","22713938","wem/bandit_party_2","AESEZX8S7Z3IC","either","1","1513","","","","","","","0","1","0","","0.4995060561","0.4","0.6","0.8","0.2","0.7674833066","0.8101107889","0.5202783506","0.4995060561","","","","","","","","","","","","","","76","L","3","","","1","main_expt",""
"","bandit","81","270167","0.0-43.0-0.0","22713938","wem/bandit_party_2","AESEZX8S7Z3IC","either","1","449","","","","","","","0","0","1","","0.4452888422","0.4","0.6","0.8","0.2","0.7786696111","0.8827976921","0.4559554218","0.4452888422","","","","","","","","","","","","","","76","L","3","","","2","main_expt",""
"","bandit","82","272041","0.0-44.0-0.0","22713938","wem/bandit_party_2","AESEZX8S7Z3IC","either","1","368","","","","","","","0","0","1","","0.4956599627","0.4","0.6","0.8","0.2","0.7883912796","0.918633781","0.3791335739","0.4956599627","","","","","","","","","","","","","","76","L","3","","","3","main_expt",""
"","bandit","83","273658","0.0-45.0-0.0","22713938","wem/bandit_party_2","AESEZX8S7Z3IC","either","1","108","","","","","","","0","1","0","","0.362446662","0.4","0.6","0.8","0.2","0.8311681014","0.8961075186","0.362446662","0.3939226057","","","","","","","","","","","","","","75","K","2","","","4","main_expt",""
"","bandit","84","275781","0.0-46.0-0.0","22713938","wem/bandit_party_2","AESEZX8S7Z3IC","either","1","616","","","","","","","0","1","0","","0.4337427147","0.4","0.6","0.8","0.2","0.706748425","0.9065038385","0.4337427147","0.4737796053","","","","","","","","","","","","","","75","K","2","","","5","main_expt",""
"","bandit","85","277822","0.0-47.0-0.0","22713938","wem/bandit_party_2","AESEZX8S7Z3IC","either","1","532","","","","","","","1","0","0","0.4260566605","","0.4","0.6","0.8","0.2","","","","","0.7246132019","0.9628954729","0.4260566605","0.5798080576","","","","","","","","","","75","K","2","","","6","main_expt",""
"","bandit","86","279681","0.0-48.0-0.0","22713938","wem/bandit_party_2","AESEZX8S7Z3IC","either","1","354","","","","","","","1","0","0","0.5595739282","","0.4","0.6","0.8","0.2","","","","","0.822103072","0.9244273404","0.5595739282","0.6184433593","","","","","","","","","","75","K","2","","","7","main_expt",""
"","bandit","87","281696","0.0-49.0-0.0","22713938","wem/bandit_party_2","AESEZX8S7Z3IC","either","1","509","","","","","","","0","0","1","0.5757792393","","0.4","0.6","0.8","0.2","","","","","0.8176183596","0.9214665689","0.5757792393","0.5380809204","","","","","","","","","","75","K","2","","","8","main_expt",""
"","bandit","88","283626","0.0-50.0-0.0","22713938","wem/bandit_party_2","AESEZX8S7Z3IC","either","1","422","","","","","","","0","1","0","","0.9604963414","0.4","0.6","0.8","0.2","0.7421782695","0.9604963414","0.5508288143","0.4884558296","","","","","","","","","","","","","","74","J","1","","","9","main_expt",""
"","bandit","89","285711","0.0-51.0-0.0","22713938","wem/bandit_party_2","AESEZX8S7Z3IC","either","1","578","","","","","","","0","1","0","","0.973544224","0.4","0.6","0.8","0.2","0.7112185725","0.973544224","0.4615344473","0.6062827564","","","","","","","","","","","","","","74","J","1","","","10","main_expt",""
"","bandit","90","287705","0.0-52.0-0.0","22713938","wem/bandit_party_2","AESEZX8S7Z3IC","either","1","489","","","","","","","0","1","0","","0.9756729976","0.4","0.6","0.8","0.2","0.6656122322","0.9756729976","0.4731032433","0.6618996933","","","","","","","","","","","","","","74","J","1","","","11","main_expt",""
"","bandit","91","289614","0.0-53.0-0.0","22713938","wem/bandit_party_2","AESEZX8S7Z3IC","either","1","404","","","","","","","0","1","0","","0.9824084628","0.4","0.6","0.8","0.2","0.632951522","0.9824084628","0.5028989732","0.6589688621","","","","","","","","","","","","","","74","J","1","","","12","main_expt",""
"","bandit","92","291490","0.0-54.0-0.0","22713938","wem/bandit_party_2","AESEZX8S7Z3IC","either","1","371","","","","","","","1","0","0","0.9852841122","","0.4","0.6","0.8","0.2","","","","","0.6428643634","0.9852841122","0.5252386458","0.7483501345","","","","","","","","","","74","J","1","","","13","main_expt",""
"","bandit","93","293315","0.0-55.0-0.0","22713938","wem/bandit_party_2","AESEZX8S7Z3IC","either","1","318","","","","","","","0","1","0","","0.9844185579","0.4","0.6","0.8","0.2","0.5693663763","0.9844185579","0.4883642101","0.7642220585","","","","","","","","","","","","","","74","J","1","","","14","main_expt",""
"","bandit","94","295152","0.0-56.0-0.0","22713938","wem/bandit_party_2","AESEZX8S7Z3IC","either","1","327","","","","","","","0","1","0","","0.9716790186","0.4","0.6","0.8","0.2","0.6354763258","0.9716790186","0.5125695872","0.8255663415","","","","","","","","","","","","","","74","J","1","","","15","main_expt",""
"","bandit","95","296970","0.0-57.0-0.0","22713938","wem/bandit_party_2","AESEZX8S7Z3IC","either","1","309","","","","","","","0","1","0","","0.9724226268","0.4","0.6","0.8","0.2","0.6074668868","0.9724226268","0.483313844","0.8262734196","","","","","","","","","","","","","","74","J","1","","","16","main_expt",""
"","bandit","96","298827","0.0-58.0-0.0","22713938","wem/bandit_party_2","AESEZX8S7Z3IC","either","1","272","","","","","","","0","1","0","","0.969397438","0.4","0.6","0.8","0.2","0.634379517","0.969397438","0.4764119597","0.8957105494","","","","","","","","","","","","","","74","J","1","","","17","main_expt",""
"","bandit","97","300992","0.0-59.0-0.0","22713938","wem/bandit_party_2","AESEZX8S7Z3IC","either","1","657","","","","","","","1","0","0","0.9487821198","","0.4","0.6","0.8","0.2","","","","","0.7399013172","0.9487821198","0.4742144938","0.8243017832","","","","","","","","","","74","J","1","","","18","main_expt",""
"","bandit","98","302850","0.0-60.0-0.0","22713938","wem/bandit_party_2","AESEZX8S7Z3IC","either","1","345","","","","","","","0","0","1","","0.8822386923","0.4","0.6","0.8","0.2","0.6892422428","0.8822386923","0.5445729057","0.8174393347","","","","","","","","","","","","","","74","J","1","","","19","main_expt",""
"","bandit","99","304683","0.0-61.0-0.0","22713938","wem/bandit_party_2","AESEZX8S7Z3IC","either","1","322","","","","","","","0","1","0","","0.8457625901","0.4","0.6","0.8","0.2","0.5544472153","0.8658452863","0.5114357523","0.8457625901","","","","","","","","","","","","","","76","L","3","","","20","main_expt",""
"","bandit","100","306594","0.0-62.0-0.0","22713938","wem/bandit_party_2","AESEZX8S7Z3IC","either","1","400","","","","","","","0","1","0","","0.8565453533","0.4","0.6","0.8","0.2","0.4705077418","0.8597265301","0.4948626968","0.8565453533","","","","","","","","","","","","","","76","L","3","","","21","main_expt",""
"","bandit","101","308446","0.0-63.0-0.0","22713938","wem/bandit_party_2","AESEZX8S7Z3IC","either","1","339","","","","","","","0","1","0","","0.8821281293","0.4","0.6","0.8","0.2","0.5364913494","0.929530396","0.3750889156","0.8821281293","","","","","","","","","","","","","","76","L","3","","","22","main_expt",""
"","bandit","102","310315","0.0-64.0-0.0","22713938","wem/bandit_party_2","AESEZX8S7Z3IC","either","1","358","","","","","","","0","1","0","","0.8253896901","0.4","0.6","0.8","0.2","0.5450887529","0.9149061772","0.3874093852","0.8253896901","","","","","","","","","","","","","","76","L","3","","","23","main_expt",""
"","bandit","103","312101","0.0-65.0-0.0","22713938","wem/bandit_party_2","AESEZX8S7Z3IC","either","1","277","","","","","","","0","1","0","","0.8682133559","0.4","0.6","0.8","0.2","0.6013055931","0.9389899916","0.4126546177","0.8682133559","","","","","","","","","","","","","","76","L","3","","","24","main_expt",""
"","bandit","104","314022","0.0-66.0-0.0","22713938","wem/bandit_party_2","AESEZX8S7Z3IC","either","1","414","","","","","","","0","1","0","","0.8186134727","0.4","0.6","0.8","0.2","0.7116226269","0.9583062328","0.3871809826","0.8186134727","","","","","","","","","","","","","","76","L","3","","","25","main_expt",""
"","bandit","105","315909","0.0-67.0-0.0","22713938","wem/bandit_party_2","AESEZX8S7Z3IC","either","1","374","","","","","","","1","0","0","0.841170918","","0.4","0.6","0.8","0.2","","","","","0.7284905038","0.9349434311","0.4162773602","0.841170918","","","","","","","","","","76","L","3","","","26","main_expt",""
"","bandit","106","317723","0.0-68.0-0.0","22713938","wem/bandit_party_2","AESEZX8S7Z3IC","either","1","307","","","","","","","0","0","1","","0.8332298301","0.4","0.6","0.8","0.2","0.7007901837","0.9147743466","0.4153433109","0.8332298301","","","","","","","","","","","","","","76","L","3","","","27","main_expt",""
"","bandit","107","319498","0.0-69.0-0.0","22713938","wem/bandit_party_2","AESEZX8S7Z3IC","either","1","266","","","","","","","1","0","0","0.3083156359","","0.4","0.6","0.8","0.2","","","","","0.7197690037","0.8913744663","0.3083156359","0.8340804883","","","","","","","","","","75","K","2","","","28","main_expt",""
"","bandit","108","321324","0.0-70.0-0.0","22713938","wem/bandit_party_2","AESEZX8S7Z3IC","either","1","317","","","","","","","0","1","0","","0.4048150761","0.4","0.6","0.8","0.2","0.7569205749","0.9004815278","0.4048150761","0.8800986549","","","","","","","","","","","","","","75","K","2","","","29","main_expt",""
"","bandit","109","323129","0.0-71.0-0.0","22713938","wem/bandit_party_2","AESEZX8S7Z3IC","either","1","296","","","","","","","1","0","0","0.5604470694","","0.4","0.6","0.8","0.2","","","","","0.7007062976","0.8335499875","0.5604470694","0.800988266","","","","","","","","","","75","K","2","","","30","main_expt",""
"","bandit","110","324780","0.0-72.0-0.0","22713938","wem/bandit_party_2","AESEZX8S7Z3IC","either","1","146","","","","","","","0","0","1","","0.7904098286","0.4","0.6","0.8","0.2","0.6218809145","0.7904098286","0.5114456598","0.8092707987","","","","","","","","","","","","","","74","J","1","","","31","main_expt",""
"","bandit","111","326522","0.0-73.0-0.0","22713938","wem/bandit_party_2","AESEZX8S7Z3IC","either","1","239","","","","","","","0","1","0","","0.5448888872","0.4","0.6","0.8","0.2","0.5448888872","0.8156470634","0.5195843055","0.7600689364","","","","","","","","","","","","","","72","H","0","img/none_selected.jpg","","32","main_expt",""
"","bandit","112","328363","0.0-74.0-0.0","22713938","wem/bandit_party_2","AESEZX8S7Z3IC","either","1","336","","","","","","","0","0","1","0.4396040002","","0.4","0.6","0.8","0.2","","","","","0.4396040002","0.7458483223","0.4278216128","0.7268405739","","","","","","","","","","72","H","0","img/none_selected.jpg","","33","main_expt",""
"","bandit","113","329972","0.0-75.0-0.0","22713938","wem/bandit_party_2","AESEZX8S7Z3IC","either","1","105","","","","","","","0","1","0","","0.7867385379","0.4","0.6","0.8","0.2","0.3418027302","0.8745519215","0.4581725564","0.7867385379","","","","","","","","","","","","","","76","L","3","","","34","main_expt",""
"","bandit","114","331673","0.0-76.0-0.0","22713938","wem/bandit_party_2","AESEZX8S7Z3IC","either","1","195","","","","","","","1","0","0","0.7776722478","","0.4","0.6","0.8","0.2","","","","","0.3770378826","0.8761773117","0.5170179058","0.7776722478","","","","","","","","","","76","L","3","","","35","main_expt",""
"","bandit","115","333441","0.0-77.0-0.0","22713938","wem/bandit_party_2","AESEZX8S7Z3IC","either","1","257","","","","","","","0","1","0","","0.8110731924","0.4","0.6","0.8","0.2","0.3264650107","0.8898579413","0.5761285305","0.8110731924","","","","","","","","","","","","","","76","L","3","","","36","main_expt",""
"","bandit","116","335222","0.0-78.0-0.0","22713938","wem/bandit_party_2","AESEZX8S7Z3IC","either","1","276","","","","","","","0","1","0","","0.8371501114","0.4","0.6","0.8","0.2","0.1696248696","0.9189960073","0.5824592389","0.8371501114","","","","","","","","","","","","","","76","L","3","","","37","main_expt",""
"","bandit","117","338675","0.0-79.0-0.0","22713938","wem/bandit_party_2","AESEZX8S7Z3IC","either","1","1947","","","","","","","1","0","0","0.801984358","","0.4","0.6","0.8","0.2","","","","","0.3008725236","0.9429067042","0.5039158184","0.801984358","","","","","","","","","","76","L","3","","","38","main_expt",""
"","bandit","118","340345","0.0-80.0-0.0","22713938","wem/bandit_party_2","AESEZX8S7Z3IC","either","1","160","","","","","","","1","0","0","0.836760671","","0.4","0.6","0.8","0.2","","","","","0.3612597963","0.8860185862","0.4906961915","0.836760671","","","","","","","","","","76","L","3","","","39","main_expt",""
"","bandit","119","342095","0.0-81.0-0.0","22713938","wem/bandit_party_2","AESEZX8S7Z3IC","either","1","239","","","","","","","0","1","0","","0.7930168878","0.4","0.6","0.8","0.2","0.3316001813","0.8958725565","0.5118773476","0.7930168878","","","","","","","","","","","","","","76","L","3","","","40","main_expt",""
"","bandit","120","343659","0.0-82.0-0.0","22713938","wem/bandit_party_2","AESEZX8S7Z3IC","either","1","50","","","","","","","0","1","0","","0.6758505439","0.4","0.6","0.8","0.2","0.251761063","0.8369757826","0.5207000815","0.6758505439","","","","","","","","","","","","","","76","L","3","","","41","main_expt",""
"","bandit","121","345742","0.0-83.0-0.0","22713938","wem/bandit_party_2","AESEZX8S7Z3IC","either","1","569","","","","","","","1","0","0","0.669091732","","0.4","0.6","0.8","0.2","","","","","0.3764367217","0.8724413244","0.6208632684","0.669091732","","","","","","","","","","76","L","3","","","42","main_expt",""
"","bandit","122","347577","0.0-84.0-0.0","22713938","wem/bandit_party_2","AESEZX8S7Z3IC","either","1","323","","","","","","","1","0","0","0.5774386383","","0.4","0.6","0.8","0.2","","","","","0.4280411123","0.8721156492","0.6736877605","0.5774386383","","","","","","","","","","76","L","3","","","43","main_expt",""
"","bandit","123","349375","0.0-85.0-0.0","22713938","wem/bandit_party_2","AESEZX8S7Z3IC","either","1","288","","","","","","","0","0","1","0.5402750746","","0.4","0.6","0.8","0.2","","","","","0.4250007774","0.874486911","0.6770598463","0.5402750746","","","","","","","","","","76","L","3","","","44","main_expt",""
"","bandit","124","351027","0.0-86.0-0.0","22713938","wem/bandit_party_2","AESEZX8S7Z3IC","either","1","140","","","","","","","0","1","0","","0.7653026016","0.4","0.6","0.8","0.2","0.3964774122","0.7653026016","0.6811336834","0.4769525635","","","","","","","","","","","","","","74","J","1","","","45","main_expt",""
"","bandit","125","352779","0.0-87.0-0.0","22713938","wem/bandit_party_2","AESEZX8S7Z3IC","either","1","246","","","","","","","1","0","0","0.7409040253","","0.4","0.6","0.8","0.2","","","","","0.3755541509","0.6884850605","0.7409040253","0.460739512","","","","","","","","","","75","K","2","","","46","main_expt",""
"","bandit","126","354390","0.0-88.0-0.0","22713938","wem/bandit_party_2","AESEZX8S7Z3IC","either","1","102","","","","","","","0","1","0","","0.3698766084","0.4","0.6","0.8","0.2","0.3698766084","0.6869729855","0.8602274841","0.3953603582","","","","","","","","","","","","","","72","H","0","img/none_selected.jpg","","47","main_expt",""
"","bandit","127","355959","0.0-89.0-0.0","22713938","wem/bandit_party_2","AESEZX8S7Z3IC","either","1","62","","","","","","","0","0","1","0.624749708","","0.4","0.6","0.8","0.2","","","","","0.2924141828","0.624749708","0.8947369126","0.5194217752","","","","","","","","","","74","J","1","","","48","main_expt",""
"","bandit","128","357832","0.0-90.0-0.0","22713938","wem/bandit_party_2","AESEZX8S7Z3IC","either","1","367","","","","","","","0","1","0","","0.9071052574","0.4","0.6","0.8","0.2","0.2506794134","0.6269608649","0.9071052574","0.5015721984","","","","","","","","","","","","","","75","K","2","","","49","main_expt",""
"","bandit","129","359625","0.0-91.0-0.0","22713938","wem/bandit_party_2","AESEZX8S7Z3IC","either","1","288","","","","","","","0","1","0","","0.2200095001","0.4","0.6","0.8","0.2","0.2200095001","0.5394470416","0.8569531155","0.4427204185","","","","","","","","","","","","","","72","H","0","img/none_selected.jpg","","50","main_expt",""
"","bandit","130","361342","0.0-92.0-0.0","22713938","wem/bandit_party_2","AESEZX8S7Z3IC","either","1","211","","","","","","","1","0","0","0.5194544998","","0.4","0.6","0.8","0.2","","","","","0.2703780474","0.4991806479","0.8728609703","0.5194544998","","","","","","","","","","76","L","3","","","51","main_expt",""
"","bandit","131","363106","0.0-93.0-0.0","22713938","wem/bandit_party_2","AESEZX8S7Z3IC","either","1","260","","","","","","","0","0","1","","0.5431464126","0.4","0.6","0.8","0.2","0.3215640211","0.5431464126","0.902184381","0.4420680866","","","","","","","","","","","","","","74","J","1","","","52","main_expt",""
"","bandit","132","364942","0.0-94.0-0.0","22713938","wem/bandit_party_2","AESEZX8S7Z3IC","either","1","330","","","","","","","0","0","1","","0.2918797996","0.4","0.6","0.8","0.2","0.2918797996","0.4799783957","0.8975054296","0.5541791803","","","","","","","","","","","","","","72","H","0","img/none_selected.jpg","","53","main_expt",""
"","bandit","133","366686","0.0-95.0-0.0","22713938","wem/bandit_party_2","AESEZX8S7Z3IC","either","1","236","","","","","","","0","1","0","","0.6187664305","0.4","0.6","0.8","0.2","0.2432815539","0.3946877269","0.9436546011","0.6187664305","","","","","","","","","","","","","","76","L","3","","","54","main_expt",""
"","bandit","134","368479","0.0-96.0-0.0","22713938","wem/bandit_party_2","AESEZX8S7Z3IC","either","1","286","","","","","","","0","1","0","","0.538030076","0.4","0.6","0.8","0.2","0.1993500609","0.3892466866","0.9411334538","0.538030076","","","","","","","","","","","","","","76","L","3","","","55","main_expt",""
"","bandit","135","370301","0.0-97.0-0.0","22713938","wem/bandit_party_2","AESEZX8S7Z3IC","either","1","316","","","","","","","0","1","0","","0.5137881872","0.4","0.6","0.8","0.2","0.1832364248","0.347268188","0.862285227","0.5137881872","","","","","","","","","","","","","","76","L","3","","","56","main_expt",""
"","bandit","136","372055","0.0-98.0-0.0","22713938","wem/bandit_party_2","AESEZX8S7Z3IC","either","1","247","","","","","","","0","1","0","","0.6274604021","0.4","0.6","0.8","0.2","0.1703919496","0.3462231845","0.9034803314","0.6274604021","","","","","","","","","","","","","","76","L","3","","","57","main_expt",""
"","bandit","137","373710","0.0-99.0-0.0","22713938","wem/bandit_party_2","AESEZX8S7Z3IC","either","1","144","","","","","","","0","0","1","","0.5636132077","0.4","0.6","0.8","0.2","0.2146973212","0.3707442777","0.9062052911","0.5636132077","","","","","","","","","","","","","","76","L","3","","","58","main_expt",""
"","bandit","138","375319","0.0-100.0-0.0","22713938","wem/bandit_party_2","AESEZX8S7Z3IC","either","1","81","","","","","","","1","0","0","0.9169546289","","0.4","0.6","0.8","0.2","","","","","0.2118107272","0.4530366532","0.9169546289","0.6555757088","","","","","","","","","","75","K","2","","","59","main_expt",""
"","bandit","139","377315","0.0-101.0-0.0","22713938","wem/bandit_party_2","AESEZX8S7Z3IC","either","1","481","","","","","","","0","1","0","","0.6555481193","0.4","0.6","0.8","0.2","0.2096036334","0.4335409142","0.9048679239","0.6555481193","","","","","","","","","","","","","","76","L","3","","","60","main_expt",""
"","bandit","140","379199","0.0-102.0-0.0","22713938","wem/bandit_party_2","AESEZX8S7Z3IC","either","1","369","","","","","","","1","0","0","0.6988977931","","0.4","0.6","0.8","0.2","","","","","0.1985607356","0.3601573371","0.9346572725","0.6988977931","","","","","","","","","","76","L","3","","","61","main_expt",""
"","bandit","141","381497","0.0-103.0-0.0","22713938","wem/bandit_party_2","AESEZX8S7Z3IC","either","1","785","","","","","","","0","1","0","","0.6124712875","0.4","0.6","0.8","0.2","0.2352246004","0.3187004912","0.9332729597","0.6124712875","","","","","","","","","","","","","","76","L","3","","","62","main_expt",""
"","bandit","142","383067","0.0-104.0-0.0","22713938","wem/bandit_party_2","AESEZX8S7Z3IC","either","1","50","","","","","","","0","1","0","","0.4881994696","0.4","0.6","0.8","0.2","0.1989126294","0.331276396","0.9300142507","0.4881994696","","","","","","","","","","","","","","76","L","3","","","63","main_expt",""
"","bandit","143","385045","0.0-105.0-0.0","22713938","wem/bandit_party_2","AESEZX8S7Z3IC","either","1","453","","","","","","","0","1","0","","0.5007509184","0.4","0.6","0.8","0.2","0.2231035509","0.3984677","0.8992917639","0.5007509184","","","","","","","","","","","","","","76","L","3","","","64","main_expt",""
"","bandit","144","386809","0.0-106.0-0.0","22713938","wem/bandit_party_2","AESEZX8S7Z3IC","either","1","248","","","","","","","0","1","0","","0.6077525222","0.4","0.6","0.8","0.2","0.174077904","0.3012021372","0.7939475476","0.6077525222","","","","","","","","","","","","","","76","L","3","","","65","main_expt",""
"","bandit","145","388767","0.0-107.0-0.0","22713938","wem/bandit_party_2","AESEZX8S7Z3IC","either","1","446","","","","","","","0","0","1","","0.4876759876","0.4","0.6","0.8","0.2","0.1505104035","0.2848395029","0.7848839068","0.4876759876","","","","","","","","","","","","","","76","L","3","","","66","main_expt",""
"","bandit","146","390354","0.0-108.0-0.0","22713938","wem/bandit_party_2","AESEZX8S7Z3IC","either","1","80","","","","","","","0","0","1","0.7712869283","","0.4","0.6","0.8","0.2","","","","","0.1706094741","0.2908363747","0.7712869283","0.4705728971","","","","","","","","","","75","K","2","","","67","main_expt",""
"","bandit","147","392052","0.0-109.0-0.0","22713938","wem/bandit_party_2","AESEZX8S7Z3IC","either","1","190","","","","","","","0","1","0","","0.3226378352","0.4","0.6","0.8","0.2","0.193375558","0.3226378352","0.7426915226","0.5822594153","","","","","","","","","","","","","","74","J","1","","","68","main_expt",""
"","bandit","148","393852","0.0-110.0-0.0","22713938","wem/bandit_party_2","AESEZX8S7Z3IC","either","1","287","","","","","","","0","0","1","0.226811003","","0.4","0.6","0.8","0.2","","","","","0.226811003","0.4490581071","0.592712881","0.6189715015","","","","","","","","","","72","H","0","img/none_selected.jpg","","69","main_expt",""
"","bandit","149","395580","0.0-111.0-0.0","22713938","wem/bandit_party_2","AESEZX8S7Z3IC","either","1","214","","","","","","","0","0","1","0.42365523","","0.4","0.6","0.8","0.2","","","","","0.191142909","0.42365523","0.6587085967","0.5307799745","","","","","","","","","","74","J","1","","","70","main_expt",""
"","bandit","150","397650","0.0-112.0-0.0","22713938","wem/bandit_party_2","AESEZX8S7Z3IC","either","1","555","","","","","","","0","1","0","","0.5205551237","0.4","0.6","0.8","0.2","0.2371486809","0.427101634","0.7562029562","0.5205551237","","","","","","","","","","","","","","76","L","3","","","71","main_expt",""
"","bandit","151","399539","0.0-113.0-0.0","22713938","wem/bandit_party_2","AESEZX8S7Z3IC","either","1","377","","","","","","","0","0","1","","0.5913901284","0.4","0.6","0.8","0.2","0.2602117984","0.5387899421","0.670676276","0.5913901284","","","","","","","","","","","","","","76","L","3","","","72","main_expt",""
"","bandit","152","401161","0.0-114.0-0.0","22713938","wem/bandit_party_2","AESEZX8S7Z3IC","either","1","108","","","","","","","1","0","0","0.6870219419","","0.4","0.6","0.8","0.2","","","","","0.1837165363","0.4931252492","0.6870219419","0.7127465592","","","","","","","","","","75","K","2","","","73","main_expt",""
"","bandit","153","402750","0.0-115.0-0.0","22713938","wem/bandit_party_2","AESEZX8S7Z3IC","either","1","81","","","","","","","0","1","0","","0.7804212289","0.4","0.6","0.8","0.2","0.2032334464","0.3888626504","0.582898469","0.7804212289","","","","","","","","","","","","","","76","L","3","","","74","main_expt",""
"","bandit","154","404626","0.0-116.0-0.0","22713938","wem/bandit_party_2","AESEZX8S7Z3IC","either","1","368","","","","","","","1","0","0","0.7966502287","","0.4","0.6","0.8","0.2","","","","","0.2782751631","0.3866429177","0.6452442043","0.7966502287","","","","","","","","","","76","L","3","","","75","main_expt",""
"","bandit","155","406411","0.0-117.0-0.0","22713938","wem/bandit_party_2","AESEZX8S7Z3IC","either","1","280","","","","","","","0","1","0","","0.7775959854","0.4","0.6","0.8","0.2","0.3318782676","0.3948468247","0.7031137023","0.7775959854","","","","","","","","","","","","","","76","L","3","","","76","main_expt",""
"","bandit","156","408268","0.0-118.0-0.0","22713938","wem/bandit_party_2","AESEZX8S7Z3IC","either","1","351","","","","","","","0","0","1","","0.8523583745","0.4","0.6","0.8","0.2","0.312607664","0.4853082722","0.6096498107","0.8523583745","","","","","","","","","","","","","","76","L","3","","","77","main_expt",""
"","bandit","157","410123","0.0-119.0-0.0","22713938","wem/bandit_party_2","AESEZX8S7Z3IC","either","1","347","","","","","","","1","0","0","0.532302087","","0.4","0.6","0.8","0.2","","","","","0.3250695504","0.4971609959","0.532302087","0.7707034136","","","","","","","","","","75","K","2","","","78","main_expt",""
"","bandit","158","411740","0.0-120.0-0.0","22713938","wem/bandit_party_2","AESEZX8S7Z3IC","either","1","106","","","","","","","0","1","0","","0.7919080975","0.4","0.6","0.8","0.2","0.277144637","0.5349041547","0.4448734945","0.7919080975","","","","","","","","","","","","","","76","L","3","","","79","main_expt",""
"","bandit","159","413431","0.0-121.0-0.0","22713938","wem/bandit_party_2","AESEZX8S7Z3IC","either","1","182","","","","","","","0","1","0","","0.34513516","0.4","0.6","0.8","0.2","0.293018971","0.4713204996","0.34513516","0.8107458935","","","","","","","","","","","","","","75","K","2","","","80","main_expt",""
"","bandit","160","415241","0.0-122.0-0.0","22713938","wem/bandit_party_2","AESEZX8S7Z3IC","either","1","296","","","","","","","0","1","0","","0.7851591746","0.4","0.6","0.8","0.2","0.2730851157","0.4132476049","0.406584365","0.7851591746","","","","","","","","","","","","","","76","L","3","","","81","main_expt",""
"","bandit","161","417105","0.0-123.0-0.0","22713938","wem/bandit_party_2","AESEZX8S7Z3IC","either","1","354","","","","","","","0","0","1","0.5068312928","","0.4","0.6","0.8","0.2","","","","","0.2436011542","0.4640808921","0.5068312928","0.8067558171","","","","","","","","","","75","K","2","","","82","main_expt",""
"","bandit","162","418818","0.0-124.0-0.0","22713938","wem/bandit_party_2","AESEZX8S7Z3IC","either","1","197","","","","","","","0","1","0","","0.7777816444","0.4","0.6","0.8","0.2","0.2009218657","0.442115463","0.5209063211","0.7777816444","","","","","","","","","","","","","","76","L","3","","","83","main_expt",""
"","bandit","163","420571","0.0-125.0-0.0","22713938","wem/bandit_party_2","AESEZX8S7Z3IC","either","1","237","","","","","","","0","0","1","0.6221591745","","0.4","0.6","0.8","0.2","","","","","0.1550904625","0.5117806844","0.6221591745","0.7801041195","","","","","","","","","","75","K","2","","","84","main_expt",""
"","bandit","164","422472","0.0-126.0-0.0","22713938","wem/bandit_party_2","AESEZX8S7Z3IC","either","1","390","","","","","","","1","0","0","0.7593249252","","0.4","0.6","0.8","0.2","","","","","0.1193398435","0.5309627618","0.6939346182","0.7593249252","","","","","","","","","","76","L","3","","","85","main_expt",""
"","bandit","165","424137","0.0-127.0-0.0","22713938","wem/bandit_party_2","AESEZX8S7Z3IC","either","1","153","","","","","","","0","1","0","","0.7911667705","0.4","0.6","0.8","0.2","0.1398572341","0.5482659382","0.7533471596","0.7911667705","","","","","","","","","","","","","","76","L","3","","","86","main_expt",""
"","bandit","166","425693","0.0-128.0-0.0","22713938","wem/bandit_party_2","AESEZX8S7Z3IC","either","1","45","","","","","","","0","0","1","","0.8480662183","0.4","0.6","0.8","0.2","0.1941505275","0.4772076429","0.8040573679","0.8480662183","","","","","","","","","","","","","","76","L","3","","","87","main_expt",""
"","bandit","167","427424","0.0-129.0-0.0","22713938","wem/bandit_party_2","AESEZX8S7Z3IC","either","1","213","","","","","","","1","0","0","0.7800800897","","0.4","0.6","0.8","0.2","","","","","0.09645570925","0.5202977678","0.7800800897","0.8110462569","","","","","","","","","","75","K","2","","","88","main_expt",""
"","bandit","168","429405","0.0-130.0-0.0","22713938","wem/bandit_party_2","AESEZX8S7Z3IC","either","1","466","","","","","","","0","0","1","0.7924414871","","0.4","0.6","0.8","0.2","","","","","0.1304326216","0.4970482359","0.7329239748","0.7924414871","","","","","","","","","","76","L","3","","","89","main_expt",""
"","bandit","169","431198","0.0-131.0-0.0","22713938","wem/bandit_party_2","AESEZX8S7Z3IC","either","1","279","","","","","","","0","0","1","0.7202813078","","0.4","0.6","0.8","0.2","","","","","0.1410434261","0.4671205494","0.7202813078","0.8190855249","","","","","","","","","","75","K","2","","","90","main_expt",""
"","bandit","170","432900","0.0-132.0-0.0","22713938","wem/bandit_party_2","AESEZX8S7Z3IC","either","1","192","","","","","","","0","1","0","","0.5518401665","0.4","0.6","0.8","0.2","0.1277095213","0.5518401665","0.698586111","0.858270253","","","","","","","","","","","","","","74","J","1","","","91","main_expt",""
"","bandit","171","434540","0.0-133.0-0.0","22713938","wem/bandit_party_2","AESEZX8S7Z3IC","either","1","127","","","","","","","0","1","0","","0.8583259383","0.4","0.6","0.8","0.2","0.08596821216","0.620788192","0.6054304462","0.8583259383","","","","","","","","","","","","","","76","L","3","","","92","main_expt",""
"","bandit","172","436364","0.0-134.0-0.0","22713938","wem/bandit_party_2","AESEZX8S7Z3IC","either","1","309","","","","","","","0","1","0","","0.679669404","0.4","0.6","0.8","0.2","0.05652587691","0.679669404","0.6829204303","0.8335107661","","","","","","","","","","","","","","74","J","1","","","93","main_expt",""
"","bandit","173","438166","0.0-135.0-0.0","22713938","wem/bandit_party_2","AESEZX8S7Z3IC","either","1","282","","","","","","","0","1","0","","0.8849423118","0.4","0.6","0.8","0.2","0.07490457358","0.6726581754","0.6084783934","0.8849423118","","","","","","","","","","","","","","76","L","3","","","94","main_expt",""
"","bandit","174","439899","0.0-136.0-0.0","22713938","wem/bandit_party_2","AESEZX8S7Z3IC","either","1","221","","","","","","","0","0","1","0.51962455","","0.4","0.6","0.8","0.2","","","","","0.05201682933","0.5983950962","0.51962455","0.9175662658","","","","","","","","","","75","K","2","","","95","main_expt",""
"","bandit","175","441622","0.0-137.0-0.0","22713938","wem/bandit_party_2","AESEZX8S7Z3IC","either","1","215","","","","","","","0","0","1","","0.6316158747","0.4","0.6","0.8","0.2","0.0353667714","0.6316158747","0.453067158","0.8726153548","","","","","","","","","","","","","","74","J","1","","","96","main_expt",""
"","bandit","176","443373","0.0-138.0-0.0","22713938","wem/bandit_party_2","AESEZX8S7Z3IC","either","1","244","","","","","","","0","1","0","","0.7260562137","0.4","0.6","0.8","0.2","0.04301306848","0.6660601513","0.4090095009","0.7260562137","","","","","","","","","","","","","","76","L","3","","","97","main_expt",""
"","bandit","177","444894","0.0-139.0-0.0","22713938","wem/bandit_party_2","AESEZX8S7Z3IC","either","1","16","","","","","","","0","1","0","","0.6506148609","0.4","0.6","0.8","0.2","0.03950067624","0.6185462561","0.360727585","0.6506148609","","","","","","","","","","","","","","76","L","3","","","98","main_expt",""
"","bandit","178","446641","0.0-140.0-0.0","22713938","wem/bandit_party_2","AESEZX8S7Z3IC","either","1","242","","","","","","","0","1","0","","0.5816342488","0.4","0.6","0.8","0.2","0.03156699585","0.581128502","0.3351327477","0.5816342488","","","","","","","","","","","","","","76","L","3","","","99","main_expt",""
"","bandit","179","448407","0.0-141.0-0.0","22713938","wem/bandit_party_2","AESEZX8S7Z3IC","either","1","258","","","","","","","0","1","0","","0.5521464449","0.4","0.6","0.8","0.2","0.0248161238","0.479775063","0.3491912274","0.5521464449","","","","","","","","","","","","","","76","L","3","","","100","main_expt",""
"","bandit","180","450027","0.0-142.0-0.0","22713938","wem/bandit_party_2","AESEZX8S7Z3IC","either","1","102","","","","","","","0","1","0","","0.6063232436","0.4","0.6","0.8","0.2","0.02218075004","0.5114647241","0.4105375765","0.6063232436","","","","","","","","","","","","","","76","L","3","","","101","main_expt",""
"","bandit","181","451748","0.0-143.0-0.0","22713938","wem/bandit_party_2","AESEZX8S7Z3IC","either","1","207","","","","","","","0","1","0","","0.5636213764","0.4","0.6","0.8","0.2","0.01802152149","0.4718740674","0.438632671","0.5636213764","","","","","","","","","","","","","","76","L","3","","","102","main_expt",""
"","bandit","182","453379","0.0-144.0-0.0","22713938","wem/bandit_party_2","AESEZX8S7Z3IC","either","1","117","","","","","","","1","0","0","0.5370473259","","0.4","0.6","0.8","0.2","","","","","0.01877214671","0.5245129891","0.372838406","0.5370473259","","","","","","","","","","76","L","3","","","103","main_expt",""
"","bandit","183","455083","0.0-145.0-0.0","22713938","wem/bandit_party_2","AESEZX8S7Z3IC","either","1","172","","","","","","","0","0","1","","0.549647281","0.4","0.6","0.8","0.2","0.01556743346","0.5170751474","0.3057692375","0.549647281","","","","","","","","","","","","","","76","L","3","","","104","main_expt",""
"","bandit","184","456626","0.0-146.0-0.0","22713938","wem/bandit_party_2","AESEZX8S7Z3IC","either","1","29","","","","","","","0","0","1","0.37369274","","0.4","0.6","0.8","0.2","","","","","0.03717147126","0.472330124","0.37369274","0.4225976111","","","","","","","","","","75","K","2","","","105","main_expt",""
"","bandit","185","458349","0.0-147.0-0.0","22713938","wem/bandit_party_2","AESEZX8S7Z3IC","either","1","208","","","","","","","0","0","1","0.568133852","","0.4","0.6","0.8","0.2","","","","","0.07687033395","0.568133852","0.3179799449","0.5005163425","","","","","","","","","","74","J","1","","","106","main_expt",""
"","bandit","186","459910","0.0-148.0-0.0","22713938","wem/bandit_party_2","AESEZX8S7Z3IC","either","1","52","","","","","","","0","1","0","","0.3995396385","0.4","0.6","0.8","0.2","0.07659049968","0.536018559","0.3053765494","0.3995396385","","","","","","","","","","","","","","76","L","3","","","107","main_expt",""
"","bandit","187","461696","0.0-149.0-0.0","22713938","wem/bandit_party_2","AESEZX8S7Z3IC","either","1","269","","","","","","","0","0","1","","0.2732860947","0.4","0.6","0.8","0.2","0.07827602418","0.3880888981","0.2732860947","0.3855926336","","","","","","","","","","","","","","75","K","2","","","108","main_expt",""
"","bandit","188","463576","0.0-150.0-0.0","22713938","wem/bandit_party_2","AESEZX8S7Z3IC","either","1","367","","","","","","","0","0","1","","0.3059937163","0.4","0.6","0.8","0.2","0.1352418701","0.3675045314","0.2624197952","0.3059937163","","","","","","","","","","","","","","76","L","3","","","109","main_expt",""
"","bandit","189","465158","0.0-151.0-0.0","22713938","wem/bandit_party_2","AESEZX8S7Z3IC","either","1","68","","","","","","","0","0","1","0.2752892785","","0.4","0.6","0.8","0.2","","","","","0.1705666919","0.4560700489","0.3303210632","0.2752892785","","","","","","","","","","76","L","3","","","110","main_expt",""
"","bandit","190","466900","0.0-152.0-0.0","22713938","wem/bandit_party_2","AESEZX8S7Z3IC","either","1","227","","","","","","","0","0","1","","0.2202970635","0.4","0.6","0.8","0.2","0.2202970635","0.5366389876","0.3541452024","0.3038626008","","","","","","","","","","","","","","72","H","0","img/none_selected.jpg","","111","main_expt",""
"","bandit","191","468653","0.0-153.0-0.0","22713938","wem/bandit_party_2","AESEZX8S7Z3IC","either","1","238","","","","","","","0","1","0","","0.5742054707","0.4","0.6","0.8","0.2","0.2368742277","0.5742054707","0.4468573219","0.2308866464","","","","","","","","","","","","","","74","J","1","","","112","main_expt",""
"","bandit","192","470273","0.0-154.0-0.0","22713938","wem/bandit_party_2","AESEZX8S7Z3IC","either","1","112","","","","","","","0","0","1","0.5163231944","","0.4","0.6","0.8","0.2","","","","","0.2487241586","0.6014260319","0.5163231944","0.2420052043","","","","","","","","","","75","K","2","","","113","main_expt",""
"","bandit","193","471791","0.0-155.0-0.0","22713938","wem/bandit_party_2","AESEZX8S7Z3IC","either","1","11","","","","","","","0","0","1","","0.3277817495","0.4","0.6","0.8","0.2","0.238824581","0.5398035654","0.4064640458","0.3277817495","","","","","","","","","","","","","","76","L","3","","","114","main_expt",""
"","bandit","194","473418","0.0-156.0-0.0","22713938","wem/bandit_party_2","AESEZX8S7Z3IC","either","1","119","","","","","","","0","1","0","","0.5008208772","0.4","0.6","0.8","0.2","0.1480638281","0.5008208772","0.4085425191","0.3280884562","","","","","","","","","","","","","","74","J","1","","","115","main_expt",""
"","bandit","195","475172","0.0-157.0-0.0","22713938","wem/bandit_party_2","AESEZX8S7Z3IC","either","1","238","","","","","","","0","0","1","0.4412864427","","0.4","0.6","0.8","0.2","","","","","0.1246447603","0.4200837231","0.4412864427","0.4137256642","","","","","","","","","","75","K","2","","","116","main_expt",""
"","bandit","196","477750","0.0-158.0-0.0","22713938","wem/bandit_party_2","AESEZX8S7Z3IC","either","1","1064","","","","","","","0","0","1","0.372751341","","0.4","0.6","0.8","0.2","","","","","0.1308085784","0.4094987027","0.5188885271","0.372751341","","","","","","","","","","76","L","3","","","117","main_expt",""
"","bandit","197","479442","0.0-159.0-0.0","22713938","wem/bandit_party_2","AESEZX8S7Z3IC","either","1","177","","","","","","","0","1","0","","0.4225631273","0.4","0.6","0.8","0.2","0.09076242324","0.3862907493","0.5728151575","0.4225631273","","","","","","","","","","","","","","76","L","3","","","118","main_expt",""
"","bandit","198","481534","0.0-160.0-0.0","22713938","wem/bandit_party_2","AESEZX8S7Z3IC","either","1","577","","","","","","","0","1","0","","0.4188482812","0.4","0.6","0.8","0.2","0.09057925276","0.4437318585","0.5065624602","0.4188482812","","","","","","","","","","","","","","76","L","3","","","119","main_expt",""
"","bandit","199","484235","0.0-161.0-0.0","22713938","wem/bandit_party_2","AESEZX8S7Z3IC","either","1","1188","","","","","","","0","0","1","","0.3729077829","0.4","0.6","0.8","0.2","0.1288926122","0.293469011","0.4064427813","0.3729077829","","","","","","","","","","","","","","76","L","3","","","120","main_expt",""
"","bandit","200","488645","0.0-162.0-0.0","22713938","wem/bandit_party_2","AESEZX8S7Z3IC","either","1","2896","","","","","","","0","0","1","","0.3817262037","0.4","0.6","0.8","0.2","0.1479701512","0.2141601759","0.3948988447","0.3817262037","","","","","","","","","","","","","","76","L","3","","","121","main_expt",""
"","bandit","201","494442","0.0-163.0-0.0","22713938","wem/bandit_party_2","AESEZX8S7Z3IC","either","1","4290","","","","","","","0","0","1","0.316823658","","0.4","0.6","0.8","0.2","","","","","0.1663524813","0.2594293103","0.316823658","0.3537210734","","","","","","","","","","75","K","2","","","122","main_expt",""
"","bandit","202","496732","0.0-164.0-0.0","22713938","wem/bandit_party_2","AESEZX8S7Z3IC","either","1","785","","","","","","","1","0","0","0.3045978244","","0.4","0.6","0.8","0.2","","","","","0.1993917655","0.1519240937","0.3045978244","0.3633727708","","","","","","","","","","75","K","2","","","123","main_expt",""
"","bandit","203","498923","0.0-165.0-0.0","22713938","wem/bandit_party_2","AESEZX8S7Z3IC","either","1","683","","","","","","","0","0","1","0.2389028675","","0.4","0.6","0.8","0.2","","","","","0.2948689786","0.2311656533","0.2389028675","0.4139908316","","","","","","","","","","75","K","2","","","124","main_expt",""
"","bandit","204","501981","0.0-166.0-0.0","22713938","wem/bandit_party_2","AESEZX8S7Z3IC","either","1","1542","","","","","","","0","0","1","0.2166803268","","0.4","0.6","0.8","0.2","","","","","0.4054398129","0.1956748967","0.2166803268","0.3619800754","","","","","","","","","","75","K","2","","","125","main_expt",""
"","bandit","205","503765","0.0-167.0-0.0","22713938","wem/bandit_party_2","AESEZX8S7Z3IC","either","1","267","","","","","","","0","0","1","0.1613674106","","0.4","0.6","0.8","0.2","","","","","0.5337661481","0.1419383156","0.1613674106","0.353362548","","","","","","","","","","75","K","2","","","126","main_expt",""
"","bandit","206","506650","0.0-168.0-0.0","22713938","wem/bandit_party_2","AESEZX8S7Z3IC","either","1","1367","","","","","","","0","0","1","","0.2888217425","0.4","0.6","0.8","0.2","0.5510518781","0.1768105291","0.1682412955","0.2888217425","","","","","","","","","","","","","","76","L","3","","","127","main_expt",""
"","bandit","207","508196","0.0-169.0-0.0","22713938","wem/bandit_party_2","AESEZX8S7Z3IC","either","1","30","","","","","","","0","0","1","","0.3131893798","0.4","0.6","0.8","0.2","0.4746642732","0.1187699492","0.1655910943","0.3131893798","","","","","","","","","","","","","","76","L","3","","","128","main_expt",""
"","bandit","208","509811","0.0-170.0-0.0","22713938","wem/bandit_party_2","AESEZX8S7Z3IC","either","1","100","","","","","","","0","0","1","0.1845506081","","0.4","0.6","0.8","0.2","","","","","0.5345142674","0.1860330609","0.1845506081","0.2826861836","","","","","","","","","","75","K","2","","","129","main_expt",""
"","bandit","209","512227","0.0-171.0-0.0","22713938","wem/bandit_party_2","AESEZX8S7Z3IC","either","1","900","","","","","","","0","0","1","0.1548240476","","0.4","0.6","0.8","0.2","","","","","0.6617219445","0.09722607165","0.1548240476","0.3434973012","","","","","","","","","","75","K","2","","","130","main_expt",""
"","bandit","210","513999","0.0-172.0-0.0","22713938","wem/bandit_party_2","AESEZX8S7Z3IC","either","1","255","","","","","","","0","0","1","","0.05626421391","0.4","0.6","0.8","0.2","0.6183560712","0.05626421391","0.1503989","0.3848082556","","","","","","","","","","","","","","74","J","1","","","131","main_expt",""
"","bandit","211","515852","0.0-173.0-0.0","22713938","wem/bandit_party_2","AESEZX8S7Z3IC","either","1","338","","","","","","","0","0","1","0.1149854728","","0.4","0.6","0.8","0.2","","","","","0.7009512511","0.1149854728","0.1199593994","0.4140069858","","","","","","","","","","74","J","1","","","132","main_expt",""
"","bandit","212","517458","0.0-174.0-0.0","22713938","wem/bandit_party_2","AESEZX8S7Z3IC","either","1","89","","","","","","","0","0","1","0.1698175541","","0.4","0.6","0.8","0.2","","","","","0.5838974895","0.1698175541","0.1518383839","0.3745017877","","","","","","","","","","74","J","1","","","133","main_expt",""
"","bandit","213","519144","0.0-175.0-0.0","22713938","wem/bandit_party_2","AESEZX8S7Z3IC","either","1","170","","","","","","","0","0","1","","0.3918835711","0.4","0.6","0.8","0.2","0.6628563986","0.1925371395","0.1855528241","0.3918835711","","","","","","","","","","","","","","76","L","3","","","134","main_expt",""
"","bandit","214","520990","0.0-176.0-0.0","22713938","wem/bandit_party_2","AESEZX8S7Z3IC","either","1","331","","","","","","","1","0","0","0.5610912218","","0.4","0.6","0.8","0.2","","","","","0.5610912218","0.246136332","0.2187769305","0.3405764209","","","","","","","","","","72","H","0","img/none_selected.jpg","","135","main_expt",""
"","bandit","215","523537","0.0-177.0-0.0","22713938","wem/bandit_party_2","AESEZX8S7Z3IC","either","1","1039","","","","","","","0","1","0","","0.4834649218","0.4","0.6","0.8","0.2","0.4834649218","0.2277518718","0.2001534018","0.4155430462","","","","","","","","","","","","","","72","H","0","img/none_selected.jpg","","136","main_expt",""
"","bandit","216","525174","0.0-178.0-0.0","22713938","wem/bandit_party_2","AESEZX8S7Z3IC","either","1","123","","","","","","","0","1","0","","0.513072369","0.4","0.6","0.8","0.2","0.513072369","0.252962458","0.176995917","0.3389252929","","","","","","","","","","","","","","72","H","0","img/none_selected.jpg","","137","main_expt",""
"","bandit","217","527099","0.0-179.0-0.0","22713938","wem/bandit_party_2","AESEZX8S7Z3IC","either","1","415","","","","","","","0","0","1","0.5502636267","","0.4","0.6","0.8","0.2","","","","","0.5502636267","0.3018696236","0.1460019238","0.2698753193","","","","","","","","","","72","H","0","img/none_selected.jpg","","138","main_expt",""
"","bandit","218","529154","0.0-180.0-0.0","22713938","wem/bandit_party_2","AESEZX8S7Z3IC","either","1","550","","","","","","","0","1","0","","0.4564922144","0.4","0.6","0.8","0.2","0.4564922144","0.347353107","0.06707115951","0.2821570394","","","","","","","","","","","","","","72","H","0","img/none_selected.jpg","","139","main_expt",""
"","bandit","219","531261","0.0-181.0-0.0","22713938","wem/bandit_party_2","AESEZX8S7Z3IC","either","1","598","","","","","","","1","0","0","0.4116013625","","0.4","0.6","0.8","0.2","","","","","0.4116013625","0.2477375586","0.1071331831","0.3577533322","","","","","","","","","","72","H","0","img/none_selected.jpg","","140","main_expt",""
"","bandit","220","533335","0.0-182.0-0.0","22713938","wem/bandit_party_2","AESEZX8S7Z3IC","either","1","496","","","","","","","0","0","1","","0.4498847811","0.4","0.6","0.8","0.2","0.4498847811","0.2880826197","0.1224459691","0.4250900652","","","","","","","","","","","","","","72","H","0","img/none_selected.jpg","","141","main_expt",""
"","bandit","221","535286","0.0-183.0-0.0","22713938","wem/bandit_party_2","AESEZX8S7Z3IC","either","1","437","","","","","","","0","0","1","","0.4822150968","0.4","0.6","0.8","0.2","0.4822150968","0.2287108423","0.1127900777","0.3451055681","","","","","","","","","","","","","","72","H","0","img/none_selected.jpg","","142","main_expt",""
"","bandit","222","538341","0.0-184.0-0.0","22713938","wem/bandit_party_2","AESEZX8S7Z3IC","either","1","1540","","","","","","","1","0","0","0.513506041","","0.4","0.6","0.8","0.2","","","","","0.513506041","0.2096850542","0.1736101882","0.4661026996","","","","","","","","","","72","H","0","img/none_selected.jpg","","143","main_expt",""
"","bandit","223","539942","0.0-185.0-0.0","22713938","wem/bandit_party_2","AESEZX8S7Z3IC","either","1","86","","","","","","","0","0","1","0.556822441","","0.4","0.6","0.8","0.2","","","","","0.556822441","0.2214165798","0.1231714597","0.4683168179","","","","","","","","","","72","H","0","img/none_selected.jpg","","144","main_expt",""
"","bandit","224","541652","0.0-186.0-0.0","22713938","wem/bandit_party_2","AESEZX8S7Z3IC","either","1","194","","","","","","","0","0","1","","0.5633269006","0.4","0.6","0.8","0.2","0.5633269006","0.2412424024","0.10514291","0.448697065","","","","","","","","","","","","","","72","H","0","img/none_selected.jpg","","145","main_expt",""
"","bandit","225","543227","0.0-187.0-0.0","22713938","wem/bandit_party_2","AESEZX8S7Z3IC","either","1","59","","","","","","","0","0","1","","0.1841611904","0.4","0.6","0.8","0.2","0.6482805244","0.1841611904","0.0972381369","0.4560677512","","","","","","","","","","","","","","74","J","1","","","146","main_expt",""
"","bandit","226","544881","0.0-188.0-0.0","22713938","wem/bandit_party_2","AESEZX8S7Z3IC","either","1","138","","","","","","","0","0","1","0.1897119627","","0.4","0.6","0.8","0.2","","","","","0.6036290043","0.1577922033","0.1897119627","0.513472809","","","","","","","","","","75","K","2","","","147","main_expt",""
"","bandit","227","546642","0.0-189.0-0.0","22713938","wem/bandit_party_2","AESEZX8S7Z3IC","either","1","252","","","","","","","0","0","1","0.1759094881","","0.4","0.6","0.8","0.2","","","","","0.6110248825","0.1663963597","0.1759094881","0.3820674583","","","","","","","","","","75","K","2","","","148","main_expt",""
"","bandit","228","548349","0.0-190.0-0.0","22713938","wem/bandit_party_2","AESEZX8S7Z3IC","either","1","171","","","","","","","0","0","1","","0.3116557105","0.4","0.6","0.8","0.2","0.6453676348","0.319747154","0.2204336569","0.3116557105","","","","","","","","","","","","","","76","L","3","","","149","main_expt",""
"","bandit","229","550050","0.0-191.0-0.0","22713938","wem/bandit_party_2","AESEZX8S7Z3IC","either","1","191","","","","","","","0","1","0","","0.3039338698","0.4","0.6","0.8","0.2","0.66235511","0.5410110608","0.2328853871","0.3039338698","","","","","","","","","","","","","","76","L","3","","","150","main_expt",""
"","bandit","230","551904","0.0-192.0-0.0","22713938","wem/bandit_party_2","AESEZX8S7Z3IC","either","1","338","","","","","","","0","0","1","","0.3092958796","0.4","0.6","0.8","0.2","0.5547575852","0.5584745132","0.2652525627","0.3092958796","","","","","","","","","","","","","","76","L","3","","","151","main_expt",""
"","bandit","231","553595","0.0-193.0-0.0","22713938","wem/bandit_party_2","AESEZX8S7Z3IC","either","1","177","","","","","","","0","0","1","","0.5223098228","0.4","0.6","0.8","0.2","0.5223098228","0.5709378499","0.2654363334","0.3097370874","","","","","","","","","","","","","","72","H","0","img/none_selected.jpg","","152","main_expt",""
"","bandit","232","555401","0.0-194.0-0.0","22713938","wem/bandit_party_2","AESEZX8S7Z3IC","either","1","289","","","","","","","0","1","0","","0.2955649657","0.4","0.6","0.8","0.2","0.5137303037","0.6314515046","0.3505589273","0.2955649657","","","","","","","","","","","","","","76","L","3","","","153","main_expt",""
"","bandit","233","557211","0.0-195.0-0.0","22713938","wem/bandit_party_2","AESEZX8S7Z3IC","either","1","303","","","","","","","0","1","0","","0.221553637","0.4","0.6","0.8","0.2","0.5193194566","0.6734276465","0.39889796","0.221553637","","","","","","","","","","","","","","76","L","3","","","154","main_expt",""
"","bandit","234","558796","0.0-196.0-0.0","22713938","wem/bandit_party_2","AESEZX8S7Z3IC","either","1","67","","","","","","","0","0","1","","0.2231547498","0.4","0.6","0.8","0.2","0.4736812385","0.7019144477","0.4202606707","0.2231547498","","","","","","","","","","","","","","76","L","3","","","155","main_expt",""
"","bandit","235","560884","0.0-197.0-0.0","22713938","wem/bandit_party_2","AESEZX8S7Z3IC","either","1","580","","","","","","","0","1","0","","0.2750957943","0.4","0.6","0.8","0.2","0.4616442501","0.6695455193","0.4814159609","0.2750957943","","","","","","","","","","","","","","76","L","3","","","156","main_expt",""
"","bandit","236","567588","0.0-198.0-0.0","22713938","wem/bandit_party_2","AESEZX8S7Z3IC","either","1","5187","","","","","","","0","1","0","","0.2005793054","0.4","0.6","0.8","0.2","0.5025740222","0.6179864128","0.5316807058","0.2005793054","","","","","","","","","","","","","","76","L","3","","","157","main_expt",""
"","bandit","237","569425","0.0-199.0-0.0","22713938","wem/bandit_party_2","AESEZX8S7Z3IC","either","1","331","","","","","","","0","1","0","","0.2502080146","0.4","0.6","0.8","0.2","0.4548105643","0.7380689997","0.5429668589","0.2502080146","","","","","","","","","","","","","","76","L","3","","","158","main_expt",""
"","bandit","238","571243","0.0-200.0-0.0","22713938","wem/bandit_party_2","AESEZX8S7Z3IC","either","1","313","","","","","","","0","0","1","0.2729805177","","0.4","0.6","0.8","0.2","","","","","0.4622667215","0.7632184112","0.5991419929","0.2729805177","","","","","","","","","","76","L","3","","","159","main_expt",""
"","bandit","239","572855","0.0-201.0-0.0","22713938","wem/bandit_party_2","AESEZX8S7Z3IC","either","1","105","","","","","","","1","0","0","0.6480894682","","0.4","0.6","0.8","0.2","","","","","0.4600517474","0.6917664031","0.6480894682","0.2801697818","","","","","","","","","","75","K","2","","","160","main_expt",""
"","bandit","240","574640","0.0-202.0-0.0","22713938","wem/bandit_party_2","AESEZX8S7Z3IC","either","1","276","","","","","","","0","0","1","0.7106531984","","0.4","0.6","0.8","0.2","","","","","0.481388234","0.7106531984","0.6776161973","0.2437938608","","","","","","","","","","74","J","1","","","161","main_expt",""
"","bandit","241","576203","0.0-203.0-0.0","22713938","wem/bandit_party_2","AESEZX8S7Z3IC","either","1","46","","","","","","","0","0","1","0.7134031715","","0.4","0.6","0.8","0.2","","","","","0.3850106192","0.809310282","0.7134031715","0.2687553501","","","","","","","","","","75","K","2","","","162","main_expt",""
"","bandit","242","577867","0.0-204.0-0.0","22713938","wem/bandit_party_2","AESEZX8S7Z3IC","either","1","146","","","","","","","0","1","0","","0.245991677","0.4","0.6","0.8","0.2","0.3498723973","0.7492875705","0.6215635068","0.245991677","","","","","","","","","","","","","","76","L","3","","","163","main_expt",""
"","bandit","243","579600","0.0-205.0-0.0","22713938","wem/bandit_party_2","AESEZX8S7Z3IC","either","1","215","","","","","","","0","0","1","0.270385563","","0.4","0.6","0.8","0.2","","","","","0.4287417444","0.7561394707","0.5219240024","0.270385563","","","","","","","","","","76","L","3","","","164","main_expt",""
"","bandit","244","581480","0.0-206.0-0.0","22713938","wem/bandit_party_2","AESEZX8S7Z3IC","either","1","365","","","","","","","0","0","1","0.3150145745","","0.4","0.6","0.8","0.2","","","","","0.3150145745","0.8111415702","0.4727302842","0.3037855967","","","","","","","","","","72","H","0","img/none_selected.jpg","","165","main_expt",""
"","bandit","245","583249","0.0-207.0-0.0","22713938","wem/bandit_party_2","AESEZX8S7Z3IC","either","1","251","","","","","","","0","0","1","0.5181018645","","0.4","0.6","0.8","0.2","","","","","0.2927018344","0.7759938205","0.5181018645","0.3395577104","","","","","","","","","","75","K","2","","","166","main_expt",""
"","bandit","246","585023","0.0-208.0-0.0","22713938","wem/bandit_party_2","AESEZX8S7Z3IC","either","1","257","","","","","","","0","1","0","","0.8267633335","0.4","0.6","0.8","0.2","0.3610256338","0.8267633335","0.5280433419","0.3443901906","","","","","","","","","","","","","","74","J","1","","","167","main_expt",""
"","bandit","247","587032","0.0-209.0-0.0","22713938","wem/bandit_party_2","AESEZX8S7Z3IC","either","1","493","","","","","","","1","0","0","0.8136073627","","0.4","0.6","0.8","0.2","","","","","0.3137127159","0.8136073627","0.5470010145","0.2552323567","","","","","","","","","","74","J","1","","","168","main_expt",""
"","bandit","248","589050","0.0-210.0-0.0","22713938","wem/bandit_party_2","AESEZX8S7Z3IC","either","1","510","","","","","","","1","0","0","0.7308533614","","0.4","0.6","0.8","0.2","","","","","0.2292796242","0.7308533614","0.5558845962","0.289352286","","","","","","","","","","74","J","1","","","169","main_expt",""
"","bandit","249","590912","0.0-211.0-0.0","22713938","wem/bandit_party_2","AESEZX8S7Z3IC","either","1","344","","","","","","","1","0","0","0.7090730391","","0.4","0.6","0.8","0.2","","","","","0.221948569","0.7090730391","0.5799309324","0.2262743404","","","","","","","","","","74","J","1","","","170","main_expt",""
"","bandit","250","592828","0.0-212.0-0.0","22713938","wem/bandit_party_2","AESEZX8S7Z3IC","either","1","399","","","","","","","0","0","1","0.7229684446","","0.4","0.6","0.8","0.2","","","","","0.159615594","0.7229684446","0.6643953266","0.2644351609","","","","","","","","","","74","J","1","","","171","main_expt",""
"","bandit","251","594922","0.0-213.0-0.0","22713938","wem/bandit_party_2","AESEZX8S7Z3IC","either","1","576","","","","","","","0","0","1","","0.4136296373","0.4","0.6","0.8","0.2","0.1303854457","0.6612043244","0.7610666705","0.4136296373","","","","","","","","","","","","","","76","L","3","","","172","main_expt",""
"","bandit","252","597005","0.0-214.0-0.0","22713938","wem/bandit_party_2","AESEZX8S7Z3IC","either","1","565","","","","","","","0","0","1","","0.491318492","0.4","0.6","0.8","0.2","0.07729024622","0.7669021743","0.8006149786","0.491318492","","","","","","","","","","","","","","76","L","3","","","173","main_expt",""
"","bandit","253","598963","0.0-215.0-0.0","22713938","wem/bandit_party_2","AESEZX8S7Z3IC","either","1","439","","","","","","","0","0","1","0.4966763124","","0.4","0.6","0.8","0.2","","","","","0.1227026474","0.8111867287","0.791095403","0.4966763124","","","","","","","","","","76","L","3","","","174","main_expt",""
"","bandit","254","600786","0.0-216.0-0.0","22713938","wem/bandit_party_2","AESEZX8S7Z3IC","either","1","306","","","","","","","0","0","1","","0.5109350621","0.4","0.6","0.8","0.2","0.09483306355","0.8192498968","0.8572088762","0.5109350621","","","","","","","","","","","","","","76","L","3","","","175","main_expt",""
"","bandit","255","602586","0.0-217.0-0.0","22713938","wem/bandit_party_2","AESEZX8S7Z3IC","either","1","284","","","","","","","1","0","0","0.8576080684","","0.4","0.6","0.8","0.2","","","","","0.143069758","0.8371283275","0.8576080684","0.6321295754","","","","","","","","","","75","K","2","","","176","main_expt",""
"","bandit","256","604388","0.0-218.0-0.0","22713938","wem/bandit_party_2","AESEZX8S7Z3IC","either","1","293","","","","","","","1","0","0","0.8545140947","","0.4","0.6","0.8","0.2","","","","","0.1741656422","0.8545140947","0.8678158231","0.5515755996","","","","","","","","","","74","J","1","","","177","main_expt",""
"","bandit","257","606137","0.0-219.0-0.0","22713938","wem/bandit_party_2","AESEZX8S7Z3IC","either","1","242","","","","","","","0","0","1","0.5086275016","","0.4","0.6","0.8","0.2","","","","","0.1904086474","0.8794893657","0.8820542777","0.5086275016","","","","","","","","","","76","L","3","","","178","main_expt",""
"","bandit","258","607898","0.0-220.0-0.0","22713938","wem/bandit_party_2","AESEZX8S7Z3IC","either","1","254","","","","","","","1","0","0","0.8907334788","","0.4","0.6","0.8","0.2","","","","","0.1778905233","0.8939587296","0.8907334788","0.5215192908","","","","","","","","","","75","K","2","","","179","main_expt",""
"","bandit","259","611015","0.0-221.0-0.0","22713938","wem/bandit_party_2","AESEZX8S7Z3IC","either","1","1609","","","","","","","1","0","0","0.9161653667","","0.4","0.6","0.8","0.2","","","","","0.2112817454","0.868077767","0.9161653667","0.5193414217","","","","","","","","","","75","K","2","","","180","main_expt",""
"","bandit","260","612596","0.0-222.0-0.0","22713938","wem/bandit_party_2","AESEZX8S7Z3IC","either","1","72","","","","","","","1","0","0","0.9295405476","","0.4","0.6","0.8","0.2","","","","","0.2236312472","0.9295405476","0.9327112184","0.4613460131","","","","","","","","","","74","J","1","","","181","main_expt",""
"","bandit","261","614166","0.0-223.0-0.0","22713938","wem/bandit_party_2","AESEZX8S7Z3IC","either","1","52","","","","","","","0","0","1","","0.4468633868","0.4","0.6","0.8","0.2","0.264467441","0.9213574857","0.9284398706","0.4468633868","","","","","","","","","","","","","","76","L","3","","","182","main_expt",""
"","bandit","262","615871","0.0-224.0-0.0","22713938","wem/bandit_party_2","AESEZX8S7Z3IC","either","1","187","","","","","","","1","0","0","0.89591471","","0.4","0.6","0.8","0.2","","","","","0.2240632979","0.9374560388","0.89591471","0.4985091709","","","","","","","","","","75","K","2","","","183","main_expt",""
"","bandit","263","617946","0.0-225.0-0.0","22713938","wem/bandit_party_2","AESEZX8S7Z3IC","either","1","555","","","","","","","1","0","0","0.9120054929","","0.4","0.6","0.8","0.2","","","","","0.1671404848","0.9120054929","0.9146434193","0.6057575335","","","","","","","","","","74","J","1","","","184","main_expt",""
"","bandit","264","619763","0.0-226.0-0.0","22713938","wem/bandit_party_2","AESEZX8S7Z3IC","either","1","298","","","","","","","0","0","1","0.1932257563","","0.4","0.6","0.8","0.2","","","","","0.1932257563","0.8428471033","0.8575823977","0.4915456485","","","","","","","","","","72","H","0","img/none_selected.jpg","","185","main_expt",""
"","bandit","265","621624","0.0-227.0-0.0","22713938","wem/bandit_party_2","AESEZX8S7Z3IC","either","1","342","","","","","","","0","1","0","","0.5976273718","0.4","0.6","0.8","0.2","0.155472597","0.7734335662","0.8487952361","0.5976273718","","","","","","","","","","","","","","76","L","3","","","186","main_expt",""
"","bandit","266","623654","0.0-228.0-0.0","22713938","wem/bandit_party_2","AESEZX8S7Z3IC","either","1","511","","","","","","","1","0","0","0.8603972339","","0.4","0.6","0.8","0.2","","","","","0.1895871356","0.7667319261","0.8603972339","0.5743595779","","","","","","","","","","75","K","2","","","187","main_expt",""
"","bandit","267","625434","0.0-229.0-0.0","22713938","wem/bandit_party_2","AESEZX8S7Z3IC","either","1","261","","","","","","","0","1","0","","0.5945875292","0.4","0.6","0.8","0.2","0.2119556673","0.5945875292","0.8834510925","0.6833173747","","","","","","","","","","","","","","74","J","1","","","188","main_expt",""
"","bandit","268","627131","0.0-230.0-0.0","22713938","wem/bandit_party_2","AESEZX8S7Z3IC","either","1","181","","","","","","","1","0","0","0.2255007403","","0.4","0.6","0.8","0.2","","","","","0.2255007403","0.7406569186","0.8973947779","0.651089354","","","","","","","","","","72","H","0","img/none_selected.jpg","","189","main_expt",""
"","bandit","269","629004","0.0-231.0-0.0","22713938","wem/bandit_party_2","AESEZX8S7Z3IC","either","1","356","","","","","","","1","0","0","0.6599652607","","0.4","0.6","0.8","0.2","","","","","0.1754842532","0.7371931777","0.8824587855","0.6599652607","","","","","","","","","","76","L","3","","","190","main_expt",""
"","bandit","270","630597","0.0-232.0-0.0","22713938","wem/bandit_party_2","AESEZX8S7Z3IC","either","1","76","","","","","","","1","0","0","0.9076431997","","0.4","0.6","0.8","0.2","","","","","0.1936311571","0.7019705866","0.9076431997","0.6960236584","","","","","","","","","","75","K","2","","","191","main_expt",""
"","bandit","271","632234","0.0-233.0-0.0","22713938","wem/bandit_party_2","AESEZX8S7Z3IC","either","1","122","","","","","","","1","0","0","0.6198122665","","0.4","0.6","0.8","0.2","","","","","0.215612591","0.6198122665","0.8673165995","0.6713911156","","","","","","","","","","74","J","1","","","192","main_expt",""
"","bandit","272","633832","0.0-234.0-0.0","22713938","wem/bandit_party_2","AESEZX8S7Z3IC","either","1","81","","","","","","","0","1","0","","0.7244072205","0.4","0.6","0.8","0.2","0.2818734505","0.6100930929","0.8264401474","0.7244072205","","","","","","","","","","","","","","76","L","3","","","193","main_expt",""
"","bandit","273","635439","0.0-235.0-0.0","22713938","wem/bandit_party_2","AESEZX8S7Z3IC","either","1","98","","","","","","","1","0","0","0.8546086414","","0.4","0.6","0.8","0.2","","","","","0.3616108755","0.6332739585","0.8546086414","0.7397798508","","","","","","","","","","75","K","2","","","194","main_expt",""
"","bandit","274","637215","0.0-236.0-0.0","22713938","wem/bandit_party_2","AESEZX8S7Z3IC","either","1","260","","","","","","","1","0","0","0.609207161","","0.4","0.6","0.8","0.2","","","","","0.3979961615","0.609207161","0.7914914872","0.7602069811","","","","","","","","","","74","J","1","","","195","main_expt",""
"","bandit","275","639052","0.0-237.0-0.0","22713938","wem/bandit_party_2","AESEZX8S7Z3IC","either","1","311","","","","","","","0","0","1","","0.7114092524","0.4","0.6","0.8","0.2","0.4366641927","0.6560649547","0.7608346536","0.7114092524","","","","","","","","","","","","","","76","L","3","","","196","main_expt",""
"","bandit","276","640714","0.0-238.0-0.0","22713938","wem/bandit_party_2","AESEZX8S7Z3IC","either","1","151","","","","","","","0","0","1","0.7003784325","","0.4","0.6","0.8","0.2","","","","","0.560782874","0.6656533059","0.7003784325","0.6917424169","","","","","","","","","","75","K","2","","","197","main_expt",""
"","bandit","277","642549","0.0-239.0-0.0","22713938","wem/bandit_party_2","AESEZX8S7Z3IC","either","1","317","","","","","","","0","0","1","","0.6841747727","0.4","0.6","0.8","0.2","0.5649388288","0.6841747727","0.6036075577","0.6561069913","","","","","","","","","","","","","","74","J","1","","","198","main_expt",""
"","bandit","278","644156","0.0-240.0-0.0","22713938","wem/bandit_party_2","AESEZX8S7Z3IC","either","1","88","","","","","","","0","1","0","","0.6948346643","0.4","0.6","0.8","0.2","0.5375892324","0.7105065455","0.5843314555","0.6948346643","","","","","","","","","","","","","","76","L","3","","","199","main_expt",""
"","bandit","279","645950","0.0-241.0-0.0","22713938","wem/bandit_party_2","AESEZX8S7Z3IC","either","1","275","","","","","","","0","1","0","","0.7369743936","0.4","0.6","0.8","0.2","0.5625167851","0.7380433654","0.539414212","0.7369743936","","","","","","","","","","","","","","76","L","3","","","200","main_expt",""
"","bandit","280","647770","0.0-242.0-0.0","22713938","wem/bandit_party_2","AESEZX8S7Z3IC","either","1","311","","","","","","","0","1","0","","0.8347268415","0.4","0.6","0.8","0.2","0.6266810217","0.6432951689","0.3774065742","0.8347268415","","","","","","","","","","","","","","76","L","3","","","201","main_expt",""
"","bandit","281","649427","0.0-243.0-0.0","22713938","wem/bandit_party_2","AESEZX8S7Z3IC","either","1","149","","","","","","","0","1","0","","0.7612264534","0.4","0.6","0.8","0.2","0.6661075828","0.4995879772","0.2824615609","0.7612264534","","","","","","","","","","","","","","76","L","3","","","202","main_expt",""
"","bandit","282","651252","0.0-244.0-0.0","22713938","wem/bandit_party_2","AESEZX8S7Z3IC","either","1","316","","","","","","","0","1","0","","0.6904596671","0.4","0.6","0.8","0.2","0.7534099026","0.4767352753","0.210170224","0.6904596671","","","","","","","","","","","","","","76","L","3","","","203","main_expt",""
"","bandit","283","653120","0.0-245.0-0.0","22713938","wem/bandit_party_2","AESEZX8S7Z3IC","either","1","357","","","","","","","0","1","0","","0.6855485072","0.4","0.6","0.8","0.2","0.7033522103","0.3680612217","0.2708138581","0.6855485072","","","","","","","","","","","","","","76","L","3","","","204","main_expt",""
"","bandit","284","655016","0.0-246.0-0.0","22713938","wem/bandit_party_2","AESEZX8S7Z3IC","either","1","385","","","","","","","0","1","0","","0.7006332368","0.4","0.6","0.8","0.2","0.6105989365","0.3404512965","0.3319820794","0.7006332368","","","","","","","","","","","","","","76","L","3","","","205","main_expt",""
"","bandit","285","656833","0.0-247.0-0.0","22713938","wem/bandit_party_2","AESEZX8S7Z3IC","either","1","298","","","","","","","0","1","0","","0.7533130943","0.4","0.6","0.8","0.2","0.725137222","0.2774568564","0.3517339603","0.7533130943","","","","","","","","","","","","","","76","L","3","","","206","main_expt",""
"","bandit","286","658639","0.0-248.0-0.0","22713938","wem/bandit_party_2","AESEZX8S7Z3IC","either","1","285","","","","","","","0","1","0","","0.7191760557","0.4","0.6","0.8","0.2","0.5888984072","0.2228883469","0.2871079035","0.7191760557","","","","","","","","","","","","","","76","L","3","","","207","main_expt",""
"","bandit","287","660464","0.0-249.0-0.0","22713938","wem/bandit_party_2","AESEZX8S7Z3IC","either","1","304","","","","","","","0","1","0","","0.6264293856","0.4","0.6","0.8","0.2","0.4650323514","0.2829247412","0.2642306377","0.6264293856","","","","","","","","","","","","","","76","L","3","","","208","main_expt",""
"","bandit","288","662122","0.0-250.0-0.0","22713938","wem/bandit_party_2","AESEZX8S7Z3IC","either","1","140","","","","","","","1","0","0","0.6500478562","","0.4","0.6","0.8","0.2","","","","","0.4100719568","0.3169104167","0.3587725811","0.6500478562","","","","","","","","","","76","L","3","","","209","main_expt",""
"","bandit","289","663916","0.0-251.0-0.0","22713938","wem/bandit_party_2","AESEZX8S7Z3IC","either","1","276","","","","","","","0","0","1","","0.6498865343","0.4","0.6","0.8","0.2","0.5177296744","0.2090062306","0.3103342645","0.6498865343","","","","","","","","","","","","","","76","L","3","","","210","main_expt",""
"","bandit","290","665528","0.0-252.0-0.0","22713938","wem/bandit_party_2","AESEZX8S7Z3IC","either","1","104","","","","","","","0","1","0","","0.3760595068","0.4","0.6","0.8","0.2","0.5950812693","0.1481662818","0.3760595068","0.6056301442","","","","","","","","","","","","","","75","K","2","","","211","main_expt",""
"","bandit","291","667314","0.0-253.0-0.0","22713938","wem/bandit_party_2","AESEZX8S7Z3IC","either","1","278","","","","","","","1","0","0","0.447023013","","0.4","0.6","0.8","0.2","","","","","0.7169745983","0.2114888193","0.447023013","0.5524844402","","","","","","","","","","75","K","2","","","212","main_expt",""
"","bandit","292","668950","0.0-254.0-0.0","22713938","wem/bandit_party_2","AESEZX8S7Z3IC","either","1","127","","","","","","","1","0","0","0.6984249358","","0.4","0.6","0.8","0.2","","","","","0.6766124197","0.2234642754","0.4529182837","0.6984249358","","","","","","","","","","76","L","3","","","213","main_expt",""
"","bandit","293","670741","0.0-255.0-0.0","22713938","wem/bandit_party_2","AESEZX8S7Z3IC","either","1","282","","","","","","","1","0","0","0.5996975418","","0.4","0.6","0.8","0.2","","","","","0.8005648136","0.2315139555","0.4306534983","0.5996975418","","","","","","","","","","76","L","3","","","214","main_expt",""
"","bandit","294","672574","0.0-256.0-0.0","22713938","wem/bandit_party_2","AESEZX8S7Z3IC","either","1","251","","","","","","","1","0","0","0.8487964291","","0.4","0.6","0.8","0.2","","","","","0.8487964291","0.1949488974","0.4314469479","0.6067129047","","","","","","","","","","72","H","0","img/none_selected.jpg","","215","main_expt",""
"","bandit","295","674346","0.0-257.0-0.0","22713938","wem/bandit_party_2","AESEZX8S7Z3IC","either","1","261","","","","","","","1","0","0","0.8674123454","","0.4","0.6","0.8","0.2","","","","","0.8674123454","0.2333303883","0.45439575","0.6297976658","","","","","","","","","","72","H","0","img/none_selected.jpg","","216","main_expt",""
"","bandit","296","676211","0.0-258.0-0.0","22713938","wem/bandit_party_2","AESEZX8S7Z3IC","either","1","356","","","","","","","0","1","0","","0.8774404243","0.4","0.6","0.8","0.2","0.8774404243","0.2027763819","0.5228861726","0.6095272491","","","","","","","","","","","","","","72","H","0","img/none_selected.jpg","","217","main_expt",""
"","bandit","297","678170","0.0-259.0-0.0","22713938","wem/bandit_party_2","AESEZX8S7Z3IC","either","1","444","","","","","","","0","0","1","","0.1895874514","0.4","0.6","0.8","0.2","0.8836448068","0.1895874514","0.463703458","0.7058099393","","","","","","","","","","","","","","74","J","1","","","218","main_expt",""
"","bandit","298","680056","0.0-260.0-0.0","22713938","wem/bandit_party_2","AESEZX8S7Z3IC","either","1","380","","","","","","","0","0","1","","0.7396246451","0.4","0.6","0.8","0.2","0.880498508","0.1537120117","0.4522864467","0.7396246451","","","","","","","","","","","","","","76","L","3","","","219","main_expt",""
"","bandit","299","681798","0.0-261.0-0.0","22713938","wem/bandit_party_2","AESEZX8S7Z3IC","either","1","236","","","","","","","0","1","0","","0.7091968036","0.4","0.6","0.8","0.2","0.8740874997","0.2022747423","0.4561576612","0.7091968036","","","","","","","","","","","","","","76","L","3","","","220","main_expt",""
"","bandit","300","683419","0.0-262.0-0.0","22713938","wem/bandit_party_2","AESEZX8S7Z3IC","either","1","108","","","","","","","0","0","1","","0.7116308873","0.4","0.6","0.8","0.2","0.8527830905","0.3174413427","0.4264657168","0.7116308873","","","","","","","","","","","","","","76","L","3","","","221","main_expt",""
"","bandit","301","685084","0.0-263.0-0.0","22713938","wem/bandit_party_2","AESEZX8S7Z3IC","either","1","157","","","","","","","0","1","0","","0.769465391","0.4","0.6","0.8","0.2","0.7717907476","0.2315667073","0.3055141729","0.769465391","","","","","","","","","","","","","","76","L","3","","","222","main_expt",""
"","bandit","302","686952","0.0-264.0-0.0","22713938","wem/bandit_party_2","AESEZX8S7Z3IC","either","1","360","","","","","","","0","1","0","","0.7509006974","0.4","0.6","0.8","0.2","0.8359700354","0.2261006122","0.2868954791","0.7509006974","","","","","","","","","","","","","","76","L","3","","","223","main_expt",""
"","bandit","303","688678","0.0-265.0-0.0","22713938","wem/bandit_party_2","AESEZX8S7Z3IC","either","1","212","","","","","","","0","1","0","","0.7007688409","0.4","0.6","0.8","0.2","0.819670806","0.2662378096","0.2698185242","0.7007688409","","","","","","","","","","","","","","76","L","3","","","224","main_expt",""
"","bandit","304","690302","0.0-266.0-0.0","22713938","wem/bandit_party_2","AESEZX8S7Z3IC","either","1","117","","","","","","","0","1","0","","0.7409020096","0.4","0.6","0.8","0.2","0.8512382749","0.2163280173","0.213842325","0.7409020096","","","","","","","","","","","","","","76","L","3","","","225","main_expt",""
"","bandit","305","692147","0.0-267.0-0.0","22713938","wem/bandit_party_2","AESEZX8S7Z3IC","either","1","327","","","","","","","0","1","0","","0.7052945704","0.4","0.6","0.8","0.2","0.8342861847","0.2809353625","0.1616408491","0.7052945704","","","","","","","","","","","","","","76","L","3","","","226","main_expt",""
"","bandit","306","693767","0.0-268.0-0.0","22713938","wem/bandit_party_2","AESEZX8S7Z3IC","either","1","103","","","","","","","0","0","1","","0.606091252","0.4","0.6","0.8","0.2","0.7736041865","0.2396571279","0.1777599287","0.606091252","","","","","","","","","","","","","","76","L","3","","","227","main_expt",""
"","bandit","307","696882","0.0-269.0-0.0","22713938","wem/bandit_party_2","AESEZX8S7Z3IC","either","1","1597","","","","","","","0","0","1","","0.5834203199","0.4","0.6","0.8","0.2","0.8094350608","0.3430446928","0.2866543064","0.5834203199","","","","","","","","","","","","","","76","L","3","","","228","main_expt",""
"","bandit","308","698918","0.0-270.0-0.0","22713938","wem/bandit_party_2","AESEZX8S7Z3IC","either","1","517","","","","","","","0","0","1","","0.5466214007","0.4","0.6","0.8","0.2","0.8078722129","0.2886233194","0.3948293382","0.5466214007","","","","","","","","","","","","","","76","L","3","","","229","main_expt",""
"","bandit","309","700878","0.0-271.0-0.0","22713938","wem/bandit_party_2","AESEZX8S7Z3IC","either","1","441","","","","","","","0","1","0","","0.5519014059","0.4","0.6","0.8","0.2","0.7719043616","0.3213731463","0.3291786684","0.5519014059","","","","","","","","","","","","","","76","L","3","","","230","main_expt",""
"","bandit","310","704154","0.0-272.0-0.0","22713938","wem/bandit_party_2","AESEZX8S7Z3IC","either","1","1757","","","","","","","0","0","1","0.4527164215","","0.4","0.6","0.8","0.2","","","","","0.8049264475","0.2771614906","0.2378236032","0.4527164215","","","","","","","","","","76","L","3","","","231","main_expt",""
"","bandit","311","705770","0.0-273.0-0.0","22713938","wem/bandit_party_2","AESEZX8S7Z3IC","either","1","98","","","","","","","0","0","1","","0.5135082398","0.4","0.6","0.8","0.2","0.8850589997","0.2249105956","0.246393804","0.5135082398","","","","","","","","","","","","","","76","L","3","","","232","main_expt",""
"","bandit","312","707775","0.0-274.0-0.0","22713938","wem/bandit_party_2","AESEZX8S7Z3IC","either","1","485","","","","","","","0","0","1","","0.5502454751","0.4","0.6","0.8","0.2","0.9183615156","0.2447973041","0.2141634692","0.5502454751","","","","","","","","","","","","","","76","L","3","","","233","main_expt",""
"","bandit","313","709487","0.0-275.0-0.0","22713938","wem/bandit_party_2","AESEZX8S7Z3IC","either","1","194","","","","","","","0","1","0","","0.3783923662","0.4","0.6","0.8","0.2","0.9639410842","0.24601643","0.2876436191","0.3783923662","","","","","","","","","","","","","","76","L","3","","","234","main_expt",""
"","bandit","314","711546","0.0-276.0-0.0","22713938","wem/bandit_party_2","AESEZX8S7Z3IC","either","1","541","","","","","","","0","0","1","","0.2814299379","0.4","0.6","0.8","0.2","0.9697187448","0.1629844561","0.2769077257","0.2814299379","","","","","","","","","","","","","","76","L","3","","","235","main_expt",""
"","bandit","315","713539","0.0-277.0-0.0","22713938","wem/bandit_party_2","AESEZX8S7Z3IC","either","1","485","","","","","","","0","0","1","","0.3106100538","0.4","0.6","0.8","0.2","0.9571573523","0.1929455839","0.136865198","0.3106100538","","","","","","","","","","","","","","76","L","3","","","236","main_expt",""
"","bandit","316","715416","0.0-278.0-0.0","22713938","wem/bandit_party_2","AESEZX8S7Z3IC","either","1","367","","","","","","","0","1","0","","0.3152445528","0.4","0.6","0.8","0.2","0.9170696074","0.1497712966","0.1123790732","0.3152445528","","","","","","","","","","","","","","76","L","3","","","237","main_expt",""
"","bandit","317","717139","0.0-279.0-0.0","22713938","wem/bandit_party_2","AESEZX8S7Z3IC","either","1","212","","","","","","","0","0","1","","0.2637175197","0.4","0.6","0.8","0.2","0.9207491077","0.1526491196","0.09027024906","0.2637175197","","","","","","","","","","","","","","76","L","3","","","238","main_expt",""
"","bandit","318","719163","0.0-280.0-0.0","22713938","wem/bandit_party_2","AESEZX8S7Z3IC","either","1","515","","","","","","","0","0","1","","0.1889878372","0.4","0.6","0.8","0.2","0.9211301165","0.1745924244","0.08323179304","0.1889878372","","","","","","","","","","","","","","76","L","3","","","239","main_expt",""
"","bandit","319","721206","0.0-281.0-0.0","22713938","wem/bandit_party_2","AESEZX8S7Z3IC","either","1","534","","","","","","","0","0","1","0.1710885746","","0.4","0.6","0.8","0.2","","","","","0.8992774771","0.1159399908","0.08130265934","0.1710885746","","","","","","","","","","76","L","3","","","240","main_expt",""
"","bandit","320","723352","0.0-282.0-0.0","22713938","wem/bandit_party_2","AESEZX8S7Z3IC","either","1","641","","","","","","","0","0","1","","0.1232632504","0.4","0.6","0.8","0.2","0.8977441673","0.1682101231","0.1424736114","0.1232632504","","","","","","","","","","","","","","76","L","3","","","241","main_expt",""
