"consent","trial_type","trial_index","time_elapsed","internal_node_id","subjID","study","MID","cond","drift","rt","responses","button_pressed","key_press","like","value","connected","gems","bombs","no_reward","GemPrChosen","BombPrChosen","GainOverPainPr_0","GainOverPainPr_1","GainOverPainPr_2","GainOverPainPr_3","LosePr_0","LosePr_1","LosePr_2","LosePr_3","WinPr_0","WinPr_1","WinPr_2","WinPr_3","Q0","Q1","Q2","gender","age","ethnicity","label","expt_phase","target","respCharCode","respKey","respChoiceNum","respChoice","practice","trial_counter","trial_label","Q0_index","view_history"
"GDM/GDM_behavioral_consent_30min_online.html","consent","0","12215","0.0-0.0","23054206","wem/bandit_party_2","A250HYHFGXESAC","either","7","","","","","","","","","","","","","","","","","","","","","","","","","","","","","","","","","","","","","","","","","",""
"","survey-text","1","20952","0.0-1.0","23054206","wem/bandit_party_2","A250HYHFGXESAC","either","7","7717","{""Q0"":""A250HYHFGXESAC""}","","","","","","","","","","","","","","","","","","","","","","","","","","","","","","","","","","","","","","","",""
"","button-response","2","24566","0.0-2.0","23054206","wem/bandit_party_2","A250HYHFGXESAC","either","7","2304","","2","","","","","","","","","","","","","","","","","","","","","","","","","","","","","","","","","","","","","","",""
"","text-replacement","3","33793","0.0-3.0","23054206","wem/bandit_party_2","A250HYHFGXESAC","either","7","8219","","","32","","","","","","","","","","","","","","","","","","","","","","","","","","","","","","","","","","","","","",""
"","text-replacement","4","43778","0.0-4.0","23054206","wem/bandit_party_2","A250HYHFGXESAC","either","7","9981","","","32","","","","","","","","","","","","","","","","","","","","","","","","","","","","","","","","","","","","","",""
"","text-replacement","5","63865","0.0-5.0-0.0","23054206","wem/bandit_party_2","A250HYHFGXESAC","either","7","20080","","","32","","","","","","","","","","","","","","","","","","","","","","","","","","","","","","","","","","","","","",""
"","identification","6","73157","0.0-6.0-0.0","23054206","wem/bandit_party_2","A250HYHFGXESAC","either","7","9248","","","","0","0","0","","","","","","","","","","","","","","","","","","","","","","","","pre","identification_pre","the Democratic Party","","","","","","","","",""
"","identification","7","79552","0.0-6.0-1.0","23054206","wem/bandit_party_2","A250HYHFGXESAC","either","7","5362","","","","0","0","0","","","","","","","","","","","","","","","","","","","","","","","","pre","identification_pre","the Republican Party","","","","","","","","",""
"","text-replacement","8","86930","0.0-7.0","23054206","wem/bandit_party_2","A250HYHFGXESAC","either","7","6365","","","32","","","","","","","","","","","","","","","","","","","","","","","","","","","","","","","","","","","","","",""
"","text-replacement","9","93547","0.0-8.0","23054206","wem/bandit_party_2","A250HYHFGXESAC","either","7","6611","","","32","","","","","","","","","","","","","","","","","","","","","","","","","","","","","","","","","","","","","",""
"","text-replacement","10","103247","0.0-9.0","23054206","wem/bandit_party_2","A250HYHFGXESAC","either","7","9694","","","32","","","","","","","","","","","","","","","","","","","","","","","","","","","","","","","","","","","","","",""
"","text-replacement","11","108165","0.0-10.0","23054206","wem/bandit_party_2","A250HYHFGXESAC","either","7","4912","","","32","","","","","","","","","","","","","","","","","","","","","","","","","","","","","","","","","","","","","",""
"","text-replacement","12","112895","0.0-11.0","23054206","wem/bandit_party_2","A250HYHFGXESAC","either","7","4722","","","32","","","","","","","","","","","","","","","","","","","","","","","","","","","","","","","","","","","","","",""
"","bandit","13","118389","0.0-12.0-0.0","23054206","wem/bandit_party_2","A250HYHFGXESAC","either","7","3940","","","","","","","0","0","1","0","0","","","","","0","","","","0","","","","","","","","","","","","","74","J","0","img/none_selected_demo.jpg","true","0","","",""
"","bandit","14","121309","0.0-13.0-0.0","23054206","wem/bandit_party_2","A250HYHFGXESAC","either","7","1368","","","","","","","0","0","1","0","0","","","","","0","","","","0","","","","","","","","","","","","","75","K","0","img/none_selected_demo.jpg","true","0","","",""
"","text-replacement","15","128484","0.0-14.0","23054206","wem/bandit_party_2","A250HYHFGXESAC","either","7","7168","","","32","","","","","","","","","","","","","","","","","","","","","","","","","","","","","","","","","","","","","",""
"","text-replacement","16","135999","0.0-15.0","23054206","wem/bandit_party_2","A250HYHFGXESAC","either","7","7508","","","32","","","","","","","","","","","","","","","","","","","","","","","","","","","","","","","","","","","","","",""
"","text-replacement","17","144012","0.0-16.0","23054206","wem/bandit_party_2","A250HYHFGXESAC","either","7","8006","","","32","","","","","","","","","","","","","","","","","","","","","","","","","","","","","","","","","","","","","",""
"","text-replacement","18","150458","0.0-17.0","23054206","wem/bandit_party_2","A250HYHFGXESAC","either","7","6441","","","32","","","","","","","","","","","","","","","","","","","","","","","","","","","","","","","","","","","","","",""
"","bandit","19","153380","0.0-18.0-0.0","23054206","wem/bandit_party_2","A250HYHFGXESAC","either","7","654","","","","","","","0","0","1","0.2","","0.5","0.5","","","","","","","0.8","0.2","","","","","","","","","","","","75","K","1","","true","0","80_20_practice","",""
"","bandit","20","155305","0.0-18.0-1.0","23054206","wem/bandit_party_2","A250HYHFGXESAC","either","7","387","","","","","","","1","0","0","0.8","","0.5","0.5","","","","","","","0.8","0.2","","","","","","","","","","","","74","J","0","img/none_selected_demo.jpg","true","0","80_20_practice","",""
"","bandit","21","157371","0.0-18.0-2.0","23054206","wem/bandit_party_2","A250HYHFGXESAC","either","7","434","","","","","","","0","1","0","","0.8","0.5","0.5","","","0.8","0.2","","","","","","","","","","","","","","","","74","J","0","img/none_selected_demo.jpg","true","0","80_20_practice","",""
"","bandit","22","158947","0.0-18.0-3.0","23054206","wem/bandit_party_2","A250HYHFGXESAC","either","7","58","","","","","","","1","0","0","0.8","","0.5","0.5","","","","","","","0.8","0.2","","","","","","","","","","","","74","J","0","img/none_selected_demo.jpg","true","0","80_20_practice","",""
"","bandit","23","161031","0.0-18.0-4.0","23054206","wem/bandit_party_2","A250HYHFGXESAC","either","7","541","","","","","","","0","1","0","","0.8","0.5","0.5","","","0.8","0.2","","","","","","","","","","","","","","","","74","J","0","img/none_selected_demo.jpg","true","0","80_20_practice","",""
"","bandit","24","163465","0.0-18.0-5.0","23054206","wem/bandit_party_2","A250HYHFGXESAC","either","7","267","","","","","","","0","0","1","","0.8","0.5","0.5","","","0.8","0.2","","","","","","","","","","","","","","","","74","J","0","img/none_selected_demo.jpg","true","0","80_20_practice","",""
"","bandit","25","166188","0.0-18.0-6.0","23054206","wem/bandit_party_2","A250HYHFGXESAC","either","7","1115","","","","","","","0","0","1","0.8","","0.5","0.5","","","","","","","0.8","0.2","","","","","","","","","","","","74","J","0","img/none_selected_demo.jpg","true","0","80_20_practice","",""
"","bandit","26","168172","0.0-18.0-7.0","23054206","wem/bandit_party_2","A250HYHFGXESAC","either","7","102","","","","","","","0","1","0","","0.2","0.5","0.5","","","0.8","0.2","","","","","","","","","","","","","","","","75","K","1","","true","0","80_20_practice","",""
"","bandit","27","169933","0.0-18.0-8.0","23054206","wem/bandit_party_2","A250HYHFGXESAC","either","7","224","","","","","","","0","1","0","","0.2","0.5","0.5","","","0.8","0.2","","","","","","","","","","","","","","","","75","K","1","","true","0","80_20_practice","",""
"","bandit","28","172163","0.0-18.0-9.0","23054206","wem/bandit_party_2","A250HYHFGXESAC","either","7","253","","","","","","","0","0","1","0.2","","0.5","0.5","","","","","","","0.8","0.2","","","","","","","","","","","","75","K","1","","true","0","80_20_practice","",""
"","bandit","29","174090","0.0-18.0-10.0","23054206","wem/bandit_party_2","A250HYHFGXESAC","either","7","396","","","","","","","1","0","0","0.8","","0.5","0.5","","","","","","","0.8","0.2","","","","","","","","","","","","74","J","0","img/none_selected_demo.jpg","true","0","80_20_practice","",""
"","bandit","30","175945","0.0-18.0-11.0","23054206","wem/bandit_party_2","A250HYHFGXESAC","either","7","322","","","","","","","1","0","0","0.8","","0.5","0.5","","","","","","","0.8","0.2","","","","","","","","","","","","74","J","0","img/none_selected_demo.jpg","true","0","80_20_practice","",""
"","bandit","31","178460","0.0-18.0-12.0","23054206","wem/bandit_party_2","A250HYHFGXESAC","either","7","389","","","","","","","0","1","0","","0.8","0.5","0.5","","","0.8","0.2","","","","","","","","","","","","","","","","74","J","0","img/none_selected_demo.jpg","true","0","80_20_practice","",""
"","bandit","32","181978","0.0-18.0-13.0","23054206","wem/bandit_party_2","A250HYHFGXESAC","either","7","1440","","","","","","","0","0","1","","0.8","0.5","0.5","","","0.8","0.2","","","","","","","","","","","","","","","","74","J","0","img/none_selected_demo.jpg","true","0","80_20_practice","",""
"","bandit","33","184081","0.0-18.0-14.0","23054206","wem/bandit_party_2","A250HYHFGXESAC","either","7","546","","","","","","","0","0","1","","0.2","0.5","0.5","","","0.8","0.2","","","","","","","","","","","","","","","","75","K","1","","true","0","80_20_practice","",""
"","bandit","34","186028","0.0-18.0-15.0","23054206","wem/bandit_party_2","A250HYHFGXESAC","either","7","377","","","","","","","1","0","0","0.8","","0.5","0.5","","","","","","","0.8","0.2","","","","","","","","","","","","74","J","0","img/none_selected_demo.jpg","true","0","80_20_practice","",""
"","bandit","35","188089","0.0-18.0-16.0","23054206","wem/bandit_party_2","A250HYHFGXESAC","either","7","302","","","","","","","1","0","0","0.8","","0.5","0.5","","","","","","","0.8","0.2","","","","","","","","","","","","74","J","0","img/none_selected_demo.jpg","true","0","80_20_practice","",""
"","bandit","36","190540","0.0-18.0-17.0","23054206","wem/bandit_party_2","A250HYHFGXESAC","either","7","907","","","","","","","1","0","0","0.8","","0.5","0.5","","","","","","","0.8","0.2","","","","","","","","","","","","74","J","0","img/none_selected_demo.jpg","true","0","80_20_practice","",""
"","bandit","37","192443","0.0-18.0-18.0","23054206","wem/bandit_party_2","A250HYHFGXESAC","either","7","381","","","","","","","1","0","0","0.8","","0.5","0.5","","","","","","","0.8","0.2","","","","","","","","","","","","74","J","0","img/none_selected_demo.jpg","true","0","80_20_practice","",""
"","bandit","38","194253","0.0-18.0-19.0","23054206","wem/bandit_party_2","A250HYHFGXESAC","either","7","272","","","","","","","0","0","1","","0.8","0.5","0.5","","","0.8","0.2","","","","","","","","","","","","","","","","74","J","0","img/none_selected_demo.jpg","true","0","80_20_practice","",""
"","text-replacement","39","198497","0.0-19.0","23054206","wem/bandit_party_2","A250HYHFGXESAC","either","7","4234","","","32","","","","","","","","","","","","","","","","","","","","","","","","","","","","","","","","","","","","","",""
"","bandit","40","201256","0.0-20.0-0.0","23054206","wem/bandit_party_2","A250HYHFGXESAC","either","7","1209","","","","","","","1","0","0","1","0","","","","","0","1","","","1","0","","","","","","","","","","","","74","J","0","img/none_selected_demo.jpg","true","0","","",""
"","text-replacement","41","208263","0.0-21.0","23054206","wem/bandit_party_2","A250HYHFGXESAC","either","7","6999","","","32","","","","","","","","","","","","","","","","","","","","","","","","","","","","","","","","","","","","","",""
"","text-replacement","42","211098","0.0-22.0","23054206","wem/bandit_party_2","A250HYHFGXESAC","either","7","2824","","","32","","","","","","","","","","","","","","","","","","","","","","","","","","","","","","","","","","","","","",""
"","text-replacement","43","214419","0.0-23.0","23054206","wem/bandit_party_2","A250HYHFGXESAC","either","7","3310","","","32","","","","","","","","","","","","","","","","","","","","","","","","","","","","","","","","","","","","","",""
"","text-replacement","44","217597","0.0-24.0","23054206","wem/bandit_party_2","A250HYHFGXESAC","either","7","3165","","","32","","","","","","","","","","","","","","","","","","","","","","","","","","","","","","","","","","","","","",""
"","text-replacement","45","225228","0.0-25.0","23054206","wem/bandit_party_2","A250HYHFGXESAC","either","7","7622","","","32","","","","","","","","","","","","","","","","","","","","","","","","","","","","","","","","","","","","","",""
"","text-replacement","46","228258","0.0-26.0","23054206","wem/bandit_party_2","A250HYHFGXESAC","either","7","3021","","","32","","","","","","","","","","","","","","","","","","","","","","","","","","","","","","","","","","","","","",""
"","text-replacement","47","232073","0.0-27.0","23054206","wem/bandit_party_2","A250HYHFGXESAC","either","7","3805","","","32","","","","","","","","","","","","","","","","","","","","","","","","","","","","","","","","","","","","","",""
"","text-replacement","48","235458","0.0-28.0","23054206","wem/bandit_party_2","A250HYHFGXESAC","either","7","3377","","","32","","","","","","","","","","","","","","","","","","","","","","","","","","","","","","","","","","","","","",""
"","text-replacement","49","240405","0.0-29.0","23054206","wem/bandit_party_2","A250HYHFGXESAC","either","7","4943","","","32","","","","","","","","","","","","","","","","","","","","","","","","","","","","","","","","","","","","","",""
"","text-replacement","50","242623","0.0-30.0","23054206","wem/bandit_party_2","A250HYHFGXESAC","either","7","2214","","","32","","","","","","","","","","","","","","","","","","","","","","","","","","","","","","","","","","","","","",""
"","text-replacement","51","252961","0.0-31.0","23054206","wem/bandit_party_2","A250HYHFGXESAC","either","7","10329","","","32","","","","","","","","","","","","","","","","","","","","","","","","","","","","","","","","","","","","","",""
"","bandit","52","255262","0.0-32.0-0.0","23054206","wem/bandit_party_2","A250HYHFGXESAC","either","7","742","","","","","","","1","0","0","0.8","","0.5","0.5","0.5","0.5","","","","","0.8","0.2","0.6","0.2","","","","","","","","","","72","H","0","img/none_selected.jpg","true","0","full_practice","",""
"","bandit","53","258670","0.0-32.0-1.0","23054206","wem/bandit_party_2","A250HYHFGXESAC","either","7","1780","","","","","","","1","0","0","0.8","","0.5","0.5","0.5","0.5","","","","","0.8","0.2","0.6","0.2","","","","","","","","","","72","H","0","img/none_selected.jpg","true","0","full_practice","",""
"","bandit","54","260564","0.0-32.0-2.0","23054206","wem/bandit_party_2","A250HYHFGXESAC","either","7","360","","","","","","","1","0","0","0.8","","0.5","0.5","0.5","0.5","","","","","0.8","0.2","0.6","0.2","","","","","","","","","","72","H","0","img/none_selected.jpg","true","0","full_practice","",""
"","bandit","55","262611","0.0-32.0-3.0","23054206","wem/bandit_party_2","A250HYHFGXESAC","either","7","409","","","","","","","0","1","0","","0.8","0.5","0.5","0.5","0.5","0.8","0.2","0.6","0.2","","","","","","","","","","","","","","72","H","0","img/none_selected.jpg","true","0","full_practice","",""
"","bandit","56","264449","0.0-32.0-4.0","23054206","wem/bandit_party_2","A250HYHFGXESAC","either","7","277","","","","","","","1","0","0","0.8","","0.5","0.5","0.5","0.5","","","","","0.8","0.2","0.6","0.2","","","","","","","","","","72","H","0","img/none_selected.jpg","true","0","full_practice","",""
"","bandit","57","266257","0.0-32.0-5.0","23054206","wem/bandit_party_2","A250HYHFGXESAC","either","7","266","","","","","","","1","0","0","0.8","","0.5","0.5","0.5","0.5","","","","","0.8","0.2","0.6","0.2","","","","","","","","","","72","H","0","img/none_selected.jpg","true","0","full_practice","",""
"","bandit","58","268771","0.0-32.0-6.0","23054206","wem/bandit_party_2","A250HYHFGXESAC","either","7","987","","","","","","","0","0","1","0.8","","0.5","0.5","0.5","0.5","","","","","0.8","0.2","0.6","0.2","","","","","","","","","","72","H","0","img/none_selected.jpg","true","0","full_practice","",""
"","bandit","59","270723","0.0-32.0-7.0","23054206","wem/bandit_party_2","A250HYHFGXESAC","either","7","410","","","","","","","0","0","1","","0.2","0.5","0.5","0.5","0.5","0.8","0.2","0.6","0.2","","","","","","","","","","","","","","74","J","1","","true","0","full_practice","",""
"","bandit","60","272753","0.0-32.0-8.0","23054206","wem/bandit_party_2","A250HYHFGXESAC","either","7","327","","","","","","","0","0","1","0.6","","0.5","0.5","0.5","0.5","","","","","0.8","0.2","0.6","0.2","","","","","","","","","","75","K","2","","true","0","full_practice","",""
"","bandit","61","274639","0.0-32.0-9.0","23054206","wem/bandit_party_2","A250HYHFGXESAC","either","7","354","","","","","","","1","0","0","0.2","","0.5","0.5","0.5","0.5","","","","","0.8","0.2","0.6","0.2","","","","","","","","","","76","L","3","","true","0","full_practice","",""
"","bandit","62","276459","0.0-32.0-10.0","23054206","wem/bandit_party_2","A250HYHFGXESAC","either","7","288","","","","","","","0","0","1","0.2","","0.5","0.5","0.5","0.5","","","","","0.8","0.2","0.6","0.2","","","","","","","","","","76","L","3","","true","0","full_practice","",""
"","bandit","63","278757","0.0-32.0-11.0","23054206","wem/bandit_party_2","A250HYHFGXESAC","either","7","772","","","","","","","1","0","0","0.2","","0.5","0.5","0.5","0.5","","","","","0.8","0.2","0.6","0.2","","","","","","","","","","74","J","1","","true","0","full_practice","",""
"","bandit","64","280554","0.0-32.0-12.0","23054206","wem/bandit_party_2","A250HYHFGXESAC","either","7","247","","","","","","","0","1","0","","0.6","0.5","0.5","0.5","0.5","0.8","0.2","0.6","0.2","","","","","","","","","","","","","","75","K","2","","true","0","full_practice","",""
"","bandit","65","283265","0.0-32.0-13.0","23054206","wem/bandit_party_2","A250HYHFGXESAC","either","7","718","","","","","","","0","0","1","","0.2","0.5","0.5","0.5","0.5","0.8","0.2","0.6","0.2","","","","","","","","","","","","","","74","J","1","","true","0","full_practice","",""
"","bandit","66","285009","0.0-32.0-14.0","23054206","wem/bandit_party_2","A250HYHFGXESAC","either","7","203","","","","","","","1","0","0","0.8","","0.5","0.5","0.5","0.5","","","","","0.8","0.2","0.6","0.2","","","","","","","","","","72","H","0","img/none_selected.jpg","true","0","full_practice","",""
"","bandit","67","287249","0.0-32.0-15.0","23054206","wem/bandit_party_2","A250HYHFGXESAC","either","7","299","","","","","","","1","0","0","0.8","","0.5","0.5","0.5","0.5","","","","","0.8","0.2","0.6","0.2","","","","","","","","","","72","H","0","img/none_selected.jpg","true","0","full_practice","",""
"","bandit","68","289190","0.0-32.0-16.0","23054206","wem/bandit_party_2","A250HYHFGXESAC","either","7","389","","","","","","","1","0","0","0.8","","0.5","0.5","0.5","0.5","","","","","0.8","0.2","0.6","0.2","","","","","","","","","","72","H","0","img/none_selected.jpg","true","0","full_practice","",""
"","bandit","69","290981","0.0-32.0-17.0","23054206","wem/bandit_party_2","A250HYHFGXESAC","either","7","248","","","","","","","1","0","0","0.8","","0.5","0.5","0.5","0.5","","","","","0.8","0.2","0.6","0.2","","","","","","","","","","72","H","0","img/none_selected.jpg","true","0","full_practice","",""
"","bandit","70","293183","0.0-32.0-18.0","23054206","wem/bandit_party_2","A250HYHFGXESAC","either","7","284","","","","","","","1","0","0","0.8","","0.5","0.5","0.5","0.5","","","","","0.8","0.2","0.6","0.2","","","","","","","","","","72","H","0","img/none_selected.jpg","true","0","full_practice","",""
"","bandit","71","295272","0.0-32.0-19.0","23054206","wem/bandit_party_2","A250HYHFGXESAC","either","7","535","","","","","","","1","0","0","0.8","","0.5","0.5","0.5","0.5","","","","","0.8","0.2","0.6","0.2","","","","","","","","","","72","H","0","img/none_selected.jpg","true","0","full_practice","",""
"","text","72","298302","0.0-33.0","23054206","wem/bandit_party_2","A250HYHFGXESAC","either","7","3014","","","32","","","","","","","","","","","","","","","","","","","","","","","","","","","","","","","","","","","","","",""
"","text-replacement","73","316265","0.0-34.0","23054206","wem/bandit_party_2","A250HYHFGXESAC","either","7","16538","","","32","","","","","","","","","","","","","","","","","","","","","","","","","","","","","","","","","","","","","",""
"","text-replacement","74","327884","0.0-35.0","23054206","wem/bandit_party_2","A250HYHFGXESAC","either","7","11608","","","32","","","","","","","","","","","","","","","","","","","","","","","","","","","","","","","","","","","","","",""
"","text-replacement","75","332688","0.0-36.0","23054206","wem/bandit_party_2","A250HYHFGXESAC","either","7","4792","","","32","","","","","","","","","","","","","","","","","","","","","","","","","","","","","","","","","","","","","",""
"","text-replacement","76","339058","0.0-37.0","23054206","wem/bandit_party_2","A250HYHFGXESAC","either","7","6357","","","32","","","","","","","","","","","","","","","","","","","","","","","","","","","","","","","","","","","","","",""
"","text-replacement","77","346986","0.0-38.0","23054206","wem/bandit_party_2","A250HYHFGXESAC","either","7","7920","","","32","","","","","","","","","","","","","","","","","","","","","","","","","","","","","","","","","","","","","",""
"","survey-multi-choice-replacement","78","356263","0.0-39.0-0.0","23054206","wem/bandit_party_2","A250HYHFGXESAC","either","7","9250","","","","","","","","","","","","","","","","","","","","","","","","Money will be added to the pool for <span style='color:red;'>REPUBLICANS</span>","","","","","","","attn_check","","","","","","","","","0",""
"","survey-multi-choice-replacement","79","361341","0.0-40.0-0.0","23054206","wem/bandit_party_2","A250HYHFGXESAC","either","7","3720","","","","","","","","","","","","","","","","","","","","","","","","Money will be subtracted from the pool for <span style='color:blue;'>DEMOCRATS</span>","","","","","","","attn_check","","","","","","","","","1",""
"","instructions","80","364906","0.0-40.0-1.0-0.0","23054206","wem/bandit_party_2","A250HYHFGXESAC","either","7","2026","","","","","","","","","","","","","","","","","","","","","","","","","","","","","","","","","","","","","","","","","[{""page_index"":0,""viewing_time"":2026}]"
"","survey-multi-choice-replacement","81","379430","0.0-40.1-0.1","23054206","wem/bandit_party_2","A250HYHFGXESAC","either","7","13502","","","","","","","","","","","","","","","","","","","","","","","","Equal amounts of money will be added to the pool for <span style='color:red;'>REPUBLICANS</span> and subtracted from the pool for <span style='color:blue;'>DEMOCRATS</span>","","","","","","","attn_check","","","","","","","","","2",""
"","survey-multi-choice-replacement","82","384149","0.0-41.0-0.0","23054206","wem/bandit_party_2","A250HYHFGXESAC","either","7","3670","","","","","","","","","","","","","","","","","","","","","","","","No money will be added to either pool","","","","","","","attn_check","","","","","","","","","3",""
"","bandit","83","388788","0.0-42.0-0.0","23054206","wem/bandit_party_2","A250HYHFGXESAC","either","7","2077","","","","","","","1","0","0","0.7088318221","","0.8","0.4","0.2","0.6","","","","","0.7088318221","0.5514722813","0.2888626749","0.1731741302","","","","","","","","","","72","H","0","img/none_selected.jpg","","1","main_expt","",""
"","bandit","84","390886","0.0-43.0-0.0","23054206","wem/bandit_party_2","A250HYHFGXESAC","either","7","542","","","","","","","1","0","0","0.6292935488","","0.8","0.4","0.2","0.6","","","","","0.6292935488","0.5039303977","0.3999538902","0.2874485847","","","","","","","","","","72","H","0","img/none_selected.jpg","","2","main_expt","",""
"","bandit","85","393259","0.0-44.0-0.0","23054206","wem/bandit_party_2","A250HYHFGXESAC","either","7","419","","","","","","","1","0","0","0.5285482983","","0.8","0.4","0.2","0.6","","","","","0.5285482983","0.5527877924","0.4126831114","0.2683250969","","","","","","","","","","72","H","0","img/none_selected.jpg","","3","main_expt","",""
"","bandit","86","395036","0.0-45.0-0.0","23054206","wem/bandit_party_2","A250HYHFGXESAC","either","7","226","","","","","","","1","0","0","0.6744491701","","0.8","0.4","0.2","0.6","","","","","0.6744491701","0.6336700584","0.3923803367","0.3988631097","","","","","","","","","","72","H","0","img/none_selected.jpg","","4","main_expt","",""
"","bandit","87","396986","0.0-46.0-0.0","23054206","wem/bandit_party_2","A250HYHFGXESAC","either","7","424","","","","","","","1","0","0","0.7922285807","","0.8","0.4","0.2","0.6","","","","","0.7922285807","0.6340088104","0.3803283439","0.3568799457","","","","","","","","","","72","H","0","img/none_selected.jpg","","5","main_expt","",""
"","bandit","88","399277","0.0-47.0-0.0","23054206","wem/bandit_party_2","A250HYHFGXESAC","either","7","772","","","","","","","1","0","0","0.7459441126","","0.8","0.4","0.2","0.6","","","","","0.7459441126","0.5784181907","0.4214296899","0.3188731731","","","","","","","","","","72","H","0","img/none_selected.jpg","","6","main_expt","",""
"","bandit","89","401056","0.0-48.0-0.0","23054206","wem/bandit_party_2","A250HYHFGXESAC","either","7","247","","","","","","","0","1","0","","0.7681481668","0.8","0.4","0.2","0.6","0.7681481668","0.6727083857","0.4755968838","0.4574196012","","","","","","","","","","","","","","72","H","0","img/none_selected.jpg","","7","main_expt","",""
"","bandit","90","403010","0.0-49.0-0.0","23054206","wem/bandit_party_2","A250HYHFGXESAC","either","7","266","","","","","","","1","0","0","0.7251609313","","0.8","0.4","0.2","0.6","","","","","0.7251609313","0.7574508858","0.5353568537","0.5037884951","","","","","","","","","","72","H","0","img/none_selected.jpg","","8","main_expt","",""
"","bandit","91","404812","0.0-50.0-0.0","23054206","wem/bandit_party_2","A250HYHFGXESAC","either","7","263","","","","","","","1","0","0","0.7403055102","","0.8","0.4","0.2","0.6","","","","","0.7403055102","0.8280759311","0.6246831942","0.5750013994","","","","","","","","","","72","H","0","img/none_selected.jpg","","9","main_expt","",""
"","bandit","92","406644","0.0-51.0-0.0","23054206","wem/bandit_party_2","A250HYHFGXESAC","either","7","285","","","","","","","1","0","0","0.722944265","","0.8","0.4","0.2","0.6","","","","","0.722944265","0.859726102","0.4475954046","0.5399040382","","","","","","","","","","72","H","0","img/none_selected.jpg","","10","main_expt","",""
"","bandit","93","408888","0.0-52.0-0.0","23054206","wem/bandit_party_2","A250HYHFGXESAC","either","7","702","","","","","","","1","0","0","0.6833847698","","0.8","0.4","0.2","0.6","","","","","0.6833847698","0.877956501","0.4514702697","0.5181098662","","","","","","","","","","72","H","0","img/none_selected.jpg","","11","main_expt","",""
"","bandit","94","410640","0.0-53.0-0.0","23054206","wem/bandit_party_2","A250HYHFGXESAC","either","7","215","","","","","","","1","0","0","0.689227163","","0.8","0.4","0.2","0.6","","","","","0.689227163","0.8883669707","0.4873058782","0.5489165229","","","","","","","","","","72","H","0","img/none_selected.jpg","","12","main_expt","",""
"","bandit","95","412736","0.0-54.0-0.0","23054206","wem/bandit_party_2","A250HYHFGXESAC","either","7","221","","","","","","","1","0","0","0.5178623456","","0.8","0.4","0.2","0.6","","","","","0.5178623456","0.817149195","0.4862469224","0.6186986429","","","","","","","","","","72","H","0","img/none_selected.jpg","","13","main_expt","",""
"","bandit","96","414289","0.0-55.0-0.0","23054206","wem/bandit_party_2","A250HYHFGXESAC","either","7","7","","","","","","","0","0","1","0.4768489018","","0.8","0.4","0.2","0.6","","","","","0.4768489018","0.8589139609","0.360908092","0.4944095791","","","","","","","","","","72","H","0","img/none_selected.jpg","","14","main_expt","",""
"","bandit","97","417439","0.0-56.0-0.0","23054206","wem/bandit_party_2","A250HYHFGXESAC","either","7","1162","","","","","","","1","0","0","0.7955781648","","0.8","0.4","0.2","0.6","","","","","0.5201849276","0.7955781648","0.4126647893","0.4820951366","","","","","","","","","","74","J","1","","","15","main_expt","",""
"","bandit","98","419369","0.0-57.0-0.0","23054206","wem/bandit_party_2","A250HYHFGXESAC","either","7","410","","","","","","","0","1","0","","0.8864445785","0.8","0.4","0.2","0.6","0.6862231469","0.8864445785","0.4930686601","0.4888848296","","","","","","","","","","","","","","74","J","1","","","16","main_expt","",""
"","bandit","99","421179","0.0-58.0-0.0","23054206","wem/bandit_party_2","A250HYHFGXESAC","either","7","278","","","","","","","0","1","0","","0.8746062981","0.8","0.4","0.2","0.6","0.7297328357","0.8746062981","0.5162343008","0.381306026","","","","","","","","","","","","","","74","J","1","","","17","main_expt","",""
"","bandit","100","423278","0.0-59.0-0.0","23054206","wem/bandit_party_2","A250HYHFGXESAC","either","7","375","","","","","","","1","0","0","0.8910236512","","0.8","0.4","0.2","0.6","","","","","0.6686287009","0.8910236512","0.5627456494","0.3537135189","","","","","","","","","","74","J","1","","","18","main_expt","",""
"","bandit","101","425387","0.0-60.0-0.0","23054206","wem/bandit_party_2","A250HYHFGXESAC","either","7","575","","","","","","","1","0","0","0.8932054573","","0.8","0.4","0.2","0.6","","","","","0.7885428456","0.8932054573","0.4478227807","0.4891458502","","","","","","","","","","74","J","1","","","19","main_expt","",""
"","bandit","102","427750","0.0-61.0-0.0","23054206","wem/bandit_party_2","A250HYHFGXESAC","either","7","343","","","","","","","0","0","1","0.8900063933","","0.8","0.4","0.2","0.6","","","","","0.7442236049","0.8900063933","0.5306796692","0.5440957398","","","","","","","","","","74","J","1","","","20","main_expt","",""
"","bandit","103","429517","0.0-62.0-0.0","23054206","wem/bandit_party_2","A250HYHFGXESAC","either","7","235","","","","","","","0","0","1","0.7908218503","","0.8","0.4","0.2","0.6","","","","","0.7908218503","0.8748704397","0.5423611418","0.5621313733","","","","","","","","","","72","H","0","img/none_selected.jpg","","21","main_expt","",""
"","bandit","104","431430","0.0-63.0-0.0","23054206","wem/bandit_party_2","A250HYHFGXESAC","either","7","346","","","","","","","0","0","1","","0.4190568807","0.8","0.4","0.2","0.6","0.7163236006","0.8498769136","0.4190568807","0.5296345876","","","","","","","","","","","","","","75","K","2","","","22","main_expt","",""
"","bandit","105","433480","0.0-64.0-0.0","23054206","wem/bandit_party_2","A250HYHFGXESAC","either","7","414","","","","","","","1","0","0","0.5187107172","","0.8","0.4","0.2","0.6","","","","","0.7061190667","0.8357449374","0.4329937009","0.5187107172","","","","","","","","","","76","L","3","","","23","main_expt","",""
"","bandit","106","435306","0.0-65.0-0.0","23054206","wem/bandit_party_2","A250HYHFGXESAC","either","7","279","","","","","","","1","0","0","0.6000521927","","0.8","0.4","0.2","0.6","","","","","0.7470556917","0.8431908073","0.4298879426","0.6000521927","","","","","","","","","","76","L","3","","","24","main_expt","",""
"","bandit","107","437498","0.0-66.0-0.0","23054206","wem/bandit_party_2","A250HYHFGXESAC","either","7","336","","","","","","","0","1","0","","0.5443047256","0.8","0.4","0.2","0.6","0.8154180688","0.8741885854","0.2992323157","0.5443047256","","","","","","","","","","","","","","76","L","3","","","25","main_expt","",""
"","bandit","108","439426","0.0-67.0-0.0","23054206","wem/bandit_party_2","A250HYHFGXESAC","either","7","397","","","","","","","0","0","1","0.592493964","","0.8","0.4","0.2","0.6","","","","","0.8395379789","0.8940719671","0.3857263224","0.592493964","","","","","","","","","","76","L","3","","","26","main_expt","",""
"","bandit","109","442680","0.0-68.0-0.0","23054206","wem/bandit_party_2","A250HYHFGXESAC","either","7","1564","","","","","","","0","1","0","","0.8023078409","0.8","0.4","0.2","0.6","0.8023078409","0.8733378856","0.3715251318","0.5779569403","","","","","","","","","","","","","","72","H","0","img/none_selected.jpg","","27","main_expt","",""
"","bandit","110","444284","0.0-69.0-0.0","23054206","wem/bandit_party_2","A250HYHFGXESAC","either","7","72","","","","","","","1","0","0","0.8248968235","","0.8","0.4","0.2","0.6","","","","","0.8248968235","0.8695586723","0.3387808014","0.7077223562","","","","","","","","","","72","H","0","img/none_selected.jpg","","28","main_expt","",""
"","bandit","111","446092","0.0-70.0-0.0","23054206","wem/bandit_party_2","A250HYHFGXESAC","either","7","229","","","","","","","1","0","0","0.8621011303","","0.8","0.4","0.2","0.6","","","","","0.8621011303","0.7908290088","0.3737397218","0.7070353494","","","","","","","","","","72","H","0","img/none_selected.jpg","","29","main_expt","",""
"","bandit","112","448168","0.0-71.0-0.0","23054206","wem/bandit_party_2","A250HYHFGXESAC","either","7","304","","","","","","","1","0","0","0.8873668535","","0.8","0.4","0.2","0.6","","","","","0.8873668535","0.8518997755","0.3232047389","0.6585428656","","","","","","","","","","72","H","0","img/none_selected.jpg","","30","main_expt","",""
"","bandit","113","449913","0.0-72.0-0.0","23054206","wem/bandit_party_2","A250HYHFGXESAC","either","7","200","","","","","","","0","1","0","","0.9318975106","0.8","0.4","0.2","0.6","0.9318975106","0.8509842625","0.4130267239","0.6724088618","","","","","","","","","","","","","","72","H","0","img/none_selected.jpg","","31","main_expt","",""
"","bandit","114","451722","0.0-73.0-0.0","23054206","wem/bandit_party_2","A250HYHFGXESAC","either","7","278","","","","","","","1","0","0","0.9013609786","","0.8","0.4","0.2","0.6","","","","","0.9013609786","0.872996121","0.4167758813","0.6416581209","","","","","","","","","","72","H","0","img/none_selected.jpg","","32","main_expt","",""
"","bandit","115","453872","0.0-74.0-0.0","23054206","wem/bandit_party_2","A250HYHFGXESAC","either","7","617","","","","","","","0","0","1","0.9041531295","","0.8","0.4","0.2","0.6","","","","","0.9041531295","0.8571046391","0.4546052232","0.7055802426","","","","","","","","","","72","H","0","img/none_selected.jpg","","33","main_expt","",""
"","bandit","116","455805","0.0-75.0-0.0","23054206","wem/bandit_party_2","A250HYHFGXESAC","either","7","360","","","","","","","1","0","0","0.7554114371","","0.8","0.4","0.2","0.6","","","","","0.9386104272","0.9175819521","0.5231803088","0.7554114371","","","","","","","","","","76","L","3","","","34","main_expt","",""
"","bandit","117","458066","0.0-76.0-0.0","23054206","wem/bandit_party_2","A250HYHFGXESAC","either","7","248","","","","","","","0","1","0","","0.8008095759","0.8","0.4","0.2","0.6","0.9180645683","0.9503165686","0.4661188593","0.8008095759","","","","","","","","","","","","","","76","L","3","","","35","main_expt","",""
"","bandit","118","459625","0.0-77.0-0.0","23054206","wem/bandit_party_2","A250HYHFGXESAC","either","7","19","","","","","","","1","0","0","0.6925109639","","0.8","0.4","0.2","0.6","","","","","0.9095107155","0.9327615424","0.4106027186","0.6925109639","","","","","","","","","","76","L","3","","","36","main_expt","",""
"","bandit","119","461596","0.0-78.0-0.0","23054206","wem/bandit_party_2","A250HYHFGXESAC","either","7","279","","","","","","","0","0","1","0.7764255689","","0.8","0.4","0.2","0.6","","","","","0.9405648028","0.9196494001","0.5021263718","0.7764255689","","","","","","","","","","76","L","3","","","37","main_expt","",""
"","bandit","120","463808","0.0-79.0-0.0","23054206","wem/bandit_party_2","A250HYHFGXESAC","either","7","506","","","","","","","0","0","1","0.9058459248","","0.8","0.4","0.2","0.6","","","","","0.9058459248","0.928530414","0.5065313343","0.8392953971","","","","","","","","","","72","H","0","img/none_selected.jpg","","38","main_expt","",""
"","bandit","121","465986","0.0-80.0-0.0","23054206","wem/bandit_party_2","A250HYHFGXESAC","either","7","579","","","","","","","1","0","0","0.9001545702","","0.8","0.4","0.2","0.6","","","","","0.8784462517","0.9001545702","0.6098243774","0.7614495855","","","","","","","","","","74","J","1","","","39","main_expt","",""
"","bandit","122","468226","0.0-81.0-0.0","23054206","wem/bandit_party_2","A250HYHFGXESAC","either","7","282","","","","","","","0","1","0","","0.8432481254","0.8","0.4","0.2","0.6","0.8408568766","0.8432481254","0.679699592","0.8060705796","","","","","","","","","","","","","","74","J","1","","","40","main_expt","",""
"","bandit","123","470035","0.0-82.0-0.0","23054206","wem/bandit_party_2","A250HYHFGXESAC","either","7","259","","","","","","","1","0","0","0.8326479564","","0.8","0.4","0.2","0.6","","","","","0.811342849","0.8326479564","0.616488607","0.7539991053","","","","","","","","","","74","J","1","","","41","main_expt","",""
"","bandit","124","471891","0.0-83.0-0.0","23054206","wem/bandit_party_2","A250HYHFGXESAC","either","7","328","","","","","","","1","0","0","0.8602810298","","0.8","0.4","0.2","0.6","","","","","0.8058808774","0.8602810298","0.6307104111","0.7717369324","","","","","","","","","","74","J","1","","","42","main_expt","",""
"","bandit","125","474039","0.0-84.0-0.0","23054206","wem/bandit_party_2","A250HYHFGXESAC","either","7","616","","","","","","","1","0","0","0.894365654","","0.8","0.4","0.2","0.6","","","","","0.7899844578","0.894365654","0.554567591","0.7625968551","","","","","","","","","","74","J","1","","","43","main_expt","",""
"","bandit","126","476558","0.0-85.0-0.0","23054206","wem/bandit_party_2","A250HYHFGXESAC","either","7","902","","","","","","","0","1","0","","0.9033664713","0.8","0.4","0.2","0.6","0.7654486741","0.9033664713","0.5281861223","0.8488621298","","","","","","","","","","","","","","74","J","1","","","44","main_expt","",""
"","bandit","127","478913","0.0-86.0-0.0","23054206","wem/bandit_party_2","A250HYHFGXESAC","either","7","416","","","","","","","0","1","0","","0.8829964613","0.8","0.4","0.2","0.6","0.7674111825","0.8829964613","0.5043334007","0.8522077325","","","","","","","","","","","","","","74","J","1","","","45","main_expt","",""
"","bandit","128","480657","0.0-87.0-0.0","23054206","wem/bandit_party_2","A250HYHFGXESAC","either","7","194","","","","","","","0","0","1","0.8674694879","","0.8","0.4","0.2","0.6","","","","","0.6301273516","0.8674694879","0.5426256613","0.8618589195","","","","","","","","","","74","J","1","","","46","main_expt","",""
"","bandit","129","482840","0.0-88.0-0.0","23054206","wem/bandit_party_2","A250HYHFGXESAC","either","7","528","","","","","","","1","0","0","0.7885969413","","0.8","0.4","0.2","0.6","","","","","0.7885969413","0.8886720039","0.5024796093","0.905897833","","","","","","","","","","72","H","0","img/none_selected.jpg","","47","main_expt","",""
"","bandit","130","484686","0.0-89.0-0.0","23054206","wem/bandit_party_2","A250HYHFGXESAC","either","7","319","","","","","","","1","0","0","0.7983786211","","0.8","0.4","0.2","0.6","","","","","0.7983786211","0.9229902905","0.4689138593","0.8929468812","","","","","","","","","","72","H","0","img/none_selected.jpg","","48","main_expt","",""
"","bandit","131","486510","0.0-90.0-0.0","23054206","wem/bandit_party_2","A250HYHFGXESAC","either","7","271","","","","","","","1","0","0","0.8249867574","","0.8","0.4","0.2","0.6","","","","","0.8249867574","0.9141434128","0.4439560463","0.854905512","","","","","","","","","","72","H","0","img/none_selected.jpg","","49","main_expt","",""
"","bandit","132","488874","0.0-91.0-0.0","23054206","wem/bandit_party_2","A250HYHFGXESAC","either","7","265","","","","","","","1","0","0","0.7532301684","","0.8","0.4","0.2","0.6","","","","","0.7532301684","0.9181160336","0.4079842927","0.8363103738","","","","","","","","","","72","H","0","img/none_selected.jpg","","50","main_expt","",""
"","bandit","133","490530","0.0-92.0-0.0","23054206","wem/bandit_party_2","A250HYHFGXESAC","either","7","123","","","","","","","0","0","1","0.6750909554","","0.8","0.4","0.2","0.6","","","","","0.6750909554","0.9266489825","0.4675199832","0.7168506975","","","","","","","","","","72","H","0","img/none_selected.jpg","","51","main_expt","",""
"","bandit","134","492419","0.0-93.0-0.0","23054206","wem/bandit_party_2","A250HYHFGXESAC","either","7","252","","","","","","","1","0","0","0.6507986152","","0.8","0.4","0.2","0.6","","","","","0.6762079337","0.9285581488","0.4368052975","0.6507986152","","","","","","","","","","76","L","3","","","52","main_expt","",""
"","bandit","135","494371","0.0-94.0-0.0","23054206","wem/bandit_party_2","A250HYHFGXESAC","either","7","418","","","","","","","1","0","0","0.6531867096","","0.8","0.4","0.2","0.6","","","","","0.7882030045","0.9171724481","0.4967902672","0.6531867096","","","","","","","","","","76","L","3","","","53","main_expt","",""
"","bandit","136","496103","0.0-95.0-0.0","23054206","wem/bandit_party_2","A250HYHFGXESAC","either","7","189","","","","","","","1","0","0","0.6178049746","","0.8","0.4","0.2","0.6","","","","","0.8759533557","0.8709862684","0.5321533453","0.6178049746","","","","","","","","","","76","L","3","","","54","main_expt","",""
"","bandit","137","498276","0.0-96.0-0.0","23054206","wem/bandit_party_2","A250HYHFGXESAC","either","7","480","","","","","","","0","0","1","","0.5501477499","0.8","0.4","0.2","0.6","0.9307112091","0.9016108676","0.593251847","0.5501477499","","","","","","","","","","","","","","76","L","3","","","55","main_expt","",""
"","bandit","138","499831","0.0-97.0-0.0","23054206","wem/bandit_party_2","A250HYHFGXESAC","either","7","11","","","","","","","1","0","0","0.9123335035","","0.8","0.4","0.2","0.6","","","","","0.9486344027","0.9123335035","0.602347159","0.5181914202","","","","","","","","","","74","J","1","","","56","main_expt","",""
"","bandit","139","501724","0.0-98.0-0.0","23054206","wem/bandit_party_2","A250HYHFGXESAC","either","7","338","","","","","","","1","0","0","0.9338523698","","0.8","0.4","0.2","0.6","","","","","0.9450559811","0.9338523698","0.736851976","0.5052283364","","","","","","","","","","74","J","1","","","57","main_expt","",""
"","bandit","140","503660","0.0-99.0-0.0","23054206","wem/bandit_party_2","A250HYHFGXESAC","either","7","241","","","","","","","0","1","0","","0.9023069914","0.8","0.4","0.2","0.6","0.960587128","0.9023069914","0.7112026436","0.4494585665","","","","","","","","","","","","","","74","J","1","","","58","main_expt","",""
"","bandit","141","505281","0.0-100.0-0.0","23054206","wem/bandit_party_2","A250HYHFGXESAC","either","7","56","","","","","","","0","1","0","","0.903153386","0.8","0.4","0.2","0.6","0.9272570312","0.903153386","0.7605469626","0.4431029696","","","","","","","","","","","","","","74","J","1","","","59","main_expt","",""
"","bandit","142","507875","0.0-101.0-0.0","23054206","wem/bandit_party_2","A250HYHFGXESAC","either","7","610","","","","","","","0","1","0","","0.8975643475","0.8","0.4","0.2","0.6","0.9075075979","0.8975643475","0.6504737249","0.4213069188","","","","","","","","","","","","","","74","J","1","","","60","main_expt","",""
"","bandit","143","509760","0.0-102.0-0.0","23054206","wem/bandit_party_2","A250HYHFGXESAC","either","7","322","","","","","","","1","0","0","0.8455107238","","0.8","0.4","0.2","0.6","","","","","0.9011961695","0.8455107238","0.7417300409","0.4735464544","","","","","","","","","","74","J","1","","","61","main_expt","",""
"","bandit","144","511636","0.0-103.0-0.0","23054206","wem/bandit_party_2","A250HYHFGXESAC","either","7","337","","","","","","","0","1","0","","0.8423106617","0.8","0.4","0.2","0.6","0.9025442902","0.8423106617","0.6889655243","0.4260239588","","","","","","","","","","","","","","74","J","1","","","62","main_expt","",""
"","bandit","145","513449","0.0-104.0-0.0","23054206","wem/bandit_party_2","A250HYHFGXESAC","either","7","282","","","","","","","0","1","0","","0.6997676278","0.8","0.4","0.2","0.6","0.900711875","0.6997676278","0.7532165261","0.4048641732","","","","","","","","","","","","","","74","J","1","","","63","main_expt","",""
"","bandit","146","515158","0.0-105.0-0.0","23054206","wem/bandit_party_2","A250HYHFGXESAC","either","7","134","","","","","","","1","0","0","0.8033841581","","0.8","0.4","0.2","0.6","","","","","0.8445511995","0.8033841581","0.7614619666","0.261135461","","","","","","","","","","74","J","1","","","64","main_expt","",""
"","bandit","147","517549","0.0-106.0-0.0","23054206","wem/bandit_party_2","A250HYHFGXESAC","either","7","270","","","","","","","0","1","0","","0.8458775523","0.8","0.4","0.2","0.6","0.7838665633","0.8458775523","0.7474824059","0.4398785507","","","","","","","","","","","","","","74","J","1","","","65","main_expt","",""
"","bandit","148","519144","0.0-107.0-0.0","23054206","wem/bandit_party_2","A250HYHFGXESAC","either","7","47","","","","","","","1","0","0","0.8612648572","","0.8","0.4","0.2","0.6","","","","","0.8399866527","0.8612648572","0.7083026918","0.4549930047","","","","","","","","","","74","J","1","","","66","main_expt","",""
"","bandit","149","521087","0.0-108.0-0.0","23054206","wem/bandit_party_2","A250HYHFGXESAC","either","7","378","","","","","","","0","1","0","","0.8686018104","0.8","0.4","0.2","0.6","0.9109535201","0.8686018104","0.6535093674","0.5565794079","","","","","","","","","","","","","","74","J","1","","","67","main_expt","",""
"","bandit","150","523596","0.0-109.0-0.0","23054206","wem/bandit_party_2","A250HYHFGXESAC","either","7","438","","","","","","","0","1","0","","0.8693437115","0.8","0.4","0.2","0.6","0.9064065477","0.8693437115","0.4923739087","0.4211802827","","","","","","","","","","","","","","74","J","1","","","68","main_expt","",""
"","bandit","151","526114","0.0-110.0-0.0","23054206","wem/bandit_party_2","A250HYHFGXESAC","either","7","982","","","","","","","0","1","0","","0.9168970181","0.8","0.4","0.2","0.6","0.9315833469","0.9168970181","0.4898097669","0.3687693293","","","","","","","","","","","","","","74","J","1","","","69","main_expt","",""
"","bandit","152","528578","0.0-111.0-0.0","23054206","wem/bandit_party_2","A250HYHFGXESAC","either","7","369","","","","","","","0","1","0","","0.9293527272","0.8","0.4","0.2","0.6","0.9393923483","0.9293527272","0.4369614599","0.3460903474","","","","","","","","","","","","","","74","J","1","","","70","main_expt","",""
"","bandit","153","530333","0.0-112.0-0.0","23054206","wem/bandit_party_2","A250HYHFGXESAC","either","7","209","","","","","","","1","0","0","0.949087413","","0.8","0.4","0.2","0.6","","","","","0.9568343035","0.949087413","0.5031037484","0.3278112836","","","","","","","","","","74","J","1","","","71","main_expt","",""
"","bandit","154","533184","0.0-113.0-0.0","23054206","wem/bandit_party_2","A250HYHFGXESAC","either","7","709","","","","","","","0","1","0","","0.906373323","0.8","0.4","0.2","0.6","0.947758434","0.906373323","0.5397903688","0.2720469766","","","","","","","","","","","","","","74","J","1","","","72","main_expt","",""
"","bandit","155","534955","0.0-114.0-0.0","23054206","wem/bandit_party_2","A250HYHFGXESAC","either","7","230","","","","","","","0","1","0","","0.93965919","0.8","0.4","0.2","0.6","0.9052010222","0.93965919","0.5540652028","0.2451019773","","","","","","","","","","","","","","74","J","1","","","73","main_expt","",""
"","bandit","156","536798","0.0-115.0-0.0","23054206","wem/bandit_party_2","A250HYHFGXESAC","either","7","303","","","","","","","0","1","0","","0.9416319858","0.8","0.4","0.2","0.6","0.927704936","0.9416319858","0.61733434","0.2645862521","","","","","","","","","","","","","","74","J","1","","","74","main_expt","",""
"","bandit","157","539443","0.0-116.0-0.0","23054206","wem/bandit_party_2","A250HYHFGXESAC","either","7","1106","","","","","","","1","0","0","0.9535384208","","0.8","0.4","0.2","0.6","","","","","0.8769567517","0.9535384208","0.6341908543","0.2298582","","","","","","","","","","74","J","1","","","75","main_expt","",""
"","bandit","158","541223","0.0-117.0-0.0","23054206","wem/bandit_party_2","A250HYHFGXESAC","either","7","229","","","","","","","0","0","1","","0.9585479729","0.8","0.4","0.2","0.6","0.8456064169","0.9585479729","0.6355577018","0.3460043445","","","","","","","","","","","","","","74","J","1","","","76","main_expt","",""
"","bandit","159","543260","0.0-118.0-0.0","23054206","wem/bandit_party_2","A250HYHFGXESAC","either","7","495","","","","","","","0","0","1","0.8325595713","","0.8","0.4","0.2","0.6","","","","","0.8325595713","0.9610253773","0.7055426269","0.2526488818","","","","","","","","","","72","H","0","img/none_selected.jpg","","77","main_expt","",""
"","bandit","160","545301","0.0-119.0-0.0","23054206","wem/bandit_party_2","A250HYHFGXESAC","either","7","497","","","","","","","0","0","1","0.2625396382","","0.8","0.4","0.2","0.6","","","","","0.9128982172","0.9580320452","0.6137882531","0.2625396382","","","","","","","","","","76","L","3","","","78","main_expt","",""
"","bandit","161","548022","0.0-120.0-0.0","23054206","wem/bandit_party_2","A250HYHFGXESAC","either","7","1060","","","","","","","0","1","0","","0.668392527","0.8","0.4","0.2","0.6","0.9213349282","0.9403834825","0.668392527","0.2957535945","","","","","","","","","","","","","","75","K","2","","","79","main_expt","",""
"","bandit","162","549805","0.0-121.0-0.0","23054206","wem/bandit_party_2","A250HYHFGXESAC","either","7","248","","","","","","","0","0","1","","0.7457361895","0.8","0.4","0.2","0.6","0.8935563746","0.946171157","0.7457361895","0.1831261498","","","","","","","","","","","","","","75","K","2","","","80","main_expt","",""
"","bandit","163","551386","0.0-122.0-0.0","23054206","wem/bandit_party_2","A250HYHFGXESAC","either","7","56","","","","","","","1","0","0","0.932831263","","0.8","0.4","0.2","0.6","","","","","0.932831263","0.9800092583","0.8028050151","0.1450659425","","","","","","","","","","72","H","0","img/none_selected.jpg","","81","main_expt","",""
"","bandit","164","553269","0.0-123.0-0.0","23054206","wem/bandit_party_2","A250HYHFGXESAC","either","7","259","","","","","","","1","0","0","0.9403650082","","0.8","0.4","0.2","0.6","","","","","0.9403650082","0.9666397243","0.8727424511","0.1486641529","","","","","","","","","","72","H","0","img/none_selected.jpg","","82","main_expt","",""
"","bandit","165","555048","0.0-124.0-0.0","23054206","wem/bandit_party_2","A250HYHFGXESAC","either","7","201","","","","","","","0","1","0","","0.9066396881","0.8","0.4","0.2","0.6","0.9066396881","0.9637330664","0.8283068274","0.1567811066","","","","","","","","","","","","","","72","H","0","img/none_selected.jpg","","83","main_expt","",""
"","bandit","166","557649","0.0-125.0-0.0","23054206","wem/bandit_party_2","A250HYHFGXESAC","either","7","464","","","","","","","1","0","0","0.8962006295","","0.8","0.4","0.2","0.6","","","","","0.8962006295","0.9617949183","0.8030064341","0.196091916","","","","","","","","","","72","H","0","img/none_selected.jpg","","84","main_expt","",""
"","bandit","167","559201","0.0-126.0-0.0","23054206","wem/bandit_party_2","A250HYHFGXESAC","either","7","11","","","","","","","1","0","0","0.9093999993","","0.8","0.4","0.2","0.6","","","","","0.9093999993","0.9561985801","0.8622567251","0.1512390112","","","","","","","","","","72","H","0","img/none_selected.jpg","","85","main_expt","",""
"","bandit","168","561051","0.0-127.0-0.0","23054206","wem/bandit_party_2","A250HYHFGXESAC","either","7","314","","","","","","","0","0","1","0.9326862648","","0.8","0.4","0.2","0.6","","","","","0.9326862648","0.9422505668","0.896584634","0.1486491559","","","","","","","","","","72","H","0","img/none_selected.jpg","","86","main_expt","",""
"","bandit","169","563026","0.0-128.0-0.0","23054206","wem/bandit_party_2","A250HYHFGXESAC","either","7","275","","","","","","","0","1","0","","0.926711091","0.8","0.4","0.2","0.6","0.9039434857","0.926711091","0.9208758521","0.1047878604","","","","","","","","","","","","","","74","J","1","","","87","main_expt","",""
"","bandit","170","564960","0.0-129.0-0.0","23054206","wem/bandit_party_2","A250HYHFGXESAC","either","7","385","","","","","","","0","0","1","","0.9092576496","0.8","0.4","0.2","0.6","0.9195127861","0.9092576496","0.9266301883","0.07038149384","","","","","","","","","","","","","","74","J","1","","","88","main_expt","",""
"","bandit","171","566912","0.0-130.0-0.0","23054206","wem/bandit_party_2","A250HYHFGXESAC","either","7","399","","","","","","","1","0","0","0.9225053559","","0.8","0.4","0.2","0.6","","","","","0.9225053559","0.8948591238","0.9259215542","0.1311535074","","","","","","","","","","72","H","0","img/none_selected.jpg","","89","main_expt","",""
"","bandit","172","569198","0.0-131.0-0.0","23054206","wem/bandit_party_2","A250HYHFGXESAC","either","7","742","","","","","","","1","0","0","0.9014563988","","0.8","0.4","0.2","0.6","","","","","0.9014563988","0.8716727139","0.9400480964","0.1241310956","","","","","","","","","","72","H","0","img/none_selected.jpg","","90","main_expt","",""
"","bandit","173","571510","0.0-132.0-0.0","23054206","wem/bandit_party_2","A250HYHFGXESAC","either","7","777","","","","","","","0","1","0","","0.9162570652","0.8","0.4","0.2","0.6","0.9162570652","0.8969144331","0.8961855863","0.09664170694","","","","","","","","","","","","","","72","H","0","img/none_selected.jpg","","91","main_expt","",""
"","bandit","174","574356","0.0-133.0-0.0","23054206","wem/bandit_party_2","A250HYHFGXESAC","either","7","975","","","","","","","1","0","0","0.9171553871","","0.8","0.4","0.2","0.6","","","","","0.9171553871","0.9171199264","0.9211437923","0.09586364307","","","","","","","","","","72","H","0","img/none_selected.jpg","","92","main_expt","",""
"","bandit","175","576420","0.0-134.0-0.0","23054206","wem/bandit_party_2","A250HYHFGXESAC","either","7","531","","","","","","","1","0","0","0.9463284029","","0.8","0.4","0.2","0.6","","","","","0.9463284029","0.9593171332","0.8947860396","0.08304118766","","","","","","","","","","72","H","0","img/none_selected.jpg","","93","main_expt","",""
"","bandit","176","579133","0.0-135.0-0.0","23054206","wem/bandit_party_2","A250HYHFGXESAC","either","7","1180","","","","","","","0","1","0","","0.9477079066","0.8","0.4","0.2","0.6","0.9477079066","0.959226596","0.822540961","0.1222865453","","","","","","","","","","","","","","72","H","0","img/none_selected.jpg","","94","main_expt","",""
"","bandit","177","581153","0.0-136.0-0.0","23054206","wem/bandit_party_2","A250HYHFGXESAC","either","7","473","","","","","","","1","0","0","0.9474919074","","0.8","0.4","0.2","0.6","","","","","0.9474919074","0.947105423","0.8288041746","0.211460517","","","","","","","","","","72","H","0","img/none_selected.jpg","","95","main_expt","",""
"","bandit","178","583385","0.0-137.0-0.0","23054206","wem/bandit_party_2","A250HYHFGXESAC","either","7","514","","","","","","","1","0","0","0.9722490369","","0.8","0.4","0.2","0.6","","","","","0.9722490369","0.937205139","0.8217366877","0.2757920232","","","","","","","","","","72","H","0","img/none_selected.jpg","","96","main_expt","",""
"","bandit","179","585160","0.0-138.0-0.0","23054206","wem/bandit_party_2","A250HYHFGXESAC","either","7","236","","","","","","","1","0","0","0.980822097","","0.8","0.4","0.2","0.6","","","","","0.980822097","0.9472767204","0.725285089","0.2646876298","","","","","","","","","","72","H","0","img/none_selected.jpg","","97","main_expt","",""
"","bandit","180","587360","0.0-139.0-0.0","23054206","wem/bandit_party_2","A250HYHFGXESAC","either","7","400","","","","","","","1","0","0","0.9761591307","","0.8","0.4","0.2","0.6","","","","","0.9761591307","0.962959595","0.7958966199","0.3278454636","","","","","","","","","","72","H","0","img/none_selected.jpg","","98","main_expt","",""
"","bandit","181","589465","0.0-140.0-0.0","23054206","wem/bandit_party_2","A250HYHFGXESAC","either","7","568","","","","","","","1","0","0","0.9597391097","","0.8","0.4","0.2","0.6","","","","","0.9597391097","0.9720903607","0.7741840332","0.4641870332","","","","","","","","","","72","H","0","img/none_selected.jpg","","99","main_expt","",""
"","bandit","182","591363","0.0-141.0-0.0","23054206","wem/bandit_party_2","A250HYHFGXESAC","either","7","331","","","","","","","0","0","1","0.9557148533","","0.8","0.4","0.2","0.6","","","","","0.9557148533","0.9737169538","0.7934767162","0.3972344865","","","","","","","","","","72","H","0","img/none_selected.jpg","","100","main_expt","",""
"","bandit","183","593750","0.0-142.0-0.0","23054206","wem/bandit_party_2","A250HYHFGXESAC","either","7","363","","","","","","","0","1","0","","0.986468331","0.8","0.4","0.2","0.6","0.9687934467","0.986468331","0.8307638242","0.4395304924","","","","","","","","","","","","","","74","J","1","","","101","main_expt","",""
"","bandit","184","595562","0.0-143.0-0.0","23054206","wem/bandit_party_2","A250HYHFGXESAC","either","7","278","","","","","","","0","1","0","","0.9859557102","0.8","0.4","0.2","0.6","0.9713318577","0.9859557102","0.7737236933","0.5248298482","","","","","","","","","","","","","","74","J","1","","","102","main_expt","",""
"","bandit","185","597676","0.0-144.0-0.0","23054206","wem/bandit_party_2","A250HYHFGXESAC","either","7","360","","","","","","","0","0","1","0.9828698412","","0.8","0.4","0.2","0.6","","","","","0.9768128314","0.9828698412","0.8168427084","0.6218364577","","","","","","","","","","74","J","1","","","103","main_expt","",""
"","bandit","186","599214","0.0-145.0-0.0","23054206","wem/bandit_party_2","A250HYHFGXESAC","either","7","0","","","","","","","1","0","0","0.5528563194","","0.8","0.4","0.2","0.6","","","","","0.9566706727","0.9655029871","0.7020104164","0.5528563194","","","","","","","","","","76","L","3","","","104","main_expt","",""
"","bandit","187","601275","0.0-146.0-0.0","23054206","wem/bandit_party_2","A250HYHFGXESAC","either","7","454","","","","","","","0","0","1","0.515821512","","0.8","0.4","0.2","0.6","","","","","0.9352711559","0.9587067199","0.6750414237","0.515821512","","","","","","","","","","76","L","3","","","105","main_expt","",""
"","bandit","188","603396","0.0-147.0-0.0","23054206","wem/bandit_party_2","A250HYHFGXESAC","either","7","319","","","","","","","0","1","0","","0.5886413089","0.8","0.4","0.2","0.6","0.8980036198","0.9358961366","0.5886413089","0.5380341879","","","","","","","","","","","","","","75","K","2","","","106","main_expt","",""
"","bandit","189","605239","0.0-148.0-0.0","23054206","wem/bandit_party_2","A250HYHFGXESAC","either","7","289","","","","","","","0","0","1","0.5507707533","","0.8","0.4","0.2","0.6","","","","","0.9175797088","0.8829949032","0.5507707533","0.3291998873","","","","","","","","","","75","K","2","","","107","main_expt","",""
"","bandit","190","606851","0.0-149.0-0.0","23054206","wem/bandit_party_2","A250HYHFGXESAC","either","7","85","","","","","","","1","0","0","0.8966825343","","0.8","0.4","0.2","0.6","","","","","0.8966825343","0.7668100276","0.4325904974","0.3608627265","","","","","","","","","","72","H","0","img/none_selected.jpg","","108","main_expt","",""
"","bandit","191","609514","0.0-150.0-0.0","23054206","wem/bandit_party_2","A250HYHFGXESAC","either","7","1117","","","","","","","0","1","0","","0.8883819791","0.8","0.4","0.2","0.6","0.8883819791","0.7652463225","0.3735159861","0.3837942066","","","","","","","","","","","","","","72","H","0","img/none_selected.jpg","","109","main_expt","",""
"","bandit","192","612295","0.0-151.0-0.0","23054206","wem/bandit_party_2","A250HYHFGXESAC","either","7","1233","","","","","","","1","0","0","0.9087011364","","0.8","0.4","0.2","0.6","","","","","0.9087011364","0.7974745759","0.3704440872","0.3019365294","","","","","","","","","","72","H","0","img/none_selected.jpg","","110","main_expt","",""
"","bandit","193","614906","0.0-152.0-0.0","23054206","wem/bandit_party_2","A250HYHFGXESAC","either","7","1059","","","","","","","1","0","0","0.9337026812","","0.8","0.4","0.2","0.6","","","","","0.9337026812","0.812352323","0.2749067499","0.3483008865","","","","","","","","","","72","H","0","img/none_selected.jpg","","111","main_expt","",""
"","bandit","194","617255","0.0-153.0-0.0","23054206","wem/bandit_party_2","A250HYHFGXESAC","either","7","717","","","","","","","1","0","0","0.9113388615","","0.8","0.4","0.2","0.6","","","","","0.9113388615","0.7428975936","0.2734667401","0.4342302697","","","","","","","","","","72","H","0","img/none_selected.jpg","","112","main_expt","",""
"","bandit","195","619737","0.0-154.0-0.0","23054206","wem/bandit_party_2","A250HYHFGXESAC","either","7","927","","","","","","","1","0","0","0.8980528729","","0.8","0.4","0.2","0.6","","","","","0.8980528729","0.7139653514","0.2291946885","0.5187246657","","","","","","","","","","72","H","0","img/none_selected.jpg","","113","main_expt","",""
"","bandit","196","621786","0.0-155.0-0.0","23054206","wem/bandit_party_2","A250HYHFGXESAC","either","7","459","","","","","","","0","0","1","0.8036326458","","0.8","0.4","0.2","0.6","","","","","0.8036326458","0.7945657698","0.2413339081","0.5381742134","","","","","","","","","","72","H","0","img/none_selected.jpg","","114","main_expt","",""
"","bandit","197","624700","0.0-156.0-0.0","23054206","wem/bandit_party_2","A250HYHFGXESAC","either","7","1354","","","","","","","1","0","0","0.8700945717","","0.8","0.4","0.2","0.6","","","","","0.8700945717","0.8405588069","0.3092826039","0.4785029821","","","","","","","","","","72","H","0","img/none_selected.jpg","","115","main_expt","",""
"","bandit","198","626867","0.0-157.0-0.0","23054206","wem/bandit_party_2","A250HYHFGXESAC","either","7","629","","","","","","","1","0","0","0.8895114993","","0.8","0.4","0.2","0.6","","","","","0.8895114993","0.8641798474","0.2361366225","0.4654757386","","","","","","","","","","72","H","0","img/none_selected.jpg","","116","main_expt","",""
"","bandit","199","630807","0.0-158.0-0.0","23054206","wem/bandit_party_2","A250HYHFGXESAC","either","7","2385","","","","","","","1","0","0","0.8936856952","","0.8","0.4","0.2","0.6","","","","","0.8936856952","0.8756768431","0.218402711","0.4578633225","","","","","","","","","","72","H","0","img/none_selected.jpg","","117","main_expt","",""
"","bandit","200","633314","0.0-159.0-0.0","23054206","wem/bandit_party_2","A250HYHFGXESAC","either","7","434","","","","","","","0","0","1","0.8077127093","","0.8","0.4","0.2","0.6","","","","","0.8077127093","0.9015269718","0.2003641109","0.4773941538","","","","","","","","","","72","H","0","img/none_selected.jpg","","118","main_expt","",""
"","bandit","201","634875","0.0-160.0-0.0","23054206","wem/bandit_party_2","A250HYHFGXESAC","either","7","8","","","","","","","1","0","0","0.8709738884","","0.8","0.4","0.2","0.6","","","","","0.8901108642","0.8709738884","0.1375137305","0.508374463","","","","","","","","","","74","J","1","","","119","main_expt","",""
"","bandit","202","636933","0.0-161.0-0.0","23054206","wem/bandit_party_2","A250HYHFGXESAC","either","7","526","","","","","","","0","0","1","0.8268338002","","0.8","0.4","0.2","0.6","","","","","0.8731124259","0.8268338002","0.08656631556","0.4294310012","","","","","","","","","","74","J","1","","","120","main_expt","",""
"","bandit","203","638889","0.0-162.0-0.0","23054206","wem/bandit_party_2","A250HYHFGXESAC","either","7","269","","","","","","","0","0","1","","0.07812634859","0.8","0.4","0.2","0.6","0.8509174952","0.8432616236","0.07812634859","0.3933985885","","","","","","","","","","","","","","75","K","2","","","121","main_expt","",""
"","bandit","204","640834","0.0-163.0-0.0","23054206","wem/bandit_party_2","A250HYHFGXESAC","either","7","374","","","","","","","0","0","1","0.2641409089","","0.8","0.4","0.2","0.6","","","","","0.8707856005","0.8128728295","0.09046411854","0.2641409089","","","","","","","","","","76","L","3","","","122","main_expt","",""
"","bandit","205","643156","0.0-164.0-0.0","23054206","wem/bandit_party_2","A250HYHFGXESAC","either","7","520","","","","","","","1","0","0","0.752198112","","0.8","0.4","0.2","0.6","","","","","0.7592524618","0.752198112","0.1132512529","0.2491349268","","","","","","","","","","74","J","1","","","123","main_expt","",""
"","bandit","206","644990","0.0-165.0-0.0","23054206","wem/bandit_party_2","A250HYHFGXESAC","either","7","257","","","","","","","1","0","0","0.7117781612","","0.8","0.4","0.2","0.6","","","","","0.7330206325","0.7117781612","0.09419269712","0.2587226179","","","","","","","","","","74","J","1","","","124","main_expt","",""
"","bandit","207","646945","0.0-166.0-0.0","23054206","wem/bandit_party_2","A250HYHFGXESAC","either","7","421","","","","","","","0","0","1","","0.7177409252","0.8","0.4","0.2","0.6","0.6903693331","0.7177409252","0.110513045","0.2925679814","","","","","","","","","","","","","","74","J","1","","","125","main_expt","",""
"","bandit","208","649177","0.0-167.0-0.0","23054206","wem/bandit_party_2","A250HYHFGXESAC","either","7","648","","","","","","","1","0","0","0.6370641568","","0.8","0.4","0.2","0.6","","","","","0.6370641568","0.7240917845","0.07088043536","0.3997536411","","","","","","","","","","72","H","0","img/none_selected.jpg","","126","main_expt","",""
"","bandit","209","651140","0.0-168.0-0.0","23054206","wem/bandit_party_2","A250HYHFGXESAC","either","7","386","","","","","","","0","0","1","","0.6192694325","0.8","0.4","0.2","0.6","0.6192694325","0.6788578752","0.1041728595","0.4120812041","","","","","","","","","","","","","","72","H","0","img/none_selected.jpg","","127","main_expt","",""
"","bandit","210","653263","0.0-169.0-0.0","23054206","wem/bandit_party_2","A250HYHFGXESAC","either","7","248","","","","","","","0","1","0","","0.6257789885","0.8","0.4","0.2","0.6","0.559348281","0.6257789885","0.1006708935","0.3731276689","","","","","","","","","","","","","","74","J","1","","","128","main_expt","",""
"","bandit","211","655107","0.0-170.0-0.0","23054206","wem/bandit_party_2","A250HYHFGXESAC","either","7","309","","","","","","","1","0","0","0.4761868647","","0.8","0.4","0.2","0.6","","","","","0.610360397","0.4761868647","0.1336488566","0.3263017501","","","","","","","","","","74","J","1","","","129","main_expt","",""
"","bandit","212","657071","0.0-171.0-0.0","23054206","wem/bandit_party_2","A250HYHFGXESAC","either","7","400","","","","","","","0","1","0","","0.4745188583","0.8","0.4","0.2","0.6","0.5737783772","0.4745188583","0.1271550391","0.3226142564","","","","","","","","","","","","","","74","J","1","","","130","main_expt","",""
"","bandit","213","659256","0.0-172.0-0.0","23054206","wem/bandit_party_2","A250HYHFGXESAC","either","7","562","","","","","","","0","0","1","","0.4674409752","0.8","0.4","0.2","0.6","0.6252154127","0.4674409752","0.1594360192","0.3907136596","","","","","","","","","","","","","","74","J","1","","","131","main_expt","",""
"","bandit","214","661033","0.0-173.0-0.0","23054206","wem/bandit_party_2","A250HYHFGXESAC","either","7","241","","","","","","","0","0","1","0.6473056352","","0.8","0.4","0.2","0.6","","","","","0.6473056352","0.368649462","0.1027658661","0.4983036492","","","","","","","","","","72","H","0","img/none_selected.jpg","","132","main_expt","",""
"","bandit","215","663187","0.0-174.0-0.0","23054206","wem/bandit_party_2","A250HYHFGXESAC","either","7","249","","","","","","","0","0","1","0.6347393695","","0.8","0.4","0.2","0.6","","","","","0.4595123468","0.4313577514","0.1223548883","0.6347393695","","","","","","","","","","76","L","3","","","133","main_expt","",""
"","bandit","216","664742","0.0-175.0-0.0","23054206","wem/bandit_party_2","A250HYHFGXESAC","either","7","12","","","","","","","0","0","1","","0.1063029331","0.8","0.4","0.2","0.6","0.3043385566","0.3692150919","0.1063029331","0.6037412299","","","","","","","","","","","","","","75","K","2","","","134","main_expt","",""
"","bandit","217","666540","0.0-176.0-0.0","23054206","wem/bandit_party_2","A250HYHFGXESAC","either","7","233","","","","","","","0","0","1","0.340857567","","0.8","0.4","0.2","0.6","","","","","0.340857567","0.3077662431","0.080644856","0.5511090861","","","","","","","","","","72","H","0","img/none_selected.jpg","","135","main_expt","",""
"","bandit","218","668679","0.0-177.0-0.0","23054206","wem/bandit_party_2","A250HYHFGXESAC","either","7","320","","","","","","","0","1","0","","0.314969588","0.8","0.4","0.2","0.6","0.2655810755","0.314969588","0.1359867045","0.585911414","","","","","","","","","","","","","","74","J","1","","","136","main_expt","",""
"","bandit","219","670473","0.0-178.0-0.0","23054206","wem/bandit_party_2","A250HYHFGXESAC","either","7","267","","","","","","","1","0","0","0.3590847215","","0.8","0.4","0.2","0.6","","","","","0.3025530854","0.3590847215","0.168344283","0.5805905743","","","","","","","","","","74","J","1","","","137","main_expt","",""
"","bandit","220","672881","0.0-179.0-0.0","23054206","wem/bandit_party_2","A250HYHFGXESAC","either","7","307","","","","","","","0","0","1","0.3588584756","","0.8","0.4","0.2","0.6","","","","","0.2888348812","0.3588584756","0.1867455324","0.6357737786","","","","","","","","","","74","J","1","","","138","main_expt","",""
"","bandit","221","674420","0.0-180.0-0.0","23054206","wem/bandit_party_2","A250HYHFGXESAC","either","7","3","","","","","","","0","0","1","0.2463208975","","0.8","0.4","0.2","0.6","","","","","0.2463208975","0.4289761638","0.2277874407","0.66639317","","","","","","","","","","72","H","0","img/none_selected.jpg","","139","main_expt","",""
"","bandit","222","676310","0.0-181.0-0.0","23054206","wem/bandit_party_2","A250HYHFGXESAC","either","7","302","","","","","","","0","0","1","0.2577820179","","0.8","0.4","0.2","0.6","","","","","0.273109751","0.3801639999","0.2577820179","0.6365789307","","","","","","","","","","75","K","2","","","140","main_expt","",""
"","bandit","223","678291","0.0-182.0-0.0","23054206","wem/bandit_party_2","A250HYHFGXESAC","either","7","364","","","","","","","0","0","1","0.6045632144","","0.8","0.4","0.2","0.6","","","","","0.3355442787","0.2445936549","0.3674069736","0.6045632144","","","","","","","","","","76","L","3","","","141","main_expt","",""
"","bandit","224","680205","0.0-183.0-0.0","23054206","wem/bandit_party_2","A250HYHFGXESAC","either","7","345","","","","","","","0","1","0","","0.4345417514","0.8","0.4","0.2","0.6","0.2781999234","0.3394066497","0.4345417514","0.5148607161","","","","","","","","","","","","","","75","K","2","","","142","main_expt","",""
"","bandit","225","682013","0.0-184.0-0.0","23054206","wem/bandit_party_2","A250HYHFGXESAC","either","7","155","","","","","","","0","1","0","","0.3811672827","0.8","0.4","0.2","0.6","0.2599467226","0.2899754881","0.3811672827","0.4754154836","","","","","","","","","","","","","","75","K","2","","","143","main_expt","",""
"","bandit","226","685864","0.0-185.0-0.0","23054206","wem/bandit_party_2","A250HYHFGXESAC","either","7","2289","","","","","","","0","0","1","0.2754059391","","0.8","0.4","0.2","0.6","","","","","0.2353144144","0.3701332444","0.2754059391","0.516029258","","","","","","","","","","75","K","2","","","144","main_expt","",""
"","bandit","227","688203","0.0-186.0-0.0","23054206","wem/bandit_party_2","A250HYHFGXESAC","either","7","568","","","","","","","0","0","1","","0.3322753171","0.8","0.4","0.2","0.6","0.2120114759","0.3322753171","0.2773400324","0.6646605279","","","","","","","","","","","","","","74","J","1","","","145","main_expt","",""
"","bandit","228","690013","0.0-187.0-0.0","23054206","wem/bandit_party_2","A250HYHFGXESAC","either","7","271","","","","","","","0","0","1","","0.176067728","0.8","0.4","0.2","0.6","0.176067728","0.3203507811","0.2780426824","0.6331546467","","","","","","","","","","","","","","72","H","0","img/none_selected.jpg","","146","main_expt","",""
"","bandit","229","692072","0.0-188.0-0.0","23054206","wem/bandit_party_2","A250HYHFGXESAC","either","7","527","","","","","","","0","0","1","0.3373608721","","0.8","0.4","0.2","0.6","","","","","0.1329453439","0.304761248","0.3373608721","0.6356747602","","","","","","","","","","75","K","2","","","147","main_expt","",""
"","bandit","230","693652","0.0-189.0-0.0","23054206","wem/bandit_party_2","A250HYHFGXESAC","either","7","11","","","","","","","1","0","0","0.6301772709","","0.8","0.4","0.2","0.6","","","","","0.1465103875","0.3809280674","0.3529594122","0.6301772709","","","","","","","","","","76","L","3","","","148","main_expt","",""
"","bandit","231","697232","0.0-190.0-0.0","23054206","wem/bandit_party_2","A250HYHFGXESAC","either","7","2035","","","","","","","1","0","0","0.6640591829","","0.8","0.4","0.2","0.6","","","","","0.1190451538","0.3997986218","0.3878328211","0.6640591829","","","","","","","","","","76","L","3","","","149","main_expt","",""
"","bandit","232","699491","0.0-191.0-0.0","23054206","wem/bandit_party_2","A250HYHFGXESAC","either","7","716","","","","","","","0","0","1","","0.6592717552","0.8","0.4","0.2","0.6","0.1195570164","0.3159341416","0.42943501","0.6592717552","","","","","","","","","","","","","","76","L","3","","","150","main_expt","",""
"","bandit","233","701284","0.0-192.0-0.0","23054206","wem/bandit_party_2","A250HYHFGXESAC","either","7","247","","","","","","","0","0","1","0.100492686","","0.8","0.4","0.2","0.6","","","","","0.100492686","0.3052853957","0.5142681232","0.5928743102","","","","","","","","","","72","H","0","img/none_selected.jpg","","151","main_expt","",""
"","bandit","234","703229","0.0-193.0-0.0","23054206","wem/bandit_party_2","A250HYHFGXESAC","either","7","366","","","","","","","0","0","1","0.1896018403","","0.8","0.4","0.2","0.6","","","","","0.1030367897","0.1896018403","0.6321073962","0.6822187145","","","","","","","","","","74","J","1","","","152","main_expt","",""
"","bandit","235","705045","0.0-194.0-0.0","23054206","wem/bandit_party_2","A250HYHFGXESAC","either","7","270","","","","","","","0","0","1","","0.6965670792","0.8","0.4","0.2","0.6","0.2059045691","0.2439656658","0.6965670792","0.6832005509","","","","","","","","","","","","","","75","K","2","","","153","main_expt","",""
"","bandit","236","706995","0.0-195.0-0.0","23054206","wem/bandit_party_2","A250HYHFGXESAC","either","7","252","","","","","","","0","0","1","0.2921647579","","0.8","0.4","0.2","0.6","","","","","0.2921647579","0.3068434149","0.6516005735","0.7109729062","","","","","","","","","","72","H","0","img/none_selected.jpg","","154","main_expt","",""
"","bandit","237","709056","0.0-196.0-0.0","23054206","wem/bandit_party_2","A250HYHFGXESAC","either","7","248","","","","","","","0","0","1","","0.2314644909","0.8","0.4","0.2","0.6","0.1789694193","0.2314644909","0.7291318088","0.6975465092","","","","","","","","","","","","","","74","J","1","","","155","main_expt","",""
"","bandit","238","710715","0.0-197.0-0.0","23054206","wem/bandit_party_2","A250HYHFGXESAC","either","7","112","","","","","","","0","1","0","","0.6273572288","0.8","0.4","0.2","0.6","0.2187195075","0.2154001061","0.6273572288","0.6580608271","","","","","","","","","","","","","","75","K","2","","","156","main_expt","",""
"","bandit","239","713216","0.0-198.0-0.0","23054206","wem/bandit_party_2","A250HYHFGXESAC","either","7","303","","","","","","","0","1","0","","0.566197257","0.8","0.4","0.2","0.6","0.2669834713","0.1648135251","0.566197257","0.5695802138","","","","","","","","","","","","","","75","K","2","","","157","main_expt","",""
"","bandit","240","715078","0.0-199.0-0.0","23054206","wem/bandit_party_2","A250HYHFGXESAC","either","7","308","","","","","","","0","0","1","","0.4523642269","0.8","0.4","0.2","0.6","0.4240307821","0.2215973425","0.4523642269","0.4733954301","","","","","","","","","","","","","","75","K","2","","","158","main_expt","",""
"","bandit","241","716699","0.0-200.0-0.0","23054206","wem/bandit_party_2","A250HYHFGXESAC","either","7","48","","","","","","","0","0","1","","0.5619817243","0.8","0.4","0.2","0.6","0.3840951437","0.2243274726","0.3991212054","0.5619817243","","","","","","","","","","","","","","76","L","3","","","159","main_expt","",""
"","bandit","242","718774","0.0-201.0-0.0","23054206","wem/bandit_party_2","A250HYHFGXESAC","either","7","519","","","","","","","0","0","1","0.4701658979","","0.8","0.4","0.2","0.6","","","","","0.4098147986","0.2061161075","0.3566558104","0.4701658979","","","","","","","","","","76","L","3","","","160","main_expt","",""
"","bandit","243","720969","0.0-202.0-0.0","23054206","wem/bandit_party_2","A250HYHFGXESAC","either","7","392","","","","","","","1","0","0","0.4430908041","","0.8","0.4","0.2","0.6","","","","","0.4027252302","0.209200141","0.4430908041","0.5673671472","","","","","","","","","","75","K","2","","","161","main_expt","",""
"","bandit","244","723177","0.0-203.0-0.0","23054206","wem/bandit_party_2","A250HYHFGXESAC","either","7","523","","","","","","","0","0","1","","0.3966098285","0.8","0.4","0.2","0.6","0.3824170733","0.1477343718","0.3966098285","0.4921809208","","","","","","","","","","","","","","75","K","2","","","162","main_expt","",""
"","bandit","245","725418","0.0-204.0-0.0","23054206","wem/bandit_party_2","A250HYHFGXESAC","either","7","666","","","","","","","0","0","1","","0.1525050104","0.8","0.4","0.2","0.6","0.3352280924","0.1525050104","0.3455868331","0.4204505308","","","","","","","","","","","","","","74","J","1","","","163","main_expt","",""
"","bandit","246","727297","0.0-205.0-0.0","23054206","wem/bandit_party_2","A250HYHFGXESAC","either","7","320","","","","","","","0","0","1","0.3379187571","","0.8","0.4","0.2","0.6","","","","","0.3379187571","0.08831047354","0.3368969945","0.534748173","","","","","","","","","","72","H","0","img/none_selected.jpg","","164","main_expt","",""
"","bandit","247","729124","0.0-206.0-0.0","23054206","wem/bandit_party_2","A250HYHFGXESAC","either","7","266","","","","","","","0","0","1","","0.3767562303","0.8","0.4","0.2","0.6","0.3160546663","0.1035482763","0.3767562303","0.4724966102","","","","","","","","","","","","","","75","K","2","","","165","main_expt","",""
"","bandit","248","731043","0.0-207.0-0.0","23054206","wem/bandit_party_2","A250HYHFGXESAC","either","7","387","","","","","","","0","0","1","0.06888190676","","0.8","0.4","0.2","0.6","","","","","0.3058359067","0.06888190676","0.4727650462","0.5280505203","","","","","","","","","","74","J","1","","","166","main_expt","",""
"","bandit","249","732851","0.0-208.0-0.0","23054206","wem/bandit_party_2","A250HYHFGXESAC","either","7","26","","","","","","","0","0","1","0.589670135","","0.8","0.4","0.2","0.6","","","","","0.2561334246","0.06051452263","0.6140635231","0.589670135","","","","","","","","","","76","L","3","","","167","main_expt","",""
"","bandit","250","734451","0.0-209.0-0.0","23054206","wem/bandit_party_2","A250HYHFGXESAC","either","7","5","","","","","","","0","0","1","0.2459084815","","0.8","0.4","0.2","0.6","","","","","0.2459084815","0.07905307949","0.5629225295","0.5058201204","","","","","","","","","","72","H","0","img/none_selected.jpg","","168","main_expt","",""
"","bandit","251","736463","0.0-210.0-0.0","23054206","wem/bandit_party_2","A250HYHFGXESAC","either","7","439","","","","","","","0","0","1","","0.07051596905","0.8","0.4","0.2","0.6","0.2138460752","0.07051596905","0.6456076899","0.4102709571","","","","","","","","","","","","","","74","J","1","","","169","main_expt","",""
"","bandit","252","738558","0.0-211.0-0.0","23054206","wem/bandit_party_2","A250HYHFGXESAC","either","7","235","","","","","","","0","0","1","","0.719827795","0.8","0.4","0.2","0.6","0.1642406351","0.1056762318","0.719827795","0.5061826445","","","","","","","","","","","","","","75","K","2","","","170","main_expt","",""
"","bandit","253","740413","0.0-212.0-0.0","23054206","wem/bandit_party_2","A250HYHFGXESAC","either","7","296","","","","","","","0","1","0","","0.6092158501","0.8","0.4","0.2","0.6","0.2337150112","0.1513980822","0.6716280274","0.6092158501","","","","","","","","","","","","","","76","L","3","","","171","main_expt","",""
"","bandit","254","742253","0.0-213.0-0.0","23054206","wem/bandit_party_2","A250HYHFGXESAC","either","7","283","","","","","","","0","1","0","","0.691496366","0.8","0.4","0.2","0.6","0.3128682212","0.1552293495","0.5683226388","0.691496366","","","","","","","","","","","","","","76","L","3","","","172","main_expt","",""
"","bandit","255","744572","0.0-214.0-0.0","23054206","wem/bandit_party_2","A250HYHFGXESAC","either","7","766","","","","","","","1","0","0","0.7402253768","","0.8","0.4","0.2","0.6","","","","","0.2775517843","0.1325975083","0.4581357746","0.7402253768","","","","","","","","","","76","L","3","","","173","main_expt","",""
"","bandit","256","746538","0.0-215.0-0.0","23054206","wem/bandit_party_2","A250HYHFGXESAC","either","7","433","","","","","","","1","0","0","0.6601004511","","0.8","0.4","0.2","0.6","","","","","0.4159305855","0.09024892351","0.5903479164","0.6601004511","","","","","","","","","","76","L","3","","","174","main_expt","",""
"","bandit","257","749252","0.0-216.0-0.0","23054206","wem/bandit_party_2","A250HYHFGXESAC","either","7","1145","","","","","","","1","0","0","0.6781732273","","0.8","0.4","0.2","0.6","","","","","0.4471770837","0.06963745108","0.5658285383","0.6781732273","","","","","","","","","","76","L","3","","","175","main_expt","",""
"","bandit","258","751344","0.0-217.0-0.0","23054206","wem/bandit_party_2","A250HYHFGXESAC","either","7","540","","","","","","","1","0","0","0.6932650799","","0.8","0.4","0.2","0.6","","","","","0.5162211083","0.07897043431","0.5313506173","0.6932650799","","","","","","","","","","76","L","3","","","176","main_expt","",""
"","bandit","259","753468","0.0-218.0-0.0","23054206","wem/bandit_party_2","A250HYHFGXESAC","either","7","564","","","","","","","0","0","1","","0.6803850572","0.8","0.4","0.2","0.6","0.6372676231","0.09469685393","0.4231289234","0.6803850572","","","","","","","","","","","","","","76","L","3","","","177","main_expt","",""
"","bandit","260","755140","0.0-219.0-0.0","23054206","wem/bandit_party_2","A250HYHFGXESAC","either","7","139","","","","","","","0","0","1","","0.580807006","0.8","0.4","0.2","0.6","0.6295749113","0.1486386852","0.580807006","0.5407017663","","","","","","","","","","","","","","75","K","2","","","178","main_expt","",""
"","bandit","261","756981","0.0-220.0-0.0","23054206","wem/bandit_party_2","A250HYHFGXESAC","either","7","262","","","","","","","0","0","1","","0.1965095934","0.8","0.4","0.2","0.6","0.4126066341","0.1965095934","0.5499948007","0.5931576708","","","","","","","","","","","","","","74","J","1","","","179","main_expt","",""
"","bandit","262","759292","0.0-221.0-0.0","23054206","wem/bandit_party_2","A250HYHFGXESAC","either","7","132","","","","","","","0","0","1","0.516991344","","0.8","0.4","0.2","0.6","","","","","0.516991344","0.1749048096","0.4918200669","0.5390819372","","","","","","","","","","72","H","0","img/none_selected.jpg","","180","main_expt","",""
"","bandit","263","761097","0.0-222.0-0.0","23054206","wem/bandit_party_2","A250HYHFGXESAC","either","7","242","","","","","","","0","0","1","0.4929910299","","0.8","0.4","0.2","0.6","","","","","0.4239603033","0.232896561","0.5428702931","0.4929910299","","","","","","","","","","76","L","3","","","181","main_expt","",""
"","bandit","264","762788","0.0-223.0-0.0","23054206","wem/bandit_party_2","A250HYHFGXESAC","either","7","11","","","","","","","0","0","1","0.3961891141","","0.8","0.4","0.2","0.6","","","","","0.3961891141","0.2561822725","0.5870547156","0.458433212","","","","","","","","","","72","H","0","img/none_selected.jpg","","182","main_expt","",""
"","bandit","265","764880","0.0-224.0-0.0","23054206","wem/bandit_party_2","A250HYHFGXESAC","either","7","551","","","","","","","0","0","1","0.2713883962","","0.8","0.4","0.2","0.6","","","","","0.4364601233","0.2713883962","0.5031908535","0.5725449786","","","","","","","","","","74","J","1","","","183","main_expt","",""
"","bandit","266","766556","0.0-225.0-0.0","23054206","wem/bandit_party_2","A250HYHFGXESAC","either","7","129","","","","","","","0","1","0","","0.4239978994","0.8","0.4","0.2","0.6","0.4826964198","0.3543557679","0.4239978994","0.4878383732","","","","","","","","","","","","","","75","K","2","","","184","main_expt","",""
"","bandit","267","768423","0.0-226.0-0.0","23054206","wem/bandit_party_2","A250HYHFGXESAC","either","7","209","","","","","","","0","1","0","","0.3425545299","0.8","0.4","0.2","0.6","0.4448789548","0.2974533566","0.3425545299","0.5189350158","","","","","","","","","","","","","","75","K","2","","","185","main_expt","",""
"","bandit","268","770350","0.0-227.0-0.0","23054206","wem/bandit_party_2","A250HYHFGXESAC","either","7","374","","","","","","","0","0","1","0.2594221554","","0.8","0.4","0.2","0.6","","","","","0.4585835861","0.3295130888","0.2594221554","0.4310300585","","","","","","","","","","75","K","2","","","186","main_expt","",""
"","bandit","269","771992","0.0-228.0-0.0","23054206","wem/bandit_party_2","A250HYHFGXESAC","either","7","63","","","","","","","0","0","1","","0.3440574025","0.8","0.4","0.2","0.6","0.5470412386","0.3440574025","0.350747246","0.4005994516","","","","","","","","","","","","","","74","J","1","","","187","main_expt","",""
"","bandit","270","773895","0.0-229.0-0.0","23054206","wem/bandit_party_2","A250HYHFGXESAC","either","7","6","","","","","","","0","0","1","0.5485419855","","0.8","0.4","0.2","0.6","","","","","0.5485419855","0.3176863717","0.3667816541","0.5684333967","","","","","","","","","","72","H","0","img/none_selected.jpg","","188","main_expt","",""
"","bandit","271","775872","0.0-230.0-0.0","23054206","wem/bandit_party_2","A250HYHFGXESAC","either","7","402","","","","","","","0","1","0","","0.5768443477","0.8","0.4","0.2","0.6","0.6161015427","0.3194332301","0.3129240978","0.5768443477","","","","","","","","","","","","","","76","L","3","","","189","main_expt","",""
"","bandit","272","778320","0.0-231.0-0.0","23054206","wem/bandit_party_2","A250HYHFGXESAC","either","7","905","","","","","","","0","1","0","","0.6091254975","0.8","0.4","0.2","0.6","0.5145576236","0.3585260795","0.3681084497","0.6091254975","","","","","","","","","","","","","","76","L","3","","","190","main_expt","",""
"","bandit","273","780237","0.0-232.0-0.0","23054206","wem/bandit_party_2","A250HYHFGXESAC","either","7","388","","","","","","","0","0","1","0.6355225437","","0.8","0.4","0.2","0.6","","","","","0.4447609651","0.4438822556","0.3284994938","0.6355225437","","","","","","","","","","76","L","3","","","191","main_expt","",""
"","bandit","274","782083","0.0-233.0-0.0","23054206","wem/bandit_party_2","A250HYHFGXESAC","either","7","301","","","","","","","1","0","0","0.4273979598","","0.8","0.4","0.2","0.6","","","","","0.4273979598","0.6336907385","0.2913335268","0.7449996868","","","","","","","","","","72","H","0","img/none_selected.jpg","","192","main_expt","",""
"","bandit","275","784317","0.0-234.0-0.0","23054206","wem/bandit_party_2","A250HYHFGXESAC","either","7","289","","","","","","","0","0","1","0.4382354048","","0.8","0.4","0.2","0.6","","","","","0.4382354048","0.5871300795","0.3614904019","0.7645281636","","","","","","","","","","72","H","0","img/none_selected.jpg","","193","main_expt","",""
"","bandit","276","786141","0.0-235.0-0.0","23054206","wem/bandit_party_2","A250HYHFGXESAC","either","7","259","","","","","","","0","0","1","","0.5919999684","0.8","0.4","0.2","0.6","0.4367950698","0.5919999684","0.4180963095","0.7417458559","","","","","","","","","","","","","","74","J","1","","","194","main_expt","",""
"","bandit","277","788146","0.0-236.0-0.0","23054206","wem/bandit_party_2","A250HYHFGXESAC","either","7","36","","","","","","","0","0","1","","0.4129416526","0.8","0.4","0.2","0.6","0.4306922929","0.5599221581","0.4129416526","0.7102393491","","","","","","","","","","","","","","75","K","2","","","195","main_expt","",""
"","bandit","278","790076","0.0-237.0-0.0","23054206","wem/bandit_party_2","A250HYHFGXESAC","either","7","393","","","","","","","1","0","0","0.6846894693","","0.8","0.4","0.2","0.6","","","","","0.4436260943","0.4552797342","0.6027995291","0.6846894693","","","","","","","","","","76","L","3","","","196","main_expt","",""
"","bandit","279","791948","0.0-238.0-0.0","23054206","wem/bandit_party_2","A250HYHFGXESAC","either","7","320","","","","","","","1","0","0","0.6573901597","","0.8","0.4","0.2","0.6","","","","","0.4547077395","0.3045440077","0.6174547511","0.6573901597","","","","","","","","","","76","L","3","","","197","main_expt","",""
"","bandit","280","794219","0.0-239.0-0.0","23054206","wem/bandit_party_2","A250HYHFGXESAC","either","7","366","","","","","","","0","0","1","0.7020762336","","0.8","0.4","0.2","0.6","","","","","0.545148617","0.4061180554","0.5727893511","0.7020762336","","","","","","","","","","76","L","3","","","198","main_expt","",""
"","bandit","281","796001","0.0-240.0-0.0","23054206","wem/bandit_party_2","A250HYHFGXESAC","either","7","218","","","","","","","0","0","1","","0.5838562778","0.8","0.4","0.2","0.6","0.5838562778","0.3406873398","0.5803616598","0.7749867965","","","","","","","","","","","","","","72","H","0","img/none_selected.jpg","","199","main_expt","",""
"","bandit","282","798421","0.0-241.0-0.0","23054206","wem/bandit_party_2","A250HYHFGXESAC","either","7","111","","","","","","","0","0","1","0.2810551981","","0.8","0.4","0.2","0.6","","","","","0.6569131065","0.2810551981","0.5109940584","0.7971262248","","","","","","","","","","74","J","1","","","200","main_expt","",""
"","bandit","283","799998","0.0-242.0-0.0","23054206","wem/bandit_party_2","A250HYHFGXESAC","either","7","5","","","","","","","0","1","0","","0.444158281","0.8","0.4","0.2","0.6","0.6559739125","0.2295892347","0.444158281","0.6431063495","","","","","","","","","","","","","","75","K","2","","","201","main_expt","",""
"","bandit","284","802079","0.0-243.0-0.0","23054206","wem/bandit_party_2","A250HYHFGXESAC","either","7","409","","","","","","","1","0","0","0.3774362348","","0.8","0.4","0.2","0.6","","","","","0.5940698896","0.2134833186","0.3774362348","0.6153479028","","","","","","","","","","75","K","2","","","202","main_expt","",""
"","bandit","285","804403","0.0-244.0-0.0","23054206","wem/bandit_party_2","A250HYHFGXESAC","either","7","772","","","","","","","0","0","1","","0.2852638898","0.8","0.4","0.2","0.6","0.6288005559","0.1538434825","0.2852638898","0.6107921693","","","","","","","","","","","","","","75","K","2","","","203","main_expt","",""
"","bandit","286","805968","0.0-245.0-0.0","23054206","wem/bandit_party_2","A250HYHFGXESAC","either","7","5","","","","","","","0","0","1","","0.6364312764","0.8","0.4","0.2","0.6","0.7483345684","0.08629221539","0.3900316507","0.6364312764","","","","","","","","","","","","","","76","L","3","","","204","main_expt","",""
"","bandit","287","807527","0.0-246.0-0.0","23054206","wem/bandit_party_2","A250HYHFGXESAC","either","7","23","","","","","","","0","1","0","","0.1303029892","0.8","0.4","0.2","0.6","0.7823609999","0.1303029892","0.3334674042","0.7098325313","","","","","","","","","","","","","","74","J","1","","","205","main_expt","",""
"","bandit","288","809910","0.0-247.0-0.0","23054206","wem/bandit_party_2","A250HYHFGXESAC","either","7","833","","","","","","","0","0","1","","0.1290793888","0.8","0.4","0.2","0.6","0.7053347691","0.1290793888","0.3997779834","0.6423198407","","","","","","","","","","","","","","74","J","1","","","206","main_expt","",""
"","bandit","289","811720","0.0-248.0-0.0","23054206","wem/bandit_party_2","A250HYHFGXESAC","either","7","272","","","","","","","1","0","0","0.692958529","","0.8","0.4","0.2","0.6","","","","","0.692958529","0.1471003053","0.2791746034","0.7196337679","","","","","","","","","","72","H","0","img/none_selected.jpg","","207","main_expt","",""
"","bandit","290","814357","0.0-249.0-0.0","23054206","wem/bandit_party_2","A250HYHFGXESAC","either","7","405","","","","","","","0","0","1","0.5726600787","","0.8","0.4","0.2","0.6","","","","","0.5726600787","0.1204476287","0.3447420344","0.7273253538","","","","","","","","","","72","H","0","img/none_selected.jpg","","208","main_expt","",""
"","bandit","291","817322","0.0-250.0-0.0","23054206","wem/bandit_party_2","A250HYHFGXESAC","either","7","1409","","","","","","","1","0","0","0.1752658923","","0.8","0.4","0.2","0.6","","","","","0.7193759884","0.1752658923","0.2106944101","0.7701678217","","","","","","","","","","74","J","1","","","209","main_expt","",""
"","bandit","292","819358","0.0-251.0-0.0","23054206","wem/bandit_party_2","A250HYHFGXESAC","either","7","294","","","","","","","0","0","1","","0.2071456167","0.8","0.4","0.2","0.6","0.5469619257","0.2071456167","0.2609791638","0.7673062315","","","","","","","","","","","","","","74","J","1","","","210","main_expt","",""
"","bandit","293","821099","0.0-252.0-0.0","23054206","wem/bandit_party_2","A250HYHFGXESAC","either","7","205","","","","","","","0","0","1","","0.3702243554","0.8","0.4","0.2","0.6","0.5432746348","0.1982577311","0.3702243554","0.7733207599","","","","","","","","","","","","","","75","K","2","","","211","main_expt","",""
"","bandit","294","823149","0.0-253.0-0.0","23054206","wem/bandit_party_2","A250HYHFGXESAC","either","7","265","","","","","","","1","0","0","0.7176010575","","0.8","0.4","0.2","0.6","","","","","0.4857525371","0.2837026457","0.4070014152","0.7176010575","","","","","","","","","","76","L","3","","","212","main_expt","",""
"","bandit","295","824700","0.0-254.0-0.0","23054206","wem/bandit_party_2","A250HYHFGXESAC","either","7","10","","","","","","","1","0","0","0.7241732444","","0.8","0.4","0.2","0.6","","","","","0.4416723402","0.2192955177","0.5001351259","0.7241732444","","","","","","","","","","76","L","3","","","213","main_expt","",""
"","bandit","296","826511","0.0-255.0-0.0","23054206","wem/bandit_party_2","A250HYHFGXESAC","either","7","249","","","","","","","0","1","0","","0.6696022014","0.8","0.4","0.2","0.6","0.4231083207","0.2885853396","0.5667049056","0.6696022014","","","","","","","","","","","","","","76","L","3","","","214","main_expt","",""
"","bandit","297","828491","0.0-256.0-0.0","23054206","wem/bandit_party_2","A250HYHFGXESAC","either","7","281","","","","","","","0","0","1","0.6255990046","","0.8","0.4","0.2","0.6","","","","","0.329019478","0.2451296471","0.5259574602","0.6255990046","","","","","","","","","","76","L","3","","","215","main_expt","",""
"","bandit","298","830368","0.0-257.0-0.0","23054206","wem/bandit_party_2","A250HYHFGXESAC","either","7","322","","","","","","","0","1","0","","0.6771362935","0.8","0.4","0.2","0.6","0.3469743373","0.1946790852","0.5468860011","0.6771362935","","","","","","","","","","","","","","76","L","3","","","216","main_expt","",""
"","bandit","299","832157","0.0-258.0-0.0","23054206","wem/bandit_party_2","A250HYHFGXESAC","either","7","237","","","","","","","0","1","0","","0.6918953154","0.8","0.4","0.2","0.6","0.3618740044","0.2497229096","0.6182745027","0.6918953154","","","","","","","","","","","","","","76","L","3","","","217","main_expt","",""
"","bandit","300","834132","0.0-259.0-0.0","23054206","wem/bandit_party_2","A250HYHFGXESAC","either","7","244","","","","","","","0","0","1","","0.5726390237","0.8","0.4","0.2","0.6","0.3574217595","0.3076421025","0.5979125128","0.5726390237","","","","","","","","","","","","","","76","L","3","","","218","main_expt","",""
"","bandit","301","835900","0.0-260.0-0.0","23054206","wem/bandit_party_2","A250HYHFGXESAC","either","7","212","","","","","","","0","1","0","","0.5179196303","0.8","0.4","0.2","0.6","0.3862686792","0.3488941347","0.5321687475","0.5179196303","","","","","","","","","","","","","","76","L","3","","","219","main_expt","",""
"","bandit","302","838095","0.0-261.0-0.0","23054206","wem/bandit_party_2","A250HYHFGXESAC","either","7","287","","","","","","","1","0","0","0.5578222379","","0.8","0.4","0.2","0.6","","","","","0.4432846828","0.306784001","0.6053830099","0.5578222379","","","","","","","","","","76","L","3","","","220","main_expt","",""
"","bandit","303","839637","0.0-262.0-0.0","23054206","wem/bandit_party_2","A250HYHFGXESAC","either","7","9","","","","","","","0","1","0","","0.6640911266","0.8","0.4","0.2","0.6","0.432499938","0.3786925452","0.69383498","0.6640911266","","","","","","","","","","","","","","76","L","3","","","221","main_expt","",""
"","bandit","304","841433","0.0-263.0-0.0","23054206","wem/bandit_party_2","A250HYHFGXESAC","either","7","224","","","","","","","1","0","0","0.7340686256","","0.8","0.4","0.2","0.6","","","","","0.4050903391","0.5014801557","0.783375317","0.7340686256","","","","","","","","","","76","L","3","","","222","main_expt","",""
"","bandit","305","843221","0.0-264.0-0.0","23054206","wem/bandit_party_2","A250HYHFGXESAC","either","7","242","","","","","","","0","1","0","","0.852862777","0.8","0.4","0.2","0.6","0.3282593462","0.4081704387","0.8374489269","0.852862777","","","","","","","","","","","","","","76","L","3","","","223","main_expt","",""
"","bandit","306","844986","0.0-265.0-0.0","23054206","wem/bandit_party_2","A250HYHFGXESAC","either","7","228","","","","","","","1","0","0","0.7830506485","","0.8","0.4","0.2","0.6","","","","","0.2465370002","0.422296693","0.7801262993","0.7830506485","","","","","","","","","","76","L","3","","","224","main_expt","",""
"","bandit","307","846916","0.0-266.0-0.0","23054206","wem/bandit_party_2","A250HYHFGXESAC","either","7","383","","","","","","","0","0","1","0.7447555501","","0.8","0.4","0.2","0.6","","","","","0.2260872052","0.3998144739","0.7438235551","0.7447555501","","","","","","","","","","76","L","3","","","225","main_expt","",""
"","bandit","308","848848","0.0-267.0-0.0","23054206","wem/bandit_party_2","A250HYHFGXESAC","either","7","355","","","","","","","1","0","0","0.7331719472","","0.8","0.4","0.2","0.6","","","","","0.2573895518","0.2692780115","0.7561714458","0.7331719472","","","","","","","","","","76","L","3","","","226","main_expt","",""
"","bandit","309","850661","0.0-268.0-0.0","23054206","wem/bandit_party_2","A250HYHFGXESAC","either","7","256","","","","","","","1","0","0","0.6417259928","","0.8","0.4","0.2","0.6","","","","","0.2134597582","0.268728261","0.7527106072","0.6417259928","","","","","","","","","","76","L","3","","","227","main_expt","",""
"","bandit","310","852918","0.0-269.0-0.0","23054206","wem/bandit_party_2","A250HYHFGXESAC","either","7","718","","","","","","","0","1","0","","0.6050549784","0.8","0.4","0.2","0.6","0.348479141","0.2211951924","0.6315627418","0.6050549784","","","","","","","","","","","","","","76","L","3","","","228","main_expt","",""
"","bandit","311","854676","0.0-270.0-0.0","23054206","wem/bandit_party_2","A250HYHFGXESAC","either","7","222","","","","","","","0","1","0","","0.5962230341","0.8","0.4","0.2","0.6","0.3250735223","0.219241791","0.5564086662","0.5962230341","","","","","","","","","","","","","","76","L","3","","","229","main_expt","",""
"","bandit","312","856551","0.0-271.0-0.0","23054206","wem/bandit_party_2","A250HYHFGXESAC","either","7","334","","","","","","","0","1","0","","0.5594933722","0.8","0.4","0.2","0.6","0.3395219718","0.291585141","0.5895813861","0.5594933722","","","","","","","","","","","","","","76","L","3","","","230","main_expt","",""
