"consent","trial_type","trial_index","time_elapsed","internal_node_id","subjID","study","MID","cond","drift","rt","responses","button_pressed","key_press","like","value","connected","gems","bombs","no_reward","GemPrChosen","BombPrChosen","GainOverPainPr_0","GainOverPainPr_1","GainOverPainPr_2","GainOverPainPr_3","LosePr_0","LosePr_1","LosePr_2","LosePr_3","WinPr_0","WinPr_1","WinPr_2","WinPr_3","Q0","Q1","Q2","gender","age","ethnicity","label","expt_phase","target","respCharCode","respKey","respChoiceNum","respChoice","practice","trial_counter","trial_label","Q0_index"
"GDM/GDM_behavioral_consent_30min_online.html","consent","0","10841","0.0-0.0","23137317","wem/bandit_party_2","A2HC9549CZAKNN","either","2","","","","","","","","","","","","","","","","","","","","","","","","","","","","","","","","","","","","","","","","",""
"","survey-text","1","17142","0.0-1.0","23137317","wem/bandit_party_2","A2HC9549CZAKNN","either","2","5294","{""Q0"":""A2HC9549CZAKNN""}","","","","","","","","","","","","","","","","","","","","","","","","","","","","","","","","","","","","","","",""
"","button-response","2","19590","0.0-2.0","23137317","wem/bandit_party_2","A2HC9549CZAKNN","either","2","1442","","1","","","","","","","","","","","","","","","","","","","","","","","","","","","","","","","","","","","","","",""
"","text-replacement","3","29625","0.0-3.0","23137317","wem/bandit_party_2","A2HC9549CZAKNN","either","2","9031","","","32","","","","","","","","","","","","","","","","","","","","","","","","","","","","","","","","","","","","",""
"","text-replacement","4","77142","0.0-4.0","23137317","wem/bandit_party_2","A2HC9549CZAKNN","either","2","47515","","","32","","","","","","","","","","","","","","","","","","","","","","","","","","","","","","","","","","","","",""
"","identification","5","98469","0.0-6.0-0.0","23137317","wem/bandit_party_2","A2HC9549CZAKNN","either","2","21315","","","","6","6","6","","","","","","","","","","","","","","","","","","","","","","","","pre","identification_pre","the Democratic Party","","","","","","","",""
"","identification","6","103815","0.0-6.0-1.0","23137317","wem/bandit_party_2","A2HC9549CZAKNN","either","2","4338","","","","0","0","0","","","","","","","","","","","","","","","","","","","","","","","","pre","identification_pre","the Republican Party","","","","","","","",""
"","text-replacement","7","108392","0.0-7.0","23137317","wem/bandit_party_2","A2HC9549CZAKNN","either","2","3574","","","32","","","","","","","","","","","","","","","","","","","","","","","","","","","","","","","","","","","","",""
"","text-replacement","8","115430","0.0-8.0","23137317","wem/bandit_party_2","A2HC9549CZAKNN","either","2","7036","","","32","","","","","","","","","","","","","","","","","","","","","","","","","","","","","","","","","","","","",""
"","text-replacement","9","124024","0.0-9.0","23137317","wem/bandit_party_2","A2HC9549CZAKNN","either","2","8592","","","32","","","","","","","","","","","","","","","","","","","","","","","","","","","","","","","","","","","","",""
"","text-replacement","10","127149","0.0-10.0","23137317","wem/bandit_party_2","A2HC9549CZAKNN","either","2","3124","","","32","","","","","","","","","","","","","","","","","","","","","","","","","","","","","","","","","","","","",""
"","text-replacement","11","130390","0.0-11.0","23137317","wem/bandit_party_2","A2HC9549CZAKNN","either","2","3239","","","32","","","","","","","","","","","","","","","","","","","","","","","","","","","","","","","","","","","","",""
"","bandit","12","134157","0.0-12.0-0.0","23137317","wem/bandit_party_2","A2HC9549CZAKNN","either","2","2261","","","","","","","0","0","1","0","0","","","","","0","","","","0","","","","","","","","","","","","","74","J","0","img/none_selected_demo.jpg","true","0","",""
"","bandit","13","137165","0.0-13.0-0.0","23137317","wem/bandit_party_2","A2HC9549CZAKNN","either","2","1505","","","","","","","0","0","1","0","0","","","","","0","","","","0","","","","","","","","","","","","","75","K","0","img/none_selected_demo.jpg","true","0","",""
"","text-replacement","14","143718","0.0-14.0","23137317","wem/bandit_party_2","A2HC9549CZAKNN","either","2","6551","","","32","","","","","","","","","","","","","","","","","","","","","","","","","","","","","","","","","","","","",""
"","text-replacement","15","148367","0.0-15.0","23137317","wem/bandit_party_2","A2HC9549CZAKNN","either","2","4649","","","32","","","","","","","","","","","","","","","","","","","","","","","","","","","","","","","","","","","","",""
"","text-replacement","16","159463","0.0-16.0","23137317","wem/bandit_party_2","A2HC9549CZAKNN","either","2","11095","","","32","","","","","","","","","","","","","","","","","","","","","","","","","","","","","","","","","","","","",""
"","text-replacement","17","163285","0.0-17.0","23137317","wem/bandit_party_2","A2HC9549CZAKNN","either","2","3821","","","32","","","","","","","","","","","","","","","","","","","","","","","","","","","","","","","","","","","","",""
"","bandit","18","167003","0.0-18.0-0.0","23137317","wem/bandit_party_2","A2HC9549CZAKNN","either","2","2213","","","","","","","0","1","0","","0.8","0.5","0.5","","","0.8","0.2","","","","","","","","","","","","","","","","74","J","0","img/none_selected_demo.jpg","true","0","80_20_practice",""
"","bandit","19","169739","0.0-18.0-1.0","23137317","wem/bandit_party_2","A2HC9549CZAKNN","either","2","1233","","","","","","","1","0","0","0.8","","0.5","0.5","","","","","","","0.8","0.2","","","","","","","","","","","","74","J","0","img/none_selected_demo.jpg","true","0","80_20_practice",""
"","bandit","20","172606","0.0-18.0-2.0","23137317","wem/bandit_party_2","A2HC9549CZAKNN","either","2","1362","","","","","","","0","0","1","0.8","","0.5","0.5","","","","","","","0.8","0.2","","","","","","","","","","","","74","J","0","img/none_selected_demo.jpg","true","0","80_20_practice",""
"","bandit","21","175515","0.0-18.0-3.0","23137317","wem/bandit_party_2","A2HC9549CZAKNN","either","2","1406","","","","","","","0","1","0","","0.8","0.5","0.5","","","0.8","0.2","","","","","","","","","","","","","","","","74","J","0","img/none_selected_demo.jpg","true","0","80_20_practice",""
"","bandit","22","178131","0.0-18.0-4.0","23137317","wem/bandit_party_2","A2HC9549CZAKNN","either","2","1112","","","","","","","0","1","0","","0.8","0.5","0.5","","","0.8","0.2","","","","","","","","","","","","","","","","74","J","0","img/none_selected_demo.jpg","true","0","80_20_practice",""
"","bandit","23","180900","0.0-18.0-5.0","23137317","wem/bandit_party_2","A2HC9549CZAKNN","either","2","1264","","","","","","","1","0","0","0.8","","0.5","0.5","","","","","","","0.8","0.2","","","","","","","","","","","","74","J","0","img/none_selected_demo.jpg","true","0","80_20_practice",""
"","bandit","24","183661","0.0-18.0-6.0","23137317","wem/bandit_party_2","A2HC9549CZAKNN","either","2","1258","","","","","","","0","1","0","","0.8","0.5","0.5","","","0.8","0.2","","","","","","","","","","","","","","","","74","J","0","img/none_selected_demo.jpg","true","0","80_20_practice",""
"","bandit","25","185805","0.0-18.0-7.0","23137317","wem/bandit_party_2","A2HC9549CZAKNN","either","2","638","","","","","","","0","1","0","","0.8","0.5","0.5","","","0.8","0.2","","","","","","","","","","","","","","","","74","J","0","img/none_selected_demo.jpg","true","0","80_20_practice",""
"","bandit","26","190059","0.0-18.0-8.0","23137317","wem/bandit_party_2","A2HC9549CZAKNN","either","2","2750","","","","","","","0","1","0","","0.8","0.5","0.5","","","0.8","0.2","","","","","","","","","","","","","","","","74","J","0","img/none_selected_demo.jpg","true","0","80_20_practice",""
"","bandit","27","192989","0.0-18.0-9.0","23137317","wem/bandit_party_2","A2HC9549CZAKNN","either","2","1425","","","","","","","1","0","0","0.8","","0.5","0.5","","","","","","","0.8","0.2","","","","","","","","","","","","74","J","0","img/none_selected_demo.jpg","true","0","80_20_practice",""
"","bandit","28","194813","0.0-18.0-10.0","23137317","wem/bandit_party_2","A2HC9549CZAKNN","either","2","321","","","","","","","1","0","0","0.8","","0.5","0.5","","","","","","","0.8","0.2","","","","","","","","","","","","74","J","0","img/none_selected_demo.jpg","true","0","80_20_practice",""
"","bandit","29","196587","0.0-18.0-11.0","23137317","wem/bandit_party_2","A2HC9549CZAKNN","either","2","270","","","","","","","0","1","0","","0.8","0.5","0.5","","","0.8","0.2","","","","","","","","","","","","","","","","74","J","0","img/none_selected_demo.jpg","true","0","80_20_practice",""
"","bandit","30","198459","0.0-18.0-12.0","23137317","wem/bandit_party_2","A2HC9549CZAKNN","either","2","367","","","","","","","0","1","0","","0.8","0.5","0.5","","","0.8","0.2","","","","","","","","","","","","","","","","74","J","0","img/none_selected_demo.jpg","true","0","80_20_practice",""
"","bandit","31","200619","0.0-18.0-13.0","23137317","wem/bandit_party_2","A2HC9549CZAKNN","either","2","656","","","","","","","1","0","0","0.8","","0.5","0.5","","","","","","","0.8","0.2","","","","","","","","","","","","74","J","0","img/none_selected_demo.jpg","true","0","80_20_practice",""
"","bandit","32","203563","0.0-18.0-14.0","23137317","wem/bandit_party_2","A2HC9549CZAKNN","either","2","1437","","","","","","","0","1","0","","0.8","0.5","0.5","","","0.8","0.2","","","","","","","","","","","","","","","","74","J","0","img/none_selected_demo.jpg","true","0","80_20_practice",""
"","bandit","33","205469","0.0-18.0-15.0","23137317","wem/bandit_party_2","A2HC9549CZAKNN","either","2","403","","","","","","","0","1","0","","0.8","0.5","0.5","","","0.8","0.2","","","","","","","","","","","","","","","","74","J","0","img/none_selected_demo.jpg","true","0","80_20_practice",""
"","bandit","34","209412","0.0-18.0-16.0","23137317","wem/bandit_party_2","A2HC9549CZAKNN","either","2","2438","","","","","","","1","0","0","0.8","","0.5","0.5","","","","","","","0.8","0.2","","","","","","","","","","","","74","J","0","img/none_selected_demo.jpg","true","0","80_20_practice",""
"","bandit","35","211598","0.0-18.0-17.0","23137317","wem/bandit_party_2","A2HC9549CZAKNN","either","2","680","","","","","","","0","1","0","","0.8","0.5","0.5","","","0.8","0.2","","","","","","","","","","","","","","","","74","J","0","img/none_selected_demo.jpg","true","0","80_20_practice",""
"","bandit","36","213420","0.0-18.0-18.0","23137317","wem/bandit_party_2","A2HC9549CZAKNN","either","2","317","","","","","","","0","1","0","","0.8","0.5","0.5","","","0.8","0.2","","","","","","","","","","","","","","","","74","J","0","img/none_selected_demo.jpg","true","0","80_20_practice",""
"","bandit","37","215387","0.0-18.0-19.0","23137317","wem/bandit_party_2","A2HC9549CZAKNN","either","2","463","","","","","","","0","1","0","","0.2","0.5","0.5","","","0.8","0.2","","","","","","","","","","","","","","","","75","K","1","","true","0","80_20_practice",""
"","text-replacement","38","219225","0.0-19.0","23137317","wem/bandit_party_2","A2HC9549CZAKNN","either","2","3835","","","32","","","","","","","","","","","","","","","","","","","","","","","","","","","","","","","","","","","","",""
"","bandit","39","222213","0.0-20.0-0.0","23137317","wem/bandit_party_2","A2HC9549CZAKNN","either","2","1482","","","","","","","1","0","0","1","0","","","","","0","1","","","1","0","","","","","","","","","","","","74","J","0","img/none_selected_demo.jpg","true","0","",""
"","text-replacement","40","225662","0.0-21.0","23137317","wem/bandit_party_2","A2HC9549CZAKNN","either","2","3448","","","32","","","","","","","","","","","","","","","","","","","","","","","","","","","","","","","","","","","","",""
"","text-replacement","41","228310","0.0-22.0","23137317","wem/bandit_party_2","A2HC9549CZAKNN","either","2","2646","","","32","","","","","","","","","","","","","","","","","","","","","","","","","","","","","","","","","","","","",""
"","text-replacement","42","231097","0.0-23.0","23137317","wem/bandit_party_2","A2HC9549CZAKNN","either","2","2785","","","32","","","","","","","","","","","","","","","","","","","","","","","","","","","","","","","","","","","","",""
"","text-replacement","43","234686","0.0-24.0","23137317","wem/bandit_party_2","A2HC9549CZAKNN","either","2","3588","","","32","","","","","","","","","","","","","","","","","","","","","","","","","","","","","","","","","","","","",""
"","text-replacement","44","239975","0.0-25.0","23137317","wem/bandit_party_2","A2HC9549CZAKNN","either","2","5287","","","32","","","","","","","","","","","","","","","","","","","","","","","","","","","","","","","","","","","","",""
"","text-replacement","45","242442","0.0-26.0","23137317","wem/bandit_party_2","A2HC9549CZAKNN","either","2","2465","","","32","","","","","","","","","","","","","","","","","","","","","","","","","","","","","","","","","","","","",""
"","text-replacement","46","245335","0.0-27.0","23137317","wem/bandit_party_2","A2HC9549CZAKNN","either","2","2885","","","32","","","","","","","","","","","","","","","","","","","","","","","","","","","","","","","","","","","","",""
"","text-replacement","47","248423","0.0-28.0","23137317","wem/bandit_party_2","A2HC9549CZAKNN","either","2","3087","","","32","","","","","","","","","","","","","","","","","","","","","","","","","","","","","","","","","","","","",""
"","text-replacement","48","252158","0.0-29.0","23137317","wem/bandit_party_2","A2HC9549CZAKNN","either","2","3733","","","32","","","","","","","","","","","","","","","","","","","","","","","","","","","","","","","","","","","","",""
"","text-replacement","49","254600","0.0-30.0","23137317","wem/bandit_party_2","A2HC9549CZAKNN","either","2","2441","","","32","","","","","","","","","","","","","","","","","","","","","","","","","","","","","","","","","","","","",""
"","text-replacement","50","256887","0.0-31.0","23137317","wem/bandit_party_2","A2HC9549CZAKNN","either","2","2284","","","32","","","","","","","","","","","","","","","","","","","","","","","","","","","","","","","","","","","","",""
"","bandit","51","259844","0.0-32.0-0.0","23137317","wem/bandit_party_2","A2HC9549CZAKNN","either","2","1451","","","","","","","1","0","0","0.8","","0.5","0.5","0.5","0.5","","","","","0.8","0.2","0.6","0.2","","","","","","","","","","72","H","0","img/none_selected.jpg","true","0","full_practice",""
"","bandit","52","261899","0.0-32.0-1.0","23137317","wem/bandit_party_2","A2HC9549CZAKNN","either","2","551","","","","","","","1","0","0","0.8","","0.5","0.5","0.5","0.5","","","","","0.8","0.2","0.6","0.2","","","","","","","","","","72","H","0","img/none_selected.jpg","true","0","full_practice",""
"","bandit","53","263772","0.0-32.0-2.0","23137317","wem/bandit_party_2","A2HC9549CZAKNN","either","2","368","","","","","","","1","0","0","0.8","","0.5","0.5","0.5","0.5","","","","","0.8","0.2","0.6","0.2","","","","","","","","","","72","H","0","img/none_selected.jpg","true","0","full_practice",""
"","bandit","54","265613","0.0-32.0-3.0","23137317","wem/bandit_party_2","A2HC9549CZAKNN","either","2","336","","","","","","","0","0","1","0.8","","0.5","0.5","0.5","0.5","","","","","0.8","0.2","0.6","0.2","","","","","","","","","","72","H","0","img/none_selected.jpg","true","0","full_practice",""
"","bandit","55","267358","0.0-32.0-4.0","23137317","wem/bandit_party_2","A2HC9549CZAKNN","either","2","240","","","","","","","0","0","1","0.2","","0.5","0.5","0.5","0.5","","","","","0.8","0.2","0.6","0.2","","","","","","","","","","74","J","1","","true","0","full_practice",""
"","bandit","56","269709","0.0-32.0-5.0","23137317","wem/bandit_party_2","A2HC9549CZAKNN","either","2","846","","","","","","","0","0","1","0.2","","0.5","0.5","0.5","0.5","","","","","0.8","0.2","0.6","0.2","","","","","","","","","","74","J","1","","true","0","full_practice",""
"","bandit","57","272532","0.0-32.0-6.0","23137317","wem/bandit_party_2","A2HC9549CZAKNN","either","2","1319","","","","","","","1","0","0","0.6","","0.5","0.5","0.5","0.5","","","","","0.8","0.2","0.6","0.2","","","","","","","","","","75","K","2","","true","0","full_practice",""
"","bandit","58","274299","0.0-32.0-7.0","23137317","wem/bandit_party_2","A2HC9549CZAKNN","either","2","263","","","","","","","0","1","0","","0.6","0.5","0.5","0.5","0.5","0.8","0.2","0.6","0.2","","","","","","","","","","","","","","75","K","2","","true","0","full_practice",""
"","bandit","59","276220","0.0-32.0-8.0","23137317","wem/bandit_party_2","A2HC9549CZAKNN","either","2","414","","","","","","","0","0","1","","0.6","0.5","0.5","0.5","0.5","0.8","0.2","0.6","0.2","","","","","","","","","","","","","","75","K","2","","true","0","full_practice",""
"","bandit","60","278070","0.0-32.0-9.0","23137317","wem/bandit_party_2","A2HC9549CZAKNN","either","2","347","","","","","","","0","1","0","","0.6","0.5","0.5","0.5","0.5","0.8","0.2","0.6","0.2","","","","","","","","","","","","","","75","K","2","","true","0","full_practice",""
"","bandit","61","279924","0.0-32.0-10.0","23137317","wem/bandit_party_2","A2HC9549CZAKNN","either","2","349","","","","","","","1","0","0","0.2","","0.5","0.5","0.5","0.5","","","","","0.8","0.2","0.6","0.2","","","","","","","","","","76","L","3","","true","0","full_practice",""
"","bandit","62","281675","0.0-32.0-11.0","23137317","wem/bandit_party_2","A2HC9549CZAKNN","either","2","246","","","","","","","1","0","0","0.2","","0.5","0.5","0.5","0.5","","","","","0.8","0.2","0.6","0.2","","","","","","","","","","76","L","3","","true","0","full_practice",""
"","bandit","63","283508","0.0-32.0-12.0","23137317","wem/bandit_party_2","A2HC9549CZAKNN","either","2","328","","","","","","","0","0","1","0.2","","0.5","0.5","0.5","0.5","","","","","0.8","0.2","0.6","0.2","","","","","","","","","","76","L","3","","true","0","full_practice",""
"","bandit","64","285404","0.0-32.0-13.0","23137317","wem/bandit_party_2","A2HC9549CZAKNN","either","2","391","","","","","","","1","0","0","0.6","","0.5","0.5","0.5","0.5","","","","","0.8","0.2","0.6","0.2","","","","","","","","","","75","K","2","","true","0","full_practice",""
"","bandit","65","287123","0.0-32.0-14.0","23137317","wem/bandit_party_2","A2HC9549CZAKNN","either","2","215","","","","","","","0","1","0","","0.6","0.5","0.5","0.5","0.5","0.8","0.2","0.6","0.2","","","","","","","","","","","","","","75","K","2","","true","0","full_practice",""
"","bandit","66","288990","0.0-32.0-15.0","23137317","wem/bandit_party_2","A2HC9549CZAKNN","either","2","363","","","","","","","1","0","0","0.6","","0.5","0.5","0.5","0.5","","","","","0.8","0.2","0.6","0.2","","","","","","","","","","75","K","2","","true","0","full_practice",""
"","bandit","67","290811","0.0-32.0-16.0","23137317","wem/bandit_party_2","A2HC9549CZAKNN","either","2","317","","","","","","","1","0","0","0.6","","0.5","0.5","0.5","0.5","","","","","0.8","0.2","0.6","0.2","","","","","","","","","","75","K","2","","true","0","full_practice",""
"","bandit","68","292629","0.0-32.0-17.0","23137317","wem/bandit_party_2","A2HC9549CZAKNN","either","2","313","","","","","","","0","1","0","","0.6","0.5","0.5","0.5","0.5","0.8","0.2","0.6","0.2","","","","","","","","","","","","","","75","K","2","","true","0","full_practice",""
"","bandit","69","294364","0.0-32.0-18.0","23137317","wem/bandit_party_2","A2HC9549CZAKNN","either","2","229","","","","","","","0","1","0","","0.6","0.5","0.5","0.5","0.5","0.8","0.2","0.6","0.2","","","","","","","","","","","","","","75","K","2","","true","0","full_practice",""
"","bandit","70","296092","0.0-32.0-19.0","23137317","wem/bandit_party_2","A2HC9549CZAKNN","either","2","223","","","","","","","0","0","1","0.6","","0.5","0.5","0.5","0.5","","","","","0.8","0.2","0.6","0.2","","","","","","","","","","75","K","2","","true","0","full_practice",""
"","text","71","300808","0.0-33.0","23137317","wem/bandit_party_2","A2HC9549CZAKNN","either","2","4706","","","32","","","","","","","","","","","","","","","","","","","","","","","","","","","","","","","","","","","","",""
"","text-replacement","72","316312","0.0-34.0","23137317","wem/bandit_party_2","A2HC9549CZAKNN","either","2","14500","","","32","","","","","","","","","","","","","","","","","","","","","","","","","","","","","","","","","","","","",""
"","text-replacement","73","335139","0.0-35.0","23137317","wem/bandit_party_2","A2HC9549CZAKNN","either","2","18821","","","32","","","","","","","","","","","","","","","","","","","","","","","","","","","","","","","","","","","","",""
"","text-replacement","74","338893","0.0-36.0","23137317","wem/bandit_party_2","A2HC9549CZAKNN","either","2","3752","","","32","","","","","","","","","","","","","","","","","","","","","","","","","","","","","","","","","","","","",""
"","text-replacement","75","345144","0.0-37.0","23137317","wem/bandit_party_2","A2HC9549CZAKNN","either","2","6249","","","32","","","","","","","","","","","","","","","","","","","","","","","","","","","","","","","","","","","","",""
"","text-replacement","76","350118","0.0-38.0","23137317","wem/bandit_party_2","A2HC9549CZAKNN","either","2","4972","","","32","","","","","","","","","","","","","","","","","","","","","","","","","","","","","","","","","","","","",""
"","survey-multi-choice-replacement","77","358481","0.0-39.0-0.0","23137317","wem/bandit_party_2","A2HC9549CZAKNN","either","2","8357","","","","","","","","","","","","","","","","","","","","","","","","Money will be added to the pool for <span style='color:blue;'>DEMOCRATS</span>","","","","","","","attn_check","","","","","","","","","0"
"","survey-multi-choice-replacement","78","364053","0.0-40.0-0.0","23137317","wem/bandit_party_2","A2HC9549CZAKNN","either","2","4564","","","","","","","","","","","","","","","","","","","","","","","","Equal amounts of money will be added to the pool for <span style='color:blue;'>DEMOCRATS</span> and subtracted from the pool for <span style='color:red;'>REPUBLICANS</span>","","","","","","","attn_check","","","","","","","","","2"
"","survey-multi-choice-replacement","79","369908","0.0-41.0-0.0","23137317","wem/bandit_party_2","A2HC9549CZAKNN","either","2","4849","","","","","","","","","","","","","","","","","","","","","","","","No money will be added to either pool","","","","","","","attn_check","","","","","","","","","3"
"","bandit","80","374700","0.0-42.0-0.0","23137317","wem/bandit_party_2","A2HC9549CZAKNN","either","2","2284","","","","","","","1","0","0","0.7961415707","","0.8","0.4","0.2","0.6","","","","","0.7961415707","0.7092854079","0.9925337928","0.4841938304","","","","","","","","","","72","H","0","img/none_selected.jpg","","1","main_expt",""
"","bandit","81","376515","0.0-43.0-0.0","23137317","wem/bandit_party_2","A2HC9549CZAKNN","either","2","311","","","","","","","1","0","0","0.7739630809","","0.8","0.4","0.2","0.6","","","","","0.7739630809","0.7343230146","0.9909612399","0.5300888233","","","","","","","","","","72","H","0","img/none_selected.jpg","","2","main_expt",""
"","bandit","82","378531","0.0-44.0-0.0","23137317","wem/bandit_party_2","A2HC9549CZAKNN","either","2","512","","","","","","","0","0","1","0.807852523","","0.8","0.4","0.2","0.6","","","","","0.807852523","0.7616266478","0.9875934203","0.4747636274","","","","","","","","","","72","H","0","img/none_selected.jpg","","3","main_expt",""
"","bandit","83","380349","0.0-45.0-0.0","23137317","wem/bandit_party_2","A2HC9549CZAKNN","either","2","312","","","","","","","0","1","0","","0.7922386472","0.8","0.4","0.2","0.6","0.7922386472","0.7555889459","0.9782241123","0.4841015375","","","","","","","","","","","","","","72","H","0","img/none_selected.jpg","","4","main_expt",""
"","bandit","84","382349","0.0-46.0-0.0","23137317","wem/bandit_party_2","A2HC9549CZAKNN","either","2","493","","","","","","","1","0","0","0.865094385","","0.8","0.4","0.2","0.6","","","","","0.865094385","0.733520678","0.9756627961","0.5545204825","","","","","","","","","","72","H","0","img/none_selected.jpg","","5","main_expt",""
"","bandit","85","384539","0.0-47.0-0.0","23137317","wem/bandit_party_2","A2HC9549CZAKNN","either","2","685","","","","","","","0","0","1","0.800956518","","0.8","0.4","0.2","0.6","","","","","0.800956518","0.6705264102","0.967089612","0.6032406034","","","","","","","","","","72","H","0","img/none_selected.jpg","","6","main_expt",""
"","bandit","86","386747","0.0-48.0-0.0","23137317","wem/bandit_party_2","A2HC9549CZAKNN","either","2","703","","","","","","","1","0","0","0.826484282","","0.8","0.4","0.2","0.6","","","","","0.826484282","0.6395389268","0.9581374084","0.6629125932","","","","","","","","","","72","H","0","img/none_selected.jpg","","7","main_expt",""
"","bandit","87","388596","0.0-49.0-0.0","23137317","wem/bandit_party_2","A2HC9549CZAKNN","either","2","344","","","","","","","0","1","0","","0.8721258401","0.8","0.4","0.2","0.6","0.8721258401","0.6463283336","0.9470057872","0.6179372523","","","","","","","","","","","","","","72","H","0","img/none_selected.jpg","","8","main_expt",""
"","bandit","88","391014","0.0-50.0-0.0","23137317","wem/bandit_party_2","A2HC9549CZAKNN","either","2","914","","","","","","","1","0","0","0.9123847657","","0.8","0.4","0.2","0.6","","","","","0.9123847657","0.5257156782","0.9776699295","0.7126464358","","","","","","","","","","72","H","0","img/none_selected.jpg","","9","main_expt",""
"","bandit","89","393797","0.0-51.0-0.0","23137317","wem/bandit_party_2","A2HC9549CZAKNN","either","2","1273","","","","","","","0","1","0","","0.8996742502","0.8","0.4","0.2","0.6","0.8996742502","0.4763364632","0.9728878591","0.7356985298","","","","","","","","","","","","","","72","H","0","img/none_selected.jpg","","10","main_expt",""
"","bandit","90","396411","0.0-52.0-0.0","23137317","wem/bandit_party_2","A2HC9549CZAKNN","either","2","1110","","","","","","","1","0","0","0.9131723876","","0.8","0.4","0.2","0.6","","","","","0.9131723876","0.4284616273","0.9593139104","0.768711937","","","","","","","","","","72","H","0","img/none_selected.jpg","","11","main_expt",""
"","bandit","91","398603","0.0-53.0-0.0","23137317","wem/bandit_party_2","A2HC9549CZAKNN","either","2","687","","","","","","","1","0","0","0.8766857583","","0.8","0.4","0.2","0.6","","","","","0.8766857583","0.3846657661","0.9498917819","0.775032537","","","","","","","","","","72","H","0","img/none_selected.jpg","","12","main_expt",""
"","bandit","92","400627","0.0-54.0-0.0","23137317","wem/bandit_party_2","A2HC9549CZAKNN","either","2","519","","","","","","","1","0","0","0.8395211377","","0.8","0.4","0.2","0.6","","","","","0.8395211377","0.4534267517","0.9541602679","0.8005481332","","","","","","","","","","72","H","0","img/none_selected.jpg","","13","main_expt",""
"","bandit","93","402821","0.0-55.0-0.0","23137317","wem/bandit_party_2","A2HC9549CZAKNN","either","2","690","","","","","","","0","0","1","0.8716273459","","0.8","0.4","0.2","0.6","","","","","0.8716273459","0.5781166702","0.9457654821","0.8437703121","","","","","","","","","","72","H","0","img/none_selected.jpg","","14","main_expt",""
"","bandit","94","405859","0.0-56.0-0.0","23137317","wem/bandit_party_2","A2HC9549CZAKNN","either","2","1531","","","","","","","0","1","0","","0.8884181174","0.8","0.4","0.2","0.6","0.8884181174","0.6683268695","0.961431504","0.7878475566","","","","","","","","","","","","","","72","H","0","img/none_selected.jpg","","15","main_expt",""
"","bandit","95","407803","0.0-57.0-0.0","23137317","wem/bandit_party_2","A2HC9549CZAKNN","either","2","439","","","","","","","1","0","0","0.9144873871","","0.8","0.4","0.2","0.6","","","","","0.9144873871","0.6948649322","0.9614480804","0.7873795395","","","","","","","","","","72","H","0","img/none_selected.jpg","","16","main_expt",""
"","bandit","96","409756","0.0-58.0-0.0","23137317","wem/bandit_party_2","A2HC9549CZAKNN","either","2","447","","","","","","","1","0","0","0.915766025","","0.8","0.4","0.2","0.6","","","","","0.915766025","0.7674725463","0.981184269","0.8084550093","","","","","","","","","","72","H","0","img/none_selected.jpg","","17","main_expt",""
"","bandit","97","411892","0.0-59.0-0.0","23137317","wem/bandit_party_2","A2HC9549CZAKNN","either","2","630","","","","","","","1","0","0","0.9357816117","","0.8","0.4","0.2","0.6","","","","","0.9357816117","0.7706733977","0.9861919244","0.8436933745","","","","","","","","","","72","H","0","img/none_selected.jpg","","18","main_expt",""
"","bandit","98","413925","0.0-60.0-0.0","23137317","wem/bandit_party_2","A2HC9549CZAKNN","either","2","529","","","","","","","1","0","0","0.9482019282","","0.8","0.4","0.2","0.6","","","","","0.9482019282","0.7396491891","0.986789567","0.8059530903","","","","","","","","","","72","H","0","img/none_selected.jpg","","19","main_expt",""
"","bandit","99","416194","0.0-61.0-0.0","23137317","wem/bandit_party_2","A2HC9549CZAKNN","either","2","763","","","","","","","1","0","0","0.9433726768","","0.8","0.4","0.2","0.6","","","","","0.9433726768","0.6712916173","0.986183881","0.7839513496","","","","","","","","","","72","H","0","img/none_selected.jpg","","20","main_expt",""
"","bandit","100","420011","0.0-62.0-0.0","23137317","wem/bandit_party_2","A2HC9549CZAKNN","either","2","2312","","","","","","","1","0","0","0.9488284628","","0.8","0.4","0.2","0.6","","","","","0.9488284628","0.6728887443","0.9887099493","0.7841815244","","","","","","","","","","72","H","0","img/none_selected.jpg","","21","main_expt",""
"","bandit","101","422372","0.0-63.0-0.0","23137317","wem/bandit_party_2","A2HC9549CZAKNN","either","2","855","","","","","","","1","0","0","0.9500515088","","0.8","0.4","0.2","0.6","","","","","0.9500515088","0.7838502077","0.992558567","0.8256278583","","","","","","","","","","72","H","0","img/none_selected.jpg","","22","main_expt",""
"","bandit","102","424517","0.0-64.0-0.0","23137317","wem/bandit_party_2","A2HC9549CZAKNN","either","2","641","","","","","","","1","0","0","0.9645760881","","0.8","0.4","0.2","0.6","","","","","0.9645760881","0.8711917965","0.9906074595","0.7043778873","","","","","","","","","","72","H","0","img/none_selected.jpg","","23","main_expt",""
"","bandit","103","427051","0.0-65.0-0.0","23137317","wem/bandit_party_2","A2HC9549CZAKNN","either","2","1029","","","","","","","1","0","0","0.946785539","","0.8","0.4","0.2","0.6","","","","","0.946785539","0.861124964","0.9828703082","0.7662705475","","","","","","","","","","72","H","0","img/none_selected.jpg","","24","main_expt",""
"","bandit","104","428933","0.0-66.0-0.0","23137317","wem/bandit_party_2","A2HC9549CZAKNN","either","2","374","","","","","","","1","0","0","0.9229473608","","0.8","0.4","0.2","0.6","","","","","0.9229473608","0.8551403996","0.984618899","0.6915147264","","","","","","","","","","72","H","0","img/none_selected.jpg","","25","main_expt",""
"","bandit","105","430835","0.0-67.0-0.0","23137317","wem/bandit_party_2","A2HC9549CZAKNN","either","2","395","","","","","","","0","0","1","","0.8729820127","0.8","0.4","0.2","0.6","0.8729820127","0.8959771014","0.9780938917","0.6844606422","","","","","","","","","","","","","","72","H","0","img/none_selected.jpg","","26","main_expt",""
"","bandit","106","433195","0.0-68.0-0.0","23137317","wem/bandit_party_2","A2HC9549CZAKNN","either","2","852","","","","","","","1","0","0","0.859067388","","0.8","0.4","0.2","0.6","","","","","0.859067388","0.8786292531","0.9634866904","0.7953701942","","","","","","","","","","72","H","0","img/none_selected.jpg","","27","main_expt",""
"","bandit","107","435046","0.0-69.0-0.0","23137317","wem/bandit_party_2","A2HC9549CZAKNN","either","2","346","","","","","","","1","0","0","0.836267867","","0.8","0.4","0.2","0.6","","","","","0.836267867","0.8920593834","0.946494378","0.622657036","","","","","","","","","","72","H","0","img/none_selected.jpg","","28","main_expt",""
"","bandit","108","437294","0.0-70.0-0.0","23137317","wem/bandit_party_2","A2HC9549CZAKNN","either","2","737","","","","","","","1","0","0","0.7158546556","","0.8","0.4","0.2","0.6","","","","","0.7158546556","0.8234517222","0.9338647731","0.5757463716","","","","","","","","","","72","H","0","img/none_selected.jpg","","29","main_expt",""
"","bandit","109","439756","0.0-71.0-0.0","23137317","wem/bandit_party_2","A2HC9549CZAKNN","either","2","956","","","","","","","1","0","0","0.7262950886","","0.8","0.4","0.2","0.6","","","","","0.7262950886","0.7963444676","0.9354801528","0.6048158844","","","","","","","","","","72","H","0","img/none_selected.jpg","","30","main_expt",""
"","bandit","110","441700","0.0-72.0-0.0","23137317","wem/bandit_party_2","A2HC9549CZAKNN","either","2","436","","","","","","","0","0","1","0.7049485024","","0.8","0.4","0.2","0.6","","","","","0.7049485024","0.6847131082","0.9323861487","0.4831208743","","","","","","","","","","72","H","0","img/none_selected.jpg","","31","main_expt",""
"","bandit","111","443627","0.0-73.0-0.0","23137317","wem/bandit_party_2","A2HC9549CZAKNN","either","2","422","","","","","","","0","1","0","","0.6294605358","0.8","0.4","0.2","0.6","0.6294605358","0.7745616343","0.9159531952","0.4413454117","","","","","","","","","","","","","","72","H","0","img/none_selected.jpg","","32","main_expt",""
"","bandit","112","445542","0.0-74.0-0.0","23137317","wem/bandit_party_2","A2HC9549CZAKNN","either","2","408","","","","","","","1","0","0","0.7097184707","","0.8","0.4","0.2","0.6","","","","","0.7097184707","0.8111568365","0.9501333659","0.589686364","","","","","","","","","","72","H","0","img/none_selected.jpg","","33","main_expt",""
"","bandit","113","447669","0.0-75.0-0.0","23137317","wem/bandit_party_2","A2HC9549CZAKNN","either","2","620","","","","","","","0","0","1","0.6324728327","","0.8","0.4","0.2","0.6","","","","","0.6324728327","0.7291364049","0.9485118263","0.5789977489","","","","","","","","","","72","H","0","img/none_selected.jpg","","34","main_expt",""
"","bandit","114","449594","0.0-76.0-0.0","23137317","wem/bandit_party_2","A2HC9549CZAKNN","either","2","418","","","","","","","1","0","0","0.6809104991","","0.8","0.4","0.2","0.6","","","","","0.6809104991","0.7920219322","0.959491173","0.5605822786","","","","","","","","","","72","H","0","img/none_selected.jpg","","35","main_expt",""
"","bandit","115","451561","0.0-77.0-0.0","23137317","wem/bandit_party_2","A2HC9549CZAKNN","either","2","463","","","","","","","0","0","1","0.5745256001","","0.8","0.4","0.2","0.6","","","","","0.5745256001","0.7889809596","0.9523687656","0.3330948712","","","","","","","","","","72","H","0","img/none_selected.jpg","","36","main_expt",""
"","bandit","116","453378","0.0-78.0-0.0","23137317","wem/bandit_party_2","A2HC9549CZAKNN","either","2","309","","","","","","","0","1","0","","0.8060385269","0.8","0.4","0.2","0.6","0.6249275122","0.8060385269","0.9504344127","0.2430176499","","","","","","","","","","","","","","74","J","1","","","37","main_expt",""
"","bandit","117","455258","0.0-79.0-0.0","23137317","wem/bandit_party_2","A2HC9549CZAKNN","either","2","375","","","","","","","0","1","0","","0.7188782676","0.8","0.4","0.2","0.6","0.5582777804","0.7188782676","0.9321408283","0.3106083343","","","","","","","","","","","","","","74","J","1","","","38","main_expt",""
"","bandit","118","457901","0.0-80.0-0.0","23137317","wem/bandit_party_2","A2HC9549CZAKNN","either","2","1136","","","","","","","0","1","0","","0.7387945131","0.8","0.4","0.2","0.6","0.6619895395","0.7387945131","0.9135525369","0.3239447463","","","","","","","","","","","","","","74","J","1","","","39","main_expt",""
"","bandit","119","459699","0.0-81.0-0.0","23137317","wem/bandit_party_2","A2HC9549CZAKNN","either","2","291","","","","","","","0","0","1","0.7478035428","","0.8","0.4","0.2","0.6","","","","","0.6522152691","0.7478035428","0.8840916364","0.2946631509","","","","","","","","","","74","J","1","","","40","main_expt",""
"","bandit","120","461466","0.0-82.0-0.0","23137317","wem/bandit_party_2","A2HC9549CZAKNN","either","2","260","","","","","","","0","1","0","","0.7802386085","0.8","0.4","0.2","0.6","0.6714070371","0.7802386085","0.8747037504","0.193597671","","","","","","","","","","","","","","74","J","1","","","41","main_expt",""
"","bandit","121","463402","0.0-83.0-0.0","23137317","wem/bandit_party_2","A2HC9549CZAKNN","either","2","432","","","","","","","0","1","0","","0.7994277013","0.8","0.4","0.2","0.6","0.6390104416","0.7994277013","0.826315498","0.1834529884","","","","","","","","","","","","","","74","J","1","","","42","main_expt",""
"","bandit","122","465410","0.0-84.0-0.0","23137317","wem/bandit_party_2","A2HC9549CZAKNN","either","2","501","","","","","","","1","0","0","0.8718069658","","0.8","0.4","0.2","0.6","","","","","0.6318841448","0.8718069658","0.7681371561","0.1558663495","","","","","","","","","","74","J","1","","","43","main_expt",""
"","bandit","123","467451","0.0-85.0-0.0","23137317","wem/bandit_party_2","A2HC9549CZAKNN","either","2","535","","","","","","","1","0","0","0.7725207311","","0.8","0.4","0.2","0.6","","","","","0.5708139437","0.7725207311","0.7584360225","0.1573065196","","","","","","","","","","74","J","1","","","44","main_expt",""
"","bandit","124","469759","0.0-86.0-0.0","23137317","wem/bandit_party_2","A2HC9549CZAKNN","either","2","799","","","","","","","1","0","0","0.8399140445","","0.8","0.4","0.2","0.6","","","","","0.5703812278","0.8399140445","0.816959585","0.1743203636","","","","","","","","","","74","J","1","","","45","main_expt",""
"","bandit","125","471539","0.0-87.0-0.0","23137317","wem/bandit_party_2","A2HC9549CZAKNN","either","2","275","","","","","","","1","0","0","0.7830678696","","0.8","0.4","0.2","0.6","","","","","0.4520700595","0.7830678696","0.7571269921","0.1234040722","","","","","","","","","","74","J","1","","","46","main_expt",""
"","bandit","126","473315","0.0-88.0-0.0","23137317","wem/bandit_party_2","A2HC9549CZAKNN","either","2","269","","","","","","","1","0","0","0.8255209912","","0.8","0.4","0.2","0.6","","","","","0.4953600952","0.8255209912","0.7086567283","0.1592846429","","","","","","","","","","74","J","1","","","47","main_expt",""
"","bandit","127","475129","0.0-89.0-0.0","23137317","wem/bandit_party_2","A2HC9549CZAKNN","either","2","309","","","","","","","1","0","0","0.7728754614","","0.8","0.4","0.2","0.6","","","","","0.4912921637","0.7728754614","0.6428227569","0.1880090658","","","","","","","","","","74","J","1","","","48","main_expt",""
"","bandit","128","477602","0.0-90.0-0.0","23137317","wem/bandit_party_2","A2HC9549CZAKNN","either","2","965","","","","","","","1","0","0","0.8607162984","","0.8","0.4","0.2","0.6","","","","","0.4694413912","0.8607162984","0.7004196772","0.3190576765","","","","","","","","","","74","J","1","","","49","main_expt",""
"","bandit","129","479464","0.0-91.0-0.0","23137317","wem/bandit_party_2","A2HC9549CZAKNN","either","2","342","","","","","","","0","1","0","","0.8526113732","0.8","0.4","0.2","0.6","0.5835687148","0.8526113732","0.6418514465","0.277770718","","","","","","","","","","","","","","74","J","1","","","50","main_expt",""
"","bandit","130","481333","0.0-92.0-0.0","23137317","wem/bandit_party_2","A2HC9549CZAKNN","either","2","363","","","","","","","0","1","0","","0.8630835666","0.8","0.4","0.2","0.6","0.581499138","0.8630835666","0.6322169777","0.3304163056","","","","","","","","","","","","","","74","J","1","","","51","main_expt",""
"","bandit","131","483139","0.0-93.0-0.0","23137317","wem/bandit_party_2","A2HC9549CZAKNN","either","2","300","","","","","","","1","0","0","0.8689990829","","0.8","0.4","0.2","0.6","","","","","0.6521379128","0.8689990829","0.6160259873","0.3074301744","","","","","","","","","","74","J","1","","","52","main_expt",""
"","bandit","132","485002","0.0-94.0-0.0","23137317","wem/bandit_party_2","A2HC9549CZAKNN","either","2","356","","","","","","","1","0","0","0.8829627288","","0.8","0.4","0.2","0.6","","","","","0.5743957808","0.8829627288","0.6635838846","0.3292402402","","","","","","","","","","74","J","1","","","53","main_expt",""
"","bandit","133","486739","0.0-95.0-0.0","23137317","wem/bandit_party_2","A2HC9549CZAKNN","either","2","232","","","","","","","0","0","1","","0.8577096669","0.8","0.4","0.2","0.6","0.4765250731","0.8577096669","0.7334380463","0.3701383524","","","","","","","","","","","","","","74","J","1","","","54","main_expt",""
"","bandit","134","488658","0.0-96.0-0.0","23137317","wem/bandit_party_2","A2HC9549CZAKNN","either","2","413","","","","","","","0","1","0","","0.7951355038","0.8","0.4","0.2","0.6","0.472038817","0.7951355038","0.6625049704","0.4023440482","","","","","","","","","","","","","","74","J","1","","","55","main_expt",""
"","bandit","135","490426","0.0-97.0-0.0","23137317","wem/bandit_party_2","A2HC9549CZAKNN","either","2","262","","","","","","","1","0","0","0.7832403428","","0.8","0.4","0.2","0.6","","","","","0.6060805283","0.7832403428","0.6244126183","0.3320470731","","","","","","","","","","74","J","1","","","56","main_expt",""
"","bandit","136","492245","0.0-98.0-0.0","23137317","wem/bandit_party_2","A2HC9549CZAKNN","either","2","312","","","","","","","0","1","0","","0.7165346004","0.8","0.4","0.2","0.6","0.5733746242","0.7165346004","0.693445159","0.3398704556","","","","","","","","","","","","","","74","J","1","","","57","main_expt",""
"","bandit","137","494147","0.0-99.0-0.0","23137317","wem/bandit_party_2","A2HC9549CZAKNN","either","2","396","","","","","","","0","0","1","0.7840704931","","0.8","0.4","0.2","0.6","","","","","0.5268086549","0.7840704931","0.6603141298","0.3171476707","","","","","","","","","","74","J","1","","","58","main_expt",""
"","bandit","138","495987","0.0-100.0-0.0","23137317","wem/bandit_party_2","A2HC9549CZAKNN","either","2","333","","","","","","","1","0","0","0.7166558068","","0.8","0.4","0.2","0.6","","","","","0.5298916697","0.7166558068","0.6435133917","0.1868584885","","","","","","","","","","74","J","1","","","59","main_expt",""
"","bandit","139","499299","0.0-101.0-0.0","23137317","wem/bandit_party_2","A2HC9549CZAKNN","either","2","1804","","","","","","","0","1","0","","0.6505055492","0.8","0.4","0.2","0.6","0.5547432704","0.6505055492","0.6720075741","0.2163153633","","","","","","","","","","","","","","74","J","1","","","60","main_expt",""
"","bandit","140","501204","0.0-102.0-0.0","23137317","wem/bandit_party_2","A2HC9549CZAKNN","either","2","398","","","","","","","0","1","0","","0.6465946667","0.8","0.4","0.2","0.6","0.5407031957","0.6465946667","0.6703611074","0.2086512551","","","","","","","","","","","","","","74","J","1","","","61","main_expt",""
"","bandit","141","503068","0.0-103.0-0.0","23137317","wem/bandit_party_2","A2HC9549CZAKNN","either","2","354","","","","","","","0","1","0","","0.709990362","0.8","0.4","0.2","0.6","0.6993449034","0.709990362","0.64477312","0.2250062338","","","","","","","","","","","","","","74","J","1","","","62","main_expt",""
"","bandit","142","505027","0.0-104.0-0.0","23137317","wem/bandit_party_2","A2HC9549CZAKNN","either","2","451","","","","","","","0","1","0","","0.7542168012","0.8","0.4","0.2","0.6","0.6342967703","0.7542168012","0.509049177","0.2739380208","","","","","","","","","","","","","","74","J","1","","","63","main_expt",""
"","bandit","143","506907","0.0-105.0-0.0","23137317","wem/bandit_party_2","A2HC9549CZAKNN","either","2","374","","","","","","","0","0","1","","0.7660604158","0.8","0.4","0.2","0.6","0.5961490325","0.7660604158","0.5535424332","0.3449536465","","","","","","","","","","","","","","74","J","1","","","64","main_expt",""
"","bandit","144","508723","0.0-106.0-0.0","23137317","wem/bandit_party_2","A2HC9549CZAKNN","either","2","309","","","","","","","0","1","0","","0.7572602099","0.8","0.4","0.2","0.6","0.5771190674","0.7572602099","0.6608621899","0.34640195","","","","","","","","","","","","","","74","J","1","","","65","main_expt",""
"","bandit","145","510581","0.0-107.0-0.0","23137317","wem/bandit_party_2","A2HC9549CZAKNN","either","2","350","","","","","","","0","1","0","","0.686926195","0.8","0.4","0.2","0.6","0.4765921407","0.686926195","0.6535341977","0.5266288285","","","","","","","","","","","","","","74","J","1","","","66","main_expt",""
"","bandit","146","512429","0.0-108.0-0.0","23137317","wem/bandit_party_2","A2HC9549CZAKNN","either","2","337","","","","","","","0","0","1","","0.7334195653","0.8","0.4","0.2","0.6","0.5714361875","0.7334195653","0.6592628399","0.5588671697","","","","","","","","","","","","","","74","J","1","","","67","main_expt",""
"","bandit","147","514230","0.0-109.0-0.0","23137317","wem/bandit_party_2","A2HC9549CZAKNN","either","2","294","","","","","","","0","1","0","","0.6114245881","0.8","0.4","0.2","0.6","0.6231829193","0.6114245881","0.6735013879","0.6097536784","","","","","","","","","","","","","","74","J","1","","","68","main_expt",""
"","bandit","148","516034","0.0-110.0-0.0","23137317","wem/bandit_party_2","A2HC9549CZAKNN","either","2","300","","","","","","","0","0","1","0.6460921668","","0.8","0.4","0.2","0.6","","","","","0.5130256365","0.6460921668","0.7209687993","0.533457584","","","","","","","","","","74","J","1","","","69","main_expt",""
"","bandit","149","518020","0.0-111.0-0.0","23137317","wem/bandit_party_2","A2HC9549CZAKNN","either","2","478","","","","","","","0","1","0","","0.690528825","0.8","0.4","0.2","0.6","0.5167166","0.6700702736","0.690528825","0.4124750721","","","","","","","","","","","","","","75","K","2","","","70","main_expt",""
"","bandit","150","520140","0.0-112.0-0.0","23137317","wem/bandit_party_2","A2HC9549CZAKNN","either","2","614","","","","","","","1","0","0","0.6453310316","","0.8","0.4","0.2","0.6","","","","","0.6448170737","0.6388012411","0.6453310316","0.4486526525","","","","","","","","","","75","K","2","","","71","main_expt",""
"","bandit","151","527430","0.0-113.0-0.0","23137317","wem/bandit_party_2","A2HC9549CZAKNN","either","2","5783","","","","","","","0","0","1","","0.8140348339","0.8","0.4","0.2","0.6","0.5640434706","0.6046900378","0.8140348339","0.4313602212","","","","","","","","","","","","","","75","K","2","","","72","main_expt",""
"","bandit","152","529812","0.0-114.0-0.0","23137317","wem/bandit_party_2","A2HC9549CZAKNN","either","2","873","","","","","","","1","0","0","0.820931829","","0.8","0.4","0.2","0.6","","","","","0.6296110197","0.6062428704","0.820931829","0.3639072561","","","","","","","","","","75","K","2","","","73","main_expt",""
"","bandit","153","533491","0.0-115.0-0.0","23137317","wem/bandit_party_2","A2HC9549CZAKNN","either","2","2174","","","","","","","0","1","0","","0.8096233945","0.8","0.4","0.2","0.6","0.6730210969","0.6237194739","0.8096233945","0.2882181569","","","","","","","","","","","","","","75","K","2","","","74","main_expt",""
"","bandit","154","535236","0.0-116.0-0.0","23137317","wem/bandit_party_2","A2HC9549CZAKNN","either","2","236","","","","","","","0","0","1","","0.7615001707","0.8","0.4","0.2","0.6","0.5720403827","0.5971007372","0.7615001707","0.3561187133","","","","","","","","","","","","","","75","K","2","","","75","main_expt",""
"","bandit","155","537259","0.0-117.0-0.0","23137317","wem/bandit_party_2","A2HC9549CZAKNN","either","2","517","","","","","","","1","0","0","0.8147365981","","0.8","0.4","0.2","0.6","","","","","0.6303512149","0.5810032438","0.8147365981","0.4480894403","","","","","","","","","","75","K","2","","","76","main_expt",""
"","bandit","156","539061","0.0-118.0-0.0","23137317","wem/bandit_party_2","A2HC9549CZAKNN","either","2","294","","","","","","","0","1","0","","0.8926338818","0.8","0.4","0.2","0.6","0.5531797874","0.5792233978","0.8926338818","0.3220850356","","","","","","","","","","","","","","75","K","2","","","77","main_expt",""
"","bandit","157","540955","0.0-119.0-0.0","23137317","wem/bandit_party_2","A2HC9549CZAKNN","either","2","387","","","","","","","0","1","0","","0.8669072201","0.8","0.4","0.2","0.6","0.5449672882","0.692511921","0.8669072201","0.3281133775","","","","","","","","","","","","","","75","K","2","","","78","main_expt",""
"","bandit","158","542514","0.0-120.0-0.0","23137317","wem/bandit_party_2","A2HC9549CZAKNN","either","2","54","","","","","","","1","0","0","0.9114006046","","0.8","0.4","0.2","0.6","","","","","0.4484013318","0.7019625083","0.9114006046","0.3814329202","","","","","","","","","","75","K","2","","","79","main_expt",""
"","bandit","159","544023","0.0-121.0-0.0","23137317","wem/bandit_party_2","A2HC9549CZAKNN","either","2","1","","","","","","","1","0","0","0.9268398106","","0.8","0.4","0.2","0.6","","","","","0.5041425745","0.6785675641","0.9268398106","0.3512572076","","","","","","","","","","75","K","2","","","80","main_expt",""
"","bandit","160","545762","0.0-122.0-0.0","23137317","wem/bandit_party_2","A2HC9549CZAKNN","either","2","233","","","","","","","0","1","0","","0.9582858862","0.8","0.4","0.2","0.6","0.3462078978","0.7101061672","0.9582858862","0.3624285329","","","","","","","","","","","","","","75","K","2","","","81","main_expt",""
"","bandit","161","547612","0.0-123.0-0.0","23137317","wem/bandit_party_2","A2HC9549CZAKNN","either","2","343","","","","","","","1","0","0","0.9590071975","","0.8","0.4","0.2","0.6","","","","","0.3226795418","0.7217376576","0.9590071975","0.3111883408","","","","","","","","","","75","K","2","","","82","main_expt",""
"","bandit","162","549448","0.0-124.0-0.0","23137317","wem/bandit_party_2","A2HC9549CZAKNN","either","2","316","","","","","","","0","1","0","","0.9379973093","0.8","0.4","0.2","0.6","0.3023868023","0.6437777395","0.9379973093","0.243162563","","","","","","","","","","","","","","75","K","2","","","83","main_expt",""
"","bandit","163","551283","0.0-125.0-0.0","23137317","wem/bandit_party_2","A2HC9549CZAKNN","either","2","324","","","","","","","0","1","0","","0.9411979228","0.8","0.4","0.2","0.6","0.4040419094","0.6533183273","0.9411979228","0.347146949","","","","","","","","","","","","","","75","K","2","","","84","main_expt",""
"","bandit","164","553515","0.0-126.0-0.0","23137317","wem/bandit_party_2","A2HC9549CZAKNN","either","2","727","","","","","","","0","1","0","","0.9441700551","0.8","0.4","0.2","0.6","0.4716136817","0.7469548387","0.9441700551","0.4416309426","","","","","","","","","","","","","","75","K","2","","","85","main_expt",""
"","bandit","165","555322","0.0-127.0-0.0","23137317","wem/bandit_party_2","A2HC9549CZAKNN","either","2","302","","","","","","","1","0","0","0.9323605113","","0.8","0.4","0.2","0.6","","","","","0.4455883603","0.7366570046","0.9323605113","0.4523797492","","","","","","","","","","75","K","2","","","86","main_expt",""
"","bandit","166","557563","0.0-128.0-0.0","23137317","wem/bandit_party_2","A2HC9549CZAKNN","either","2","734","","","","","","","0","1","0","","0.8871332711","0.8","0.4","0.2","0.6","0.5952575165","0.7142428019","0.8871332711","0.4621103264","","","","","","","","","","","","","","75","K","2","","","87","main_expt",""
"","bandit","167","559967","0.0-129.0-0.0","23137317","wem/bandit_party_2","A2HC9549CZAKNN","either","2","895","","","","","","","1","0","0","0.8520973281","","0.8","0.4","0.2","0.6","","","","","0.5333825583","0.7057172343","0.8520973281","0.3800084876","","","","","","","","","","75","K","2","","","88","main_expt",""
"","bandit","168","561771","0.0-130.0-0.0","23137317","wem/bandit_party_2","A2HC9549CZAKNN","either","2","296","","","","","","","0","1","0","","0.7882210871","0.8","0.4","0.2","0.6","0.4583166828","0.7289934888","0.7882210871","0.2354372355","","","","","","","","","","","","","","75","K","2","","","89","main_expt",""
"","bandit","169","563546","0.0-131.0-0.0","23137317","wem/bandit_party_2","A2HC9549CZAKNN","either","2","270","","","","","","","0","1","0","","0.720110267","0.8","0.4","0.2","0.6","0.4782349553","0.7475354559","0.720110267","0.2978482647","","","","","","","","","","","","","","75","K","2","","","90","main_expt",""
"","bandit","170","565490","0.0-132.0-0.0","23137317","wem/bandit_party_2","A2HC9549CZAKNN","either","2","435","","","","","","","0","1","0","","0.7390342074","0.8","0.4","0.2","0.6","0.464138054","0.6316706059","0.7390342074","0.3723871884","","","","","","","","","","","","","","75","K","2","","","91","main_expt",""
"","bandit","171","567243","0.0-133.0-0.0","23137317","wem/bandit_party_2","A2HC9549CZAKNN","either","2","248","","","","","","","0","0","1","","0.8135224625","0.8","0.4","0.2","0.6","0.5084128334","0.6957908828","0.8135224625","0.5400298203","","","","","","","","","","","","","","75","K","2","","","92","main_expt",""
"","bandit","172","569754","0.0-134.0-0.0","23137317","wem/bandit_party_2","A2HC9549CZAKNN","either","2","1005","","","","","","","0","1","0","","0.7814404678","0.8","0.4","0.2","0.6","0.5211356389","0.6812665662","0.7814404678","0.5134744583","","","","","","","","","","","","","","75","K","2","","","93","main_expt",""
"","bandit","173","571473","0.0-135.0-0.0","23137317","wem/bandit_party_2","A2HC9549CZAKNN","either","2","210","","","","","","","0","1","0","","0.7672416568","0.8","0.4","0.2","0.6","0.4554037602","0.6412933588","0.7672416568","0.4101580275","","","","","","","","","","","","","","75","K","2","","","94","main_expt",""
"","bandit","174","574795","0.0-136.0-0.0","23137317","wem/bandit_party_2","A2HC9549CZAKNN","either","2","1813","","","","","","","0","1","0","","0.7573973965","0.8","0.4","0.2","0.6","0.4195046205","0.5696630174","0.7573973965","0.2995167601","","","","","","","","","","","","","","75","K","2","","","95","main_expt",""
"","bandit","175","576580","0.0-137.0-0.0","23137317","wem/bandit_party_2","A2HC9549CZAKNN","either","2","276","","","","","","","0","0","1","","0.8177369732","0.8","0.4","0.2","0.6","0.3638478563","0.6076398096","0.8177369732","0.2934894425","","","","","","","","","","","","","","75","K","2","","","96","main_expt",""
"","bandit","176","578355","0.0-138.0-0.0","23137317","wem/bandit_party_2","A2HC9549CZAKNN","either","2","265","","","","","","","0","1","0","","0.8124666872","0.8","0.4","0.2","0.6","0.2839735208","0.5551612935","0.8124666872","0.2802715202","","","","","","","","","","","","","","75","K","2","","","97","main_expt",""
"","bandit","177","580070","0.0-139.0-0.0","23137317","wem/bandit_party_2","A2HC9549CZAKNN","either","2","204","","","","","","","0","1","0","","0.881496875","0.8","0.4","0.2","0.6","0.2109275999","0.6354974245","0.881496875","0.2703087955","","","","","","","","","","","","","","75","K","2","","","98","main_expt",""
"","bandit","178","581837","0.0-140.0-0.0","23137317","wem/bandit_party_2","A2HC9549CZAKNN","either","2","262","","","","","","","0","1","0","","0.8785981907","0.8","0.4","0.2","0.6","0.1531506719","0.5945745664","0.8785981907","0.3027543159","","","","","","","","","","","","","","75","K","2","","","99","main_expt",""
"","bandit","179","583535","0.0-141.0-0.0","23137317","wem/bandit_party_2","A2HC9549CZAKNN","either","2","187","","","","","","","1","0","0","0.8494581726","","0.8","0.4","0.2","0.6","","","","","0.1262108991","0.5679097985","0.8494581726","0.3645318829","","","","","","","","","","75","K","2","","","100","main_expt",""
"","bandit","180","585306","0.0-142.0-0.0","23137317","wem/bandit_party_2","A2HC9549CZAKNN","either","2","266","","","","","","","1","0","0","0.7754784616","","0.8","0.4","0.2","0.6","","","","","0.1340220502","0.6430580454","0.7754784616","0.4315832637","","","","","","","","","","75","K","2","","","101","main_expt",""
"","bandit","181","587043","0.0-143.0-0.0","23137317","wem/bandit_party_2","A2HC9549CZAKNN","either","2","229","","","","","","","1","0","0","0.7626736499","","0.8","0.4","0.2","0.6","","","","","0.2167126086","0.6340200926","0.7626736499","0.3608531129","","","","","","","","","","75","K","2","","","102","main_expt",""
"","bandit","182","588762","0.0-144.0-0.0","23137317","wem/bandit_party_2","A2HC9549CZAKNN","either","2","213","","","","","","","0","1","0","","0.7329996306","0.8","0.4","0.2","0.6","0.2796352144","0.6377668076","0.7329996306","0.3688981903","","","","","","","","","","","","","","75","K","2","","","103","main_expt",""
"","bandit","183","590506","0.0-145.0-0.0","23137317","wem/bandit_party_2","A2HC9549CZAKNN","either","2","239","","","","","","","0","1","0","","0.7467689404","0.8","0.4","0.2","0.6","0.3556406549","0.6578341575","0.7467689404","0.3758155051","","","","","","","","","","","","","","75","K","2","","","104","main_expt",""
"","bandit","184","592094","0.0-146.0-0.0","23137317","wem/bandit_party_2","A2HC9549CZAKNN","either","2","82","","","","","","","0","1","0","","0.737018723","0.8","0.4","0.2","0.6","0.3233911601","0.6727034752","0.737018723","0.4508947075","","","","","","","","","","","","","","75","K","2","","","105","main_expt",""
"","bandit","185","594298","0.0-147.0-0.0","23137317","wem/bandit_party_2","A2HC9549CZAKNN","either","2","699","","","","","","","0","1","0","","0.655194185","0.8","0.4","0.2","0.6","0.2024631506","0.6386482702","0.655194185","0.4132181144","","","","","","","","","","","","","","75","K","2","","","106","main_expt",""
"","bandit","186","596571","0.0-148.0-0.0","23137317","wem/bandit_party_2","A2HC9549CZAKNN","either","2","768","","","","","","","0","1","0","","0.7122819559","0.8","0.4","0.2","0.6","0.2290393164","0.6788938686","0.7122819559","0.4393512677","","","","","","","","","","","","","","75","K","2","","","107","main_expt",""
"","bandit","187","598380","0.0-149.0-0.0","23137317","wem/bandit_party_2","A2HC9549CZAKNN","either","2","302","","","","","","","0","1","0","","0.7326995505","0.8","0.4","0.2","0.6","0.2217712157","0.7076498576","0.7326995505","0.4964319729","","","","","","","","","","","","","","75","K","2","","","108","main_expt",""
"","bandit","188","600202","0.0-150.0-0.0","23137317","wem/bandit_party_2","A2HC9549CZAKNN","either","2","317","","","","","","","0","1","0","","0.7165499475","0.8","0.4","0.2","0.6","0.1566860935","0.6932550908","0.7165499475","0.4790921069","","","","","","","","","","","","","","75","K","2","","","109","main_expt",""
"","bandit","189","601747","0.0-151.0-0.0","23137317","wem/bandit_party_2","A2HC9549CZAKNN","either","2","38","","","","","","","0","0","1","","0.6058017554","0.8","0.4","0.2","0.6","0.1083987113","0.7436061547","0.6058017554","0.5856434505","","","","","","","","","","","","","","75","K","2","","","110","main_expt",""
"","bandit","190","603646","0.0-152.0-0.0","23137317","wem/bandit_party_2","A2HC9549CZAKNN","either","2","393","","","","","","","0","1","0","","0.5476823758","0.8","0.4","0.2","0.6","0.217828795","0.657194241","0.5476823758","0.6444230696","","","","","","","","","","","","","","75","K","2","","","111","main_expt",""
"","bandit","191","605516","0.0-153.0-0.0","23137317","wem/bandit_party_2","A2HC9549CZAKNN","either","2","361","","","","","","","0","1","0","","0.5688313193","0.8","0.4","0.2","0.6","0.2212119155","0.6317228327","0.5688313193","0.603417252","","","","","","","","","","","","","","75","K","2","","","112","main_expt",""
"","bandit","192","607291","0.0-154.0-0.0","23137317","wem/bandit_party_2","A2HC9549CZAKNN","either","2","269","","","","","","","0","1","0","","0.50852785","0.8","0.4","0.2","0.6","0.2374112476","0.4985892417","0.50852785","0.420613871","","","","","","","","","","","","","","75","K","2","","","113","main_expt",""
"","bandit","193","609035","0.0-155.0-0.0","23137317","wem/bandit_party_2","A2HC9549CZAKNN","either","2","236","","","","","","","0","0","1","","0.5711084253","0.8","0.4","0.2","0.6","0.2703699348","0.579071345","0.5711084253","0.2851569533","","","","","","","","","","","","","","75","K","2","","","114","main_expt",""
"","bandit","194","610844","0.0-156.0-0.0","23137317","wem/bandit_party_2","A2HC9549CZAKNN","either","2","301","","","","","","","0","0","1","","0.4177754351","0.8","0.4","0.2","0.6","0.1928485376","0.4595939904","0.4177754351","0.3166589884","","","","","","","","","","","","","","75","K","2","","","115","main_expt",""
"","bandit","195","612587","0.0-157.0-0.0","23137317","wem/bandit_party_2","A2HC9549CZAKNN","either","2","235","","","","","","","0","0","1","0.3928451607","","0.8","0.4","0.2","0.6","","","","","0.136356343","0.3744567546","0.387840809","0.3928451607","","","","","","","","","","76","L","3","","","116","main_expt",""
"","bandit","196","614397","0.0-158.0-0.0","23137317","wem/bandit_party_2","A2HC9549CZAKNN","either","2","304","","","","","","","0","0","1","0.560845346","","0.8","0.4","0.2","0.6","","","","","0.2193113504","0.302145019","0.4456731606","0.560845346","","","","","","","","","","76","L","3","","","117","main_expt",""
"","bandit","197","617050","0.0-159.0-0.0","23137317","wem/bandit_party_2","A2HC9549CZAKNN","either","2","1145","","","","","","","0","0","1","0.2686792008","","0.8","0.4","0.2","0.6","","","","","0.2686792008","0.3522466686","0.3045880574","0.5536818424","","","","","","","","","","72","H","0","img/none_selected.jpg","","118","main_expt",""
"","bandit","198","618900","0.0-160.0-0.0","23137317","wem/bandit_party_2","A2HC9549CZAKNN","either","2","344","","","","","","","0","0","1","","0.2668270476","0.8","0.4","0.2","0.6","0.2668270476","0.4425542362","0.3994134075","0.3617659687","","","","","","","","","","","","","","72","H","0","img/none_selected.jpg","","119","main_expt",""
"","bandit","199","620844","0.0-161.0-0.0","23137317","wem/bandit_party_2","A2HC9549CZAKNN","either","2","434","","","","","","","0","1","0","","0.3377532805","0.8","0.4","0.2","0.6","0.3723992114","0.3377532805","0.351449483","0.3454740543","","","","","","","","","","","","","","74","J","1","","","120","main_expt",""
"","bandit","200","622604","0.0-162.0-0.0","23137317","wem/bandit_party_2","A2HC9549CZAKNN","either","2","253","","","","","","","0","0","1","0.2929504356","","0.8","0.4","0.2","0.6","","","","","0.4001238515","0.2929504356","0.3641911367","0.2798257893","","","","","","","","","","74","J","1","","","121","main_expt",""
"","bandit","201","624429","0.0-163.0-0.0","23137317","wem/bandit_party_2","A2HC9549CZAKNN","either","2","317","","","","","","","0","0","1","","0.2504028886","0.8","0.4","0.2","0.6","0.4090120715","0.2504028886","0.2673706252","0.2261540995","","","","","","","","","","","","","","74","J","1","","","122","main_expt",""
"","bandit","202","627555","0.0-164.0-0.0","23137317","wem/bandit_party_2","A2HC9549CZAKNN","either","2","1620","","","","","","","1","0","0","0.2766663047","","0.8","0.4","0.2","0.6","","","","","0.4746108064","0.2414849785","0.3455372181","0.2766663047","","","","","","","","","","76","L","3","","","123","main_expt",""
"","bandit","203","629298","0.0-165.0-0.0","23137317","wem/bandit_party_2","A2HC9549CZAKNN","either","2","234","","","","","","","0","0","1","","0.3126864395","0.8","0.4","0.2","0.6","0.453231646","0.1791255979","0.3524137631","0.3126864395","","","","","","","","","","","","","","76","L","3","","","124","main_expt",""
"","bandit","204","631050","0.0-166.0-0.0","23137317","wem/bandit_party_2","A2HC9549CZAKNN","either","2","247","","","","","","","0","0","1","","0.2772507379","0.8","0.4","0.2","0.6","0.4888945922","0.1952456852","0.3680881866","0.2772507379","","","","","","","","","","","","","","76","L","3","","","125","main_expt",""
"","bandit","205","633787","0.0-167.0-0.0","23137317","wem/bandit_party_2","A2HC9549CZAKNN","either","2","1230","","","","","","","0","0","1","0.396932523","","0.8","0.4","0.2","0.6","","","","","0.396932523","0.2614303707","0.2884444508","0.2441417391","","","","","","","","","","72","H","0","img/none_selected.jpg","","126","main_expt",""
"","bandit","206","635516","0.0-168.0-0.0","23137317","wem/bandit_party_2","A2HC9549CZAKNN","either","2","224","","","","","","","1","0","0","0.4026562496","","0.8","0.4","0.2","0.6","","","","","0.4026562496","0.267511235","0.2931854252","0.2304038214","","","","","","","","","","72","H","0","img/none_selected.jpg","","127","main_expt",""
"","bandit","207","637427","0.0-169.0-0.0","23137317","wem/bandit_party_2","A2HC9549CZAKNN","either","2","404","","","","","","","0","0","1","0.3072143153","","0.8","0.4","0.2","0.6","","","","","0.3072143153","0.2582460394","0.3115494401","0.2463692943","","","","","","","","","","72","H","0","img/none_selected.jpg","","128","main_expt",""
"","bandit","208","639195","0.0-170.0-0.0","23137317","wem/bandit_party_2","A2HC9549CZAKNN","either","2","262","","","","","","","1","0","0","0.3024431642","","0.8","0.4","0.2","0.6","","","","","0.3024431642","0.249100023","0.287093163","0.262841392","","","","","","","","","","72","H","0","img/none_selected.jpg","","129","main_expt",""
"","bandit","209","641162","0.0-171.0-0.0","23137317","wem/bandit_party_2","A2HC9549CZAKNN","either","2","460","","","","","","","0","0","1","0.383823705","","0.8","0.4","0.2","0.6","","","","","0.383823705","0.2014680341","0.242368994","0.3044503748","","","","","","","","","","72","H","0","img/none_selected.jpg","","130","main_expt",""
"","bandit","210","642947","0.0-172.0-0.0","23137317","wem/bandit_party_2","A2HC9549CZAKNN","either","2","280","","","","","","","0","1","0","","0.5448185218","0.8","0.4","0.2","0.6","0.5448185218","0.2514612397","0.3141093292","0.2231782293","","","","","","","","","","","","","","72","H","0","img/none_selected.jpg","","131","main_expt",""
"","bandit","211","644706","0.0-173.0-0.0","23137317","wem/bandit_party_2","A2HC9549CZAKNN","either","2","254","","","","","","","0","0","1","","0.5741986762","0.8","0.4","0.2","0.6","0.5741986762","0.1719215191","0.3186943837","0.265126842","","","","","","","","","","","","","","72","H","0","img/none_selected.jpg","","132","main_expt",""
"","bandit","212","646556","0.0-174.0-0.0","23137317","wem/bandit_party_2","A2HC9549CZAKNN","either","2","343","","","","","","","1","0","0","0.54298015","","0.8","0.4","0.2","0.6","","","","","0.54298015","0.151851594","0.3218599317","0.1996467811","","","","","","","","","","72","H","0","img/none_selected.jpg","","133","main_expt",""
"","bandit","213","648594","0.0-175.0-0.0","23137317","wem/bandit_party_2","A2HC9549CZAKNN","either","2","533","","","","","","","1","0","0","0.5504084981","","0.8","0.4","0.2","0.6","","","","","0.5504084981","0.1693242304","0.3372263261","0.1900899503","","","","","","","","","","72","H","0","img/none_selected.jpg","","134","main_expt",""
"","bandit","214","650603","0.0-176.0-0.0","23137317","wem/bandit_party_2","A2HC9549CZAKNN","either","2","501","","","","","","","1","0","0","0.4874659601","","0.8","0.4","0.2","0.6","","","","","0.4874659601","0.1541174352","0.3515125386","0.172295534","","","","","","","","","","72","H","0","img/none_selected.jpg","","135","main_expt",""
"","bandit","215","652461","0.0-177.0-0.0","23137317","wem/bandit_party_2","A2HC9549CZAKNN","either","2","349","","","","","","","0","0","1","0.3677382912","","0.8","0.4","0.2","0.6","","","","","0.3677382912","0.1374012581","0.2312583875","0.1171098277","","","","","","","","","","72","H","0","img/none_selected.jpg","","136","main_expt",""
"","bandit","216","654451","0.0-178.0-0.0","23137317","wem/bandit_party_2","A2HC9549CZAKNN","either","2","482","","","","","","","0","0","1","0.2944012193","","0.8","0.4","0.2","0.6","","","","","0.2944012193","0.2889288236","0.3496768842","0.1390909791","","","","","","","","","","72","H","0","img/none_selected.jpg","","137","main_expt",""
"","bandit","217","657005","0.0-179.0-0.0","23137317","wem/bandit_party_2","A2HC9549CZAKNN","either","2","1046","","","","","","","0","1","0","","0.3020033879","0.8","0.4","0.2","0.6","0.3020033879","0.2177367931","0.4217982028","0.1209370274","","","","","","","","","","","","","","72","H","0","img/none_selected.jpg","","138","main_expt",""
"","bandit","218","658795","0.0-180.0-0.0","23137317","wem/bandit_party_2","A2HC9549CZAKNN","either","2","283","","","","","","","1","0","0","0.2908104057","","0.8","0.4","0.2","0.6","","","","","0.2908104057","0.1704259453","0.5123523738","0.1441291996","","","","","","","","","","72","H","0","img/none_selected.jpg","","139","main_expt",""
"","bandit","219","660562","0.0-181.0-0.0","23137317","wem/bandit_party_2","A2HC9549CZAKNN","either","2","261","","","","","","","0","0","1","0.2738290205","","0.8","0.4","0.2","0.6","","","","","0.2738290205","0.1827322183","0.3892042576","0.1380406349","","","","","","","","","","72","H","0","img/none_selected.jpg","","140","main_expt",""
"","bandit","220","662363","0.0-182.0-0.0","23137317","wem/bandit_party_2","A2HC9549CZAKNN","either","2","293","","","","","","","0","0","1","0.3865798498","","0.8","0.4","0.2","0.6","","","","","0.3865798498","0.2030288612","0.4680147771","0.1312769784","","","","","","","","","","72","H","0","img/none_selected.jpg","","141","main_expt",""
"","bandit","221","664058","0.0-183.0-0.0","23137317","wem/bandit_party_2","A2HC9549CZAKNN","either","2","190","","","","","","","0","0","1","0.1760536641","","0.8","0.4","0.2","0.6","","","","","0.3507917403","0.1760536641","0.3970866904","0.1880730553","","","","","","","","","","74","J","1","","","142","main_expt",""
"","bandit","222","665762","0.0-184.0-0.0","23137317","wem/bandit_party_2","A2HC9549CZAKNN","either","2","197","","","","","","","0","0","1","0.1428921374","","0.8","0.4","0.2","0.6","","","","","0.2787839286","0.1428921374","0.3609481858","0.1798266991","","","","","","","","","","74","J","1","","","143","main_expt",""
"","bandit","223","667600","0.0-185.0-0.0","23137317","wem/bandit_party_2","A2HC9549CZAKNN","either","2","330","","","","","","","0","0","1","","0.3701270871","0.8","0.4","0.2","0.6","0.2106619402","0.1260474704","0.3701270871","0.1881666754","","","","","","","","","","","","","","75","K","2","","","144","main_expt",""
"","bandit","224","669446","0.0-186.0-0.0","23137317","wem/bandit_party_2","A2HC9549CZAKNN","either","2","335","","","","","","","0","0","1","","0.3110645609","0.8","0.4","0.2","0.6","0.3211677341","0.151337539","0.3110645609","0.1683386122","","","","","","","","","","","","","","75","K","2","","","145","main_expt",""
"","bandit","225","671218","0.0-187.0-0.0","23137317","wem/bandit_party_2","A2HC9549CZAKNN","either","2","264","","","","","","","1","0","0","0.2609121533","","0.8","0.4","0.2","0.6","","","","","0.4417580917","0.1600114734","0.356964637","0.2609121533","","","","","","","","","","76","L","3","","","146","main_expt",""
"","bandit","226","672963","0.0-188.0-0.0","23137317","wem/bandit_party_2","A2HC9549CZAKNN","either","2","237","","","","","","","1","0","0","0.280259565","","0.8","0.4","0.2","0.6","","","","","0.278611551","0.1262446547","0.5143633813","0.280259565","","","","","","","","","","76","L","3","","","147","main_expt",""
"","bandit","227","674716","0.0-189.0-0.0","23137317","wem/bandit_party_2","A2HC9549CZAKNN","either","2","245","","","","","","","0","1","0","","0.2972918914","0.8","0.4","0.2","0.6","0.2811332351","0.1030311585","0.5086187798","0.2972918914","","","","","","","","","","","","","","76","L","3","","","148","main_expt",""
"","bandit","228","676555","0.0-190.0-0.0","23137317","wem/bandit_party_2","A2HC9549CZAKNN","either","2","332","","","","","","","1","0","0","0.3284309668","","0.8","0.4","0.2","0.6","","","","","0.2606345315","0.123834606","0.4676315778","0.3284309668","","","","","","","","","","76","L","3","","","149","main_expt",""
"","bandit","229","678285","0.0-191.0-0.0","23137317","wem/bandit_party_2","A2HC9549CZAKNN","either","2","223","","","","","","","0","1","0","","0.3186890608","0.8","0.4","0.2","0.6","0.260677327","0.06566206942","0.4737351686","0.3186890608","","","","","","","","","","","","","","76","L","3","","","150","main_expt",""
"","bandit","230","680090","0.0-192.0-0.0","23137317","wem/bandit_party_2","A2HC9549CZAKNN","either","2","296","","","","","","","0","0","1","","0.3331747037","0.8","0.4","0.2","0.6","0.2579624968","0.06342121736","0.5387476985","0.3331747037","","","","","","","","","","","","","","76","L","3","","","151","main_expt",""
"","bandit","231","681706","0.0-193.0-0.0","23137317","wem/bandit_party_2","A2HC9549CZAKNN","either","2","109","","","","","","","0","1","0","","0.364096089","0.8","0.4","0.2","0.6","0.2536911072","0.1162046696","0.5065138565","0.364096089","","","","","","","","","","","","","","76","L","3","","","152","main_expt",""
"","bandit","232","683340","0.0-194.0-0.0","23137317","wem/bandit_party_2","A2HC9549CZAKNN","either","2","124","","","","","","","0","1","0","","0.3189440566","0.8","0.4","0.2","0.6","0.1427943183","0.1388943584","0.5190676077","0.3189440566","","","","","","","","","","","","","","76","L","3","","","153","main_expt",""
"","bandit","233","685059","0.0-195.0-0.0","23137317","wem/bandit_party_2","A2HC9549CZAKNN","either","2","213","","","","","","","1","0","0","0.486858514","","0.8","0.4","0.2","0.6","","","","","0.08934943386","0.1188489222","0.4944482457","0.486858514","","","","","","","","","","76","L","3","","","154","main_expt",""
"","bandit","234","686804","0.0-196.0-0.0","23137317","wem/bandit_party_2","A2HC9549CZAKNN","either","2","234","","","","","","","1","0","0","0.398958755","","0.8","0.4","0.2","0.6","","","","","0.1048919666","0.1255079792","0.4987902374","0.398958755","","","","","","","","","","76","L","3","","","155","main_expt",""
"","bandit","235","688352","0.0-197.0-0.0","23137317","wem/bandit_party_2","A2HC9549CZAKNN","either","2","40","","","","","","","1","0","0","0.3508932217","","0.8","0.4","0.2","0.6","","","","","0.1348874752","0.1705129017","0.4151199053","0.3508932217","","","","","","","","","","76","L","3","","","156","main_expt",""
"","bandit","236","689986","0.0-198.0-0.0","23137317","wem/bandit_party_2","A2HC9549CZAKNN","either","2","128","","","","","","","0","1","0","","0.3736640956","0.8","0.4","0.2","0.6","0.1197456909","0.1892203872","0.4215128153","0.3736640956","","","","","","","","","","","","","","76","L","3","","","157","main_expt",""
"","bandit","237","691572","0.0-199.0-0.0","23137317","wem/bandit_party_2","A2HC9549CZAKNN","either","2","76","","","","","","","1","0","0","0.3215678611","","0.8","0.4","0.2","0.6","","","","","0.1343935597","0.1589595026","0.3666899102","0.3215678611","","","","","","","","","","76","L","3","","","158","main_expt",""
"","bandit","238","693267","0.0-200.0-0.0","23137317","wem/bandit_party_2","A2HC9549CZAKNN","either","2","187","","","","","","","0","0","1","","0.2732838962","0.8","0.4","0.2","0.6","0.04604274909","0.1426383857","0.3906786657","0.2732838962","","","","","","","","","","","","","","76","L","3","","","159","main_expt",""
"","bandit","239","694947","0.0-201.0-0.0","23137317","wem/bandit_party_2","A2HC9549CZAKNN","either","2","170","","","","","","","0","0","1","0.2323229575","","0.8","0.4","0.2","0.6","","","","","0.08927965808","0.2747613825","0.4769972016","0.2323229575","","","","","","","","","","76","L","3","","","160","main_expt",""
"","bandit","240","696779","0.0-202.0-0.0","23137317","wem/bandit_party_2","A2HC9549CZAKNN","either","2","325","","","","","","","1","0","0","0.399022808","","0.8","0.4","0.2","0.6","","","","","0.1038156196","0.2046882866","0.4405879513","0.399022808","","","","","","","","","","76","L","3","","","161","main_expt",""
"","bandit","241","698461","0.0-203.0-0.0","23137317","wem/bandit_party_2","A2HC9549CZAKNN","either","2","174","","","","","","","0","0","1","","0.4967313539","0.8","0.4","0.2","0.6","0.1470739062","0.1715152701","0.44055992","0.4967313539","","","","","","","","","","","","","","76","L","3","","","162","main_expt",""
"","bandit","242","700666","0.0-204.0-0.0","23137317","wem/bandit_party_2","A2HC9549CZAKNN","either","2","696","","","","","","","0","0","1","0.1214264794","","0.8","0.4","0.2","0.6","","","","","0.1214264794","0.2396687428","0.3434222481","0.5245029489","","","","","","","","","","72","H","0","img/none_selected.jpg","","163","main_expt",""
"","bandit","243","702282","0.0-205.0-0.0","23137317","wem/bandit_party_2","A2HC9549CZAKNN","either","2","104","","","","","","","0","0","1","0.1563758897","","0.8","0.4","0.2","0.6","","","","","0.1563758897","0.3359744524","0.3862652833","0.5808119749","","","","","","","","","","72","H","0","img/none_selected.jpg","","164","main_expt",""
"","bandit","244","705210","0.0-206.0-0.0","23137317","wem/bandit_party_2","A2HC9549CZAKNN","either","2","1421","","","","","","","0","1","0","","0.4940159592","0.8","0.4","0.2","0.6","0.1311500467","0.4940159592","0.4270444342","0.6473032069","","","","","","","","","","","","","","74","J","1","","","165","main_expt",""
"","bandit","245","706771","0.0-207.0-0.0","23137317","wem/bandit_party_2","A2HC9549CZAKNN","either","2","52","","","","","","","0","1","0","","0.5922229292","0.8","0.4","0.2","0.6","0.1419689761","0.5922229292","0.5073102058","0.6790689848","","","","","","","","","","","","","","74","J","1","","","166","main_expt",""
"","bandit","246","708607","0.0-208.0-0.0","23137317","wem/bandit_party_2","A2HC9549CZAKNN","either","2","326","","","","","","","0","1","0","","0.5562626425","0.8","0.4","0.2","0.6","0.150246256","0.5562626425","0.5417092253","0.5959653185","","","","","","","","","","","","","","74","J","1","","","167","main_expt",""
"","bandit","247","711395","0.0-209.0-0.0","23137317","wem/bandit_party_2","A2HC9549CZAKNN","either","2","1279","","","","","","","0","1","0","","0.6489587791","0.8","0.4","0.2","0.6","0.2070971521","0.6489587791","0.6505471885","0.361841396","","","","","","","","","","","","","","74","J","1","","","168","main_expt",""
"","bandit","248","718612","0.0-210.0-0.0","23137317","wem/bandit_party_2","A2HC9549CZAKNN","either","2","5709","","","","","","","0","0","1","","0.5652428614","0.8","0.4","0.2","0.6","0.2564452127","0.5652428614","0.6226729341","0.2594844845","","","","","","","","","","","","","","74","J","1","","","169","main_expt",""
"","bandit","249","720299","0.0-211.0-0.0","23137317","wem/bandit_party_2","A2HC9549CZAKNN","either","2","178","","","","","","","0","1","0","","0.7574543886","0.8","0.4","0.2","0.6","0.2845729388","0.5344749526","0.7574543886","0.1987556041","","","","","","","","","","","","","","75","K","2","","","170","main_expt",""
"","bandit","250","721971","0.0-212.0-0.0","23137317","wem/bandit_party_2","A2HC9549CZAKNN","either","2","164","","","","","","","0","0","1","0.774201251","","0.8","0.4","0.2","0.6","","","","","0.2360657399","0.6364900983","0.774201251","0.1583585206","","","","","","","","","","75","K","2","","","171","main_expt",""
"","bandit","251","725212","0.0-213.0-0.0","23137317","wem/bandit_party_2","A2HC9549CZAKNN","either","2","1732","","","","","","","0","1","0","","0.7739789177","0.8","0.4","0.2","0.6","0.3453554921","0.5516193693","0.7739789177","0.1494938987","","","","","","","","","","","","","","75","K","2","","","172","main_expt",""
"","bandit","252","727763","0.0-214.0-0.0","23137317","wem/bandit_party_2","A2HC9549CZAKNN","either","2","1043","","","","","","","0","1","0","","0.7146420849","0.8","0.4","0.2","0.6","0.2909261263","0.5081608063","0.7146420849","0.1996494969","","","","","","","","","","","","","","75","K","2","","","173","main_expt",""
"","bandit","253","729316","0.0-215.0-0.0","23137317","wem/bandit_party_2","A2HC9549CZAKNN","either","2","46","","","","","","","0","0","1","","0.683245412","0.8","0.4","0.2","0.6","0.3807546558","0.5247340446","0.683245412","0.2200767262","","","","","","","","","","","","","","75","K","2","","","174","main_expt",""
"","bandit","254","730845","0.0-216.0-0.0","23137317","wem/bandit_party_2","A2HC9549CZAKNN","either","2","19","","","","","","","0","1","0","","0.7163731774","0.8","0.4","0.2","0.6","0.3889518003","0.5823110366","0.7163731774","0.1929710708","","","","","","","","","","","","","","75","K","2","","","175","main_expt",""
"","bandit","255","733435","0.0-217.0-0.0","23137317","wem/bandit_party_2","A2HC9549CZAKNN","either","2","1081","","","","","","","1","0","0","0.6676116703","","0.8","0.4","0.2","0.6","","","","","0.3662842853","0.7693722391","0.6676116703","0.1756556012","","","","","","","","","","75","K","2","","","176","main_expt",""
"","bandit","256","735188","0.0-218.0-0.0","23137317","wem/bandit_party_2","A2HC9549CZAKNN","either","2","241","","","","","","","0","1","0","","0.711116056","0.8","0.4","0.2","0.6","0.3102656016","0.8048595062","0.711116056","0.2404611203","","","","","","","","","","","","","","75","K","2","","","177","main_expt",""
"","bandit","257","736867","0.0-219.0-0.0","23137317","wem/bandit_party_2","A2HC9549CZAKNN","either","2","171","","","","","","","0","0","1","","0.6541247318","0.8","0.4","0.2","0.6","0.3272385177","0.8147320782","0.6541247318","0.1651874793","","","","","","","","","","","","","","75","K","2","","","178","main_expt",""
"","bandit","258","738451","0.0-220.0-0.0","23137317","wem/bandit_party_2","A2HC9549CZAKNN","either","2","75","","","","","","","0","1","0","","0.600925469","0.8","0.4","0.2","0.6","0.3185807274","0.7755432213","0.600925469","0.1297692321","","","","","","","","","","","","","","75","K","2","","","179","main_expt",""
"","bandit","259","740172","0.0-221.0-0.0","23137317","wem/bandit_party_2","A2HC9549CZAKNN","either","2","212","","","","","","","0","0","1","0.6321701674","","0.8","0.4","0.2","0.6","","","","","0.3896265469","0.7309951384","0.6321701674","0.1311169289","","","","","","","","","","75","K","2","","","180","main_expt",""
"","bandit","260","741858","0.0-222.0-0.0","23137317","wem/bandit_party_2","A2HC9549CZAKNN","either","2","179","","","","","","","0","1","0","","0.7040606398","0.8","0.4","0.2","0.6","0.4381139349","0.8068071681","0.7040606398","0.2184653543","","","","","","","","","","","","","","75","K","2","","","181","main_expt",""
"","bandit","261","743578","0.0-223.0-0.0","23137317","wem/bandit_party_2","A2HC9549CZAKNN","either","2","212","","","","","","","0","0","1","","0.6551517927","0.8","0.4","0.2","0.6","0.4339703771","0.8096694819","0.6551517927","0.156745214","","","","","","","","","","","","","","75","K","2","","","182","main_expt",""
"","bandit","262","745426","0.0-224.0-0.0","23137317","wem/bandit_party_2","A2HC9549CZAKNN","either","2","340","","","","","","","0","1","0","","0.7709035389","0.8","0.4","0.2","0.6","0.5270594011","0.8522040983","0.7709035389","0.07710569088","","","","","","","","","","","","","","75","K","2","","","183","main_expt",""
"","bandit","263","747131","0.0-225.0-0.0","23137317","wem/bandit_party_2","A2HC9549CZAKNN","either","2","197","","","","","","","0","0","1","","0.7869666122","0.8","0.4","0.2","0.6","0.4791569234","0.8636776132","0.7869666122","0.07901501252","","","","","","","","","","","","","","75","K","2","","","184","main_expt",""
"","bandit","264","748707","0.0-226.0-0.0","23137317","wem/bandit_party_2","A2HC9549CZAKNN","either","2","68","","","","","","","0","1","0","","0.804571828","0.8","0.4","0.2","0.6","0.464074867","0.8605951951","0.804571828","0.05695362571","","","","","","","","","","","","","","75","K","2","","","185","main_expt",""
"","bandit","265","750420","0.0-227.0-0.0","23137317","wem/bandit_party_2","A2HC9549CZAKNN","either","2","205","","","","","","","0","1","0","","0.7866627628","0.8","0.4","0.2","0.6","0.4654947356","0.8578427848","0.7866627628","0.03796608352","","","","","","","","","","","","","","75","K","2","","","186","main_expt",""
"","bandit","266","752171","0.0-228.0-0.0","23137317","wem/bandit_party_2","A2HC9549CZAKNN","either","2","242","","","","","","","1","0","0","0.8006736442","","0.8","0.4","0.2","0.6","","","","","0.4338668179","0.8253306036","0.8006736442","0.05986429342","","","","","","","","","","75","K","2","","","187","main_expt",""
"","bandit","267","753955","0.0-229.0-0.0","23137317","wem/bandit_party_2","A2HC9549CZAKNN","either","2","275","","","","","","","0","1","0","","0.7687627789","0.8","0.4","0.2","0.6","0.4679469354","0.8118593573","0.7687627789","0.05827831728","","","","","","","","","","","","","","75","K","2","","","188","main_expt",""
"","bandit","268","756154","0.0-230.0-0.0","23137317","wem/bandit_party_2","A2HC9549CZAKNN","either","2","692","","","","","","","0","0","1","","0.7009429779","0.8","0.4","0.2","0.6","0.4645116859","0.8319104568","0.7009429779","0.06499387038","","","","","","","","","","","","","","75","K","2","","","189","main_expt",""
"","bandit","269","759218","0.0-231.0-0.0","23137317","wem/bandit_party_2","A2HC9549CZAKNN","either","2","1555","","","","","","","0","1","0","","0.7531121838","0.8","0.4","0.2","0.6","0.4260553166","0.8949986836","0.7531121838","0.0878029059","","","","","","","","","","","","","","75","K","2","","","190","main_expt",""
"","bandit","270","760965","0.0-232.0-0.0","23137317","wem/bandit_party_2","A2HC9549CZAKNN","either","2","238","","","","","","","1","0","0","0.6174616994","","0.8","0.4","0.2","0.6","","","","","0.5323747461","0.9258368343","0.6174616994","0.1101088583","","","","","","","","","","75","K","2","","","191","main_expt",""
"","bandit","271","762708","0.0-233.0-0.0","23137317","wem/bandit_party_2","A2HC9549CZAKNN","either","2","233","","","","","","","0","1","0","","0.6331996982","0.8","0.4","0.2","0.6","0.6013900654","0.9221438833","0.6331996982","0.1559643099","","","","","","","","","","","","","","75","K","2","","","192","main_expt",""
"","bandit","272","764555","0.0-234.0-0.0","23137317","wem/bandit_party_2","A2HC9549CZAKNN","either","2","338","","","","","","","0","0","1","","0.5596167322","0.8","0.4","0.2","0.6","0.5332063066","0.878376231","0.5596167322","0.1348882638","","","","","","","","","","","","","","75","K","2","","","193","main_expt",""
"","bandit","273","766234","0.0-235.0-0.0","23137317","wem/bandit_party_2","A2HC9549CZAKNN","either","2","170","","","","","","","0","0","1","","0.5887018809","0.8","0.4","0.2","0.6","0.5499496643","0.7914694382","0.5887018809","0.243093686","","","","","","","","","","","","","","75","K","2","","","194","main_expt",""
"","bandit","274","767826","0.0-236.0-0.0","23137317","wem/bandit_party_2","A2HC9549CZAKNN","either","2","85","","","","","","","0","0","1","","0.561552955","0.8","0.4","0.2","0.6","0.4170732774","0.7843027812","0.561552955","0.2792315856","","","","","","","","","","","","","","75","K","2","","","195","main_expt",""
"","bandit","275","769386","0.0-237.0-0.0","23137317","wem/bandit_party_2","A2HC9549CZAKNN","either","2","53","","","","","","","0","1","0","","0.2075419965","0.8","0.4","0.2","0.6","0.4050854298","0.7888241066","0.6199522587","0.2075419965","","","","","","","","","","","","","","76","L","3","","","196","main_expt",""
"","bandit","276","771109","0.0-238.0-0.0","23137317","wem/bandit_party_2","A2HC9549CZAKNN","either","2","215","","","","","","","0","0","1","0.1899284635","","0.8","0.4","0.2","0.6","","","","","0.4522405917","0.8145025162","0.6886125155","0.1899284635","","","","","","","","","","76","L","3","","","197","main_expt",""
"","bandit","277","772882","0.0-239.0-0.0","23137317","wem/bandit_party_2","A2HC9549CZAKNN","either","2","266","","","","","","","0","0","1","","0.1632143895","0.8","0.4","0.2","0.6","0.4547961131","0.8795467387","0.6468609917","0.1632143895","","","","","","","","","","","","","","76","L","3","","","198","main_expt",""
"","bandit","278","781230","0.0-240.0-0.0","23137317","wem/bandit_party_2","A2HC9549CZAKNN","either","2","6840","","","","","","","1","0","0","0.456709553","","0.8","0.4","0.2","0.6","","","","","0.456709553","0.8716255916","0.7134983028","0.1580048483","","","","","","","","","","72","H","0","img/none_selected.jpg","","199","main_expt",""
"","bandit","279","782739","0.0-241.0-0.0","23137317","wem/bandit_party_2","A2HC9549CZAKNN","either","2","0","","","","","","","0","0","1","0.4197111003","","0.8","0.4","0.2","0.6","","","","","0.4197111003","0.8596876402","0.6545285445","0.1815025648","","","","","","","","","","72","H","0","img/none_selected.jpg","","200","main_expt",""
"","bandit","280","784515","0.0-242.0-0.0","23137317","wem/bandit_party_2","A2HC9549CZAKNN","either","2","267","","","","","","","0","1","0","","0.4468864226","0.8","0.4","0.2","0.6","0.4468864226","0.8714244785","0.6827561938","0.1453003075","","","","","","","","","","","","","","72","H","0","img/none_selected.jpg","","201","main_expt",""
"","bandit","281","786234","0.0-243.0-0.0","23137317","wem/bandit_party_2","A2HC9549CZAKNN","either","2","209","","","","","","","0","0","1","0.3852152277","","0.8","0.4","0.2","0.6","","","","","0.3852152277","0.8679491409","0.6590680519","0.1061510446","","","","","","","","","","72","H","0","img/none_selected.jpg","","202","main_expt",""
"","bandit","282","787890","0.0-244.0-0.0","23137317","wem/bandit_party_2","A2HC9549CZAKNN","either","2","148","","","","","","","0","0","1","0.3481501846","","0.8","0.4","0.2","0.6","","","","","0.3481501846","0.8421855008","0.67998256","0.09667757311","","","","","","","","","","72","H","0","img/none_selected.jpg","","203","main_expt",""
"","bandit","283","789466","0.0-245.0-0.0","23137317","wem/bandit_party_2","A2HC9549CZAKNN","either","2","69","","","","","","","1","0","0","0.8741547355","","0.8","0.4","0.2","0.6","","","","","0.3688904748","0.8741547355","0.7157802034","0.109576977","","","","","","","","","","74","J","1","","","204","main_expt",""
"","bandit","284","791237","0.0-246.0-0.0","23137317","wem/bandit_party_2","A2HC9549CZAKNN","either","2","263","","","","","","","0","1","0","","0.8589537271","0.8","0.4","0.2","0.6","0.4196025605","0.8589537271","0.6750594522","0.1370524017","","","","","","","","","","","","","","74","J","1","","","205","main_expt",""
"","bandit","285","792994","0.0-247.0-0.0","23137317","wem/bandit_party_2","A2HC9549CZAKNN","either","2","247","","","","","","","0","0","1","0.8009191088","","0.8","0.4","0.2","0.6","","","","","0.3558717694","0.8009191088","0.7170784861","0.1005848846","","","","","","","","","","74","J","1","","","206","main_expt",""
"","bandit","286","794796","0.0-248.0-0.0","23137317","wem/bandit_party_2","A2HC9549CZAKNN","either","2","293","","","","","","","0","0","1","0.8146279372","","0.8","0.4","0.2","0.6","","","","","0.3978287694","0.8146279372","0.6886550294","0.1100528349","","","","","","","","","","74","J","1","","","207","main_expt",""
"","bandit","287","796563","0.0-249.0-0.0","23137317","wem/bandit_party_2","A2HC9549CZAKNN","either","2","259","","","","","","","1","0","0","0.7340041914","","0.8","0.4","0.2","0.6","","","","","0.3647175361","0.7498886323","0.7340041914","0.1165568201","","","","","","","","","","75","K","2","","","208","main_expt",""
"","bandit","288","798169","0.0-250.0-0.0","23137317","wem/bandit_party_2","A2HC9549CZAKNN","either","2","99","","","","","","","0","1","0","","0.7108339061","0.8","0.4","0.2","0.6","0.2942091963","0.781298432","0.7108339061","0.1607141963","","","","","","","","","","","","","","75","K","2","","","209","main_expt",""
"","bandit","289","800299","0.0-251.0-0.0","23137317","wem/bandit_party_2","A2HC9549CZAKNN","either","2","621","","","","","","","0","1","0","","0.7322658343","0.8","0.4","0.2","0.6","0.3228874634","0.8374694261","0.7322658343","0.2005879304","","","","","","","","","","","","","","75","K","2","","","210","main_expt",""
"","bandit","290","807428","0.0-252.0-0.0","23137317","wem/bandit_party_2","A2HC9549CZAKNN","either","2","5622","","","","","","","0","1","0","","0.6220956771","0.8","0.4","0.2","0.6","0.3300931135","0.7461264045","0.6220956771","0.1999716741","","","","","","","","","","","","","","75","K","2","","","211","main_expt",""
"","bandit","291","809226","0.0-253.0-0.0","23137317","wem/bandit_party_2","A2HC9549CZAKNN","either","2","289","","","","","","","0","0","1","","0.5400145011","0.8","0.4","0.2","0.6","0.4044608811","0.7267359419","0.5400145011","0.2135957141","","","","","","","","","","","","","","75","K","2","","","212","main_expt",""
"","bandit","292","812003","0.0-254.0-0.0","23137317","wem/bandit_party_2","A2HC9549CZAKNN","either","2","1269","","","","","","","0","0","1","0.5419994818","","0.8","0.4","0.2","0.6","","","","","0.4916994921","0.6529835343","0.5419994818","0.2041793084","","","","","","","","","","75","K","2","","","213","main_expt",""
"","bandit","293","813857","0.0-255.0-0.0","23137317","wem/bandit_party_2","A2HC9549CZAKNN","either","2","344","","","","","","","0","1","0","","0.6195319152","0.8","0.4","0.2","0.6","0.5387088508","0.5734554779","0.6195319152","0.2563089198","","","","","","","","","","","","","","75","K","2","","","214","main_expt",""
"","bandit","294","815634","0.0-256.0-0.0","23137317","wem/bandit_party_2","A2HC9549CZAKNN","either","2","270","","","","","","","0","1","0","","0.7405966814","0.8","0.4","0.2","0.6","0.567041903","0.7056003711","0.7405966814","0.2870699064","","","","","","","","","","","","","","75","K","2","","","215","main_expt",""
"","bandit","295","817460","0.0-257.0-0.0","23137317","wem/bandit_party_2","A2HC9549CZAKNN","either","2","318","","","","","","","0","0","1","0.8005734678","","0.8","0.4","0.2","0.6","","","","","0.539749723","0.7717913507","0.8005734678","0.2715554895","","","","","","","","","","75","K","2","","","216","main_expt",""
"","bandit","296","819274","0.0-258.0-0.0","23137317","wem/bandit_party_2","A2HC9549CZAKNN","either","2","303","","","","","","","0","1","0","","0.8392159132","0.8","0.4","0.2","0.6","0.3803352486","0.834894728","0.8392159132","0.2027777883","","","","","","","","","","","","","","75","K","2","","","217","main_expt",""
"","bandit","297","821058","0.0-259.0-0.0","23137317","wem/bandit_party_2","A2HC9549CZAKNN","either","2","275","","","","","","","0","1","0","","0.7445585264","0.8","0.4","0.2","0.6","0.3236333655","0.868580258","0.7445585264","0.2169787163","","","","","","","","","","","","","","75","K","2","","","218","main_expt",""
"","bandit","298","822898","0.0-260.0-0.0","23137317","wem/bandit_party_2","A2HC9549CZAKNN","either","2","332","","","","","","","0","1","0","","0.7174829008","0.8","0.4","0.2","0.6","0.2612589469","0.8236231074","0.7174829008","0.2292932202","","","","","","","","","","","","","","75","K","2","","","219","main_expt",""
"","bandit","299","824746","0.0-261.0-0.0","23137317","wem/bandit_party_2","A2HC9549CZAKNN","either","2","338","","","","","","","0","0","1","","0.6601767392","0.8","0.4","0.2","0.6","0.2228319794","0.7719294443","0.6601767392","0.2829053382","","","","","","","","","","","","","","75","K","2","","","220","main_expt",""
"","bandit","300","826474","0.0-262.0-0.0","23137317","wem/bandit_party_2","A2HC9549CZAKNN","either","2","219","","","","","","","0","1","0","","0.703996204","0.8","0.4","0.2","0.6","0.2204856404","0.7609360252","0.703996204","0.2691731019","","","","","","","","","","","","","","75","K","2","","","221","main_expt",""
"","bandit","301","828164","0.0-263.0-0.0","23137317","wem/bandit_party_2","A2HC9549CZAKNN","either","2","181","","","","","","","0","0","1","","0.6188024556","0.8","0.4","0.2","0.6","0.2269951902","0.7319851961","0.6188024556","0.1974112065","","","","","","","","","","","","","","75","K","2","","","222","main_expt",""
"","bandit","302","829754","0.0-264.0-0.0","23137317","wem/bandit_party_2","A2HC9549CZAKNN","either","2","81","","","","","","","0","1","0","","0.5695888615","0.8","0.4","0.2","0.6","0.3417830843","0.6994646324","0.5695888615","0.08486155027","","","","","","","","","","","","","","75","K","2","","","223","main_expt",""
"","bandit","303","831755","0.0-265.0-0.0","23137317","wem/bandit_party_2","A2HC9549CZAKNN","either","2","491","","","","","","","1","0","0","0.6590173842","","0.8","0.4","0.2","0.6","","","","","0.4057490183","0.6817307813","0.6590173842","0.1930609847","","","","","","","","","","75","K","2","","","224","main_expt",""
"","bandit","304","833578","0.0-266.0-0.0","23137317","wem/bandit_party_2","A2HC9549CZAKNN","either","2","315","","","","","","","0","1","0","","0.6779124893","0.8","0.4","0.2","0.6","0.4266979185","0.67394888","0.6779124893","0.2026087193","","","","","","","","","","","","","","75","K","2","","","225","main_expt",""
"","bandit","305","835363","0.0-267.0-0.0","23137317","wem/bandit_party_2","A2HC9549CZAKNN","either","2","275","","","","","","","0","1","0","","0.6433757785","0.8","0.4","0.2","0.6","0.4723095555","0.6520670614","0.6433757785","0.1295559036","","","","","","","","","","","","","","75","K","2","","","226","main_expt",""
"","bandit","306","837194","0.0-268.0-0.0","23137317","wem/bandit_party_2","A2HC9549CZAKNN","either","2","320","","","","","","","0","1","0","","0.6050090536","0.8","0.4","0.2","0.6","0.4396274322","0.6598054912","0.6050090536","0.1014701128","","","","","","","","","","","","","","75","K","2","","","227","main_expt",""
"","bandit","307","838892","0.0-269.0-0.0","23137317","wem/bandit_party_2","A2HC9549CZAKNN","either","2","190","","","","","","","0","0","1","","0.5614220587","0.8","0.4","0.2","0.6","0.4581465293","0.7313296172","0.5614220587","0.1374428951","","","","","","","","","","","","","","75","K","2","","","228","main_expt",""
"","bandit","308","840404","0.0-270.0-0.0","23137317","wem/bandit_party_2","A2HC9549CZAKNN","either","2","3","","","","","","","0","1","0","","0.536938762","0.8","0.4","0.2","0.6","0.3635076811","0.5771612872","0.536938762","0.2147377822","","","","","","","","","","","","","","75","K","2","","","229","main_expt",""
"","bandit","309","842155","0.0-271.0-0.0","23137317","wem/bandit_party_2","A2HC9549CZAKNN","either","2","241","","","","","","","0","0","1","","0.4691369301","0.8","0.4","0.2","0.6","0.4109812081","0.6474737632","0.4691369301","0.2128984172","","","","","","","","","","","","","","75","K","2","","","230","main_expt",""
"","bandit","310","843817","0.0-272.0-0.0","23137317","wem/bandit_party_2","A2HC9549CZAKNN","either","2","154","","","","","","","0","0","1","0.2566260117","","0.8","0.4","0.2","0.6","","","","","0.3769467169","0.77083729","0.3801843724","0.2566260117","","","","","","","","","","76","L","3","","","231","main_expt",""
"","bandit","311","845780","0.0-273.0-0.0","23137317","wem/bandit_party_2","A2HC9549CZAKNN","either","2","452","","","","","","","0","0","1","","0.307190163","0.8","0.4","0.2","0.6","0.4489681289","0.7372448464","0.4401380948","0.307190163","","","","","","","","","","","","","","76","L","3","","","232","main_expt",""
"","bandit","312","848050","0.0-274.0-0.0","23137317","wem/bandit_party_2","A2HC9549CZAKNN","either","2","761","","","","","","","1","0","0","0.5191563331","","0.8","0.4","0.2","0.6","","","","","0.5191563331","0.8061851957","0.4589823784","0.3235632008","","","","","","","","","","72","H","0","img/none_selected.jpg","","233","main_expt",""
"","bandit","313","849788","0.0-275.0-0.0","23137317","wem/bandit_party_2","A2HC9549CZAKNN","either","2","230","","","","","","","0","1","0","","0.5635532962","0.8","0.4","0.2","0.6","0.5635532962","0.7628128465","0.412850409","0.2229472669","","","","","","","","","","","","","","72","H","0","img/none_selected.jpg","","234","main_expt",""
"","bandit","314","851539","0.0-276.0-0.0","23137317","wem/bandit_party_2","A2HC9549CZAKNN","either","2","242","","","","","","","0","1","0","","0.6059211115","0.8","0.4","0.2","0.6","0.6059211115","0.7139354314","0.3071086281","0.3245092944","","","","","","","","","","","","","","72","H","0","img/none_selected.jpg","","235","main_expt",""
"","bandit","315","853418","0.0-277.0-0.0","23137317","wem/bandit_party_2","A2HC9549CZAKNN","either","2","371","","","","","","","0","0","1","","0.5767319418","0.8","0.4","0.2","0.6","0.5767319418","0.8459685894","0.3088172556","0.3817813951","","","","","","","","","","","","","","72","H","0","img/none_selected.jpg","","236","main_expt",""
"","bandit","316","858362","0.0-278.0-0.0","23137317","wem/bandit_party_2","A2HC9549CZAKNN","either","2","3435","","","","","","","1","0","0","0.6195352853","","0.8","0.4","0.2","0.6","","","","","0.6195352853","0.8258062243","0.2725525041","0.5108794425","","","","","","","","","","72","H","0","img/none_selected.jpg","","237","main_expt",""