"consent","trial_type","trial_index","time_elapsed","internal_node_id","subjID","study","MID","cond","drift","rt","responses","button_pressed","key_press","like","value","connected","gems","bombs","no_reward","GemPrChosen","BombPrChosen","GainOverPainPr_0","GainOverPainPr_1","GainOverPainPr_2","GainOverPainPr_3","LosePr_0","LosePr_1","LosePr_2","LosePr_3","WinPr_0","WinPr_1","WinPr_2","WinPr_3","Q0","Q1","Q2","gender","age","ethnicity","label","expt_phase","target","respCharCode","respKey","respChoiceNum","respChoice","practice","trial_counter","trial_label","Q0_index","view_history"
"GDM/GDM_behavioral_consent_30min_online.html","consent","0","23609","0.0-0.0","25158291","wem/bandit_party_2","A3SY81O9AOO903","either","5","","","","","","","","","","","","","","","","","","","","","","","","","","","","","","","","","","","","","","","","","",""
"","survey-text","1","41289","0.0-1.0","25158291","wem/bandit_party_2","A3SY81O9AOO903","either","5","16657","{""Q0"":""A3SY81O9AOO903""}","","","","","","","","","","","","","","","","","","","","","","","","","","","","","","","","","","","","","","","",""
"","button-response","2","45443","0.0-2.0","25158291","wem/bandit_party_2","A3SY81O9AOO903","either","5","3139","","0","","","","","","","","","","","","","","","","","","","","","","","","","","","","","","","","","","","","","","",""
"","text-replacement","3","65372","0.0-3.0","25158291","wem/bandit_party_2","A3SY81O9AOO903","either","5","18917","","","32","","","","","","","","","","","","","","","","","","","","","","","","","","","","","","","","","","","","","",""
"","text-replacement","4","85474","0.0-4.0","25158291","wem/bandit_party_2","A3SY81O9AOO903","either","5","20097","","","32","","","","","","","","","","","","","","","","","","","","","","","","","","","","","","","","","","","","","",""
"","identification","5","94958","0.0-6.0-0.0","25158291","wem/bandit_party_2","A3SY81O9AOO903","either","5","9459","","","","3","3","3","","","","","","","","","","","","","","","","","","","","","","","","pre","identification_pre","the Republican Party","","","","","","","","",""
"","identification","6","108883","0.0-6.0-1.0","25158291","wem/bandit_party_2","A3SY81O9AOO903","either","5","12899","","","","1","1","0","","","","","","","","","","","","","","","","","","","","","","","","pre","identification_pre","the Democratic Party","","","","","","","","",""
"","text-replacement","7","114632","0.0-7.0","25158291","wem/bandit_party_2","A3SY81O9AOO903","either","5","4742","","","32","","","","","","","","","","","","","","","","","","","","","","","","","","","","","","","","","","","","","",""
"","text-replacement","8","121648","0.0-8.0","25158291","wem/bandit_party_2","A3SY81O9AOO903","either","5","7008","","","32","","","","","","","","","","","","","","","","","","","","","","","","","","","","","","","","","","","","","",""
"","text-replacement","9","136416","0.0-9.0","25158291","wem/bandit_party_2","A3SY81O9AOO903","either","5","14758","","","32","","","","","","","","","","","","","","","","","","","","","","","","","","","","","","","","","","","","","",""
"","text-replacement","10","145088","0.0-10.0","25158291","wem/bandit_party_2","A3SY81O9AOO903","either","5","8665","","","32","","","","","","","","","","","","","","","","","","","","","","","","","","","","","","","","","","","","","",""
"","text-replacement","11","148186","0.0-11.0","25158291","wem/bandit_party_2","A3SY81O9AOO903","either","5","3093","","","32","","","","","","","","","","","","","","","","","","","","","","","","","","","","","","","","","","","","","",""
"","bandit","12","157313","0.0-12.0-0.0","25158291","wem/bandit_party_2","A3SY81O9AOO903","either","5","7601","","","","","","","0","0","1","0","0","","","","","0","","","","0","","","","","","","","","","","","","74","J","0","img/none_selected_demo.jpg","true","0","","",""
"","bandit","13","160046","0.0-13.0-0.0","25158291","wem/bandit_party_2","A3SY81O9AOO903","either","5","1204","","","","","","","0","0","1","0","0","","","","","0","","","","0","","","","","","","","","","","","","75","K","0","img/none_selected_demo.jpg","true","0","","",""
"","text-replacement","14","165612","0.0-14.0","25158291","wem/bandit_party_2","A3SY81O9AOO903","either","5","5561","","","32","","","","","","","","","","","","","","","","","","","","","","","","","","","","","","","","","","","","","",""
"","text-replacement","15","168593","0.0-15.0","25158291","wem/bandit_party_2","A3SY81O9AOO903","either","5","2976","","","32","","","","","","","","","","","","","","","","","","","","","","","","","","","","","","","","","","","","","",""
"","text-replacement","16","177307","0.0-16.0","25158291","wem/bandit_party_2","A3SY81O9AOO903","either","5","8707","","","32","","","","","","","","","","","","","","","","","","","","","","","","","","","","","","","","","","","","","",""
"","text-replacement","17","185830","0.0-17.0","25158291","wem/bandit_party_2","A3SY81O9AOO903","either","5","8517","","","32","","","","","","","","","","","","","","","","","","","","","","","","","","","","","","","","","","","","","",""
"","bandit","18","189147","0.0-18.0-0.0","25158291","wem/bandit_party_2","A3SY81O9AOO903","either","5","1788","","","","","","","0","1","0","","0.2","0.5","0.5","","","0.8","0.2","","","","","","","","","","","","","","","","75","K","1","","true","0","80_20_practice","",""
"","bandit","19","191912","0.0-18.0-1.0","25158291","wem/bandit_party_2","A3SY81O9AOO903","either","5","1247","","","","","","","0","1","0","","0.8","0.5","0.5","","","0.8","0.2","","","","","","","","","","","","","","","","74","J","0","img/none_selected_demo.jpg","true","0","80_20_practice","",""
"","bandit","20","201897","0.0-18.0-2.0","25158291","wem/bandit_party_2","A3SY81O9AOO903","either","5","8465","","","","","","","0","0","1","0.2","","0.5","0.5","","","","","","","0.8","0.2","","","","","","","","","","","","75","K","1","","true","0","80_20_practice","",""
"","bandit","21","204217","0.0-18.0-3.0","25158291","wem/bandit_party_2","A3SY81O9AOO903","either","5","801","","","","","","","0","0","1","0.8","","0.5","0.5","","","","","","","0.8","0.2","","","","","","","","","","","","74","J","0","img/none_selected_demo.jpg","true","0","80_20_practice","",""
"","bandit","22","207672","0.0-18.0-4.0","25158291","wem/bandit_party_2","A3SY81O9AOO903","either","5","1926","","","","","","","0","0","1","0.2","","0.5","0.5","","","","","","","0.8","0.2","","","","","","","","","","","","75","K","1","","true","0","80_20_practice","",""
"","bandit","23","210032","0.0-18.0-5.0","25158291","wem/bandit_party_2","A3SY81O9AOO903","either","5","844","","","","","","","0","1","0","","0.8","0.5","0.5","","","0.8","0.2","","","","","","","","","","","","","","","","74","J","0","img/none_selected_demo.jpg","true","0","80_20_practice","",""
"","bandit","24","212459","0.0-18.0-6.0","25158291","wem/bandit_party_2","A3SY81O9AOO903","either","5","903","","","","","","","0","0","1","","0.8","0.5","0.5","","","0.8","0.2","","","","","","","","","","","","","","","","74","J","0","img/none_selected_demo.jpg","true","0","80_20_practice","",""
"","bandit","25","214491","0.0-18.0-7.0","25158291","wem/bandit_party_2","A3SY81O9AOO903","either","5","511","","","","","","","0","0","1","","0.2","0.5","0.5","","","0.8","0.2","","","","","","","","","","","","","","","","75","K","1","","true","0","80_20_practice","",""
"","bandit","26","216577","0.0-18.0-8.0","25158291","wem/bandit_party_2","A3SY81O9AOO903","either","5","563","","","","","","","0","0","1","0.2","","0.5","0.5","","","","","","","0.8","0.2","","","","","","","","","","","","75","K","1","","true","0","80_20_practice","",""
"","bandit","27","218905","0.0-18.0-9.0","25158291","wem/bandit_party_2","A3SY81O9AOO903","either","5","806","","","","","","","0","0","1","0.8","","0.5","0.5","","","","","","","0.8","0.2","","","","","","","","","","","","74","J","0","img/none_selected_demo.jpg","true","0","80_20_practice","",""
"","bandit","28","221624","0.0-18.0-10.0","25158291","wem/bandit_party_2","A3SY81O9AOO903","either","5","1197","","","","","","","0","1","0","","0.8","0.5","0.5","","","0.8","0.2","","","","","","","","","","","","","","","","74","J","0","img/none_selected_demo.jpg","true","0","80_20_practice","",""
"","bandit","29","225242","0.0-18.0-11.0","25158291","wem/bandit_party_2","A3SY81O9AOO903","either","5","2094","","","","","","","0","0","1","0.2","","0.5","0.5","","","","","","","0.8","0.2","","","","","","","","","","","","75","K","1","","true","0","80_20_practice","",""
"","bandit","30","227197","0.0-18.0-12.0","25158291","wem/bandit_party_2","A3SY81O9AOO903","either","5","434","","","","","","","0","0","1","","0.8","0.5","0.5","","","0.8","0.2","","","","","","","","","","","","","","","","74","J","0","img/none_selected_demo.jpg","true","0","80_20_practice","",""
"","bandit","31","229046","0.0-18.0-13.0","25158291","wem/bandit_party_2","A3SY81O9AOO903","either","5","318","","","","","","","0","0","1","0.2","","0.5","0.5","","","","","","","0.8","0.2","","","","","","","","","","","","75","K","1","","true","0","80_20_practice","",""
"","bandit","32","230924","0.0-18.0-14.0","25158291","wem/bandit_party_2","A3SY81O9AOO903","either","5","355","","","","","","","1","0","0","0.2","","0.5","0.5","","","","","","","0.8","0.2","","","","","","","","","","","","75","K","1","","true","0","80_20_practice","",""
"","bandit","33","232874","0.0-18.0-15.0","25158291","wem/bandit_party_2","A3SY81O9AOO903","either","5","429","","","","","","","0","0","1","","0.8","0.5","0.5","","","0.8","0.2","","","","","","","","","","","","","","","","74","J","0","img/none_selected_demo.jpg","true","0","80_20_practice","",""
"","bandit","34","234748","0.0-18.0-16.0","25158291","wem/bandit_party_2","A3SY81O9AOO903","either","5","356","","","","","","","1","0","0","0.8","","0.5","0.5","","","","","","","0.8","0.2","","","","","","","","","","","","74","J","0","img/none_selected_demo.jpg","true","0","80_20_practice","",""
"","bandit","35","236602","0.0-18.0-17.0","25158291","wem/bandit_party_2","A3SY81O9AOO903","either","5","328","","","","","","","1","0","0","0.2","","0.5","0.5","","","","","","","0.8","0.2","","","","","","","","","","","","75","K","1","","true","0","80_20_practice","",""
"","bandit","36","238804","0.0-18.0-18.0","25158291","wem/bandit_party_2","A3SY81O9AOO903","either","5","678","","","","","","","0","1","0","","0.8","0.5","0.5","","","0.8","0.2","","","","","","","","","","","","","","","","74","J","0","img/none_selected_demo.jpg","true","0","80_20_practice","",""
"","bandit","37","240796","0.0-18.0-19.0","25158291","wem/bandit_party_2","A3SY81O9AOO903","either","5","474","","","","","","","0","0","1","0.2","","0.5","0.5","","","","","","","0.8","0.2","","","","","","","","","","","","75","K","1","","true","0","80_20_practice","",""
"","text-replacement","38","247410","0.0-19.0","25158291","wem/bandit_party_2","A3SY81O9AOO903","either","5","6605","","","32","","","","","","","","","","","","","","","","","","","","","","","","","","","","","","","","","","","","","",""
"","bandit","39","259817","0.0-20.0-0.0","25158291","wem/bandit_party_2","A3SY81O9AOO903","either","5","10887","","","","","","","1","0","0","1","0","","","","","0","1","","","1","0","","","","","","","","","","","","74","J","0","img/none_selected_demo.jpg","true","0","","",""
"","text-replacement","40","269843","0.0-21.0","25158291","wem/bandit_party_2","A3SY81O9AOO903","either","5","10020","","","32","","","","","","","","","","","","","","","","","","","","","","","","","","","","","","","","","","","","","",""
"","text-replacement","41","274262","0.0-22.0","25158291","wem/bandit_party_2","A3SY81O9AOO903","either","5","4409","","","32","","","","","","","","","","","","","","","","","","","","","","","","","","","","","","","","","","","","","",""
"","text-replacement","42","277751","0.0-23.0","25158291","wem/bandit_party_2","A3SY81O9AOO903","either","5","3481","","","32","","","","","","","","","","","","","","","","","","","","","","","","","","","","","","","","","","","","","",""
"","text-replacement","43","281632","0.0-24.0","25158291","wem/bandit_party_2","A3SY81O9AOO903","either","5","3874","","","32","","","","","","","","","","","","","","","","","","","","","","","","","","","","","","","","","","","","","",""
"","text-replacement","44","285972","0.0-25.0","25158291","wem/bandit_party_2","A3SY81O9AOO903","either","5","4331","","","32","","","","","","","","","","","","","","","","","","","","","","","","","","","","","","","","","","","","","",""
"","text-replacement","45","291161","0.0-26.0","25158291","wem/bandit_party_2","A3SY81O9AOO903","either","5","5177","","","32","","","","","","","","","","","","","","","","","","","","","","","","","","","","","","","","","","","","","",""
"","text-replacement","46","292970","0.0-27.0","25158291","wem/bandit_party_2","A3SY81O9AOO903","either","5","1801","","","32","","","","","","","","","","","","","","","","","","","","","","","","","","","","","","","","","","","","","",""
"","text-replacement","47","294295","0.0-28.0","25158291","wem/bandit_party_2","A3SY81O9AOO903","either","5","1317","","","32","","","","","","","","","","","","","","","","","","","","","","","","","","","","","","","","","","","","","",""
"","text-replacement","48","299567","0.0-29.0","25158291","wem/bandit_party_2","A3SY81O9AOO903","either","5","5265","","","32","","","","","","","","","","","","","","","","","","","","","","","","","","","","","","","","","","","","","",""
"","text-replacement","49","302060","0.0-30.0","25158291","wem/bandit_party_2","A3SY81O9AOO903","either","5","2477","","","32","","","","","","","","","","","","","","","","","","","","","","","","","","","","","","","","","","","","","",""
"","text-replacement","50","310087","0.0-31.0","25158291","wem/bandit_party_2","A3SY81O9AOO903","either","5","8017","","","32","","","","","","","","","","","","","","","","","","","","","","","","","","","","","","","","","","","","","",""
"","bandit","51","312869","0.0-32.0-0.0","25158291","wem/bandit_party_2","A3SY81O9AOO903","either","5","1260","","","","","","","0","0","1","0.2","","0.5","0.5","0.5","0.5","","","","","0.8","0.2","0.6","0.2","","","","","","","","","","74","J","1","","true","0","full_practice","",""
"","bandit","52","317574","0.0-32.0-1.0","25158291","wem/bandit_party_2","A3SY81O9AOO903","either","5","3175","","","","","","","0","1","0","","0.8","0.5","0.5","0.5","0.5","0.8","0.2","0.6","0.2","","","","","","","","","","","","","","72","H","0","img/none_selected.jpg","true","0","full_practice","",""
"","bandit","53","323047","0.0-32.0-2.0","25158291","wem/bandit_party_2","A3SY81O9AOO903","either","5","3955","","","","","","","0","0","1","","0.6","0.5","0.5","0.5","0.5","0.8","0.2","0.6","0.2","","","","","","","","","","","","","","75","K","2","","true","0","full_practice","",""
"","bandit","54","328954","0.0-32.0-3.0","25158291","wem/bandit_party_2","A3SY81O9AOO903","either","5","4383","","","","","","","0","0","1","","0.2","0.5","0.5","0.5","0.5","0.8","0.2","0.6","0.2","","","","","","","","","","","","","","76","L","3","","true","0","full_practice","",""
"","bandit","55","331101","0.0-32.0-4.0","25158291","wem/bandit_party_2","A3SY81O9AOO903","either","5","622","","","","","","","1","0","0","0.8","","0.5","0.5","0.5","0.5","","","","","0.8","0.2","0.6","0.2","","","","","","","","","","72","H","0","img/none_selected.jpg","true","0","full_practice","",""
"","bandit","56","334217","0.0-32.0-5.0","25158291","wem/bandit_party_2","A3SY81O9AOO903","either","5","1593","","","","","","","1","0","0","0.2","","0.5","0.5","0.5","0.5","","","","","0.8","0.2","0.6","0.2","","","","","","","","","","74","J","1","","true","0","full_practice","",""
"","bandit","57","336466","0.0-32.0-6.0","25158291","wem/bandit_party_2","A3SY81O9AOO903","either","5","713","","","","","","","0","1","0","","0.6","0.5","0.5","0.5","0.5","0.8","0.2","0.6","0.2","","","","","","","","","","","","","","75","K","2","","true","0","full_practice","",""
"","bandit","58","338965","0.0-32.0-7.0","25158291","wem/bandit_party_2","A3SY81O9AOO903","either","5","970","","","","","","","0","0","1","","0.2","0.5","0.5","0.5","0.5","0.8","0.2","0.6","0.2","","","","","","","","","","","","","","76","L","3","","true","0","full_practice","",""
"","bandit","59","343416","0.0-32.0-8.0","25158291","wem/bandit_party_2","A3SY81O9AOO903","either","5","2920","","","","","","","0","1","0","","0.8","0.5","0.5","0.5","0.5","0.8","0.2","0.6","0.2","","","","","","","","","","","","","","72","H","0","img/none_selected.jpg","true","0","full_practice","",""
"","bandit","60","345354","0.0-32.0-9.0","25158291","wem/bandit_party_2","A3SY81O9AOO903","either","5","410","","","","","","","0","0","1","","0.2","0.5","0.5","0.5","0.5","0.8","0.2","0.6","0.2","","","","","","","","","","","","","","74","J","1","","true","0","full_practice","",""
"","bandit","61","347135","0.0-32.0-10.0","25158291","wem/bandit_party_2","A3SY81O9AOO903","either","5","260","","","","","","","0","0","1","0.6","","0.5","0.5","0.5","0.5","","","","","0.8","0.2","0.6","0.2","","","","","","","","","","75","K","2","","true","0","full_practice","",""
"","bandit","62","349176","0.0-32.0-11.0","25158291","wem/bandit_party_2","A3SY81O9AOO903","either","5","515","","","","","","","0","1","0","","0.2","0.5","0.5","0.5","0.5","0.8","0.2","0.6","0.2","","","","","","","","","","","","","","76","L","3","","true","0","full_practice","",""
"","bandit","63","351327","0.0-32.0-12.0","25158291","wem/bandit_party_2","A3SY81O9AOO903","either","5","609","","","","","","","0","0","1","","0.2","0.5","0.5","0.5","0.5","0.8","0.2","0.6","0.2","","","","","","","","","","","","","","74","J","1","","true","0","full_practice","",""
"","bandit","64","354111","0.0-32.0-13.0","25158291","wem/bandit_party_2","A3SY81O9AOO903","either","5","1255","","","","","","","0","0","1","","0.8","0.5","0.5","0.5","0.5","0.8","0.2","0.6","0.2","","","","","","","","","","","","","","72","H","0","img/none_selected.jpg","true","0","full_practice","",""
"","bandit","65","356057","0.0-32.0-14.0","25158291","wem/bandit_party_2","A3SY81O9AOO903","either","5","430","","","","","","","0","0","1","0.6","","0.5","0.5","0.5","0.5","","","","","0.8","0.2","0.6","0.2","","","","","","","","","","75","K","2","","true","0","full_practice","",""
"","bandit","66","357944","0.0-32.0-15.0","25158291","wem/bandit_party_2","A3SY81O9AOO903","either","5","353","","","","","","","0","0","1","","0.2","0.5","0.5","0.5","0.5","0.8","0.2","0.6","0.2","","","","","","","","","","","","","","76","L","3","","true","0","full_practice","",""
"","bandit","67","362503","0.0-32.0-16.0","25158291","wem/bandit_party_2","A3SY81O9AOO903","either","5","3037","","","","","","","0","0","1","0.2","","0.5","0.5","0.5","0.5","","","","","0.8","0.2","0.6","0.2","","","","","","","","","","74","J","1","","true","0","full_practice","",""
"","bandit","68","365184","0.0-32.0-17.0","25158291","wem/bandit_party_2","A3SY81O9AOO903","either","5","1144","","","","","","","0","0","1","0.8","","0.5","0.5","0.5","0.5","","","","","0.8","0.2","0.6","0.2","","","","","","","","","","72","H","0","img/none_selected.jpg","true","0","full_practice","",""
"","bandit","69","367169","0.0-32.0-18.0","25158291","wem/bandit_party_2","A3SY81O9AOO903","either","5","468","","","","","","","0","0","1","0.2","","0.5","0.5","0.5","0.5","","","","","0.8","0.2","0.6","0.2","","","","","","","","","","76","L","3","","true","0","full_practice","",""
"","bandit","70","369038","0.0-32.0-19.0","25158291","wem/bandit_party_2","A3SY81O9AOO903","either","5","339","","","","","","","0","1","0","","0.6","0.5","0.5","0.5","0.5","0.8","0.2","0.6","0.2","","","","","","","","","","","","","","75","K","2","","true","0","full_practice","",""
"","text","71","382054","0.0-33.0","25158291","wem/bandit_party_2","A3SY81O9AOO903","either","5","12975","","","32","","","","","","","","","","","","","","","","","","","","","","","","","","","","","","","","","","","","","",""
"","text-replacement","72","396791","0.0-34.0","25158291","wem/bandit_party_2","A3SY81O9AOO903","either","5","13717","","","32","","","","","","","","","","","","","","","","","","","","","","","","","","","","","","","","","","","","","",""
"","text-replacement","73","412708","0.0-35.0","25158291","wem/bandit_party_2","A3SY81O9AOO903","either","5","15911","","","32","","","","","","","","","","","","","","","","","","","","","","","","","","","","","","","","","","","","","",""
"","text-replacement","74","416562","0.0-36.0","25158291","wem/bandit_party_2","A3SY81O9AOO903","either","5","3848","","","32","","","","","","","","","","","","","","","","","","","","","","","","","","","","","","","","","","","","","",""
"","text-replacement","75","420379","0.0-37.0","25158291","wem/bandit_party_2","A3SY81O9AOO903","either","5","3809","","","32","","","","","","","","","","","","","","","","","","","","","","","","","","","","","","","","","","","","","",""
"","text-replacement","76","428834","0.0-38.0","25158291","wem/bandit_party_2","A3SY81O9AOO903","either","5","8445","","","32","","","","","","","","","","","","","","","","","","","","","","","","","","","","","","","","","","","","","",""
"","survey-multi-choice-replacement","77","437390","0.0-39.0-0.0","25158291","wem/bandit_party_2","A3SY81O9AOO903","either","5","8530","","","","","","","","","","","","","","","","","","","","","","","","Money will be added to the pool for <span style='color:red;'>REPUBLICANS</span>","","","","","","","attn_check","","","","","","","","","0",""
"","survey-multi-choice-replacement","78","442428","0.0-40.0-0.0","25158291","wem/bandit_party_2","A3SY81O9AOO903","either","5","4000","","","","","","","","","","","","","","","","","","","","","","","","Money will be added to the pool for <span style='color:red;'>REPUBLICANS</span>","","","","","","","attn_check","","","","","","","","","0",""
"","instructions","79","445769","0.0-40.0-1.0-0.0","25158291","wem/bandit_party_2","A3SY81O9AOO903","either","5","2329","","","","","","","","","","","","","","","","","","","","","","","","","","","","","","","","","","","","","","","","","[{""page_index"":0,""viewing_time"":2328}]"
"","survey-multi-choice-replacement","80","453143","0.0-40.1-0.1","25158291","wem/bandit_party_2","A3SY81O9AOO903","either","5","6352","","","","","","","","","","","","","","","","","","","","","","","","No money will be added to either pool","","","","","","","attn_check","","","","","","","","","3",""
"","instructions","81","455831","0.0-40.1-1.1-0.1","25158291","wem/bandit_party_2","A3SY81O9AOO903","either","5","1667","","","","","","","","","","","","","","","","","","","","","","","","","","","","","","","","","","","","","","","","","[{""page_index"":0,""viewing_time"":1667}]"
"","survey-multi-choice-replacement","82","462445","0.0-40.2-0.2","25158291","wem/bandit_party_2","A3SY81O9AOO903","either","5","5591","","","","","","","","","","","","","","","","","","","","","","","","Equal amounts of money will be added to the pool for <span style='color:red;'>REPUBLICANS</span> and subtracted from the pool for <span style='color:blue;'>DEMOCRATS</span>","","","","","","","attn_check","","","","","","","","","2",""
"","survey-multi-choice-replacement","83","469056","0.0-41.0-0.0","25158291","wem/bandit_party_2","A3SY81O9AOO903","either","5","5578","","","","","","","","","","","","","","","","","","","","","","","","No money will be added to either pool","","","","","","","attn_check","","","","","","","","","3",""
"","bandit","84","474400","0.0-42.0-0.0","25158291","wem/bandit_party_2","A3SY81O9AOO903","either","5","2821","","","","","","","0","0","1","0.4253928501","","0.8","0.2","0.4","0.6","","","","","0.32692793","0.6131215568","0.4253928501","0.4909711759","","","","","","","","","","75","K","2","","","1","main_expt","",""
"","bandit","85","476429","0.0-43.0-0.0","25158291","wem/bandit_party_2","A3SY81O9AOO903","either","5","504","","","","","","","0","0","1","","0.6783759564","0.8","0.2","0.4","0.6","0.3068321923","0.6783759564","0.5447097682","0.5514346198","","","","","","","","","","","","","","74","J","1","","","2","main_expt","",""
"","bandit","86","480244","0.0-44.0-0.0","25158291","wem/bandit_party_2","A3SY81O9AOO903","either","5","2280","","","","","","","1","0","0","0.2871808385","","0.8","0.2","0.4","0.6","","","","","0.2871808385","0.6535049038","0.5631376832","0.5966913043","","","","","","","","","","72","H","0","img/none_selected.jpg","","3","main_expt","",""
"","bandit","87","482720","0.0-45.0-0.0","25158291","wem/bandit_party_2","A3SY81O9AOO903","either","5","955","","","","","","","0","0","1","0.3062311279","","0.8","0.2","0.4","0.6","","","","","0.3062311279","0.5433476707","0.5889355808","0.6236804691","","","","","","","","","","72","H","0","img/none_selected.jpg","","4","main_expt","",""
"","bandit","88","485018","0.0-46.0-0.0","25158291","wem/bandit_party_2","A3SY81O9AOO903","either","5","782","","","","","","","0","0","1","","0.5844938386","0.8","0.2","0.4","0.6","0.2453374439","0.4256320799","0.6125363118","0.5844938386","","","","","","","","","","","","","","76","L","3","","","5","main_expt","",""
"","bandit","89","489106","0.0-47.0-0.0","25158291","wem/bandit_party_2","A3SY81O9AOO903","either","5","2558","","","","","","","0","0","1","0.2258644136","","0.8","0.2","0.4","0.6","","","","","0.2258644136","0.4097031487","0.5204159956","0.4929788692","","","","","","","","","","72","H","0","img/none_selected.jpg","","6","main_expt","",""
"","bandit","90","491087","0.0-48.0-0.0","25158291","wem/bandit_party_2","A3SY81O9AOO903","either","5","446","","","","","","","0","0","1","","0.4614862243","0.8","0.2","0.4","0.6","0.2251512132","0.4614862243","0.5949894572","0.3978044106","","","","","","","","","","","","","","74","J","1","","","7","main_expt","",""
"","bandit","91","493131","0.0-49.0-0.0","25158291","wem/bandit_party_2","A3SY81O9AOO903","either","5","507","","","","","","","1","0","0","0.7043393759","","0.8","0.2","0.4","0.6","","","","","0.1597376121","0.4305419438","0.7043393759","0.5080346622","","","","","","","","","","75","K","2","","","8","main_expt","",""
"","bandit","92","495166","0.0-50.0-0.0","25158291","wem/bandit_party_2","A3SY81O9AOO903","either","5","509","","","","","","","1","0","0","0.6866437556","","0.8","0.2","0.4","0.6","","","","","0.1395884133","0.6000641755","0.6866437556","0.440708512","","","","","","","","","","75","K","2","","","9","main_expt","",""
"","bandit","93","497157","0.0-51.0-0.0","25158291","wem/bandit_party_2","A3SY81O9AOO903","either","5","466","","","","","","","0","1","0","","0.6743415364","0.8","0.2","0.4","0.6","0.1529628815","0.66675231","0.6743415364","0.4862198985","","","","","","","","","","","","","","75","K","2","","","10","main_expt","",""
"","bandit","94","499177","0.0-52.0-0.0","25158291","wem/bandit_party_2","A3SY81O9AOO903","either","5","501","","","","","","","0","1","0","","0.6907290289","0.8","0.2","0.4","0.6","0.1918890603","0.538431352","0.6907290289","0.4942886423","","","","","","","","","","","","","","75","K","2","","","11","main_expt","",""
"","bandit","95","501215","0.0-53.0-0.0","25158291","wem/bandit_party_2","A3SY81O9AOO903","either","5","499","","","","","","","0","0","1","","0.7254617755","0.8","0.2","0.4","0.6","0.1412308375","0.5683478731","0.7254617755","0.4999864232","","","","","","","","","","","","","","75","K","2","","","12","main_expt","",""
"","bandit","96","503134","0.0-54.0-0.0","25158291","wem/bandit_party_2","A3SY81O9AOO903","either","5","394","","","","","","","1","0","0","0.3945724157","","0.8","0.2","0.4","0.6","","","","","0.1854965676","0.5870071372","0.7533793381","0.3945724157","","","","","","","","","","76","L","3","","","13","main_expt","",""
"","bandit","97","505041","0.0-55.0-0.0","25158291","wem/bandit_party_2","A3SY81O9AOO903","either","5","373","","","","","","","0","0","1","","0.458684297","0.8","0.2","0.4","0.6","0.2200151947","0.3389967741","0.6909187676","0.458684297","","","","","","","","","","","","","","76","L","3","","","14","main_expt","",""
"","bandit","98","506921","0.0-56.0-0.0","25158291","wem/bandit_party_2","A3SY81O9AOO903","either","5","364","","","","","","","0","1","0","","0.5338449271","0.8","0.2","0.4","0.6","0.1497743902","0.2927381815","0.7916820586","0.5338449271","","","","","","","","","","","","","","76","L","3","","","15","main_expt","",""
"","bandit","99","508943","0.0-57.0-0.0","25158291","wem/bandit_party_2","A3SY81O9AOO903","either","5","499","","","","","","","0","0","1","0.6821016448","","0.8","0.2","0.4","0.6","","","","","0.1767244745","0.2268478953","0.7991661796","0.6821016448","","","","","","","","","","76","L","3","","","16","main_expt","",""
"","bandit","100","512003","0.0-58.0-0.0","25158291","wem/bandit_party_2","A3SY81O9AOO903","either","5","1521","","","","","","","0","0","1","","0.1953364786","0.8","0.2","0.4","0.6","0.1953364786","0.2364877179","0.7352739439","0.6963612506","","","","","","","","","","","","","","72","H","0","img/none_selected.jpg","","17","main_expt","",""
"","bandit","101","513988","0.0-59.0-0.0","25158291","wem/bandit_party_2","A3SY81O9AOO903","either","5","438","","","","","","","0","0","1","0.139355503","","0.8","0.2","0.4","0.6","","","","","0.139355503","0.280777314","0.6911569498","0.7035779666","","","","","","","","","","72","H","0","img/none_selected.jpg","","18","main_expt","",""
"","bandit","102","515929","0.0-60.0-0.0","25158291","wem/bandit_party_2","A3SY81O9AOO903","either","5","397","","","","","","","0","0","1","","0.3280428268","0.8","0.2","0.4","0.6","0.129677489","0.3280428268","0.6372159304","0.677086514","","","","","","","","","","","","","","74","J","1","","","19","main_expt","",""
"","bandit","103","517993","0.0-61.0-0.0","25158291","wem/bandit_party_2","A3SY81O9AOO903","either","5","537","","","","","","","0","0","1","0.213865824","","0.8","0.2","0.4","0.6","","","","","0.1584506979","0.213865824","0.5917564331","0.5211019236","","","","","","","","","","74","J","1","","","20","main_expt","",""
"","bandit","104","523023","0.0-62.0-0.0","25158291","wem/bandit_party_2","A3SY81O9AOO903","either","5","3492","","","","","","","0","1","0","","0.6351733259","0.8","0.2","0.4","0.6","0.1934985877","0.2755747612","0.6351733259","0.6040081297","","","","","","","","","","","","","","75","K","2","","","21","main_expt","",""
"","bandit","105","524991","0.0-63.0-0.0","25158291","wem/bandit_party_2","A3SY81O9AOO903","either","5","440","","","","","","","1","0","0","0.57448168","","0.8","0.2","0.4","0.6","","","","","0.1184813826","0.3096891892","0.57448168","0.5276460007","","","","","","","","","","75","K","2","","","22","main_expt","",""
"","bandit","106","527200","0.0-64.0-0.0","25158291","wem/bandit_party_2","A3SY81O9AOO903","either","5","664","","","","","","","0","1","0","","0.532235281","0.8","0.2","0.4","0.6","0.1387482349","0.1855444332","0.532235281","0.4373756081","","","","","","","","","","","","","","75","K","2","","","23","main_expt","",""
"","bandit","107","529210","0.0-65.0-0.0","25158291","wem/bandit_party_2","A3SY81O9AOO903","either","5","485","","","","","","","1","0","0","0.4695599312","","0.8","0.2","0.4","0.6","","","","","0.1275075135","0.2026045625","0.4695599312","0.4051577966","","","","","","","","","","75","K","2","","","24","main_expt","",""
"","bandit","108","531236","0.0-66.0-0.0","25158291","wem/bandit_party_2","A3SY81O9AOO903","either","5","483","","","","","","","0","0","1","0.3710761786","","0.8","0.2","0.4","0.6","","","","","0.1324238285","0.2610081957","0.3710761786","0.3583026632","","","","","","","","","","75","K","2","","","25","main_expt","",""
"","bandit","109","533281","0.0-67.0-0.0","25158291","wem/bandit_party_2","A3SY81O9AOO903","either","5","519","","","","","","","0","0","1","","0.3104834237","0.8","0.2","0.4","0.6","0.2222282692","0.2068764453","0.3104834237","0.4070676783","","","","","","","","","","","","","","75","K","2","","","26","main_expt","",""
"","bandit","110","538777","0.0-68.0-0.0","25158291","wem/bandit_party_2","A3SY81O9AOO903","either","5","3960","","","","","","","0","0","1","0.3962805628","","0.8","0.2","0.4","0.6","","","","","0.2367528544","0.1387354037","0.4250638914","0.3962805628","","","","","","","","","","76","L","3","","","27","main_expt","",""
"","bandit","111","540714","0.0-69.0-0.0","25158291","wem/bandit_party_2","A3SY81O9AOO903","either","5","417","","","","","","","0","0","1","0.3381264529","","0.8","0.2","0.4","0.6","","","","","0.1581712713","0.2065421522","0.3738912408","0.3381264529","","","","","","","","","","76","L","3","","","28","main_expt","",""
"","bandit","112","543758","0.0-70.0-0.0","25158291","wem/bandit_party_2","A3SY81O9AOO903","either","5","1514","","","","","","","0","0","1","0.2361440946","","0.8","0.2","0.4","0.6","","","","","0.2361440946","0.2452437498","0.411092256","0.3405446746","","","","","","","","","","72","H","0","img/none_selected.jpg","","29","main_expt","",""
"","bandit","113","545844","0.0-71.0-0.0","25158291","wem/bandit_party_2","A3SY81O9AOO903","either","5","566","","","","","","","0","0","1","","0.3076129501","0.8","0.2","0.4","0.6","0.3051502752","0.3076129501","0.306262239","0.3536414415","","","","","","","","","","","","","","74","J","1","","","30","main_expt","",""
"","bandit","114","547776","0.0-72.0-0.0","25158291","wem/bandit_party_2","A3SY81O9AOO903","either","5","397","","","","","","","0","1","0","","0.2846857217","0.8","0.2","0.4","0.6","0.3588845582","0.275744379","0.2846857217","0.3201297868","","","","","","","","","","","","","","75","K","2","","","31","main_expt","",""
"","bandit","115","549845","0.0-73.0-0.0","25158291","wem/bandit_party_2","A3SY81O9AOO903","either","5","542","","","","","","","0","0","1","","0.260797537","0.8","0.2","0.4","0.6","0.3351264969","0.1582224348","0.260797537","0.414050106","","","","","","","","","","","","","","75","K","2","","","32","main_expt","",""
"","bandit","116","551874","0.0-74.0-0.0","25158291","wem/bandit_party_2","A3SY81O9AOO903","either","5","496","","","","","","","0","0","1","","0.3108282978","0.8","0.2","0.4","0.6","0.3369799553","0.07234251762","0.3108282978","0.4846208784","","","","","","","","","","","","","","75","K","2","","","33","main_expt","",""
"","bandit","117","555335","0.0-75.0-0.0","25158291","wem/bandit_party_2","A3SY81O9AOO903","either","5","1933","","","","","","","0","0","1","0.3040676539","","0.8","0.2","0.4","0.6","","","","","0.3040676539","0.07244310326","0.3996464291","0.4250330595","","","","","","","","","","72","H","0","img/none_selected.jpg","","34","main_expt","",""
"","bandit","118","557287","0.0-76.0-0.0","25158291","wem/bandit_party_2","A3SY81O9AOO903","either","5","418","","","","","","","1","0","0","0.2974236485","","0.8","0.2","0.4","0.6","","","","","0.2974236485","0.07140094546","0.4368131495","0.499329675","","","","","","","","","","72","H","0","img/none_selected.jpg","","35","main_expt","",""
"","bandit","119","559309","0.0-77.0-0.0","25158291","wem/bandit_party_2","A3SY81O9AOO903","either","5","490","","","","","","","0","0","1","0.310238309","","0.8","0.2","0.4","0.6","","","","","0.310238309","0.08624361683","0.3396719642","0.3892953339","","","","","","","","","","72","H","0","img/none_selected.jpg","","36","main_expt","",""
"","bandit","120","561212","0.0-78.0-0.0","25158291","wem/bandit_party_2","A3SY81O9AOO903","either","5","355","","","","","","","0","0","1","","0.07543251018","0.8","0.2","0.4","0.6","0.2818719109","0.07543251018","0.4409026667","0.3680424748","","","","","","","","","","","","","","74","J","1","","","37","main_expt","",""
"","bandit","121","563287","0.0-79.0-0.0","25158291","wem/bandit_party_2","A3SY81O9AOO903","either","5","545","","","","","","","0","1","0","","0.1324785543","0.8","0.2","0.4","0.6","0.2925765749","0.1324785543","0.489392614","0.4909804269","","","","","","","","","","","","","","74","J","1","","","38","main_expt","",""
"","bandit","122","565318","0.0-80.0-0.0","25158291","wem/bandit_party_2","A3SY81O9AOO903","either","5","495","","","","","","","0","0","1","","0.1824024676","0.8","0.2","0.4","0.6","0.3033582507","0.1824024676","0.4403114744","0.5165168671","","","","","","","","","","","","","","74","J","1","","","39","main_expt","",""
"","bandit","123","567291","0.0-81.0-0.0","25158291","wem/bandit_party_2","A3SY81O9AOO903","either","5","434","","","","","","","0","0","1","","0.343221944","0.8","0.2","0.4","0.6","0.2371445562","0.09861269436","0.343221944","0.6036007873","","","","","","","","","","","","","","75","K","2","","","40","main_expt","",""
"","bandit","124","569207","0.0-82.0-0.0","25158291","wem/bandit_party_2","A3SY81O9AOO903","either","5","391","","","","","","","0","1","0","","0.450343793","0.8","0.2","0.4","0.6","0.2072661203","0.1028082326","0.450343793","0.6078828369","","","","","","","","","","","","","","75","K","2","","","41","main_expt","",""
"","bandit","125","571138","0.0-83.0-0.0","25158291","wem/bandit_party_2","A3SY81O9AOO903","either","5","401","","","","","","","1","0","0","0.4422822993","","0.8","0.2","0.4","0.6","","","","","0.1850700716","0.1326350751","0.4422822993","0.5757077757","","","","","","","","","","75","K","2","","","42","main_expt","",""
"","bandit","126","573099","0.0-84.0-0.0","25158291","wem/bandit_party_2","A3SY81O9AOO903","either","5","427","","","","","","","0","0","1","0.4755437476","","0.8","0.2","0.4","0.6","","","","","0.1700345657","0.1591685393","0.4755437476","0.504524575","","","","","","","","","","75","K","2","","","43","main_expt","",""
"","bandit","127","575174","0.0-85.0-0.0","25158291","wem/bandit_party_2","A3SY81O9AOO903","either","5","528","","","","","","","1","0","0","0.6211160782","","0.8","0.2","0.4","0.6","","","","","0.150922449","0.1558361793","0.6211160782","0.3354744533","","","","","","","","","","75","K","2","","","44","main_expt","",""
"","bandit","128","577276","0.0-86.0-0.0","25158291","wem/bandit_party_2","A3SY81O9AOO903","either","5","574","","","","","","","0","0","1","","0.5950963145","0.8","0.2","0.4","0.6","0.08792573626","0.08224127908","0.5950963145","0.2259933845","","","","","","","","","","","","","","75","K","2","","","45","main_expt","",""
"","bandit","129","579267","0.0-87.0-0.0","25158291","wem/bandit_party_2","A3SY81O9AOO903","either","5","456","","","","","","","0","0","1","","0.600883672","0.8","0.2","0.4","0.6","0.05210962111","0.05681632526","0.600883672","0.1991815266","","","","","","","","","","","","","","75","K","2","","","46","main_expt","",""
"","bandit","130","581250","0.0-88.0-0.0","25158291","wem/bandit_party_2","A3SY81O9AOO903","either","5","456","","","","","","","0","0","1","0.1821259253","","0.8","0.2","0.4","0.6","","","","","0.1658512007","0.02046531905","0.6018426621","0.1821259253","","","","","","","","","","76","L","3","","","47","main_expt","",""
"","bandit","131","583183","0.0-89.0-0.0","25158291","wem/bandit_party_2","A3SY81O9AOO903","either","5","384","","","","","","","0","0","1","","0.1850219792","0.8","0.2","0.4","0.6","0.2171730843","0.02793369594","0.6719149388","0.1850219792","","","","","","","","","","","","","","76","L","3","","","48","main_expt","",""
"","bandit","132","585113","0.0-90.0-0.0","25158291","wem/bandit_party_2","A3SY81O9AOO903","either","5","401","","","","","","","0","0","1","","0.2843491098","0.8","0.2","0.4","0.6","0.2545874694","0.01520235592","0.5824093935","0.2843491098","","","","","","","","","","","","","","76","L","3","","","49","main_expt","",""
"","bandit","133","587768","0.0-91.0-0.0","25158291","wem/bandit_party_2","A3SY81O9AOO903","either","5","1127","","","","","","","0","0","1","0.1971443839","","0.8","0.2","0.4","0.6","","","","","0.1971443839","0.008868670712","0.5697547833","0.2385085868","","","","","","","","","","72","H","0","img/none_selected.jpg","","50","main_expt","",""
"","bandit","134","591789","0.0-92.0-0.0","25158291","wem/bandit_party_2","A3SY81O9AOO903","either","5","2486","","","","","","","0","0","1","","0.004668439046","0.8","0.2","0.4","0.6","0.1743954459","0.004668439046","0.5875551098","0.2762119933","","","","","","","","","","","","","","74","J","1","","","51","main_expt","",""
"","bandit","135","595944","0.0-93.0-0.0","25158291","wem/bandit_party_2","A3SY81O9AOO903","either","5","2626","","","","","","","0","0","1","","0.003090075005","0.8","0.2","0.4","0.6","0.1007451992","0.003090075005","0.691822337","0.2350807626","","","","","","","","","","","","","","74","J","1","","","52","main_expt","",""
"","bandit","136","598384","0.0-94.0-0.0","25158291","wem/bandit_party_2","A3SY81O9AOO903","either","5","903","","","","","","","0","0","1","0.003474758773","","0.8","0.2","0.4","0.6","","","","","0.1648918076","0.003474758773","0.7363191169","0.2301492847","","","","","","","","","","74","J","1","","","53","main_expt","",""
"","bandit","137","600317","0.0-95.0-0.0","25158291","wem/bandit_party_2","A3SY81O9AOO903","either","5","397","","","","","","","0","0","1","","0.1761014763","0.8","0.2","0.4","0.6","0.1761014763","0.003279238457","0.7639548597","0.2779325162","","","","","","","","","","","","","","72","H","0","img/none_selected.jpg","","54","main_expt","",""
"","bandit","138","604727","0.0-96.0-0.0","25158291","wem/bandit_party_2","A3SY81O9AOO903","either","5","2894","","","","","","","0","0","1","","0.7264154962","0.8","0.2","0.4","0.6","0.1460392243","0.001847339967","0.7264154962","0.2882189161","","","","","","","","","","","","","","75","K","2","","","55","main_expt","",""
"","bandit","139","606568","0.0-97.0-0.0","25158291","wem/bandit_party_2","A3SY81O9AOO903","either","5","321","","","","","","","1","0","0","0.7511403137","","0.8","0.2","0.4","0.6","","","","","0.1882527018","0.001186331615","0.7511403137","0.2646822794","","","","","","","","","","75","K","2","","","56","main_expt","",""
"","bandit","140","608435","0.0-98.0-0.0","25158291","wem/bandit_party_2","A3SY81O9AOO903","either","5","327","","","","","","","0","0","1","","0.6292194553","0.8","0.2","0.4","0.6","0.1836596221","0.001917609755","0.6292194553","0.3080117871","","","","","","","","","","","","","","75","K","2","","","57","main_expt","",""
"","bandit","141","610367","0.0-99.0-0.0","25158291","wem/bandit_party_2","A3SY81O9AOO903","either","5","396","","","","","","","0","0","1","","0.2609020091","0.8","0.2","0.4","0.6","0.2259562874","0.004115025419","0.5622591622","0.2609020091","","","","","","","","","","","","","","76","L","3","","","58","main_expt","",""
"","bandit","142","612303","0.0-100.0-0.0","25158291","wem/bandit_party_2","A3SY81O9AOO903","either","5","397","","","","","","","0","0","1","","0.3014652953","0.8","0.2","0.4","0.6","0.1673227733","0.007083433589","0.6394190939","0.3014652953","","","","","","","","","","","","","","76","L","3","","","59","main_expt","",""
"","bandit","143","614282","0.0-101.0-0.0","25158291","wem/bandit_party_2","A3SY81O9AOO903","either","5","441","","","","","","","0","0","1","","0.2872544729","0.8","0.2","0.4","0.6","0.1404143731","0.0100473459","0.502148976","0.2872544729","","","","","","","","","","","","","","76","L","3","","","60","main_expt","",""
"","bandit","144","616172","0.0-102.0-0.0","25158291","wem/bandit_party_2","A3SY81O9AOO903","either","5","360","","","","","","","0","1","0","","0.5541662771","0.8","0.2","0.4","0.6","0.1087230511","0.02288810402","0.5541662771","0.2347068593","","","","","","","","","","","","","","75","K","2","","","61","main_expt","",""
"","bandit","145","618052","0.0-103.0-0.0","25158291","wem/bandit_party_2","A3SY81O9AOO903","either","5","330","","","","","","","0","0","1","","0.6016144889","0.8","0.2","0.4","0.6","0.1173770395","0.04890713094","0.6016144889","0.1786743828","","","","","","","","","","","","","","75","K","2","","","62","main_expt","",""
"","bandit","146","619934","0.0-104.0-0.0","25158291","wem/bandit_party_2","A3SY81O9AOO903","either","5","355","","","","","","","0","1","0","","0.6306423252","0.8","0.2","0.4","0.6","0.1173961002","0.06015841579","0.6306423252","0.1627017484","","","","","","","","","","","","","","75","K","2","","","63","main_expt","",""
"","bandit","147","621835","0.0-105.0-0.0","25158291","wem/bandit_party_2","A3SY81O9AOO903","either","5","374","","","","","","","0","0","1","","0.5963496952","0.8","0.2","0.4","0.6","0.1093057248","0.0697324588","0.5963496952","0.2220220934","","","","","","","","","","","","","","75","K","2","","","64","main_expt","",""
"","bandit","148","623733","0.0-106.0-0.0","25158291","wem/bandit_party_2","A3SY81O9AOO903","either","5","368","","","","","","","0","0","1","","0.5835424673","0.8","0.2","0.4","0.6","0.1437581537","0.03955641554","0.5835424673","0.1387290973","","","","","","","","","","","","","","75","K","2","","","65","main_expt","",""
"","bandit","149","627483","0.0-107.0-0.0","25158291","wem/bandit_party_2","A3SY81O9AOO903","either","5","2209","","","","","","","0","0","1","","0.04104317144","0.8","0.2","0.4","0.6","0.1321246006","0.04104317144","0.5789137396","0.1481952943","","","","","","","","","","","","","","74","J","1","","","66","main_expt","",""
"","bandit","150","629504","0.0-108.0-0.0","25158291","wem/bandit_party_2","A3SY81O9AOO903","either","5","479","","","","","","","0","0","1","","0.07749417123","0.8","0.2","0.4","0.6","0.1441415222","0.07749417123","0.6503196648","0.1354395346","","","","","","","","","","","","","","74","J","1","","","67","main_expt","",""
"","bandit","151","631987","0.0-109.0-0.0","25158291","wem/bandit_party_2","A3SY81O9AOO903","either","5","948","","","","","","","0","0","1","0.1794787892","","0.8","0.2","0.4","0.6","","","","","0.1794787892","0.1606162296","0.7295955131","0.09431815687","","","","","","","","","","72","H","0","img/none_selected.jpg","","68","main_expt","",""
"","bandit","152","633958","0.0-110.0-0.0","25158291","wem/bandit_party_2","A3SY81O9AOO903","either","5","428","","","","","","","0","0","1","0.2467892919","","0.8","0.2","0.4","0.6","","","","","0.2467892919","0.1458723802","0.7924649224","0.09491494314","","","","","","","","","","72","H","0","img/none_selected.jpg","","69","main_expt","",""
"","bandit","153","648684","0.0-111.0-0.0","25158291","wem/bandit_party_2","A3SY81O9AOO903","either","5","13203","","","","","","","1","0","0","0.7104550926","","0.8","0.2","0.4","0.6","","","","","0.2683381141","0.09936082334","0.7104550926","0.144379617","","","","","","","","","","75","K","2","","","70","main_expt","",""
"","bandit","154","650599","0.0-112.0-0.0","25158291","wem/bandit_party_2","A3SY81O9AOO903","either","5","393","","","","","","","0","1","0","","0.6350436987","0.8","0.2","0.4","0.6","0.3513633517","0.08487306657","0.6350436987","0.1522740794","","","","","","","","","","","","","","75","K","2","","","71","main_expt","",""
"","bandit","155","652513","0.0-113.0-0.0","25158291","wem/bandit_party_2","A3SY81O9AOO903","either","5","378","","","","","","","1","0","0","0.5987872161","","0.8","0.2","0.4","0.6","","","","","0.2914052368","0.08819471669","0.5987872161","0.1668466162","","","","","","","","","","75","K","2","","","72","main_expt","",""
"","bandit","156","654458","0.0-114.0-0.0","25158291","wem/bandit_party_2","A3SY81O9AOO903","either","5","432","","","","","","","0","0","1","","0.5985066563","0.8","0.2","0.4","0.6","0.2877488323","0.1283432424","0.5985066563","0.1896474075","","","","","","","","","","","","","","75","K","2","","","73","main_expt","",""
"","bandit","157","656433","0.0-115.0-0.0","25158291","wem/bandit_party_2","A3SY81O9AOO903","either","5","460","","","","","","","1","0","0","0.6384302553","","0.8","0.2","0.4","0.6","","","","","0.2562899571","0.09379917772","0.6384302553","0.2374421278","","","","","","","","","","75","K","2","","","74","main_expt","",""
"","bandit","158","658374","0.0-116.0-0.0","25158291","wem/bandit_party_2","A3SY81O9AOO903","either","5","405","","","","","","","0","0","1","0.5658832615","","0.8","0.2","0.4","0.6","","","","","0.2733605005","0.09049970266","0.5658832615","0.2083661751","","","","","","","","","","75","K","2","","","75","main_expt","",""
"","bandit","159","660279","0.0-117.0-0.0","25158291","wem/bandit_party_2","A3SY81O9AOO903","either","5","368","","","","","","","0","0","1","","0.6242699585","0.8","0.2","0.4","0.6","0.3937912108","0.08721668036","0.6242699585","0.2438220339","","","","","","","","","","","","","","75","K","2","","","76","main_expt","",""
"","bandit","160","662387","0.0-118.0-0.0","25158291","wem/bandit_party_2","A3SY81O9AOO903","either","5","580","","","","","","","0","0","1","0.5744400186","","0.8","0.2","0.4","0.6","","","","","0.2317864895","0.06435523183","0.5744400186","0.2688374605","","","","","","","","","","75","K","2","","","77","main_expt","",""
"","bandit","161","666129","0.0-119.0-0.0","25158291","wem/bandit_party_2","A3SY81O9AOO903","either","5","2210","","","","","","","0","0","1","0.354885782","","0.8","0.2","0.4","0.6","","","","","0.1809738678","0.0482567949","0.5888420407","0.354885782","","","","","","","","","","76","L","3","","","78","main_expt","",""
"","bandit","162","668065","0.0-120.0-0.0","25158291","wem/bandit_party_2","A3SY81O9AOO903","either","5","397","","","","","","","1","0","0","0.3618930149","","0.8","0.2","0.4","0.6","","","","","0.1139783564","0.0437210955","0.6367332082","0.3618930149","","","","","","","","","","76","L","3","","","79","main_expt","",""
"","bandit","163","670047","0.0-121.0-0.0","25158291","wem/bandit_party_2","A3SY81O9AOO903","either","5","437","","","","","","","0","0","1","0.2656346555","","0.8","0.2","0.4","0.6","","","","","0.08785846653","0.02877808334","0.6870764151","0.2656346555","","","","","","","","","","76","L","3","","","80","main_expt","",""
"","bandit","164","672226","0.0-122.0-0.0","25158291","wem/bandit_party_2","A3SY81O9AOO903","either","5","649","","","","","","","1","0","0","0.4245431589","","0.8","0.2","0.4","0.6","","","","","0.09113866108","0.01921293631","0.594282643","0.4245431589","","","","","","","","","","76","L","3","","","81","main_expt","",""
"","bandit","165","674193","0.0-123.0-0.0","25158291","wem/bandit_party_2","A3SY81O9AOO903","either","5","430","","","","","","","0","0","1","0.4469352605","","0.8","0.2","0.4","0.6","","","","","0.1055231707","0.04933803159","0.6134463007","0.4469352605","","","","","","","","","","76","L","3","","","82","main_expt","",""
"","bandit","166","676190","0.0-124.0-0.0","25158291","wem/bandit_party_2","A3SY81O9AOO903","either","5","461","","","","","","","0","1","0","","0.573719985","0.8","0.2","0.4","0.6","0.09865920741","0.03134335394","0.573719985","0.4492602846","","","","","","","","","","","","","","75","K","2","","","83","main_expt","",""
"","bandit","167","678201","0.0-125.0-0.0","25158291","wem/bandit_party_2","A3SY81O9AOO903","either","5","456","","","","","","","0","0","1","","0.5666188995","0.8","0.2","0.4","0.6","0.06745845416","0.08181594064","0.5666188995","0.4800113203","","","","","","","","","","","","","","75","K","2","","","84","main_expt","",""
"","bandit","168","680137","0.0-126.0-0.0","25158291","wem/bandit_party_2","A3SY81O9AOO903","either","5","404","","","","","","","1","0","0","0.53417275","","0.8","0.2","0.4","0.6","","","","","0.05723787215","0.09326949564","0.5161506384","0.53417275","","","","","","","","","","76","L","3","","","85","main_expt","",""
"","bandit","169","682054","0.0-127.0-0.0","25158291","wem/bandit_party_2","A3SY81O9AOO903","either","5","380","","","","","","","0","0","1","","0.4431594274","0.8","0.2","0.4","0.6","0.04283717318","0.1365856799","0.4408304524","0.4431594274","","","","","","","","","","","","","","76","L","3","","","86","main_expt","",""
"","bandit","170","683978","0.0-128.0-0.0","25158291","wem/bandit_party_2","A3SY81O9AOO903","either","5","378","","","","","","","0","0","1","","0.4926691315","0.8","0.2","0.4","0.6","0.04801612347","0.1845868617","0.4926691315","0.4135642243","","","","","","","","","","","","","","75","K","2","","","87","main_expt","",""
"","bandit","171","686097","0.0-129.0-0.0","25158291","wem/bandit_party_2","A3SY81O9AOO903","either","5","577","","","","","","","0","0","1","","0.6047228172","0.8","0.2","0.4","0.6","0.1154775412","0.2304222619","0.6047228172","0.4785462387","","","","","","","","","","","","","","75","K","2","","","88","main_expt","",""
"","bandit","172","688035","0.0-130.0-0.0","25158291","wem/bandit_party_2","A3SY81O9AOO903","either","5","404","","","","","","","0","0","1","0.6395163219","","0.8","0.2","0.4","0.6","","","","","0.1308375778","0.1408060154","0.5311406509","0.6395163219","","","","","","","","","","76","L","3","","","89","main_expt","",""
"","bandit","173","690679","0.0-131.0-0.0","25158291","wem/bandit_party_2","A3SY81O9AOO903","either","5","1074","","","","","","","0","0","1","0.6143207643","","0.8","0.2","0.4","0.6","","","","","0.07282967421","0.1870966622","0.6262376813","0.6143207643","","","","","","","","","","76","L","3","","","90","main_expt","",""
"","bandit","174","692567","0.0-132.0-0.0","25158291","wem/bandit_party_2","A3SY81O9AOO903","either","5","354","","","","","","","0","0","1","0.192698437","","0.8","0.2","0.4","0.6","","","","","0.07599207753","0.192698437","0.690423555","0.446485487","","","","","","","","","","74","J","1","","","91","main_expt","",""
"","bandit","175","694591","0.0-133.0-0.0","25158291","wem/bandit_party_2","A3SY81O9AOO903","either","5","488","","","","","","","0","0","1","","0.1683480261","0.8","0.2","0.4","0.6","0.04323911508","0.1683480261","0.6517149298","0.5169677416","","","","","","","","","","","","","","74","J","1","","","92","main_expt","",""
"","bandit","176","696546","0.0-134.0-0.0","25158291","wem/bandit_party_2","A3SY81O9AOO903","either","5","425","","","","","","","0","0","1","","0.1330499919","0.8","0.2","0.4","0.6","0.04253576945","0.1330499919","0.5656193004","0.4242737166","","","","","","","","","","","","","","74","J","1","","","93","main_expt","",""
"","bandit","177","699664","0.0-135.0-0.0","25158291","wem/bandit_party_2","A3SY81O9AOO903","either","5","1561","","","","","","","0","1","0","","0.04534385772","0.8","0.2","0.4","0.6","0.04534385772","0.1880917327","0.4344563295","0.3479993201","","","","","","","","","","","","","","72","H","0","img/none_selected.jpg","","94","main_expt","",""
"","bandit","178","701677","0.0-136.0-0.0","25158291","wem/bandit_party_2","A3SY81O9AOO903","either","5","477","","","","","","","0","0","1","0.03318992591","","0.8","0.2","0.4","0.6","","","","","0.03318992591","0.1867575465","0.5651083109","0.3701135783","","","","","","","","","","72","H","0","img/none_selected.jpg","","95","main_expt","",""
"","bandit","179","703755","0.0-137.0-0.0","25158291","wem/bandit_party_2","A3SY81O9AOO903","either","5","553","","","","","","","0","0","1","0.03408771876","","0.8","0.2","0.4","0.6","","","","","0.03408771876","0.2231999883","0.5348041914","0.3430407586","","","","","","","","","","72","H","0","img/none_selected.jpg","","96","main_expt","",""
"","bandit","180","705731","0.0-138.0-0.0","25158291","wem/bandit_party_2","A3SY81O9AOO903","either","5","446","","","","","","","0","1","0","","0.5627844697","0.8","0.2","0.4","0.6","0.05013144164","0.2149045243","0.5627844697","0.2876443713","","","","","","","","","","","","","","75","K","2","","","97","main_expt","",""
"","bandit","181","707580","0.0-139.0-0.0","25158291","wem/bandit_party_2","A3SY81O9AOO903","either","5","318","","","","","","","0","1","0","","0.6177525637","0.8","0.2","0.4","0.6","0.03739082544","0.1963416079","0.6177525637","0.3310412313","","","","","","","","","","","","","","75","K","2","","","98","main_expt","",""
"","bandit","182","709553","0.0-140.0-0.0","25158291","wem/bandit_party_2","A3SY81O9AOO903","either","5","427","","","","","","","0","1","0","","0.7429557604","0.8","0.2","0.4","0.6","0.1018336486","0.1659387142","0.7429557604","0.3893078888","","","","","","","","","","","","","","75","K","2","","","99","main_expt","",""
"","bandit","183","711464","0.0-141.0-0.0","25158291","wem/bandit_party_2","A3SY81O9AOO903","either","5","361","","","","","","","1","0","0","0.6717563967","","0.8","0.2","0.4","0.6","","","","","0.1398961818","0.145948344","0.6717563967","0.4049224607","","","","","","","","","","75","K","2","","","100","main_expt","",""
"","bandit","184","713400","0.0-142.0-0.0","25158291","wem/bandit_party_2","A3SY81O9AOO903","either","5","406","","","","","","","0","1","0","","0.6929666651","0.8","0.2","0.4","0.6","0.1830356504","0.1366695263","0.6929666651","0.3259939159","","","","","","","","","","","","","","75","K","2","","","101","main_expt","",""
"","bandit","185","715327","0.0-143.0-0.0","25158291","wem/bandit_party_2","A3SY81O9AOO903","either","5","389","","","","","","","1","0","0","0.6827494989","","0.8","0.2","0.4","0.6","","","","","0.1396005595","0.1543059156","0.6827494989","0.3598161211","","","","","","","","","","75","K","2","","","102","main_expt","",""
"","bandit","186","717401","0.0-144.0-0.0","25158291","wem/bandit_party_2","A3SY81O9AOO903","either","5","543","","","","","","","1","0","0","0.7315485361","","0.8","0.2","0.4","0.6","","","","","0.0853830874","0.1484193465","0.7315485361","0.3385951472","","","","","","","","","","75","K","2","","","103","main_expt","",""
"","bandit","187","719320","0.0-145.0-0.0","25158291","wem/bandit_party_2","A3SY81O9AOO903","either","5","382","","","","","","","1","0","0","0.6852971926","","0.8","0.2","0.4","0.6","","","","","0.09317924201","0.1516288854","0.6852971926","0.4881545817","","","","","","","","","","75","K","2","","","104","main_expt","",""
"","bandit","188","721269","0.0-146.0-0.0","25158291","wem/bandit_party_2","A3SY81O9AOO903","either","5","421","","","","","","","0","1","0","","0.693594393","0.8","0.2","0.4","0.6","0.08203708102","0.1283123627","0.693594393","0.4790883063","","","","","","","","","","","","","","75","K","2","","","105","main_expt","",""
"","bandit","189","723208","0.0-147.0-0.0","25158291","wem/bandit_party_2","A3SY81O9AOO903","either","5","400","","","","","","","1","0","0","0.6101065231","","0.8","0.2","0.4","0.6","","","","","0.07160056992","0.2016068708","0.6101065231","0.4354998123","","","","","","","","","","75","K","2","","","106","main_expt","",""
"","bandit","190","725117","0.0-148.0-0.0","25158291","wem/bandit_party_2","A3SY81O9AOO903","either","5","371","","","","","","","1","0","0","0.5549317608","","0.8","0.2","0.4","0.6","","","","","0.09799112372","0.2344181992","0.5549317608","0.4789065637","","","","","","","","","","75","K","2","","","107","main_expt","",""
"","bandit","191","727044","0.0-149.0-0.0","25158291","wem/bandit_party_2","A3SY81O9AOO903","either","5","384","","","","","","","0","0","1","","0.5753690117","0.8","0.2","0.4","0.6","0.1101799882","0.2234564856","0.5753690117","0.2921896665","","","","","","","","","","","","","","75","K","2","","","108","main_expt","",""
"","bandit","192","729107","0.0-150.0-0.0","25158291","wem/bandit_party_2","A3SY81O9AOO903","either","5","526","","","","","","","0","0","1","","0.3545905428","0.8","0.2","0.4","0.6","0.07189968831","0.2494485671","0.5748544728","0.3545905428","","","","","","","","","","","","","","76","L","3","","","109","main_expt","",""
"","bandit","193","731182","0.0-151.0-0.0","25158291","wem/bandit_party_2","A3SY81O9AOO903","either","5","519","","","","","","","0","0","1","0.3110769573","","0.8","0.2","0.4","0.6","","","","","0.06101418375","0.2804015825","0.6473038793","0.3110769573","","","","","","","","","","76","L","3","","","110","main_expt","",""
"","bandit","194","733149","0.0-152.0-0.0","25158291","wem/bandit_party_2","A3SY81O9AOO903","either","5","431","","","","","","","0","1","0","","0.3673577619","0.8","0.2","0.4","0.6","0.1032726654","0.254644275","0.6296147118","0.3673577619","","","","","","","","","","","","","","76","L","3","","","111","main_expt","",""
"","bandit","195","735104","0.0-153.0-0.0","25158291","wem/bandit_party_2","A3SY81O9AOO903","either","5","415","","","","","","","1","0","0","0.3439961468","","0.8","0.2","0.4","0.6","","","","","0.1061240248","0.2686709136","0.6174722021","0.3439961468","","","","","","","","","","76","L","3","","","112","main_expt","",""
"","bandit","196","736963","0.0-154.0-0.0","25158291","wem/bandit_party_2","A3SY81O9AOO903","either","5","319","","","","","","","0","0","1","","0.3389202036","0.8","0.2","0.4","0.6","0.1150632514","0.3211503982","0.7467975424","0.3389202036","","","","","","","","","","","","","","76","L","3","","","113","main_expt","",""
"","bandit","197","738862","0.0-155.0-0.0","25158291","wem/bandit_party_2","A3SY81O9AOO903","either","5","354","","","","","","","0","1","0","","0.7797220863","0.8","0.2","0.4","0.6","0.1491479201","0.3067152309","0.7797220863","0.3122185675","","","","","","","","","","","","","","75","K","2","","","114","main_expt","",""
"","bandit","198","740761","0.0-156.0-0.0","25158291","wem/bandit_party_2","A3SY81O9AOO903","either","5","378","","","","","","","1","0","0","0.8152411921","","0.8","0.2","0.4","0.6","","","","","0.08304421353","0.3274584286","0.8152411921","0.2431064996","","","","","","","","","","75","K","2","","","115","main_expt","",""
"","bandit","199","742835","0.0-157.0-0.0","25158291","wem/bandit_party_2","A3SY81O9AOO903","either","5","537","","","","","","","0","0","1","0.7362727539","","0.8","0.2","0.4","0.6","","","","","0.1391191417","0.2491959293","0.7362727539","0.2225404561","","","","","","","","","","75","K","2","","","116","main_expt","",""
"","bandit","200","745381","0.0-158.0-0.0","25158291","wem/bandit_party_2","A3SY81O9AOO903","either","5","1019","","","","","","","0","0","1","","0.1425156065","0.8","0.2","0.4","0.6","0.1689833708","0.1425156065","0.7051771602","0.2891792411","","","","","","","","","","","","","","74","J","1","","","117","main_expt","",""
"","bandit","201","747369","0.0-159.0-0.0","25158291","wem/bandit_party_2","A3SY81O9AOO903","either","5","462","","","","","","","0","0","1","","0.1550025764","0.8","0.2","0.4","0.6","0.1341186766","0.1550025764","0.7099604309","0.3147139712","","","","","","","","","","","","","","74","J","1","","","118","main_expt","",""
"","bandit","202","749247","0.0-160.0-0.0","25158291","wem/bandit_party_2","A3SY81O9AOO903","either","5","339","","","","","","","0","0","1","0.1211065448","","0.8","0.2","0.4","0.6","","","","","0.1211065448","0.1733664784","0.6633752461","0.4890071061","","","","","","","","","","72","H","0","img/none_selected.jpg","","119","main_expt","",""
"","bandit","203","751190","0.0-161.0-0.0","25158291","wem/bandit_party_2","A3SY81O9AOO903","either","5","410","","","","","","","0","0","1","0.1317257861","","0.8","0.2","0.4","0.6","","","","","0.1317257861","0.2091577514","0.6748815414","0.5238994176","","","","","","","","","","72","H","0","img/none_selected.jpg","","120","main_expt","",""
"","bandit","204","753146","0.0-162.0-0.0","25158291","wem/bandit_party_2","A3SY81O9AOO903","either","5","427","","","","","","","0","1","0","","0.694041989","0.8","0.2","0.4","0.6","0.08851148741","0.2038206067","0.694041989","0.4821854017","","","","","","","","","","","","","","75","K","2","","","121","main_expt","",""
"","bandit","205","755039","0.0-163.0-0.0","25158291","wem/bandit_party_2","A3SY81O9AOO903","either","5","350","","","","","","","0","0","1","0.7808088803","","0.8","0.2","0.4","0.6","","","","","0.1313095228","0.1646827865","0.7808088803","0.5695824443","","","","","","","","","","75","K","2","","","122","main_expt","",""
"","bandit","206","756952","0.0-164.0-0.0","25158291","wem/bandit_party_2","A3SY81O9AOO903","either","5","391","","","","","","","0","1","0","","0.7513243775","0.8","0.2","0.4","0.6","0.1990721176","0.08951947698","0.7513243775","0.5884468641","","","","","","","","","","","","","","75","K","2","","","123","main_expt","",""
"","bandit","207","758891","0.0-165.0-0.0","25158291","wem/bandit_party_2","A3SY81O9AOO903","either","5","388","","","","","","","0","1","0","","0.7095593687","0.8","0.2","0.4","0.6","0.3510587203","0.09676311751","0.7095593687","0.6578864121","","","","","","","","","","","","","","75","K","2","","","124","main_expt","",""
"","bandit","208","760725","0.0-166.0-0.0","25158291","wem/bandit_party_2","A3SY81O9AOO903","either","5","307","","","","","","","0","1","0","","0.6464373278","0.8","0.2","0.4","0.6","0.2829787335","0.08914634913","0.6464373278","0.6610648035","","","","","","","","","","","","","","75","K","2","","","125","main_expt","",""
"","bandit","209","762534","0.0-167.0-0.0","25158291","wem/bandit_party_2","A3SY81O9AOO903","either","5","278","","","","","","","0","0","1","","0.69855693","0.8","0.2","0.4","0.6","0.3253732313","0.1104844084","0.69855693","0.6745370829","","","","","","","","","","","","","","75","K","2","","","126","main_expt","",""
"","bandit","210","764168","0.0-168.0-0.0","25158291","wem/bandit_party_2","A3SY81O9AOO903","either","5","97","","","","","","","1","0","0","0.6357656308","","0.8","0.2","0.4","0.6","","","","","0.2969307539","0.1302598269","0.6394960802","0.6357656308","","","","","","","","","","76","L","3","","","127","main_expt","",""
"","bandit","211","766054","0.0-169.0-0.0","25158291","wem/bandit_party_2","A3SY81O9AOO903","either","5","340","","","","","","","0","1","0","","0.6746479632","0.8","0.2","0.4","0.6","0.3862322559","0.1739983423","0.5912569563","0.6746479632","","","","","","","","","","","","","","76","L","3","","","128","main_expt","",""
"","bandit","212","767900","0.0-170.0-0.0","25158291","wem/bandit_party_2","A3SY81O9AOO903","either","5","313","","","","","","","0","1","0","","0.609360971","0.8","0.2","0.4","0.6","0.3399993615","0.2144078185","0.6408154383","0.609360971","","","","","","","","","","","","","","76","L","3","","","129","main_expt","",""
"","bandit","213","769787","0.0-171.0-0.0","25158291","wem/bandit_party_2","A3SY81O9AOO903","either","5","346","","","","","","","1","0","0","0.5791775941","","0.8","0.2","0.4","0.6","","","","","0.4343217783","0.2133227205","0.6160079471","0.5791775941","","","","","","","","","","76","L","3","","","130","main_expt","",""
"","bandit","214","772182","0.0-172.0-0.0","25158291","wem/bandit_party_2","A3SY81O9AOO903","either","5","871","","","","","","","1","0","0","0.6039133906","","0.8","0.2","0.4","0.6","","","","","0.4116870082","0.3009586135","0.6639311205","0.6039133906","","","","","","","","","","76","L","3","","","131","main_expt","",""
"","bandit","215","774244","0.0-173.0-0.0","25158291","wem/bandit_party_2","A3SY81O9AOO903","either","5","524","","","","","","","1","0","0","0.5564977279","","0.8","0.2","0.4","0.6","","","","","0.3235444519","0.3257006372","0.7314418876","0.5564977279","","","","","","","","","","76","L","3","","","132","main_expt","",""
"","bandit","216","776158","0.0-174.0-0.0","25158291","wem/bandit_party_2","A3SY81O9AOO903","either","5","375","","","","","","","1","0","0","0.5453182718","","0.8","0.2","0.4","0.6","","","","","0.4204005917","0.3286432436","0.7343064015","0.5453182718","","","","","","","","","","76","L","3","","","133","main_expt","",""
"","bandit","217","778051","0.0-175.0-0.0","25158291","wem/bandit_party_2","A3SY81O9AOO903","either","5","345","","","","","","","1","0","0","0.5557967555","","0.8","0.2","0.4","0.6","","","","","0.5326734174","0.3343575241","0.6345074403","0.5557967555","","","","","","","","","","76","L","3","","","134","main_expt","",""
"","bandit","218","779953","0.0-176.0-0.0","25158291","wem/bandit_party_2","A3SY81O9AOO903","either","5","351","","","","","","","0","0","1","0.5719827955","","0.8","0.2","0.4","0.6","","","","","0.6096825818","0.2917270645","0.752921597","0.5719827955","","","","","","","","","","76","L","3","","","135","main_expt","",""
"","bandit","219","781852","0.0-177.0-0.0","25158291","wem/bandit_party_2","A3SY81O9AOO903","either","5","372","","","","","","","0","0","1","","0.4756276611","0.8","0.2","0.4","0.6","0.6827328332","0.3972485531","0.7642539739","0.4756276611","","","","","","","","","","","","","","76","L","3","","","136","main_expt","",""
"","bandit","220","783754","0.0-178.0-0.0","25158291","wem/bandit_party_2","A3SY81O9AOO903","either","5","354","","","","","","","0","0","1","","0.7166238274","0.8","0.2","0.4","0.6","0.6604068036","0.4294090248","0.7166238274","0.5078949877","","","","","","","","","","","","","","75","K","2","","","137","main_expt","",""
"","bandit","221","785665","0.0-179.0-0.0","25158291","wem/bandit_party_2","A3SY81O9AOO903","either","5","355","","","","","","","1","0","0","0.713549589","","0.8","0.2","0.4","0.6","","","","","0.653661868","0.5009988565","0.713549589","0.4938131475","","","","","","","","","","75","K","2","","","138","main_expt","",""
"","bandit","222","787672","0.0-180.0-0.0","25158291","wem/bandit_party_2","A3SY81O9AOO903","either","5","470","","","","","","","1","0","0","0.6905374229","","0.8","0.2","0.4","0.6","","","","","0.6169918179","0.4993746949","0.6905374229","0.654612375","","","","","","","","","","75","K","2","","","139","main_expt","",""
"","bandit","223","789701","0.0-181.0-0.0","25158291","wem/bandit_party_2","A3SY81O9AOO903","either","5","502","","","","","","","0","1","0","","0.6614813372","0.8","0.2","0.4","0.6","0.6657435074","0.5448973659","0.6614813372","0.52663091","","","","","","","","","","","","","","75","K","2","","","140","main_expt","",""
"","bandit","224","791688","0.0-182.0-0.0","25158291","wem/bandit_party_2","A3SY81O9AOO903","either","5","468","","","","","","","0","0","1","","0.7024355817","0.8","0.2","0.4","0.6","0.6349341703","0.4829720837","0.7024355817","0.5976356642","","","","","","","","","","","","","","75","K","2","","","141","main_expt","",""
"","bandit","225","794299","0.0-183.0-0.0","25158291","wem/bandit_party_2","A3SY81O9AOO903","either","5","1088","","","","","","","0","0","1","0.5402580016","","0.8","0.2","0.4","0.6","","","","","0.6379356982","0.5402580016","0.7185929435","0.5956183516","","","","","","","","","","74","J","1","","","142","main_expt","",""
"","bandit","226","796313","0.0-184.0-0.0","25158291","wem/bandit_party_2","A3SY81O9AOO903","either","5","464","","","","","","","0","1","0","","0.5478015274","0.8","0.2","0.4","0.6","0.6022688156","0.5478015274","0.6240660549","0.6432894639","","","","","","","","","","","","","","74","J","1","","","143","main_expt","",""
"","bandit","227","798414","0.0-185.0-0.0","25158291","wem/bandit_party_2","A3SY81O9AOO903","either","5","555","","","","","","","0","1","0","","0.5189832842","0.8","0.2","0.4","0.6","0.5806731621","0.5189832842","0.5797935966","0.6691106198","","","","","","","","","","","","","","74","J","1","","","144","main_expt","",""
"","bandit","228","800392","0.0-186.0-0.0","25158291","wem/bandit_party_2","A3SY81O9AOO903","either","5","441","","","","","","","0","0","1","","0.4556604905","0.8","0.2","0.4","0.6","0.5512406412","0.4556604905","0.520403766","0.677031803","","","","","","","","","","","","","","74","J","1","","","145","main_expt","",""
"","bandit","229","802935","0.0-187.0-0.0","25158291","wem/bandit_party_2","A3SY81O9AOO903","either","5","1000","","","","","","","0","0","1","","0.48011385","0.8","0.2","0.4","0.6","0.6055708535","0.48011385","0.5330345992","0.6697886415","","","","","","","","","","","","","","74","J","1","","","146","main_expt","",""
"","bandit","230","804813","0.0-188.0-0.0","25158291","wem/bandit_party_2","A3SY81O9AOO903","either","5","342","","","","","","","0","0","1","0.5711328773","","0.8","0.2","0.4","0.6","","","","","0.5711328773","0.5363471167","0.5692896821","0.7101623398","","","","","","","","","","72","H","0","img/none_selected.jpg","","147","main_expt","",""
"","bandit","231","806762","0.0-189.0-0.0","25158291","wem/bandit_party_2","A3SY81O9AOO903","either","5","411","","","","","","","0","0","1","0.4258462921","","0.8","0.2","0.4","0.6","","","","","0.4258462921","0.4929714004","0.4877368026","0.733230793","","","","","","","","","","72","H","0","img/none_selected.jpg","","148","main_expt","",""
"","bandit","232","812474","0.0-190.0-0.0","25158291","wem/bandit_party_2","A3SY81O9AOO903","either","5","4177","","","","","","","1","0","0","0.5936336812","","0.8","0.2","0.4","0.6","","","","","0.327967402","0.4356177925","0.5936336812","0.7010449773","","","","","","","","","","75","K","2","","","149","main_expt","",""
"","bandit","233","814348","0.0-191.0-0.0","25158291","wem/bandit_party_2","A3SY81O9AOO903","either","5","332","","","","","","","0","1","0","","0.7027445866","0.8","0.2","0.4","0.6","0.4343474627","0.4054894896","0.7027445866","0.6668672445","","","","","","","","","","","","","","75","K","2","","","150","main_expt","",""
"","bandit","234","816287","0.0-192.0-0.0","25158291","wem/bandit_party_2","A3SY81O9AOO903","either","5","412","","","","","","","0","0","1","","0.7690633033","0.8","0.2","0.4","0.6","0.5382828223","0.5283130311","0.7690633033","0.5612636021","","","","","","","","","","","","","","75","K","2","","","151","main_expt","",""
"","bandit","235","818267","0.0-193.0-0.0","25158291","wem/bandit_party_2","A3SY81O9AOO903","either","5","431","","","","","","","1","0","0","0.5989969619","","0.8","0.2","0.4","0.6","","","","","0.6572277468","0.6323123958","0.5989969619","0.7032448324","","","","","","","","","","75","K","2","","","152","main_expt","",""
"","bandit","236","820163","0.0-194.0-0.0","25158291","wem/bandit_party_2","A3SY81O9AOO903","either","5","355","","","","","","","0","0","1","0.6126787421","","0.8","0.2","0.4","0.6","","","","","0.668560183","0.5847243132","0.6126787421","0.6918543646","","","","","","","","","","75","K","2","","","153","main_expt","",""
"","bandit","237","822519","0.0-195.0-0.0","25158291","wem/bandit_party_2","A3SY81O9AOO903","either","5","805","","","","","","","1","0","0","0.647195156","","0.8","0.2","0.4","0.6","","","","","0.6954524596","0.4285456013","0.5461115941","0.647195156","","","","","","","","","","76","L","3","","","154","main_expt","",""
"","bandit","238","824418","0.0-196.0-0.0","25158291","wem/bandit_party_2","A3SY81O9AOO903","either","5","353","","","","","","","1","0","0","0.6135998722","","0.8","0.2","0.4","0.6","","","","","0.5684527538","0.4772645207","0.5456348337","0.6135998722","","","","","","","","","","76","L","3","","","155","main_expt","",""
"","bandit","239","826406","0.0-197.0-0.0","25158291","wem/bandit_party_2","A3SY81O9AOO903","either","5","436","","","","","","","1","0","0","0.5591033916","","0.8","0.2","0.4","0.6","","","","","0.6034375159","0.4982711843","0.4782917504","0.5591033916","","","","","","","","","","76","L","3","","","156","main_expt","",""
"","bandit","240","828243","0.0-198.0-0.0","25158291","wem/bandit_party_2","A3SY81O9AOO903","either","5","297","","","","","","","0","1","0","","0.5090787948","0.8","0.2","0.4","0.6","0.5835723018","0.5275183668","0.4868537485","0.5090787948","","","","","","","","","","","","","","76","L","3","","","157","main_expt","",""
"","bandit","241","830100","0.0-199.0-0.0","25158291","wem/bandit_party_2","A3SY81O9AOO903","either","5","312","","","","","","","0","1","0","","0.6087372924","0.8","0.2","0.4","0.6","0.5234712835","0.4489423754","0.5361642224","0.6087372924","","","","","","","","","","","","","","76","L","3","","","158","main_expt","",""
"","bandit","242","831938","0.0-200.0-0.0","25158291","wem/bandit_party_2","A3SY81O9AOO903","either","5","294","","","","","","","0","1","0","","0.6064578463","0.8","0.2","0.4","0.6","0.5636881177","0.4933275403","0.4947944436","0.6064578463","","","","","","","","","","","","","","76","L","3","","","159","main_expt","",""
"","bandit","243","833810","0.0-201.0-0.0","25158291","wem/bandit_party_2","A3SY81O9AOO903","either","5","320","","","","","","","1","0","0","0.6951258233","","0.8","0.2","0.4","0.6","","","","","0.4785340868","0.4521998099","0.5106889885","0.6951258233","","","","","","","","","","76","L","3","","","160","main_expt","",""
"","bandit","244","835633","0.0-202.0-0.0","25158291","wem/bandit_party_2","A3SY81O9AOO903","either","5","274","","","","","","","1","0","0","0.7129510734","","0.8","0.2","0.4","0.6","","","","","0.5038962889","0.5114636712","0.4566704777","0.7129510734","","","","","","","","","","76","L","3","","","161","main_expt","",""
"","bandit","245","837454","0.0-203.0-0.0","25158291","wem/bandit_party_2","A3SY81O9AOO903","either","5","277","","","","","","","0","1","0","","0.7028034005","0.8","0.2","0.4","0.6","0.4448395692","0.5242674757","0.3259271754","0.7028034005","","","","","","","","","","","","","","76","L","3","","","162","main_expt","",""
"","bandit","246","839158","0.0-204.0-0.0","25158291","wem/bandit_party_2","A3SY81O9AOO903","either","5","153","","","","","","","0","0","1","0.6293758899","","0.8","0.2","0.4","0.6","","","","","0.471982621","0.5687322637","0.2806734392","0.6293758899","","","","","","","","","","76","L","3","","","163","main_expt","",""
"","bandit","247","841424","0.0-205.0-0.0","25158291","wem/bandit_party_2","A3SY81O9AOO903","either","5","727","","","","","","","0","0","1","0.2973163189","","0.8","0.2","0.4","0.6","","","","","0.6517066897","0.5635146256","0.2973163189","0.6813427096","","","","","","","","","","75","K","2","","","164","main_expt","",""
"","bandit","248","843927","0.0-206.0-0.0","25158291","wem/bandit_party_2","A3SY81O9AOO903","either","5","960","","","","","","","0","0","1","0.2872552927","","0.8","0.2","0.4","0.6","","","","","0.6339143586","0.6588968294","0.2872552927","0.7231406025","","","","","","","","","","75","K","2","","","165","main_expt","",""
"","bandit","249","845828","0.0-207.0-0.0","25158291","wem/bandit_party_2","A3SY81O9AOO903","either","5","358","","","","","","","0","0","1","","0.325395791","0.8","0.2","0.4","0.6","0.6507743373","0.74872254","0.325395791","0.6274448994","","","","","","","","","","","","","","75","K","2","","","166","main_expt","",""
"","bandit","250","848607","0.0-208.0-0.0","25158291","wem/bandit_party_2","A3SY81O9AOO903","either","5","1239","","","","","","","0","1","0","","0.7741304825","0.8","0.2","0.4","0.6","0.6753437353","0.7741304825","0.3307719744","0.6778384319","","","","","","","","","","","","","","74","J","1","","","167","main_expt","",""
"","bandit","251","850542","0.0-209.0-0.0","25158291","wem/bandit_party_2","A3SY81O9AOO903","either","5","389","","","","","","","0","0","1","","0.8873722237","0.8","0.2","0.4","0.6","0.6308788189","0.8873722237","0.4033689778","0.6928942004","","","","","","","","","","","","","","74","J","1","","","168","main_expt","",""
"","bandit","252","853671","0.0-210.0-0.0","25158291","wem/bandit_party_2","A3SY81O9AOO903","either","5","1553","","","","","","","1","0","0","0.6289357746","","0.8","0.2","0.4","0.6","","","","","0.6289357746","0.8649989169","0.4089274666","0.6181376835","","","","","","","","","","72","H","0","img/none_selected.jpg","","169","main_expt","",""
"","bandit","253","855674","0.0-211.0-0.0","25158291","wem/bandit_party_2","A3SY81O9AOO903","either","5","443","","","","","","","1","0","0","0.6308829817","","0.8","0.2","0.4","0.6","","","","","0.6308829817","0.8634323334","0.4033631647","0.6539136718","","","","","","","","","","72","H","0","img/none_selected.jpg","","170","main_expt","",""
"","bandit","254","857590","0.0-212.0-0.0","25158291","wem/bandit_party_2","A3SY81O9AOO903","either","5","387","","","","","","","1","0","0","0.6008061885","","0.8","0.2","0.4","0.6","","","","","0.6008061885","0.8050812792","0.3743415885","0.7935188527","","","","","","","","","","72","H","0","img/none_selected.jpg","","171","main_expt","",""
"","bandit","255","859470","0.0-213.0-0.0","25158291","wem/bandit_party_2","A3SY81O9AOO903","either","5","330","","","","","","","0","1","0","","0.6498855282","0.8","0.2","0.4","0.6","0.6498855282","0.7635000848","0.4145867416","0.7959482017","","","","","","","","","","","","","","72","H","0","img/none_selected.jpg","","172","main_expt","",""
"","bandit","256","861473","0.0-214.0-0.0","25158291","wem/bandit_party_2","A3SY81O9AOO903","either","5","462","","","","","","","1","0","0","0.6361658802","","0.8","0.2","0.4","0.6","","","","","0.6361658802","0.7793560846","0.4421490518","0.7720377381","","","","","","","","","","72","H","0","img/none_selected.jpg","","173","main_expt","",""
"","bandit","257","863381","0.0-215.0-0.0","25158291","wem/bandit_party_2","A3SY81O9AOO903","either","5","361","","","","","","","0","0","1","0.5494915933","","0.8","0.2","0.4","0.6","","","","","0.5494915933","0.7290013271","0.373112653","0.7751150559","","","","","","","","","","72","H","0","img/none_selected.jpg","","174","main_expt","",""
"","bandit","258","865358","0.0-216.0-0.0","25158291","wem/bandit_party_2","A3SY81O9AOO903","either","5","435","","","","","","","0","0","1","","0.6292002022","0.8","0.2","0.4","0.6","0.6292002022","0.8353873757","0.372221374","0.7699246652","","","","","","","","","","","","","","72","H","0","img/none_selected.jpg","","175","main_expt","",""
"","bandit","259","867461","0.0-217.0-0.0","25158291","wem/bandit_party_2","A3SY81O9AOO903","either","5","560","","","","","","","0","0","1","0.3594456443","","0.8","0.2","0.4","0.6","","","","","0.4999600136","0.8589437223","0.3594456443","0.8092821718","","","","","","","","","","75","K","2","","","176","main_expt","",""
"","bandit","260","869490","0.0-218.0-0.0","25158291","wem/bandit_party_2","A3SY81O9AOO903","either","5","464","","","","","","","0","0","1","0.3705823864","","0.8","0.2","0.4","0.6","","","","","0.4500304274","0.8824379228","0.3705823864","0.7728258073","","","","","","","","","","75","K","2","","","177","main_expt","",""
"","bandit","261","871545","0.0-219.0-0.0","25158291","wem/bandit_party_2","A3SY81O9AOO903","either","5","528","","","","","","","0","1","0","","0.3042584581","0.8","0.2","0.4","0.6","0.4626099748","0.8862787626","0.3042584581","0.8128952128","","","","","","","","","","","","","","75","K","2","","","178","main_expt","",""
"","bandit","262","873427","0.0-220.0-0.0","25158291","wem/bandit_party_2","A3SY81O9AOO903","either","5","329","","","","","","","0","0","1","","0.3056645996","0.8","0.2","0.4","0.6","0.3074659707","0.8851661012","0.3056645996","0.7878088044","","","","","","","","","","","","","","75","K","2","","","179","main_expt","",""
"","bandit","263","875489","0.0-221.0-0.0","25158291","wem/bandit_party_2","A3SY81O9AOO903","either","5","516","","","","","","","0","0","1","","0.7626215198","0.8","0.2","0.4","0.6","0.2445312817","0.8623840347","0.3124458775","0.7626215198","","","","","","","","","","","","","","76","L","3","","","180","main_expt","",""
"","bandit","264","877403","0.0-222.0-0.0","25158291","wem/bandit_party_2","A3SY81O9AOO903","either","5","361","","","","","","","1","0","0","0.7059637017","","0.8","0.2","0.4","0.6","","","","","0.2284870313","0.8815853427","0.2597333415","0.7059637017","","","","","","","","","","76","L","3","","","181","main_expt","",""
"","bandit","265","879359","0.0-223.0-0.0","25158291","wem/bandit_party_2","A3SY81O9AOO903","either","5","421","","","","","","","0","0","1","0.6691747745","","0.8","0.2","0.4","0.6","","","","","0.2195648065","0.8955826305","0.2117009826","0.6691747745","","","","","","","","","","76","L","3","","","182","main_expt","",""
"","bandit","266","881224","0.0-224.0-0.0","25158291","wem/bandit_party_2","A3SY81O9AOO903","either","5","325","","","","","","","0","0","1","0.2327762041","","0.8","0.2","0.4","0.6","","","","","0.2327716204","0.9362873759","0.2327762041","0.5523838876","","","","","","","","","","75","K","2","","","183","main_expt","",""
"","bandit","267","883177","0.0-225.0-0.0","25158291","wem/bandit_party_2","A3SY81O9AOO903","either","5","407","","","","","","","0","1","0","","0.2750618684","0.8","0.2","0.4","0.6","0.3207903029","0.9484326647","0.2750618684","0.5451875246","","","","","","","","","","","","","","75","K","2","","","184","main_expt","",""
"","bandit","268","885140","0.0-226.0-0.0","25158291","wem/bandit_party_2","A3SY81O9AOO903","either","5","414","","","","","","","0","0","1","","0.2305846964","0.8","0.2","0.4","0.6","0.3609723674","0.9660783121","0.2305846964","0.6090771744","","","","","","","","","","","","","","75","K","2","","","185","main_expt","",""
"","bandit","269","887140","0.0-227.0-0.0","25158291","wem/bandit_party_2","A3SY81O9AOO903","either","5","448","","","","","","","0","0","1","","0.2597669424","0.8","0.2","0.4","0.6","0.4442397518","0.9665376101","0.2597669424","0.5810996076","","","","","","","","","","","","","","75","K","2","","","186","main_expt","",""
"","bandit","270","890180","0.0-228.0-0.0","25158291","wem/bandit_party_2","A3SY81O9AOO903","either","5","1492","","","","","","","0","1","0","","0.9644184371","0.8","0.2","0.4","0.6","0.4478442549","0.9644184371","0.2143742246","0.4445572548","","","","","","","","","","","","","","74","J","1","","","187","main_expt","",""
"","bandit","271","892242","0.0-229.0-0.0","25158291","wem/bandit_party_2","A3SY81O9AOO903","either","5","528","","","","","","","1","0","0","0.9731237162","","0.8","0.2","0.4","0.6","","","","","0.4026396634","0.9731237162","0.2294707647","0.4113554433","","","","","","","","","","74","J","1","","","188","main_expt","",""
"","bandit","272","894244","0.0-230.0-0.0","25158291","wem/bandit_party_2","A3SY81O9AOO903","either","5","440","","","","","","","1","0","0","0.9787475226","","0.8","0.2","0.4","0.6","","","","","0.5072589837","0.9787475226","0.2469430613","0.4053553249","","","","","","","","","","74","J","1","","","189","main_expt","",""
"","bandit","273","896115","0.0-231.0-0.0","25158291","wem/bandit_party_2","A3SY81O9AOO903","either","5","329","","","","","","","0","1","0","","0.9847816181","0.8","0.2","0.4","0.6","0.5234843415","0.9847816181","0.2437728268","0.4927633492","","","","","","","","","","","","","","74","J","1","","","190","main_expt","",""
"","bandit","274","897996","0.0-232.0-0.0","25158291","wem/bandit_party_2","A3SY81O9AOO903","either","5","320","","","","","","","0","1","0","","0.9713064587","0.8","0.2","0.4","0.6","0.5054414672","0.9713064587","0.1655579887","0.428678546","","","","","","","","","","","","","","74","J","1","","","191","main_expt","",""
"","bandit","275","899838","0.0-233.0-0.0","25158291","wem/bandit_party_2","A3SY81O9AOO903","either","5","297","","","","","","","0","1","0","","0.9558555722","0.8","0.2","0.4","0.6","0.7037613703","0.9558555722","0.1501427492","0.3358015867","","","","","","","","","","","","","","74","J","1","","","192","main_expt","",""
"","bandit","276","901512","0.0-234.0-0.0","25158291","wem/bandit_party_2","A3SY81O9AOO903","either","5","128","","","","","","","0","1","0","","0.9443800135","0.8","0.2","0.4","0.6","0.5980286963","0.9443800135","0.2062706367","0.2816430679","","","","","","","","","","","","","","74","J","1","","","193","main_expt","",""
"","bandit","277","903449","0.0-235.0-0.0","25158291","wem/bandit_party_2","A3SY81O9AOO903","either","5","396","","","","","","","0","1","0","","0.947825408","0.8","0.2","0.4","0.6","0.5607231578","0.947825408","0.2782937815","0.2951519504","","","","","","","","","","","","","","74","J","1","","","194","main_expt","",""
"","bandit","278","905306","0.0-236.0-0.0","25158291","wem/bandit_party_2","A3SY81O9AOO903","either","5","309","","","","","","","0","1","0","","0.9531013361","0.8","0.2","0.4","0.6","0.6222063369","0.9531013361","0.2393938873","0.2482291913","","","","","","","","","","","","","","74","J","1","","","195","main_expt","",""
"","bandit","279","907210","0.0-237.0-0.0","25158291","wem/bandit_party_2","A3SY81O9AOO903","either","5","359","","","","","","","1","0","0","0.9653581558","","0.8","0.2","0.4","0.6","","","","","0.7092042058","0.9653581558","0.3385483064","0.2548661126","","","","","","","","","","74","J","1","","","196","main_expt","",""
"","bandit","280","908773","0.0-238.0-0.0","25158291","wem/bandit_party_2","A3SY81O9AOO903","either","5","13","","","","","","","1","0","0","0.9774234012","","0.8","0.2","0.4","0.6","","","","","0.7397780251","0.9774234012","0.3474357388","0.2789697966","","","","","","","","","","74","J","1","","","197","main_expt","",""
"","bandit","281","910683","0.0-239.0-0.0","25158291","wem/bandit_party_2","A3SY81O9AOO903","either","5","348","","","","","","","1","0","0","0.9866112083","","0.8","0.2","0.4","0.6","","","","","0.6977166648","0.9866112083","0.4511600961","0.2893473624","","","","","","","","","","74","J","1","","","198","main_expt","",""
"","bandit","282","912670","0.0-240.0-0.0","25158291","wem/bandit_party_2","A3SY81O9AOO903","either","5","456","","","","","","","0","1","0","","0.9889390623","0.8","0.2","0.4","0.6","0.591703898","0.9889390623","0.4387406867","0.2499124536","","","","","","","","","","","","","","74","J","1","","","199","main_expt","",""
"","bandit","283","914534","0.0-241.0-0.0","25158291","wem/bandit_party_2","A3SY81O9AOO903","either","5","332","","","","","","","0","1","0","","0.9894921125","0.8","0.2","0.4","0.6","0.5107967375","0.9894921125","0.4368135332","0.2643429758","","","","","","","","","","","","","","74","J","1","","","200","main_expt","",""
"","bandit","284","916492","0.0-242.0-0.0","25158291","wem/bandit_party_2","A3SY81O9AOO903","either","5","405","","","","","","","0","1","0","","0.989248002","0.8","0.2","0.4","0.6","0.6528148869","0.989248002","0.3070084091","0.2382870841","","","","","","","","","","","","","","74","J","1","","","201","main_expt","",""
"","bandit","285","919040","0.0-243.0-0.0","25158291","wem/bandit_party_2","A3SY81O9AOO903","either","5","997","","","","","","","0","1","0","","0.9957983392","0.8","0.2","0.4","0.6","0.6892998309","0.9957983392","0.3603585946","0.1604624283","","","","","","","","","","","","","","74","J","1","","","202","main_expt","",""
"","bandit","286","921083","0.0-244.0-0.0","25158291","wem/bandit_party_2","A3SY81O9AOO903","either","5","489","","","","","","","0","1","0","","0.9958893","0.8","0.2","0.4","0.6","0.6989476798","0.9958893","0.260320329","0.1407610566","","","","","","","","","","","","","","74","J","1","","","203","main_expt","",""
"","bandit","287","922976","0.0-245.0-0.0","25158291","wem/bandit_party_2","A3SY81O9AOO903","either","5","339","","","","","","","0","1","0","","0.9955962674","0.8","0.2","0.4","0.6","0.772264117","0.9955962674","0.2003029851","0.1343245238","","","","","","","","","","","","","","74","J","1","","","204","main_expt","",""
"","bandit","288","924848","0.0-246.0-0.0","25158291","wem/bandit_party_2","A3SY81O9AOO903","either","5","327","","","","","","","0","1","0","","0.9943432705","0.8","0.2","0.4","0.6","0.7366863645","0.9943432705","0.1922312923","0.1715400642","","","","","","","","","","","","","","74","J","1","","","205","main_expt","",""
"","bandit","289","926724","0.0-247.0-0.0","25158291","wem/bandit_party_2","A3SY81O9AOO903","either","5","331","","","","","","","0","1","0","","0.9982320458","0.8","0.2","0.4","0.6","0.7477287432","0.9982320458","0.1936085521","0.117617648","","","","","","","","","","","","","","74","J","1","","","206","main_expt","",""
"","bandit","290","928538","0.0-248.0-0.0","25158291","wem/bandit_party_2","A3SY81O9AOO903","either","5","268","","","","","","","0","1","0","","0.9976530308","0.8","0.2","0.4","0.6","0.8185776196","0.9976530308","0.1821705986","0.1182717864","","","","","","","","","","","","","","74","J","1","","","207","main_expt","",""
"","bandit","291","930561","0.0-249.0-0.0","25158291","wem/bandit_party_2","A3SY81O9AOO903","either","5","471","","","","","","","0","1","0","","0.9961811318","0.8","0.2","0.4","0.6","0.8161769506","0.9961811318","0.1145050302","0.1445047472","","","","","","","","","","","","","","74","J","1","","","208","main_expt","",""
"","bandit","292","932530","0.0-250.0-0.0","25158291","wem/bandit_party_2","A3SY81O9AOO903","either","5","421","","","","","","","1","0","0","0.9977639941","","0.8","0.2","0.4","0.6","","","","","0.8224464957","0.9977639941","0.1206637037","0.1264159314","","","","","","","","","","74","J","1","","","209","main_expt","",""
"","bandit","293","934499","0.0-251.0-0.0","25158291","wem/bandit_party_2","A3SY81O9AOO903","either","5","413","","","","","","","1","0","0","0.9953783407","","0.8","0.2","0.4","0.6","","","","","0.7392866018","0.9953783407","0.1422927172","0.1208777168","","","","","","","","","","74","J","1","","","210","main_expt","",""
"","bandit","294","936361","0.0-252.0-0.0","25158291","wem/bandit_party_2","A3SY81O9AOO903","either","5","312","","","","","","","0","1","0","","0.9976351195","0.8","0.2","0.4","0.6","0.7125411919","0.9976351195","0.1811219169","0.1733448518","","","","","","","","","","","","","","74","J","1","","","211","main_expt","",""
"","bandit","295","938254","0.0-253.0-0.0","25158291","wem/bandit_party_2","A3SY81O9AOO903","either","5","352","","","","","","","0","1","0","","0.9983589292","0.8","0.2","0.4","0.6","0.7191881067","0.9983589292","0.1982527665","0.1085262221","","","","","","","","","","","","","","74","J","1","","","212","main_expt","",""
"","bandit","296","940189","0.0-254.0-0.0","25158291","wem/bandit_party_2","A3SY81O9AOO903","either","5","387","","","","","","","0","1","0","","0.9960427138","0.8","0.2","0.4","0.6","0.7523845147","0.9960427138","0.124448309","0.08145678985","","","","","","","","","","","","","","74","J","1","","","213","main_expt","",""
"","bandit","297","942095","0.0-255.0-0.0","25158291","wem/bandit_party_2","A3SY81O9AOO903","either","5","365","","","","","","","0","1","0","","0.9924650588","0.8","0.2","0.4","0.6","0.7193420906","0.9924650588","0.1036015692","0.05725631888","","","","","","","","","","","","","","74","J","1","","","214","main_expt","",""
"","bandit","298","943959","0.0-256.0-0.0","25158291","wem/bandit_party_2","A3SY81O9AOO903","either","5","311","","","","","","","1","0","0","0.9858211903","","0.8","0.2","0.4","0.6","","","","","0.6784461291","0.9858211903","0.14458031","0.04356988172","","","","","","","","","","74","J","1","","","215","main_expt","",""
"","bandit","299","945922","0.0-257.0-0.0","25158291","wem/bandit_party_2","A3SY81O9AOO903","either","5","419","","","","","","","1","0","0","0.9915289077","","0.8","0.2","0.4","0.6","","","","","0.5658185063","0.9915289077","0.2094876981","0.04316154837","","","","","","","","","","74","J","1","","","216","main_expt","",""
"","bandit","300","947834","0.0-258.0-0.0","25158291","wem/bandit_party_2","A3SY81O9AOO903","either","5","364","","","","","","","0","1","0","","0.9929544916","0.8","0.2","0.4","0.6","0.4886301847","0.9929544916","0.24936904","0.03453558383","","","","","","","","","","","","","","74","J","1","","","217","main_expt","",""
"","bandit","301","949733","0.0-259.0-0.0","25158291","wem/bandit_party_2","A3SY81O9AOO903","either","5","350","","","","","","","0","1","0","","0.9741721496","0.8","0.2","0.4","0.6","0.5674985979","0.9741721496","0.2006789107","0.03800932399","","","","","","","","","","","","","","74","J","1","","","218","main_expt","",""
"","bandit","302","951611","0.0-260.0-0.0","25158291","wem/bandit_party_2","A3SY81O9AOO903","either","5","348","","","","","","","0","1","0","","0.9413517393","0.8","0.2","0.4","0.6","0.6088772151","0.9413517393","0.2118480588","0.07914639327","","","","","","","","","","","","","","74","J","1","","","219","main_expt","",""
"","bandit","303","953518","0.0-261.0-0.0","25158291","wem/bandit_party_2","A3SY81O9AOO903","either","5","362","","","","","","","0","1","0","","0.9230346446","0.8","0.2","0.4","0.6","0.5856238885","0.9230346446","0.2159213458","0.07044987786","","","","","","","","","","","","","","74","J","1","","","220","main_expt","",""
"","bandit","304","955368","0.0-262.0-0.0","25158291","wem/bandit_party_2","A3SY81O9AOO903","either","5","298","","","","","","","1","0","0","0.9216350241","","0.8","0.2","0.4","0.6","","","","","0.6601978635","0.9216350241","0.2097338805","0.1351506501","","","","","","","","","","74","J","1","","","221","main_expt","",""
"","bandit","305","957370","0.0-263.0-0.0","25158291","wem/bandit_party_2","A3SY81O9AOO903","either","5","453","","","","","","","0","1","0","","0.9093406134","0.8","0.2","0.4","0.6","0.6540659739","0.9093406134","0.1468233299","0.2099108548","","","","","","","","","","","","","","74","J","1","","","222","main_expt","",""
"","bandit","306","959424","0.0-264.0-0.0","25158291","wem/bandit_party_2","A3SY81O9AOO903","either","5","511","","","","","","","0","0","1","","0.8361447498","0.8","0.2","0.4","0.6","0.7010542315","0.8361447498","0.1379540926","0.2971693323","","","","","","","","","","","","","","74","J","1","","","223","main_expt","",""
"","bandit","307","961409","0.0-265.0-0.0","25158291","wem/bandit_party_2","A3SY81O9AOO903","either","5","436","","","","","","","0","0","1","","0.1943723139","0.8","0.2","0.4","0.6","0.7972730751","0.8626161161","0.1943723139","0.2754671199","","","","","","","","","","","","","","75","K","2","","","224","main_expt","",""
"","bandit","308","964974","0.0-266.0-0.0","25158291","wem/bandit_party_2","A3SY81O9AOO903","either","5","2010","","","","","","","1","0","0","0.8726314772","","0.8","0.2","0.4","0.6","","","","","0.8726314772","0.9176165053","0.2949344278","0.2483133052","","","","","","","","","","72","H","0","img/none_selected.jpg","","225","main_expt","",""
"","bandit","309","967069","0.0-267.0-0.0","25158291","wem/bandit_party_2","A3SY81O9AOO903","either","5","550","","","","","","","1","0","0","0.8569150835","","0.8","0.2","0.4","0.6","","","","","0.8569150835","0.9516545376","0.4040967375","0.2945032007","","","","","","","","","","72","H","0","img/none_selected.jpg","","226","main_expt","",""
"","bandit","310","969057","0.0-268.0-0.0","25158291","wem/bandit_party_2","A3SY81O9AOO903","either","5","437","","","","","","","1","0","0","0.8773762417","","0.8","0.2","0.4","0.6","","","","","0.8773762417","0.9448551655","0.4369809926","0.2544933329","","","","","","","","","","72","H","0","img/none_selected.jpg","","227","main_expt","",""
"","bandit","311","971049","0.0-269.0-0.0","25158291","wem/bandit_party_2","A3SY81O9AOO903","either","5","447","","","","","","","0","0","1","0.8514828757","","0.8","0.2","0.4","0.6","","","","","0.8514828757","0.9298030406","0.4228749262","0.22227057","","","","","","","","","","72","H","0","img/none_selected.jpg","","228","main_expt","",""
"","bandit","312","973059","0.0-270.0-0.0","25158291","wem/bandit_party_2","A3SY81O9AOO903","either","5","457","","","","","","","1","0","0","0.893786405","","0.8","0.2","0.4","0.6","","","","","0.893786405","0.9022116856","0.4953143479","0.2319557967","","","","","","","","","","72","H","0","img/none_selected.jpg","","229","main_expt","",""
"","bandit","313","974977","0.0-271.0-0.0","25158291","wem/bandit_party_2","A3SY81O9AOO903","either","5","359","","","","","","","1","0","0","0.9350514117","","0.8","0.2","0.4","0.6","","","","","0.9350514117","0.8934587516","0.4752889979","0.3107577299","","","","","","","","","","72","H","0","img/none_selected.jpg","","230","main_expt","",""
"","bandit","314","976709","0.0-272.0-0.0","25158291","wem/bandit_party_2","A3SY81O9AOO903","either","5","179","","","","","","","1","0","0","0.9139197991","","0.8","0.2","0.4","0.6","","","","","0.9139197991","0.8403693225","0.4887049862","0.3046703461","","","","","","","","","","72","H","0","img/none_selected.jpg","","231","main_expt","",""
"","bandit","315","978515","0.0-273.0-0.0","25158291","wem/bandit_party_2","A3SY81O9AOO903","either","5","273","","","","","","","1","0","0","0.8753904063","","0.8","0.2","0.4","0.6","","","","","0.8753904063","0.7373772703","0.6065944358","0.4259459217","","","","","","","","","","72","H","0","img/none_selected.jpg","","232","main_expt","",""
