"consent","trial_type","trial_index","time_elapsed","internal_node_id","subjID","study","MID","cond","drift","rt","responses","button_pressed","key_press","like","value","connected","gems","bombs","no_reward","GemPrChosen","BombPrChosen","GainOverPainPr_0","GainOverPainPr_1","GainOverPainPr_2","GainOverPainPr_3","LosePr_0","LosePr_1","LosePr_2","LosePr_3","WinPr_0","WinPr_1","WinPr_2","WinPr_3","Q0","Q1","Q2","gender","age","ethnicity","label","expt_phase","target","respCharCode","respKey","respChoiceNum","respChoice","practice","trial_counter","trial_label","Q0_index","view_history"
"GDM/GDM_behavioral_consent_30min_online.html","consent","0","9588","0.0-0.0","25748784","wem/bandit_party_2","A2MD4K1YFYBLZN","either","1","","","","","","","","","","","","","","","","","","","","","","","","","","","","","","","","","","","","","","","","","",""
"","survey-text","1","13939","0.0-1.0","25748784","wem/bandit_party_2","A2MD4K1YFYBLZN","either","1","3336","{""Q0"":""A2MD4K1YFYBLZN""}","","","","","","","","","","","","","","","","","","","","","","","","","","","","","","","","","","","","","","","",""
"","button-response","2","19924","0.0-2.0","25748784","wem/bandit_party_2","A2MD4K1YFYBLZN","either","1","4963","","1","","","","","","","","","","","","","","","","","","","","","","","","","","","","","","","","","","","","","","",""
"","text-replacement","3","38796","0.0-3.0","25748784","wem/bandit_party_2","A2MD4K1YFYBLZN","either","1","17864","","","32","","","","","","","","","","","","","","","","","","","","","","","","","","","","","","","","","","","","","",""
"","text-replacement","4","41776","0.0-4.0","25748784","wem/bandit_party_2","A2MD4K1YFYBLZN","either","1","2973","","","32","","","","","","","","","","","","","","","","","","","","","","","","","","","","","","","","","","","","","",""
"","identification","5","47429","0.0-6.0-0.0","25748784","wem/bandit_party_2","A2MD4K1YFYBLZN","either","1","5608","","","","6","6","6","","","","","","","","","","","","","","","","","","","","","","","","pre","identification_pre","the Democratic Party","","","","","","","","",""
"","identification","6","53385","0.0-6.0-1.0","25748784","wem/bandit_party_2","A2MD4K1YFYBLZN","either","1","4908","","","","0","0","0","","","","","","","","","","","","","","","","","","","","","","","","pre","identification_pre","the Republican Party","","","","","","","","",""
"","text-replacement","7","56350","0.0-7.0","25748784","wem/bandit_party_2","A2MD4K1YFYBLZN","either","1","1952","","","32","","","","","","","","","","","","","","","","","","","","","","","","","","","","","","","","","","","","","",""
"","text-replacement","8","58220","0.0-8.0","25748784","wem/bandit_party_2","A2MD4K1YFYBLZN","either","1","1866","","","32","","","","","","","","","","","","","","","","","","","","","","","","","","","","","","","","","","","","","",""
"","text-replacement","9","58886","0.0-9.0","25748784","wem/bandit_party_2","A2MD4K1YFYBLZN","either","1","663","","","32","","","","","","","","","","","","","","","","","","","","","","","","","","","","","","","","","","","","","",""
"","text-replacement","10","67007","0.0-10.0","25748784","wem/bandit_party_2","A2MD4K1YFYBLZN","either","1","8117","","","32","","","","","","","","","","","","","","","","","","","","","","","","","","","","","","","","","","","","","",""
"","text-replacement","11","68392","0.0-11.0","25748784","wem/bandit_party_2","A2MD4K1YFYBLZN","either","1","1383","","","32","","","","","","","","","","","","","","","","","","","","","","","","","","","","","","","","","","","","","",""
"","bandit","12","72354","0.0-12.0-0.0","25748784","wem/bandit_party_2","A2MD4K1YFYBLZN","either","1","2448","","","","","","","0","0","1","0","0","","","","","0","","","","0","","","","","","","","","","","","","74","J","0","img/none_selected_demo.jpg","true","0","","",""
"","bandit","13","74598","0.0-13.0-0.0","25748784","wem/bandit_party_2","A2MD4K1YFYBLZN","either","1","733","","","","","","","0","0","1","0","0","","","","","0","","","","0","","","","","","","","","","","","","75","K","0","img/none_selected_demo.jpg","true","0","","",""
"","text-replacement","14","80605","0.0-14.0","25748784","wem/bandit_party_2","A2MD4K1YFYBLZN","either","1","6005","","","32","","","","","","","","","","","","","","","","","","","","","","","","","","","","","","","","","","","","","",""
"","text-replacement","15","95175","0.0-15.0","25748784","wem/bandit_party_2","A2MD4K1YFYBLZN","either","1","14565","","","32","","","","","","","","","","","","","","","","","","","","","","","","","","","","","","","","","","","","","",""
"","text-replacement","16","99674","0.0-16.0","25748784","wem/bandit_party_2","A2MD4K1YFYBLZN","either","1","4492","","","32","","","","","","","","","","","","","","","","","","","","","","","","","","","","","","","","","","","","","",""
"","text-replacement","17","100936","0.0-17.0","25748784","wem/bandit_party_2","A2MD4K1YFYBLZN","either","1","1257","","","32","","","","","","","","","","","","","","","","","","","","","","","","","","","","","","","","","","","","","",""
"","bandit","18","104216","0.0-18.0-0.0","25748784","wem/bandit_party_2","A2MD4K1YFYBLZN","either","1","1754","","","","","","","0","1","0","","0.8","0.5","0.5","","","0.8","0.2","","","","","","","","","","","","","","","","74","J","0","img/none_selected_demo.jpg","true","0","80_20_practice","",""
"","bandit","19","106120","0.0-18.0-1.0","25748784","wem/bandit_party_2","A2MD4K1YFYBLZN","either","1","391","","","","","","","0","1","0","","0.8","0.5","0.5","","","0.8","0.2","","","","","","","","","","","","","","","","74","J","0","img/none_selected_demo.jpg","true","0","80_20_practice","",""
"","bandit","20","108089","0.0-18.0-2.0","25748784","wem/bandit_party_2","A2MD4K1YFYBLZN","either","1","416","","","","","","","0","1","0","","0.8","0.5","0.5","","","0.8","0.2","","","","","","","","","","","","","","","","74","J","0","img/none_selected_demo.jpg","true","0","80_20_practice","",""
"","bandit","21","109858","0.0-18.0-3.0","25748784","wem/bandit_party_2","A2MD4K1YFYBLZN","either","1","257","","","","","","","0","0","1","","0.8","0.5","0.5","","","0.8","0.2","","","","","","","","","","","","","","","","74","J","0","img/none_selected_demo.jpg","true","0","80_20_practice","",""
"","bandit","22","111689","0.0-18.0-4.0","25748784","wem/bandit_party_2","A2MD4K1YFYBLZN","either","1","323","","","","","","","0","0","1","","0.2","0.5","0.5","","","0.8","0.2","","","","","","","","","","","","","","","","75","K","1","","true","0","80_20_practice","",""
"","bandit","23","113478","0.0-18.0-5.0","25748784","wem/bandit_party_2","A2MD4K1YFYBLZN","either","1","279","","","","","","","1","0","0","0.8","","0.5","0.5","","","","","","","0.8","0.2","","","","","","","","","","","","74","J","0","img/none_selected_demo.jpg","true","0","80_20_practice","",""
"","bandit","24","115251","0.0-18.0-6.0","25748784","wem/bandit_party_2","A2MD4K1YFYBLZN","either","1","197","","","","","","","0","1","0","","0.8","0.5","0.5","","","0.8","0.2","","","","","","","","","","","","","","","","74","J","0","img/none_selected_demo.jpg","true","0","80_20_practice","",""
"","bandit","25","116935","0.0-18.0-7.0","25748784","wem/bandit_party_2","A2MD4K1YFYBLZN","either","1","101","","","","","","","0","0","1","0.8","","0.5","0.5","","","","","","","0.8","0.2","","","","","","","","","","","","74","J","0","img/none_selected_demo.jpg","true","0","80_20_practice","",""
"","bandit","26","118633","0.0-18.0-8.0","25748784","wem/bandit_party_2","A2MD4K1YFYBLZN","either","1","186","","","","","","","1","0","0","0.8","","0.5","0.5","","","","","","","0.8","0.2","","","","","","","","","","","","74","J","0","img/none_selected_demo.jpg","true","0","80_20_practice","",""
"","bandit","27","120367","0.0-18.0-9.0","25748784","wem/bandit_party_2","A2MD4K1YFYBLZN","either","1","220","","","","","","","0","0","1","0.8","","0.5","0.5","","","","","","","0.8","0.2","","","","","","","","","","","","74","J","0","img/none_selected_demo.jpg","true","0","80_20_practice","",""
"","bandit","28","122164","0.0-18.0-10.0","25748784","wem/bandit_party_2","A2MD4K1YFYBLZN","either","1","233","","","","","","","0","1","0","","0.8","0.5","0.5","","","0.8","0.2","","","","","","","","","","","","","","","","74","J","0","img/none_selected_demo.jpg","true","0","80_20_practice","",""
"","bandit","29","123838","0.0-18.0-11.0","25748784","wem/bandit_party_2","A2MD4K1YFYBLZN","either","1","165","","","","","","","1","0","0","0.8","","0.5","0.5","","","","","","","0.8","0.2","","","","","","","","","","","","74","J","0","img/none_selected_demo.jpg","true","0","80_20_practice","",""
"","bandit","30","125500","0.0-18.0-12.0","25748784","wem/bandit_party_2","A2MD4K1YFYBLZN","either","1","154","","","","","","","0","1","0","","0.8","0.5","0.5","","","0.8","0.2","","","","","","","","","","","","","","","","74","J","0","img/none_selected_demo.jpg","true","0","80_20_practice","",""
"","bandit","31","127230","0.0-18.0-13.0","25748784","wem/bandit_party_2","A2MD4K1YFYBLZN","either","1","220","","","","","","","0","1","0","","0.8","0.5","0.5","","","0.8","0.2","","","","","","","","","","","","","","","","74","J","0","img/none_selected_demo.jpg","true","0","80_20_practice","",""
"","bandit","32","128951","0.0-18.0-14.0","25748784","wem/bandit_party_2","A2MD4K1YFYBLZN","either","1","212","","","","","","","1","0","0","0.8","","0.5","0.5","","","","","","","0.8","0.2","","","","","","","","","","","","74","J","0","img/none_selected_demo.jpg","true","0","80_20_practice","",""
"","bandit","33","130563","0.0-18.0-15.0","25748784","wem/bandit_party_2","A2MD4K1YFYBLZN","either","1","75","","","","","","","0","1","0","","0.8","0.5","0.5","","","0.8","0.2","","","","","","","","","","","","","","","","74","J","0","img/none_selected_demo.jpg","true","0","80_20_practice","",""
"","bandit","34","132181","0.0-18.0-16.0","25748784","wem/bandit_party_2","A2MD4K1YFYBLZN","either","1","107","","","","","","","0","1","0","","0.8","0.5","0.5","","","0.8","0.2","","","","","","","","","","","","","","","","74","J","0","img/none_selected_demo.jpg","true","0","80_20_practice","",""
"","bandit","35","133943","0.0-18.0-17.0","25748784","wem/bandit_party_2","A2MD4K1YFYBLZN","either","1","232","","","","","","","1","0","0","0.8","","0.5","0.5","","","","","","","0.8","0.2","","","","","","","","","","","","74","J","0","img/none_selected_demo.jpg","true","0","80_20_practice","",""
"","bandit","36","135741","0.0-18.0-18.0","25748784","wem/bandit_party_2","A2MD4K1YFYBLZN","either","1","269","","","","","","","0","0","1","","0.8","0.5","0.5","","","0.8","0.2","","","","","","","","","","","","","","","","74","J","0","img/none_selected_demo.jpg","true","0","80_20_practice","",""
"","bandit","37","138002","0.0-18.0-19.0","25748784","wem/bandit_party_2","A2MD4K1YFYBLZN","either","1","143","","","","","","","1","0","0","0.8","","0.5","0.5","","","","","","","0.8","0.2","","","","","","","","","","","","74","J","0","img/none_selected_demo.jpg","true","0","80_20_practice","",""
"","text-replacement","38","140067","0.0-19.0","25748784","wem/bandit_party_2","A2MD4K1YFYBLZN","either","1","2059","","","32","","","","","","","","","","","","","","","","","","","","","","","","","","","","","","","","","","","","","",""
"","bandit","39","142428","0.0-20.0-0.0","25748784","wem/bandit_party_2","A2MD4K1YFYBLZN","either","1","833","","","","","","","1","0","0","1","0","","","","","0","1","","","1","0","","","","","","","","","","","","74","J","0","img/none_selected_demo.jpg","true","0","","",""
"","text-replacement","40","142833","0.0-21.0","25748784","wem/bandit_party_2","A2MD4K1YFYBLZN","either","1","397","","","74","","","","","","","","","","","","","","","","","","","","","","","","","","","","","","","","","","","","","",""
"","text-replacement","41","145179","0.0-22.0","25748784","wem/bandit_party_2","A2MD4K1YFYBLZN","either","1","2340","","","32","","","","","","","","","","","","","","","","","","","","","","","","","","","","","","","","","","","","","",""
"","text-replacement","42","146433","0.0-23.0","25748784","wem/bandit_party_2","A2MD4K1YFYBLZN","either","1","1249","","","32","","","","","","","","","","","","","","","","","","","","","","","","","","","","","","","","","","","","","",""
"","text-replacement","43","147141","0.0-24.0","25748784","wem/bandit_party_2","A2MD4K1YFYBLZN","either","1","703","","","32","","","","","","","","","","","","","","","","","","","","","","","","","","","","","","","","","","","","","",""
"","text-replacement","44","147660","0.0-25.0","25748784","wem/bandit_party_2","A2MD4K1YFYBLZN","either","1","516","","","32","","","","","","","","","","","","","","","","","","","","","","","","","","","","","","","","","","","","","",""
"","text-replacement","45","148120","0.0-26.0","25748784","wem/bandit_party_2","A2MD4K1YFYBLZN","either","1","456","","","32","","","","","","","","","","","","","","","","","","","","","","","","","","","","","","","","","","","","","",""
"","text-replacement","46","148655","0.0-27.0","25748784","wem/bandit_party_2","A2MD4K1YFYBLZN","either","1","532","","","32","","","","","","","","","","","","","","","","","","","","","","","","","","","","","","","","","","","","","",""
"","text-replacement","47","149034","0.0-28.0","25748784","wem/bandit_party_2","A2MD4K1YFYBLZN","either","1","377","","","32","","","","","","","","","","","","","","","","","","","","","","","","","","","","","","","","","","","","","",""
"","text-replacement","48","149712","0.0-29.0","25748784","wem/bandit_party_2","A2MD4K1YFYBLZN","either","1","676","","","32","","","","","","","","","","","","","","","","","","","","","","","","","","","","","","","","","","","","","",""
"","text-replacement","49","150621","0.0-30.0","25748784","wem/bandit_party_2","A2MD4K1YFYBLZN","either","1","905","","","32","","","","","","","","","","","","","","","","","","","","","","","","","","","","","","","","","","","","","",""
"","text-replacement","50","152066","0.0-31.0","25748784","wem/bandit_party_2","A2MD4K1YFYBLZN","either","1","1442","","","32","","","","","","","","","","","","","","","","","","","","","","","","","","","","","","","","","","","","","",""
"","bandit","51","154481","0.0-32.0-0.0","25748784","wem/bandit_party_2","A2MD4K1YFYBLZN","either","1","898","","","","","","","0","0","1","","0.2","0.5","0.5","0.5","0.5","0.8","0.2","0.6","0.2","","","","","","","","","","","","","","74","J","1","","true","0","full_practice","",""
"","bandit","52","156304","0.0-32.0-1.0","25748784","wem/bandit_party_2","A2MD4K1YFYBLZN","either","1","311","","","","","","","0","0","1","","0.2","0.5","0.5","0.5","0.5","0.8","0.2","0.6","0.2","","","","","","","","","","","","","","74","J","1","","true","0","full_practice","",""
"","bandit","53","158124","0.0-32.0-2.0","25748784","wem/bandit_party_2","A2MD4K1YFYBLZN","either","1","309","","","","","","","0","1","0","","0.6","0.5","0.5","0.5","0.5","0.8","0.2","0.6","0.2","","","","","","","","","","","","","","75","K","2","","true","0","full_practice","",""
"","bandit","54","159903","0.0-32.0-3.0","25748784","wem/bandit_party_2","A2MD4K1YFYBLZN","either","1","269","","","","","","","1","0","0","0.6","","0.5","0.5","0.5","0.5","","","","","0.8","0.2","0.6","0.2","","","","","","","","","","75","K","2","","true","0","full_practice","",""
"","bandit","55","161715","0.0-32.0-4.0","25748784","wem/bandit_party_2","A2MD4K1YFYBLZN","either","1","301","","","","","","","0","1","0","","0.6","0.5","0.5","0.5","0.5","0.8","0.2","0.6","0.2","","","","","","","","","","","","","","75","K","2","","true","0","full_practice","",""
"","bandit","56","163518","0.0-32.0-5.0","25748784","wem/bandit_party_2","A2MD4K1YFYBLZN","either","1","290","","","","","","","0","1","0","","0.6","0.5","0.5","0.5","0.5","0.8","0.2","0.6","0.2","","","","","","","","","","","","","","75","K","2","","true","0","full_practice","",""
"","bandit","57","165381","0.0-32.0-6.0","25748784","wem/bandit_party_2","A2MD4K1YFYBLZN","either","1","270","","","","","","","1","0","0","0.6","","0.5","0.5","0.5","0.5","","","","","0.8","0.2","0.6","0.2","","","","","","","","","","75","K","2","","true","0","full_practice","",""
"","bandit","58","167194","0.0-32.0-7.0","25748784","wem/bandit_party_2","A2MD4K1YFYBLZN","either","1","286","","","","","","","0","1","0","","0.6","0.5","0.5","0.5","0.5","0.8","0.2","0.6","0.2","","","","","","","","","","","","","","75","K","2","","true","0","full_practice","",""
"","bandit","59","168940","0.0-32.0-8.0","25748784","wem/bandit_party_2","A2MD4K1YFYBLZN","either","1","237","","","","","","","0","1","0","","0.6","0.5","0.5","0.5","0.5","0.8","0.2","0.6","0.2","","","","","","","","","","","","","","75","K","2","","true","0","full_practice","",""
"","bandit","60","170675","0.0-32.0-9.0","25748784","wem/bandit_party_2","A2MD4K1YFYBLZN","either","1","225","","","","","","","1","0","0","0.6","","0.5","0.5","0.5","0.5","","","","","0.8","0.2","0.6","0.2","","","","","","","","","","75","K","2","","true","0","full_practice","",""
"","bandit","61","172366","0.0-32.0-10.0","25748784","wem/bandit_party_2","A2MD4K1YFYBLZN","either","1","180","","","","","","","0","1","0","","0.6","0.5","0.5","0.5","0.5","0.8","0.2","0.6","0.2","","","","","","","","","","","","","","75","K","2","","true","0","full_practice","",""
"","bandit","62","174059","0.0-32.0-11.0","25748784","wem/bandit_party_2","A2MD4K1YFYBLZN","either","1","182","","","","","","","0","1","0","","0.6","0.5","0.5","0.5","0.5","0.8","0.2","0.6","0.2","","","","","","","","","","","","","","75","K","2","","true","0","full_practice","",""
"","bandit","63","175884","0.0-32.0-12.0","25748784","wem/bandit_party_2","A2MD4K1YFYBLZN","either","1","269","","","","","","","1","0","0","0.6","","0.5","0.5","0.5","0.5","","","","","0.8","0.2","0.6","0.2","","","","","","","","","","75","K","2","","true","0","full_practice","",""
"","bandit","64","177601","0.0-32.0-13.0","25748784","wem/bandit_party_2","A2MD4K1YFYBLZN","either","1","207","","","","","","","0","0","1","","0.6","0.5","0.5","0.5","0.5","0.8","0.2","0.6","0.2","","","","","","","","","","","","","","75","K","2","","true","0","full_practice","",""
"","bandit","65","179422","0.0-32.0-14.0","25748784","wem/bandit_party_2","A2MD4K1YFYBLZN","either","1","88","","","","","","","0","0","1","","0.6","0.5","0.5","0.5","0.5","0.8","0.2","0.6","0.2","","","","","","","","","","","","","","75","K","2","","true","0","full_practice","",""
"","bandit","66","181203","0.0-32.0-15.0","25748784","wem/bandit_party_2","A2MD4K1YFYBLZN","either","1","266","","","","","","","0","1","0","","0.6","0.5","0.5","0.5","0.5","0.8","0.2","0.6","0.2","","","","","","","","","","","","","","75","K","2","","true","0","full_practice","",""
"","bandit","67","182946","0.0-32.0-16.0","25748784","wem/bandit_party_2","A2MD4K1YFYBLZN","either","1","226","","","","","","","0","0","1","0.6","","0.5","0.5","0.5","0.5","","","","","0.8","0.2","0.6","0.2","","","","","","","","","","75","K","2","","true","0","full_practice","",""
"","bandit","68","184921","0.0-32.0-17.0","25748784","wem/bandit_party_2","A2MD4K1YFYBLZN","either","1","355","","","","","","","0","0","1","","0.6","0.5","0.5","0.5","0.5","0.8","0.2","0.6","0.2","","","","","","","","","","","","","","75","K","2","","true","0","full_practice","",""
"","bandit","69","187869","0.0-32.0-18.0","25748784","wem/bandit_party_2","A2MD4K1YFYBLZN","either","1","1431","","","","","","","0","1","0","","0.6","0.5","0.5","0.5","0.5","0.8","0.2","0.6","0.2","","","","","","","","","","","","","","75","K","2","","true","0","full_practice","",""
"","bandit","70","189697","0.0-32.0-19.0","25748784","wem/bandit_party_2","A2MD4K1YFYBLZN","either","1","301","","","","","","","0","1","0","","0.6","0.5","0.5","0.5","0.5","0.8","0.2","0.6","0.2","","","","","","","","","","","","","","75","K","2","","true","0","full_practice","",""
"","text","71","194134","0.0-33.0","25748784","wem/bandit_party_2","A2MD4K1YFYBLZN","either","1","4424","","","32","","","","","","","","","","","","","","","","","","","","","","","","","","","","","","","","","","","","","",""
"","text-replacement","72","205013","0.0-34.0","25748784","wem/bandit_party_2","A2MD4K1YFYBLZN","either","1","9872","","","32","","","","","","","","","","","","","","","","","","","","","","","","","","","","","","","","","","","","","",""
"","text-replacement","73","208577","0.0-35.0","25748784","wem/bandit_party_2","A2MD4K1YFYBLZN","either","1","3557","","","32","","","","","","","","","","","","","","","","","","","","","","","","","","","","","","","","","","","","","",""
"","text-replacement","74","211138","0.0-36.0","25748784","wem/bandit_party_2","A2MD4K1YFYBLZN","either","1","2556","","","32","","","","","","","","","","","","","","","","","","","","","","","","","","","","","","","","","","","","","",""
"","text-replacement","75","212559","0.0-37.0","25748784","wem/bandit_party_2","A2MD4K1YFYBLZN","either","1","1417","","","32","","","","","","","","","","","","","","","","","","","","","","","","","","","","","","","","","","","","","",""
"","text-replacement","76","215029","0.0-38.0","25748784","wem/bandit_party_2","A2MD4K1YFYBLZN","either","1","2467","","","32","","","","","","","","","","","","","","","","","","","","","","","","","","","","","","","","","","","","","",""
"","survey-multi-choice-replacement","77","224654","0.0-39.0-0.0","25748784","wem/bandit_party_2","A2MD4K1YFYBLZN","either","1","9570","","","","","","","","","","","","","","","","","","","","","","","","Money will be added to the pool for <span style='color:blue;'>DEMOCRATS</span>","","","","","","","attn_check","","","","","","","","","0",""
"","survey-multi-choice-replacement","78","231258","0.0-40.0-0.0","25748784","wem/bandit_party_2","A2MD4K1YFYBLZN","either","1","5391","","","","","","","","","","","","","","","","","","","","","","","","Money will be subtracted from the pool for <span style='color:red;'>REPUBLICANS</span>","","","","","","","attn_check","","","","","","","","","1",""
"","instructions","79","233788","0.0-40.0-1.0-0.0","25748784","wem/bandit_party_2","A2MD4K1YFYBLZN","either","1","1514","","","","","","","","","","","","","","","","","","","","","","","","","","","","","","","","","","","","","","","","","[{""page_index"":0,""viewing_time"":1513}]"
"","survey-multi-choice-replacement","80","241548","0.0-40.1-0.1","25748784","wem/bandit_party_2","A2MD4K1YFYBLZN","either","1","6735","","","","","","","","","","","","","","","","","","","","","","","","No money will be added to either pool","","","","","","","attn_check","","","","","","","","","3",""
"","instructions","81","243971","0.0-40.1-1.1-0.1","25748784","wem/bandit_party_2","A2MD4K1YFYBLZN","either","1","1414","","","","","","","","","","","","","","","","","","","","","","","","","","","","","","","","","","","","","","","","","[{""page_index"":0,""viewing_time"":1413}]"
"","survey-multi-choice-replacement","82","250624","0.0-40.2-0.2","25748784","wem/bandit_party_2","A2MD4K1YFYBLZN","either","1","5637","","","","","","","","","","","","","","","","","","","","","","","","Equal amounts of money will be added to the pool for <span style='color:blue;'>DEMOCRATS</span> and subtracted from the pool for <span style='color:red;'>REPUBLICANS</span>","","","","","","","attn_check","","","","","","","","","2",""
"","survey-multi-choice-replacement","83","256073","0.0-41.0-0.0","25748784","wem/bandit_party_2","A2MD4K1YFYBLZN","either","1","4432","","","","","","","","","","","","","","","","","","","","","","","","No money will be added to either pool","","","","","","","attn_check","","","","","","","","","3",""
"","bandit","84","261079","0.0-42.0-0.0","25748784","wem/bandit_party_2","A2MD4K1YFYBLZN","either","1","2486","","","","","","","0","0","1","0.4995060561","","0.4","0.6","0.8","0.2","","","","","0.8101107889","0.7674833066","0.5202783506","0.4995060561","","","","","","","","","","76","L","3","","","1","main_expt","",""
"","bandit","85","263027","0.0-43.0-0.0","25748784","wem/bandit_party_2","A2MD4K1YFYBLZN","either","1","363","","","","","","","0","0","1","0.4559554218","","0.4","0.6","0.8","0.2","","","","","0.8827976921","0.7786696111","0.4559554218","0.4452888422","","","","","","","","","","75","K","2","","","2","main_expt","",""
"","bandit","86","264616","0.0-44.0-0.0","25748784","wem/bandit_party_2","A2MD4K1YFYBLZN","either","1","76","","","","","","","1","0","0","0.7883912796","","0.4","0.6","0.8","0.2","","","","","0.918633781","0.7883912796","0.3791335739","0.4956599627","","","","","","","","","","74","J","1","","","3","main_expt","",""
"","bandit","87","266389","0.0-45.0-0.0","25748784","wem/bandit_party_2","A2MD4K1YFYBLZN","either","1","261","","","","","","","0","1","0","","0.8311681014","0.4","0.6","0.8","0.2","0.8961075186","0.8311681014","0.362446662","0.3939226057","","","","","","","","","","","","","","74","J","1","","","4","main_expt","",""
"","bandit","88","268243","0.0-46.0-0.0","25748784","wem/bandit_party_2","A2MD4K1YFYBLZN","either","1","321","","","","","","","0","1","0","","0.706748425","0.4","0.6","0.8","0.2","0.9065038385","0.706748425","0.4337427147","0.4737796053","","","","","","","","","","","","","","74","J","1","","","5","main_expt","",""
"","bandit","89","269900","0.0-47.0-0.0","25748784","wem/bandit_party_2","A2MD4K1YFYBLZN","either","1","137","","","","","","","1","0","0","0.7246132019","","0.4","0.6","0.8","0.2","","","","","0.9628954729","0.7246132019","0.4260566605","0.5798080576","","","","","","","","","","74","J","1","","","6","main_expt","",""
"","bandit","90","271591","0.0-48.0-0.0","25748784","wem/bandit_party_2","A2MD4K1YFYBLZN","either","1","181","","","","","","","1","0","0","0.822103072","","0.4","0.6","0.8","0.2","","","","","0.9244273404","0.822103072","0.5595739282","0.6184433593","","","","","","","","","","74","J","1","","","7","main_expt","",""
"","bandit","91","273328","0.0-49.0-0.0","25748784","wem/bandit_party_2","A2MD4K1YFYBLZN","either","1","225","","","","","","","0","1","0","","0.8176183596","0.4","0.6","0.8","0.2","0.9214665689","0.8176183596","0.5757792393","0.5380809204","","","","","","","","","","","","","","74","J","1","","","8","main_expt","",""
"","bandit","92","275055","0.0-50.0-0.0","25748784","wem/bandit_party_2","A2MD4K1YFYBLZN","either","1","218","","","","","","","1","0","0","0.7421782695","","0.4","0.6","0.8","0.2","","","","","0.9604963414","0.7421782695","0.5508288143","0.4884558296","","","","","","","","","","74","J","1","","","9","main_expt","",""
"","bandit","93","276815","0.0-51.0-0.0","25748784","wem/bandit_party_2","A2MD4K1YFYBLZN","either","1","212","","","","","","","1","0","0","0.7112185725","","0.4","0.6","0.8","0.2","","","","","0.973544224","0.7112185725","0.4615344473","0.6062827564","","","","","","","","","","74","J","1","","","10","main_expt","",""
"","bandit","94","278462","0.0-52.0-0.0","25748784","wem/bandit_party_2","A2MD4K1YFYBLZN","either","1","134","","","","","","","0","0","1","0.6656122322","","0.4","0.6","0.8","0.2","","","","","0.9756729976","0.6656122322","0.4731032433","0.6618996933","","","","","","","","","","74","J","1","","","11","main_expt","",""
"","bandit","95","280188","0.0-53.0-0.0","25748784","wem/bandit_party_2","A2MD4K1YFYBLZN","either","1","204","","","","","","","1","0","0","0.632951522","","0.4","0.6","0.8","0.2","","","","","0.9824084628","0.632951522","0.5028989732","0.6589688621","","","","","","","","","","74","J","1","","","12","main_expt","",""
"","bandit","96","281948","0.0-54.0-0.0","25748784","wem/bandit_party_2","A2MD4K1YFYBLZN","either","1","241","","","","","","","0","1","0","","0.6428643634","0.4","0.6","0.8","0.2","0.9852841122","0.6428643634","0.5252386458","0.7483501345","","","","","","","","","","","","","","74","J","1","","","13","main_expt","",""
"","bandit","97","283614","0.0-55.0-0.0","25748784","wem/bandit_party_2","A2MD4K1YFYBLZN","either","1","138","","","","","","","1","0","0","0.5693663763","","0.4","0.6","0.8","0.2","","","","","0.9844185579","0.5693663763","0.4883642101","0.7642220585","","","","","","","","","","74","J","1","","","14","main_expt","",""
"","bandit","98","285416","0.0-56.0-0.0","25748784","wem/bandit_party_2","A2MD4K1YFYBLZN","either","1","245","","","","","","","1","0","0","0.6354763258","","0.4","0.6","0.8","0.2","","","","","0.9716790186","0.6354763258","0.5125695872","0.8255663415","","","","","","","","","","74","J","1","","","15","main_expt","",""
"","bandit","99","287600","0.0-57.0-0.0","25748784","wem/bandit_party_2","A2MD4K1YFYBLZN","either","1","670","","","","","","","0","1","0","","0.6074668868","0.4","0.6","0.8","0.2","0.9724226268","0.6074668868","0.483313844","0.8262734196","","","","","","","","","","","","","","74","J","1","","","16","main_expt","",""
"","bandit","100","289213","0.0-58.0-0.0","25748784","wem/bandit_party_2","A2MD4K1YFYBLZN","either","1","98","","","","","","","1","0","0","0.634379517","","0.4","0.6","0.8","0.2","","","","","0.969397438","0.634379517","0.4764119597","0.8957105494","","","","","","","","","","74","J","1","","","17","main_expt","",""
"","bandit","101","291098","0.0-59.0-0.0","25748784","wem/bandit_party_2","A2MD4K1YFYBLZN","either","1","300","","","","","","","0","1","0","","0.7399013172","0.4","0.6","0.8","0.2","0.9487821198","0.7399013172","0.4742144938","0.8243017832","","","","","","","","","","","","","","74","J","1","","","18","main_expt","",""
"","bandit","102","293179","0.0-60.0-0.0","25748784","wem/bandit_party_2","A2MD4K1YFYBLZN","either","1","563","","","","","","","1","0","0","0.6892422428","","0.4","0.6","0.8","0.2","","","","","0.8822386923","0.6892422428","0.5445729057","0.8174393347","","","","","","","","","","74","J","1","","","19","main_expt","",""
"","bandit","103","295024","0.0-61.0-0.0","25748784","wem/bandit_party_2","A2MD4K1YFYBLZN","either","1","332","","","","","","","1","0","0","0.5544472153","","0.4","0.6","0.8","0.2","","","","","0.8658452863","0.5544472153","0.5114357523","0.8457625901","","","","","","","","","","74","J","1","","","20","main_expt","",""
"","bandit","104","296650","0.0-62.0-0.0","25748784","wem/bandit_party_2","A2MD4K1YFYBLZN","either","1","113","","","","","","","0","0","1","0.4705077418","","0.4","0.6","0.8","0.2","","","","","0.8597265301","0.4705077418","0.4948626968","0.8565453533","","","","","","","","","","74","J","1","","","21","main_expt","",""
"","bandit","105","298640","0.0-63.0-0.0","25748784","wem/bandit_party_2","A2MD4K1YFYBLZN","either","1","476","","","","","","","0","1","0","","0.5364913494","0.4","0.6","0.8","0.2","0.929530396","0.5364913494","0.3750889156","0.8821281293","","","","","","","","","","","","","","74","J","1","","","22","main_expt","",""
"","bandit","106","300400","0.0-64.0-0.0","25748784","wem/bandit_party_2","A2MD4K1YFYBLZN","either","1","247","","","","","","","0","1","0","","0.5450887529","0.4","0.6","0.8","0.2","0.9149061772","0.5450887529","0.3874093852","0.8253896901","","","","","","","","","","","","","","74","J","1","","","23","main_expt","",""
"","bandit","107","302256","0.0-65.0-0.0","25748784","wem/bandit_party_2","A2MD4K1YFYBLZN","either","1","336","","","","","","","1","0","0","0.6013055931","","0.4","0.6","0.8","0.2","","","","","0.9389899916","0.6013055931","0.4126546177","0.8682133559","","","","","","","","","","74","J","1","","","24","main_expt","",""
"","bandit","108","304200","0.0-66.0-0.0","25748784","wem/bandit_party_2","A2MD4K1YFYBLZN","either","1","409","","","","","","","1","0","0","0.7116226269","","0.4","0.6","0.8","0.2","","","","","0.9583062328","0.7116226269","0.3871809826","0.8186134727","","","","","","","","","","74","J","1","","","25","main_expt","",""
"","bandit","109","306024","0.0-67.0-0.0","25748784","wem/bandit_party_2","A2MD4K1YFYBLZN","either","1","313","","","","","","","1","0","0","0.7284905038","","0.4","0.6","0.8","0.2","","","","","0.9349434311","0.7284905038","0.4162773602","0.841170918","","","","","","","","","","74","J","1","","","26","main_expt","",""
"","bandit","110","307737","0.0-68.0-0.0","25748784","wem/bandit_party_2","A2MD4K1YFYBLZN","either","1","201","","","","","","","1","0","0","0.7007901837","","0.4","0.6","0.8","0.2","","","","","0.9147743466","0.7007901837","0.4153433109","0.8332298301","","","","","","","","","","74","J","1","","","27","main_expt","",""
"","bandit","111","309657","0.0-69.0-0.0","25748784","wem/bandit_party_2","A2MD4K1YFYBLZN","either","1","304","","","","","","","1","0","0","0.7197690037","","0.4","0.6","0.8","0.2","","","","","0.8913744663","0.7197690037","0.3083156359","0.8340804883","","","","","","","","","","74","J","1","","","28","main_expt","",""
"","bandit","112","311317","0.0-70.0-0.0","25748784","wem/bandit_party_2","A2MD4K1YFYBLZN","either","1","147","","","","","","","1","0","0","0.7569205749","","0.4","0.6","0.8","0.2","","","","","0.9004815278","0.7569205749","0.4048150761","0.8800986549","","","","","","","","","","74","J","1","","","29","main_expt","",""
"","bandit","113","313103","0.0-71.0-0.0","25748784","wem/bandit_party_2","A2MD4K1YFYBLZN","either","1","275","","","","","","","1","0","0","0.7007062976","","0.4","0.6","0.8","0.2","","","","","0.8335499875","0.7007062976","0.5604470694","0.800988266","","","","","","","","","","74","J","1","","","30","main_expt","",""
"","bandit","114","314875","0.0-72.0-0.0","25748784","wem/bandit_party_2","A2MD4K1YFYBLZN","either","1","246","","","","","","","0","0","1","0.6218809145","","0.4","0.6","0.8","0.2","","","","","0.7904098286","0.6218809145","0.5114456598","0.8092707987","","","","","","","","","","74","J","1","","","31","main_expt","",""
"","bandit","115","316727","0.0-73.0-0.0","25748784","wem/bandit_party_2","A2MD4K1YFYBLZN","either","1","340","","","","","","","1","0","0","0.5448888872","","0.4","0.6","0.8","0.2","","","","","0.8156470634","0.5448888872","0.5195843055","0.7600689364","","","","","","","","","","74","J","1","","","32","main_expt","",""
"","bandit","116","318549","0.0-74.0-0.0","25748784","wem/bandit_party_2","A2MD4K1YFYBLZN","either","1","311","","","","","","","1","0","0","0.4396040002","","0.4","0.6","0.8","0.2","","","","","0.7458483223","0.4396040002","0.4278216128","0.7268405739","","","","","","","","","","74","J","1","","","33","main_expt","",""
"","bandit","117","320300","0.0-75.0-0.0","25748784","wem/bandit_party_2","A2MD4K1YFYBLZN","either","1","240","","","","","","","0","0","1","","0.3418027302","0.4","0.6","0.8","0.2","0.8745519215","0.3418027302","0.4581725564","0.7867385379","","","","","","","","","","","","","","74","J","1","","","34","main_expt","",""
"","bandit","118","322110","0.0-76.0-0.0","25748784","wem/bandit_party_2","A2MD4K1YFYBLZN","either","1","299","","","","","","","0","0","1","0.3770378826","","0.4","0.6","0.8","0.2","","","","","0.8761773117","0.3770378826","0.5170179058","0.7776722478","","","","","","","","","","74","J","1","","","35","main_expt","",""
"","bandit","119","323821","0.0-77.0-0.0","25748784","wem/bandit_party_2","A2MD4K1YFYBLZN","either","1","198","","","","","","","0","0","1","","0.3264650107","0.4","0.6","0.8","0.2","0.8898579413","0.3264650107","0.5761285305","0.8110731924","","","","","","","","","","","","","","74","J","1","","","36","main_expt","",""
"","bandit","120","325700","0.0-78.0-0.0","25748784","wem/bandit_party_2","A2MD4K1YFYBLZN","either","1","361","","","","","","","0","0","1","0.1696248696","","0.4","0.6","0.8","0.2","","","","","0.9189960073","0.1696248696","0.5824592389","0.8371501114","","","","","","","","","","74","J","1","","","37","main_expt","",""
"","bandit","121","327871","0.0-79.0-0.0","25748784","wem/bandit_party_2","A2MD4K1YFYBLZN","either","1","348","","","","","","","0","1","0","","0.9429067042","0.4","0.6","0.8","0.2","0.9429067042","0.3008725236","0.5039158184","0.801984358","","","","","","","","","","","","","","72","H","0","img/none_selected.jpg","","38","main_expt","",""
"","bandit","122","329615","0.0-80.0-0.0","25748784","wem/bandit_party_2","A2MD4K1YFYBLZN","either","1","225","","","","","","","1","0","0","0.8860185862","","0.4","0.6","0.8","0.2","","","","","0.8860185862","0.3612597963","0.4906961915","0.836760671","","","","","","","","","","72","H","0","img/none_selected.jpg","","39","main_expt","",""
"","bandit","123","331421","0.0-81.0-0.0","25748784","wem/bandit_party_2","A2MD4K1YFYBLZN","either","1","277","","","","","","","1","0","0","0.8958725565","","0.4","0.6","0.8","0.2","","","","","0.8958725565","0.3316001813","0.5118773476","0.7930168878","","","","","","","","","","72","H","0","img/none_selected.jpg","","40","main_expt","",""
"","bandit","124","333175","0.0-82.0-0.0","25748784","wem/bandit_party_2","A2MD4K1YFYBLZN","either","1","229","","","","","","","0","1","0","","0.8369757826","0.4","0.6","0.8","0.2","0.8369757826","0.251761063","0.5207000815","0.6758505439","","","","","","","","","","","","","","72","H","0","img/none_selected.jpg","","41","main_expt","",""
"","bandit","125","335076","0.0-83.0-0.0","25748784","wem/bandit_party_2","A2MD4K1YFYBLZN","either","1","366","","","","","","","0","1","0","","0.8724413244","0.4","0.6","0.8","0.2","0.8724413244","0.3764367217","0.6208632684","0.669091732","","","","","","","","","","","","","","72","H","0","img/none_selected.jpg","","42","main_expt","",""
"","bandit","126","336679","0.0-84.0-0.0","25748784","wem/bandit_party_2","A2MD4K1YFYBLZN","either","1","88","","","","","","","1","0","0","0.8721156492","","0.4","0.6","0.8","0.2","","","","","0.8721156492","0.4280411123","0.6736877605","0.5774386383","","","","","","","","","","72","H","0","img/none_selected.jpg","","43","main_expt","",""
"","bandit","127","338437","0.0-85.0-0.0","25748784","wem/bandit_party_2","A2MD4K1YFYBLZN","either","1","241","","","","","","","0","1","0","","0.874486911","0.4","0.6","0.8","0.2","0.874486911","0.4250007774","0.6770598463","0.5402750746","","","","","","","","","","","","","","72","H","0","img/none_selected.jpg","","44","main_expt","",""
"","bandit","128","340362","0.0-86.0-0.0","25748784","wem/bandit_party_2","A2MD4K1YFYBLZN","either","1","319","","","","","","","0","1","0","","0.7653026016","0.4","0.6","0.8","0.2","0.7653026016","0.3964774122","0.6811336834","0.4769525635","","","","","","","","","","","","","","72","H","0","img/none_selected.jpg","","45","main_expt","",""
"","bandit","129","342128","0.0-87.0-0.0","25748784","wem/bandit_party_2","A2MD4K1YFYBLZN","either","1","253","","","","","","","0","0","1","","0.6884850605","0.4","0.6","0.8","0.2","0.6884850605","0.3755541509","0.7409040253","0.460739512","","","","","","","","","","","","","","72","H","0","img/none_selected.jpg","","46","main_expt","",""
"","bandit","130","344168","0.0-88.0-0.0","25748784","wem/bandit_party_2","A2MD4K1YFYBLZN","either","1","459","","","","","","","0","1","0","","0.6869729855","0.4","0.6","0.8","0.2","0.6869729855","0.3698766084","0.8602274841","0.3953603582","","","","","","","","","","","","","","72","H","0","img/none_selected.jpg","","47","main_expt","",""
"","bandit","131","345931","0.0-89.0-0.0","25748784","wem/bandit_party_2","A2MD4K1YFYBLZN","either","1","253","","","","","","","0","0","1","0.624749708","","0.4","0.6","0.8","0.2","","","","","0.624749708","0.2924141828","0.8947369126","0.5194217752","","","","","","","","","","72","H","0","img/none_selected.jpg","","48","main_expt","",""
"","bandit","132","347826","0.0-90.0-0.0","25748784","wem/bandit_party_2","A2MD4K1YFYBLZN","either","1","383","","","","","","","0","0","1","0.6269608649","","0.4","0.6","0.8","0.2","","","","","0.6269608649","0.2506794134","0.9071052574","0.5015721984","","","","","","","","","","72","H","0","img/none_selected.jpg","","49","main_expt","",""
"","bandit","133","349710","0.0-91.0-0.0","25748784","wem/bandit_party_2","A2MD4K1YFYBLZN","either","1","372","","","","","","","1","0","0","0.5394470416","","0.4","0.6","0.8","0.2","","","","","0.5394470416","0.2200095001","0.8569531155","0.4427204185","","","","","","","","","","72","H","0","img/none_selected.jpg","","50","main_expt","",""
"","bandit","134","351477","0.0-92.0-0.0","25748784","wem/bandit_party_2","A2MD4K1YFYBLZN","either","1","254","","","","","","","0","0","1","0.4991806479","","0.4","0.6","0.8","0.2","","","","","0.4991806479","0.2703780474","0.8728609703","0.5194544998","","","","","","","","","","72","H","0","img/none_selected.jpg","","51","main_expt","",""
"","bandit","135","353285","0.0-93.0-0.0","25748784","wem/bandit_party_2","A2MD4K1YFYBLZN","either","1","297","","","","","","","0","1","0","","0.5431464126","0.4","0.6","0.8","0.2","0.5431464126","0.3215640211","0.902184381","0.4420680866","","","","","","","","","","","","","","72","H","0","img/none_selected.jpg","","52","main_expt","",""
"","bandit","136","355004","0.0-94.0-0.0","25748784","wem/bandit_party_2","A2MD4K1YFYBLZN","either","1","206","","","","","","","0","0","1","","0.4799783957","0.4","0.6","0.8","0.2","0.4799783957","0.2918797996","0.8975054296","0.5541791803","","","","","","","","","","","","","","72","H","0","img/none_selected.jpg","","53","main_expt","",""
"","bandit","137","356798","0.0-95.0-0.0","25748784","wem/bandit_party_2","A2MD4K1YFYBLZN","either","1","283","","","","","","","1","0","0","0.3946877269","","0.4","0.6","0.8","0.2","","","","","0.3946877269","0.2432815539","0.9436546011","0.6187664305","","","","","","","","","","72","H","0","img/none_selected.jpg","","54","main_expt","",""
"","bandit","138","358579","0.0-96.0-0.0","25748784","wem/bandit_party_2","A2MD4K1YFYBLZN","either","1","270","","","","","","","0","0","1","","0.3892466866","0.4","0.6","0.8","0.2","0.3892466866","0.1993500609","0.9411334538","0.538030076","","","","","","","","","","","","","","72","H","0","img/none_selected.jpg","","55","main_expt","",""
"","bandit","139","360513","0.0-97.0-0.0","25748784","wem/bandit_party_2","A2MD4K1YFYBLZN","either","1","422","","","","","","","1","0","0","0.347268188","","0.4","0.6","0.8","0.2","","","","","0.347268188","0.1832364248","0.862285227","0.5137881872","","","","","","","","","","72","H","0","img/none_selected.jpg","","56","main_expt","",""
"","bandit","140","362417","0.0-98.0-0.0","25748784","wem/bandit_party_2","A2MD4K1YFYBLZN","either","1","365","","","","","","","0","1","0","","0.3462231845","0.4","0.6","0.8","0.2","0.3462231845","0.1703919496","0.9034803314","0.6274604021","","","","","","","","","","","","","","72","H","0","img/none_selected.jpg","","57","main_expt","",""
"","bandit","141","364271","0.0-99.0-0.0","25748784","wem/bandit_party_2","A2MD4K1YFYBLZN","either","1","341","","","","","","","0","0","1","0.3707442777","","0.4","0.6","0.8","0.2","","","","","0.3707442777","0.2146973212","0.9062052911","0.5636132077","","","","","","","","","","72","H","0","img/none_selected.jpg","","58","main_expt","",""
"","bandit","142","366123","0.0-100.0-0.0","25748784","wem/bandit_party_2","A2MD4K1YFYBLZN","either","1","340","","","","","","","0","0","1","","0.4530366532","0.4","0.6","0.8","0.2","0.4530366532","0.2118107272","0.9169546289","0.6555757088","","","","","","","","","","","","","","72","H","0","img/none_selected.jpg","","59","main_expt","",""
"","bandit","143","367898","0.0-101.0-0.0","25748784","wem/bandit_party_2","A2MD4K1YFYBLZN","either","1","254","","","","","","","1","0","0","0.4335409142","","0.4","0.6","0.8","0.2","","","","","0.4335409142","0.2096036334","0.9048679239","0.6555481193","","","","","","","","","","72","H","0","img/none_selected.jpg","","60","main_expt","",""
"","bandit","144","369783","0.0-102.0-0.0","25748784","wem/bandit_party_2","A2MD4K1YFYBLZN","either","1","318","","","","","","","0","0","1","","0.3601573371","0.4","0.6","0.8","0.2","0.3601573371","0.1985607356","0.9346572725","0.6988977931","","","","","","","","","","","","","","72","H","0","img/none_selected.jpg","","61","main_expt","",""
"","bandit","145","372376","0.0-103.0-0.0","25748784","wem/bandit_party_2","A2MD4K1YFYBLZN","either","1","1054","","","","","","","1","0","0","0.9332729597","","0.4","0.6","0.8","0.2","","","","","0.3187004912","0.2352246004","0.9332729597","0.6124712875","","","","","","","","","","75","K","2","","","62","main_expt","",""
"","bandit","146","373944","0.0-104.0-0.0","25748784","wem/bandit_party_2","A2MD4K1YFYBLZN","either","1","48","","","","","","","1","0","0","0.9300142507","","0.4","0.6","0.8","0.2","","","","","0.331276396","0.1989126294","0.9300142507","0.4881994696","","","","","","","","","","75","K","2","","","63","main_expt","",""
"","bandit","147","375857","0.0-105.0-0.0","25748784","wem/bandit_party_2","A2MD4K1YFYBLZN","either","1","384","","","","","","","1","0","0","0.8992917639","","0.4","0.6","0.8","0.2","","","","","0.3984677","0.2231035509","0.8992917639","0.5007509184","","","","","","","","","","75","K","2","","","64","main_expt","",""
"","bandit","148","377751","0.0-106.0-0.0","25748784","wem/bandit_party_2","A2MD4K1YFYBLZN","either","1","374","","","","","","","0","0","1","0.7939475476","","0.4","0.6","0.8","0.2","","","","","0.3012021372","0.174077904","0.7939475476","0.6077525222","","","","","","","","","","75","K","2","","","65","main_expt","",""
"","bandit","149","379720","0.0-107.0-0.0","25748784","wem/bandit_party_2","A2MD4K1YFYBLZN","either","1","453","","","","","","","1","0","0","0.7848839068","","0.4","0.6","0.8","0.2","","","","","0.2848395029","0.1505104035","0.7848839068","0.4876759876","","","","","","","","","","75","K","2","","","66","main_expt","",""
"","bandit","150","381703","0.0-108.0-0.0","25748784","wem/bandit_party_2","A2MD4K1YFYBLZN","either","1","467","","","","","","","1","0","0","0.7712869283","","0.4","0.6","0.8","0.2","","","","","0.2908363747","0.1706094741","0.7712869283","0.4705728971","","","","","","","","","","75","K","2","","","67","main_expt","",""
"","bandit","151","383638","0.0-109.0-0.0","25748784","wem/bandit_party_2","A2MD4K1YFYBLZN","either","1","422","","","","","","","1","0","0","0.7426915226","","0.4","0.6","0.8","0.2","","","","","0.3226378352","0.193375558","0.7426915226","0.5822594153","","","","","","","","","","75","K","2","","","68","main_expt","",""
"","bandit","152","385534","0.0-110.0-0.0","25748784","wem/bandit_party_2","A2MD4K1YFYBLZN","either","1","365","","","","","","","0","0","1","0.592712881","","0.4","0.6","0.8","0.2","","","","","0.4490581071","0.226811003","0.592712881","0.6189715015","","","","","","","","","","75","K","2","","","69","main_expt","",""
"","bandit","153","387498","0.0-111.0-0.0","25748784","wem/bandit_party_2","A2MD4K1YFYBLZN","either","1","442","","","","","","","1","0","0","0.6587085967","","0.4","0.6","0.8","0.2","","","","","0.42365523","0.191142909","0.6587085967","0.5307799745","","","","","","","","","","75","K","2","","","70","main_expt","",""
"","bandit","154","390177","0.0-112.0-0.0","25748784","wem/bandit_party_2","A2MD4K1YFYBLZN","either","1","1162","","","","","","","0","0","1","0.7562029562","","0.4","0.6","0.8","0.2","","","","","0.427101634","0.2371486809","0.7562029562","0.5205551237","","","","","","","","","","75","K","2","","","71","main_expt","",""
"","bandit","155","392261","0.0-113.0-0.0","25748784","wem/bandit_party_2","A2MD4K1YFYBLZN","either","1","569","","","","","","","0","0","1","","0.5913901284","0.4","0.6","0.8","0.2","0.5387899421","0.2602117984","0.670676276","0.5913901284","","","","","","","","","","","","","","76","L","3","","","72","main_expt","",""
"","bandit","156","394009","0.0-114.0-0.0","25748784","wem/bandit_party_2","A2MD4K1YFYBLZN","either","1","235","","","","","","","1","0","0","0.6870219419","","0.4","0.6","0.8","0.2","","","","","0.4931252492","0.1837165363","0.6870219419","0.7127465592","","","","","","","","","","75","K","2","","","73","main_expt","",""
"","bandit","157","396024","0.0-115.0-0.0","25748784","wem/bandit_party_2","A2MD4K1YFYBLZN","either","1","478","","","","","","","0","0","1","0.582898469","","0.4","0.6","0.8","0.2","","","","","0.3888626504","0.2032334464","0.582898469","0.7804212289","","","","","","","","","","75","K","2","","","74","main_expt","",""
"","bandit","158","398087","0.0-116.0-0.0","25748784","wem/bandit_party_2","A2MD4K1YFYBLZN","either","1","548","","","","","","","0","0","1","0.2782751631","","0.4","0.6","0.8","0.2","","","","","0.3866429177","0.2782751631","0.6452442043","0.7966502287","","","","","","","","","","74","J","1","","","75","main_expt","",""
"","bandit","159","399928","0.0-117.0-0.0","25748784","wem/bandit_party_2","A2MD4K1YFYBLZN","either","1","326","","","","","","","0","0","1","0.3948468247","","0.4","0.6","0.8","0.2","","","","","0.3948468247","0.3318782676","0.7031137023","0.7775959854","","","","","","","","","","72","H","0","img/none_selected.jpg","","76","main_expt","",""
"","bandit","160","401724","0.0-118.0-0.0","25748784","wem/bandit_party_2","A2MD4K1YFYBLZN","either","1","260","","","","","","","1","0","0","0.312607664","","0.4","0.6","0.8","0.2","","","","","0.4853082722","0.312607664","0.6096498107","0.8523583745","","","","","","","","","","74","J","1","","","77","main_expt","",""
"","bandit","161","403679","0.0-119.0-0.0","25748784","wem/bandit_party_2","A2MD4K1YFYBLZN","either","1","443","","","","","","","0","0","1","0.3250695504","","0.4","0.6","0.8","0.2","","","","","0.4971609959","0.3250695504","0.532302087","0.7707034136","","","","","","","","","","74","J","1","","","78","main_expt","",""
"","bandit","162","405693","0.0-120.0-0.0","25748784","wem/bandit_party_2","A2MD4K1YFYBLZN","either","1","498","","","","","","","0","0","1","0.277144637","","0.4","0.6","0.8","0.2","","","","","0.5349041547","0.277144637","0.4448734945","0.7919080975","","","","","","","","","","74","J","1","","","79","main_expt","",""
"","bandit","163","407635","0.0-121.0-0.0","25748784","wem/bandit_party_2","A2MD4K1YFYBLZN","either","1","430","","","","","","","1","0","0","0.293018971","","0.4","0.6","0.8","0.2","","","","","0.4713204996","0.293018971","0.34513516","0.8107458935","","","","","","","","","","74","J","1","","","80","main_expt","",""
"","bandit","164","409482","0.0-122.0-0.0","25748784","wem/bandit_party_2","A2MD4K1YFYBLZN","either","1","335","","","","","","","0","0","1","0.2730851157","","0.4","0.6","0.8","0.2","","","","","0.4132476049","0.2730851157","0.406584365","0.7851591746","","","","","","","","","","74","J","1","","","81","main_expt","",""
"","bandit","165","411343","0.0-123.0-0.0","25748784","wem/bandit_party_2","A2MD4K1YFYBLZN","either","1","348","","","","","","","0","0","1","","0.2436011542","0.4","0.6","0.8","0.2","0.4640808921","0.2436011542","0.5068312928","0.8067558171","","","","","","","","","","","","","","74","J","1","","","82","main_expt","",""
"","bandit","166","413121","0.0-124.0-0.0","25748784","wem/bandit_party_2","A2MD4K1YFYBLZN","either","1","264","","","","","","","0","0","1","","0.2009218657","0.4","0.6","0.8","0.2","0.442115463","0.2009218657","0.5209063211","0.7777816444","","","","","","","","","","","","","","74","J","1","","","83","main_expt","",""
"","bandit","167","415056","0.0-125.0-0.0","25748784","wem/bandit_party_2","A2MD4K1YFYBLZN","either","1","363","","","","","","","1","0","0","0.6221591745","","0.4","0.6","0.8","0.2","","","","","0.5117806844","0.1550904625","0.6221591745","0.7801041195","","","","","","","","","","75","K","2","","","84","main_expt","",""
"","bandit","168","416953","0.0-126.0-0.0","25748784","wem/bandit_party_2","A2MD4K1YFYBLZN","either","1","270","","","","","","","1","0","0","0.6939346182","","0.4","0.6","0.8","0.2","","","","","0.5309627618","0.1193398435","0.6939346182","0.7593249252","","","","","","","","","","75","K","2","","","85","main_expt","",""
"","bandit","169","418800","0.0-127.0-0.0","25748784","wem/bandit_party_2","A2MD4K1YFYBLZN","either","1","244","","","","","","","0","1","0","","0.7533471596","0.4","0.6","0.8","0.2","0.5482659382","0.1398572341","0.7533471596","0.7911667705","","","","","","","","","","","","","","75","K","2","","","86","main_expt","",""
"","bandit","170","420565","0.0-128.0-0.0","25748784","wem/bandit_party_2","A2MD4K1YFYBLZN","either","1","251","","","","","","","1","0","0","0.8040573679","","0.4","0.6","0.8","0.2","","","","","0.4772076429","0.1941505275","0.8040573679","0.8480662183","","","","","","","","","","75","K","2","","","87","main_expt","",""
"","bandit","171","422567","0.0-129.0-0.0","25748784","wem/bandit_party_2","A2MD4K1YFYBLZN","either","1","302","","","","","","","0","1","0","","0.7800800897","0.4","0.6","0.8","0.2","0.5202977678","0.09645570925","0.7800800897","0.8110462569","","","","","","","","","","","","","","75","K","2","","","88","main_expt","",""
"","bandit","172","424456","0.0-130.0-0.0","25748784","wem/bandit_party_2","A2MD4K1YFYBLZN","either","1","346","","","","","","","0","0","1","0.7329239748","","0.4","0.6","0.8","0.2","","","","","0.4970482359","0.1304326216","0.7329239748","0.7924414871","","","","","","","","","","75","K","2","","","89","main_expt","",""
"","bandit","173","426336","0.0-131.0-0.0","25748784","wem/bandit_party_2","A2MD4K1YFYBLZN","either","1","334","","","","","","","0","1","0","","0.7202813078","0.4","0.6","0.8","0.2","0.4671205494","0.1410434261","0.7202813078","0.8190855249","","","","","","","","","","","","","","75","K","2","","","90","main_expt","",""
"","bandit","174","428169","0.0-132.0-0.0","25748784","wem/bandit_party_2","A2MD4K1YFYBLZN","either","1","301","","","","","","","0","1","0","","0.698586111","0.4","0.6","0.8","0.2","0.5518401665","0.1277095213","0.698586111","0.858270253","","","","","","","","","","","","","","75","K","2","","","91","main_expt","",""
"","bandit","175","430388","0.0-133.0-0.0","25748784","wem/bandit_party_2","A2MD4K1YFYBLZN","either","1","306","","","","","","","1","0","0","0.6054304462","","0.4","0.6","0.8","0.2","","","","","0.620788192","0.08596821216","0.6054304462","0.8583259383","","","","","","","","","","75","K","2","","","92","main_expt","",""
"","bandit","176","432174","0.0-134.0-0.0","25748784","wem/bandit_party_2","A2MD4K1YFYBLZN","either","1","266","","","","","","","0","0","1","","0.6829204303","0.4","0.6","0.8","0.2","0.679669404","0.05652587691","0.6829204303","0.8335107661","","","","","","","","","","","","","","75","K","2","","","93","main_expt","",""
"","bandit","177","434081","0.0-135.0-0.0","25748784","wem/bandit_party_2","A2MD4K1YFYBLZN","either","1","377","","","","","","","1","0","0","0.6084783934","","0.4","0.6","0.8","0.2","","","","","0.6726581754","0.07490457358","0.6084783934","0.8849423118","","","","","","","","","","75","K","2","","","94","main_expt","",""
"","bandit","178","435891","0.0-136.0-0.0","25748784","wem/bandit_party_2","A2MD4K1YFYBLZN","either","1","289","","","","","","","1","0","0","0.51962455","","0.4","0.6","0.8","0.2","","","","","0.5983950962","0.05201682933","0.51962455","0.9175662658","","","","","","","","","","75","K","2","","","95","main_expt","",""
"","bandit","179","437795","0.0-137.0-0.0","25748784","wem/bandit_party_2","A2MD4K1YFYBLZN","either","1","303","","","","","","","1","0","0","0.453067158","","0.4","0.6","0.8","0.2","","","","","0.6316158747","0.0353667714","0.453067158","0.8726153548","","","","","","","","","","75","K","2","","","96","main_expt","",""
"","bandit","180","439603","0.0-138.0-0.0","25748784","wem/bandit_party_2","A2MD4K1YFYBLZN","either","1","292","","","","","","","0","0","1","0.4090095009","","0.4","0.6","0.8","0.2","","","","","0.6660601513","0.04301306848","0.4090095009","0.7260562137","","","","","","","","","","75","K","2","","","97","main_expt","",""
"","bandit","181","441455","0.0-139.0-0.0","25748784","wem/bandit_party_2","A2MD4K1YFYBLZN","either","1","337","","","","","","","0","0","1","0.360727585","","0.4","0.6","0.8","0.2","","","","","0.6185462561","0.03950067624","0.360727585","0.6506148609","","","","","","","","","","75","K","2","","","98","main_expt","",""
"","bandit","182","443239","0.0-140.0-0.0","25748784","wem/bandit_party_2","A2MD4K1YFYBLZN","either","1","268","","","","","","","1","0","0","0.3351327477","","0.4","0.6","0.8","0.2","","","","","0.581128502","0.03156699585","0.3351327477","0.5816342488","","","","","","","","","","75","K","2","","","99","main_expt","",""
"","bandit","183","445174","0.0-141.0-0.0","25748784","wem/bandit_party_2","A2MD4K1YFYBLZN","either","1","367","","","","","","","0","0","1","0.3491912274","","0.4","0.6","0.8","0.2","","","","","0.479775063","0.0248161238","0.3491912274","0.5521464449","","","","","","","","","","75","K","2","","","100","main_expt","",""
"","bandit","184","447094","0.0-142.0-0.0","25748784","wem/bandit_party_2","A2MD4K1YFYBLZN","either","1","374","","","","","","","1","0","0","0.4105375765","","0.4","0.6","0.8","0.2","","","","","0.5114647241","0.02218075004","0.4105375765","0.6063232436","","","","","","","","","","75","K","2","","","101","main_expt","",""
"","bandit","185","448673","0.0-143.0-0.0","25748784","wem/bandit_party_2","A2MD4K1YFYBLZN","either","1","64","","","","","","","0","0","1","0.438632671","","0.4","0.6","0.8","0.2","","","","","0.4718740674","0.01802152149","0.438632671","0.5636213764","","","","","","","","","","75","K","2","","","102","main_expt","",""
"","bandit","186","450363","0.0-144.0-0.0","25748784","wem/bandit_party_2","A2MD4K1YFYBLZN","either","1","50","","","","","","","0","0","1","0.5370473259","","0.4","0.6","0.8","0.2","","","","","0.5245129891","0.01877214671","0.372838406","0.5370473259","","","","","","","","","","76","L","3","","","103","main_expt","",""
"","bandit","187","452128","0.0-145.0-0.0","25748784","wem/bandit_party_2","A2MD4K1YFYBLZN","either","1","245","","","","","","","0","1","0","","0.549647281","0.4","0.6","0.8","0.2","0.5170751474","0.01556743346","0.3057692375","0.549647281","","","","","","","","","","","","","","76","L","3","","","104","main_expt","",""
"","bandit","188","454046","0.0-146.0-0.0","25748784","wem/bandit_party_2","A2MD4K1YFYBLZN","either","1","404","","","","","","","0","0","1","","0.4225976111","0.4","0.6","0.8","0.2","0.472330124","0.03717147126","0.37369274","0.4225976111","","","","","","","","","","","","","","76","L","3","","","105","main_expt","",""
"","bandit","189","456168","0.0-147.0-0.0","25748784","wem/bandit_party_2","A2MD4K1YFYBLZN","either","1","610","","","","","","","0","0","1","","0.5005163425","0.4","0.6","0.8","0.2","0.568133852","0.07687033395","0.3179799449","0.5005163425","","","","","","","","","","","","","","76","L","3","","","106","main_expt","",""
"","bandit","190","459103","0.0-148.0-0.0","25748784","wem/bandit_party_2","A2MD4K1YFYBLZN","either","1","1422","","","","","","","0","0","1","0.3995396385","","0.4","0.6","0.8","0.2","","","","","0.536018559","0.07659049968","0.3053765494","0.3995396385","","","","","","","","","","76","L","3","","","107","main_expt","",""
"","bandit","191","461016","0.0-149.0-0.0","25748784","wem/bandit_party_2","A2MD4K1YFYBLZN","either","1","397","","","","","","","0","0","1","","0.3855926336","0.4","0.6","0.8","0.2","0.3880888981","0.07827602418","0.2732860947","0.3855926336","","","","","","","","","","","","","","76","L","3","","","108","main_expt","",""
"","bandit","192","463052","0.0-150.0-0.0","25748784","wem/bandit_party_2","A2MD4K1YFYBLZN","either","1","433","","","","","","","0","1","0","","0.3059937163","0.4","0.6","0.8","0.2","0.3675045314","0.1352418701","0.2624197952","0.3059937163","","","","","","","","","","","","","","76","L","3","","","109","main_expt","",""
"","bandit","193","464990","0.0-151.0-0.0","25748784","wem/bandit_party_2","A2MD4K1YFYBLZN","either","1","387","","","","","","","0","0","1","","0.2752892785","0.4","0.6","0.8","0.2","0.4560700489","0.1705666919","0.3303210632","0.2752892785","","","","","","","","","","","","","","76","L","3","","","110","main_expt","",""
"","bandit","194","466962","0.0-152.0-0.0","25748784","wem/bandit_party_2","A2MD4K1YFYBLZN","either","1","456","","","","","","","0","1","0","","0.3038626008","0.4","0.6","0.8","0.2","0.5366389876","0.2202970635","0.3541452024","0.3038626008","","","","","","","","","","","","","","76","L","3","","","111","main_expt","",""
"","bandit","195","468865","0.0-153.0-0.0","25748784","wem/bandit_party_2","A2MD4K1YFYBLZN","either","1","360","","","","","","","0","0","1","","0.2308866464","0.4","0.6","0.8","0.2","0.5742054707","0.2368742277","0.4468573219","0.2308866464","","","","","","","","","","","","","","76","L","3","","","112","main_expt","",""
"","bandit","196","471040","0.0-154.0-0.0","25748784","wem/bandit_party_2","A2MD4K1YFYBLZN","either","1","325","","","","","","","0","0","1","","0.2487241586","0.4","0.6","0.8","0.2","0.6014260319","0.2487241586","0.5163231944","0.2420052043","","","","","","","","","","","","","","74","J","1","","","113","main_expt","",""
"","bandit","197","473257","0.0-155.0-0.0","25748784","wem/bandit_party_2","A2MD4K1YFYBLZN","either","1","699","","","","","","","1","0","0","0.238824581","","0.4","0.6","0.8","0.2","","","","","0.5398035654","0.238824581","0.4064640458","0.3277817495","","","","","","","","","","74","J","1","","","114","main_expt","",""
"","bandit","198","475086","0.0-156.0-0.0","25748784","wem/bandit_party_2","A2MD4K1YFYBLZN","either","1","309","","","","","","","0","0","1","0.1480638281","","0.4","0.6","0.8","0.2","","","","","0.5008208772","0.1480638281","0.4085425191","0.3280884562","","","","","","","","","","74","J","1","","","115","main_expt","",""
"","bandit","199","476935","0.0-157.0-0.0","25748784","wem/bandit_party_2","A2MD4K1YFYBLZN","either","1","317","","","","","","","0","0","1","0.1246447603","","0.4","0.6","0.8","0.2","","","","","0.4200837231","0.1246447603","0.4412864427","0.4137256642","","","","","","","","","","74","J","1","","","116","main_expt","",""
"","bandit","200","478896","0.0-158.0-0.0","25748784","wem/bandit_party_2","A2MD4K1YFYBLZN","either","1","440","","","","","","","0","0","1","0.4094987027","","0.4","0.6","0.8","0.2","","","","","0.4094987027","0.1308085784","0.5188885271","0.372751341","","","","","","","","","","72","H","0","img/none_selected.jpg","","117","main_expt","",""
"","bandit","201","480720","0.0-159.0-0.0","25748784","wem/bandit_party_2","A2MD4K1YFYBLZN","either","1","306","","","","","","","1","0","0","0.3862907493","","0.4","0.6","0.8","0.2","","","","","0.3862907493","0.09076242324","0.5728151575","0.4225631273","","","","","","","","","","72","H","0","img/none_selected.jpg","","118","main_expt","",""
"","bandit","202","482560","0.0-160.0-0.0","25748784","wem/bandit_party_2","A2MD4K1YFYBLZN","either","1","325","","","","","","","1","0","0","0.4437318585","","0.4","0.6","0.8","0.2","","","","","0.4437318585","0.09057925276","0.5065624602","0.4188482812","","","","","","","","","","72","H","0","img/none_selected.jpg","","119","main_expt","",""
"","bandit","203","484340","0.0-161.0-0.0","25748784","wem/bandit_party_2","A2MD4K1YFYBLZN","either","1","263","","","","","","","1","0","0","0.293469011","","0.4","0.6","0.8","0.2","","","","","0.293469011","0.1288926122","0.4064427813","0.3729077829","","","","","","","","","","72","H","0","img/none_selected.jpg","","120","main_expt","",""
"","bandit","204","486149","0.0-162.0-0.0","25748784","wem/bandit_party_2","A2MD4K1YFYBLZN","either","1","296","","","","","","","0","0","1","","0.2141601759","0.4","0.6","0.8","0.2","0.2141601759","0.1479701512","0.3948988447","0.3817262037","","","","","","","","","","","","","","72","H","0","img/none_selected.jpg","","121","main_expt","",""
"","bandit","205","488273","0.0-163.0-0.0","25748784","wem/bandit_party_2","A2MD4K1YFYBLZN","either","1","609","","","","","","","1","0","0","0.2594293103","","0.4","0.6","0.8","0.2","","","","","0.2594293103","0.1663524813","0.316823658","0.3537210734","","","","","","","","","","72","H","0","img/none_selected.jpg","","122","main_expt","",""
"","bandit","206","490174","0.0-164.0-0.0","25748784","wem/bandit_party_2","A2MD4K1YFYBLZN","either","1","387","","","","","","","0","1","0","","0.1519240937","0.4","0.6","0.8","0.2","0.1519240937","0.1993917655","0.3045978244","0.3633727708","","","","","","","","","","","","","","72","H","0","img/none_selected.jpg","","123","main_expt","",""
"","bandit","207","491955","0.0-165.0-0.0","25748784","wem/bandit_party_2","A2MD4K1YFYBLZN","either","1","266","","","","","","","0","0","1","0.2311656533","","0.4","0.6","0.8","0.2","","","","","0.2311656533","0.2948689786","0.2389028675","0.4139908316","","","","","","","","","","72","H","0","img/none_selected.jpg","","124","main_expt","",""
"","bandit","208","493907","0.0-166.0-0.0","25748784","wem/bandit_party_2","A2MD4K1YFYBLZN","either","1","326","","","","","","","0","0","1","","0.1956748967","0.4","0.6","0.8","0.2","0.1956748967","0.4054398129","0.2166803268","0.3619800754","","","","","","","","","","","","","","72","H","0","img/none_selected.jpg","","125","main_expt","",""
"","bandit","209","495863","0.0-167.0-0.0","25748784","wem/bandit_party_2","A2MD4K1YFYBLZN","either","1","424","","","","","","","0","0","1","","0.1419383156","0.4","0.6","0.8","0.2","0.1419383156","0.5337661481","0.1613674106","0.353362548","","","","","","","","","","","","","","72","H","0","img/none_selected.jpg","","126","main_expt","",""
"","bandit","210","498009","0.0-168.0-0.0","25748784","wem/bandit_party_2","A2MD4K1YFYBLZN","either","1","618","","","","","","","0","0","1","0.1768105291","","0.4","0.6","0.8","0.2","","","","","0.1768105291","0.5510518781","0.1682412955","0.2888217425","","","","","","","","","","72","H","0","img/none_selected.jpg","","127","main_expt","",""
"","bandit","211","499765","0.0-169.0-0.0","25748784","wem/bandit_party_2","A2MD4K1YFYBLZN","either","1","224","","","","","","","0","1","0","","0.4746642732","0.4","0.6","0.8","0.2","0.1187699492","0.4746642732","0.1655910943","0.3131893798","","","","","","","","","","","","","","74","J","1","","","128","main_expt","",""
"","bandit","212","501548","0.0-170.0-0.0","25748784","wem/bandit_party_2","A2MD4K1YFYBLZN","either","1","248","","","","","","","0","0","1","0.5345142674","","0.4","0.6","0.8","0.2","","","","","0.1860330609","0.5345142674","0.1845506081","0.2826861836","","","","","","","","","","74","J","1","","","129","main_expt","",""
"","bandit","213","503433","0.0-171.0-0.0","25748784","wem/bandit_party_2","A2MD4K1YFYBLZN","either","1","288","","","","","","","0","0","1","","0.6617219445","0.4","0.6","0.8","0.2","0.09722607165","0.6617219445","0.1548240476","0.3434973012","","","","","","","","","","","","","","74","J","1","","","130","main_expt","",""
"","bandit","214","505249","0.0-172.0-0.0","25748784","wem/bandit_party_2","A2MD4K1YFYBLZN","either","1","299","","","","","","","0","0","1","0.6183560712","","0.4","0.6","0.8","0.2","","","","","0.05626421391","0.6183560712","0.1503989","0.3848082556","","","","","","","","","","74","J","1","","","131","main_expt","",""
"","bandit","215","507325","0.0-173.0-0.0","25748784","wem/bandit_party_2","A2MD4K1YFYBLZN","either","1","561","","","","","","","0","1","0","","0.7009512511","0.4","0.6","0.8","0.2","0.1149854728","0.7009512511","0.1199593994","0.4140069858","","","","","","","","","","","","","","74","J","1","","","132","main_expt","",""
"","bandit","216","509187","0.0-174.0-0.0","25748784","wem/bandit_party_2","A2MD4K1YFYBLZN","either","1","345","","","","","","","0","0","1","","0.5838974895","0.4","0.6","0.8","0.2","0.1698175541","0.5838974895","0.1518383839","0.3745017877","","","","","","","","","","","","","","74","J","1","","","133","main_expt","",""
"","bandit","217","511052","0.0-175.0-0.0","25748784","wem/bandit_party_2","A2MD4K1YFYBLZN","either","1","351","","","","","","","0","0","1","0.1925371395","","0.4","0.6","0.8","0.2","","","","","0.1925371395","0.6628563986","0.1855528241","0.3918835711","","","","","","","","","","72","H","0","img/none_selected.jpg","","134","main_expt","",""
"","bandit","218","512869","0.0-176.0-0.0","25748784","wem/bandit_party_2","A2MD4K1YFYBLZN","either","1","301","","","","","","","0","0","1","0.5610912218","","0.4","0.6","0.8","0.2","","","","","0.246136332","0.5610912218","0.2187769305","0.3405764209","","","","","","","","","","74","J","1","","","135","main_expt","",""
"","bandit","219","514772","0.0-177.0-0.0","25748784","wem/bandit_party_2","A2MD4K1YFYBLZN","either","1","389","","","","","","","0","0","1","0.2001534018","","0.4","0.6","0.8","0.2","","","","","0.2277518718","0.4834649218","0.2001534018","0.4155430462","","","","","","","","","","75","K","2","","","136","main_expt","",""
"","bandit","220","516628","0.0-178.0-0.0","25748784","wem/bandit_party_2","A2MD4K1YFYBLZN","either","1","297","","","","","","","0","0","1","","0.176995917","0.4","0.6","0.8","0.2","0.252962458","0.513072369","0.176995917","0.3389252929","","","","","","","","","","","","","","75","K","2","","","137","main_expt","",""
"","bandit","221","518439","0.0-179.0-0.0","25748784","wem/bandit_party_2","A2MD4K1YFYBLZN","either","1","292","","","","","","","0","0","1","0.1460019238","","0.4","0.6","0.8","0.2","","","","","0.3018696236","0.5502636267","0.1460019238","0.2698753193","","","","","","","","","","75","K","2","","","138","main_expt","",""
"","bandit","222","520347","0.0-180.0-0.0","25748784","wem/bandit_party_2","A2MD4K1YFYBLZN","either","1","254","","","","","","","0","0","1","","0.06707115951","0.4","0.6","0.8","0.2","0.347353107","0.4564922144","0.06707115951","0.2821570394","","","","","","","","","","","","","","75","K","2","","","139","main_expt","",""
"","bandit","223","521939","0.0-181.0-0.0","25748784","wem/bandit_party_2","A2MD4K1YFYBLZN","either","1","78","","","","","","","1","0","0","0.1071331831","","0.4","0.6","0.8","0.2","","","","","0.2477375586","0.4116013625","0.1071331831","0.3577533322","","","","","","","","","","75","K","2","","","140","main_expt","",""
"","bandit","224","523772","0.0-182.0-0.0","25748784","wem/bandit_party_2","A2MD4K1YFYBLZN","either","1","317","","","","","","","0","0","1","0.1224459691","","0.4","0.6","0.8","0.2","","","","","0.2880826197","0.4498847811","0.1224459691","0.4250900652","","","","","","","","","","75","K","2","","","141","main_expt","",""
"","bandit","225","525623","0.0-183.0-0.0","25748784","wem/bandit_party_2","A2MD4K1YFYBLZN","either","1","282","","","","","","","0","0","1","0.1127900777","","0.4","0.6","0.8","0.2","","","","","0.2287108423","0.4822150968","0.1127900777","0.3451055681","","","","","","","","","","75","K","2","","","142","main_expt","",""
"","bandit","226","527570","0.0-184.0-0.0","25748784","wem/bandit_party_2","A2MD4K1YFYBLZN","either","1","433","","","","","","","1","0","0","0.513506041","","0.4","0.6","0.8","0.2","","","","","0.2096850542","0.513506041","0.1736101882","0.4661026996","","","","","","","","","","74","J","1","","","143","main_expt","",""
"","bandit","227","529976","0.0-185.0-0.0","25748784","wem/bandit_party_2","A2MD4K1YFYBLZN","either","1","886","","","","","","","0","0","1","","0.556822441","0.4","0.6","0.8","0.2","0.2214165798","0.556822441","0.1231714597","0.4683168179","","","","","","","","","","","","","","74","J","1","","","144","main_expt","",""
"","bandit","228","532947","0.0-186.0-0.0","25748784","wem/bandit_party_2","A2MD4K1YFYBLZN","either","1","1427","","","","","","","0","0","1","0.5633269006","","0.4","0.6","0.8","0.2","","","","","0.2412424024","0.5633269006","0.10514291","0.448697065","","","","","","","","","","74","J","1","","","145","main_expt","",""
"","bandit","229","534711","0.0-187.0-0.0","25748784","wem/bandit_party_2","A2MD4K1YFYBLZN","either","1","241","","","","","","","0","0","1","","0.6482805244","0.4","0.6","0.8","0.2","0.1841611904","0.6482805244","0.0972381369","0.4560677512","","","","","","","","","","","","","","74","J","1","","","146","main_expt","",""
"","bandit","230","536692","0.0-188.0-0.0","25748784","wem/bandit_party_2","A2MD4K1YFYBLZN","either","1","301","","","","","","","0","1","0","","0.1577922033","0.4","0.6","0.8","0.2","0.1577922033","0.6036290043","0.1897119627","0.513472809","","","","","","","","","","","","","","72","H","0","img/none_selected.jpg","","147","main_expt","",""
"","bandit","231","538511","0.0-189.0-0.0","25748784","wem/bandit_party_2","A2MD4K1YFYBLZN","either","1","263","","","","","","","0","0","1","","0.1663963597","0.4","0.6","0.8","0.2","0.1663963597","0.6110248825","0.1759094881","0.3820674583","","","","","","","","","","","","","","72","H","0","img/none_selected.jpg","","148","main_expt","",""
"","bandit","232","540552","0.0-190.0-0.0","25748784","wem/bandit_party_2","A2MD4K1YFYBLZN","either","1","512","","","","","","","0","1","0","","0.319747154","0.4","0.6","0.8","0.2","0.319747154","0.6453676348","0.2204336569","0.3116557105","","","","","","","","","","","","","","72","H","0","img/none_selected.jpg","","149","main_expt","",""
"","bandit","233","542436","0.0-191.0-0.0","25748784","wem/bandit_party_2","A2MD4K1YFYBLZN","either","1","350","","","","","","","0","0","1","0.5410110608","","0.4","0.6","0.8","0.2","","","","","0.5410110608","0.66235511","0.2328853871","0.3039338698","","","","","","","","","","72","H","0","img/none_selected.jpg","","150","main_expt","",""
"","bandit","234","543996","0.0-192.0-0.0","25748784","wem/bandit_party_2","A2MD4K1YFYBLZN","either","1","31","","","","","","","0","0","1","","0.5584745132","0.4","0.6","0.8","0.2","0.5584745132","0.5547575852","0.2652525627","0.3092958796","","","","","","","","","","","","","","72","H","0","img/none_selected.jpg","","151","main_expt","",""
"","bandit","235","546847","0.0-193.0-0.0","25748784","wem/bandit_party_2","A2MD4K1YFYBLZN","either","1","1333","","","","","","","0","1","0","","0.5709378499","0.4","0.6","0.8","0.2","0.5709378499","0.5223098228","0.2654363334","0.3097370874","","","","","","","","","","","","","","72","H","0","img/none_selected.jpg","","152","main_expt","",""
"","bandit","236","549440","0.0-194.0-0.0","25748784","wem/bandit_party_2","A2MD4K1YFYBLZN","either","1","1071","","","","","","","0","1","0","","0.6314515046","0.4","0.6","0.8","0.2","0.6314515046","0.5137303037","0.3505589273","0.2955649657","","","","","","","","","","","","","","72","H","0","img/none_selected.jpg","","153","main_expt","",""
"","bandit","237","551655","0.0-195.0-0.0","25748784","wem/bandit_party_2","A2MD4K1YFYBLZN","either","1","685","","","","","","","1","0","0","0.6734276465","","0.4","0.6","0.8","0.2","","","","","0.6734276465","0.5193194566","0.39889796","0.221553637","","","","","","","","","","72","H","0","img/none_selected.jpg","","154","main_expt","",""
"","bandit","238","553722","0.0-196.0-0.0","25748784","wem/bandit_party_2","A2MD4K1YFYBLZN","either","1","544","","","","","","","1","0","0","0.7019144477","","0.4","0.6","0.8","0.2","","","","","0.7019144477","0.4736812385","0.4202606707","0.2231547498","","","","","","","","","","72","H","0","img/none_selected.jpg","","155","main_expt","",""
"","bandit","239","555711","0.0-197.0-0.0","25748784","wem/bandit_party_2","A2MD4K1YFYBLZN","either","1","471","","","","","","","0","1","0","","0.6695455193","0.4","0.6","0.8","0.2","0.6695455193","0.4616442501","0.4814159609","0.2750957943","","","","","","","","","","","","","","72","H","0","img/none_selected.jpg","","156","main_expt","",""
"","bandit","240","557704","0.0-198.0-0.0","25748784","wem/bandit_party_2","A2MD4K1YFYBLZN","either","1","399","","","","","","","0","0","1","0.6179864128","","0.4","0.6","0.8","0.2","","","","","0.6179864128","0.5025740222","0.5316807058","0.2005793054","","","","","","","","","","72","H","0","img/none_selected.jpg","","157","main_expt","",""
"","bandit","241","559574","0.0-199.0-0.0","25748784","wem/bandit_party_2","A2MD4K1YFYBLZN","either","1","352","","","","","","","0","0","1","","0.7380689997","0.4","0.6","0.8","0.2","0.7380689997","0.4548105643","0.5429668589","0.2502080146","","","","","","","","","","","","","","72","H","0","img/none_selected.jpg","","158","main_expt","",""
"","bandit","242","561465","0.0-200.0-0.0","25748784","wem/bandit_party_2","A2MD4K1YFYBLZN","either","1","376","","","","","","","1","0","0","0.7632184112","","0.4","0.6","0.8","0.2","","","","","0.7632184112","0.4622667215","0.5991419929","0.2729805177","","","","","","","","","","72","H","0","img/none_selected.jpg","","159","main_expt","",""
"","bandit","243","563288","0.0-201.0-0.0","25748784","wem/bandit_party_2","A2MD4K1YFYBLZN","either","1","308","","","","","","","0","0","1","0.6917664031","","0.4","0.6","0.8","0.2","","","","","0.6917664031","0.4600517474","0.6480894682","0.2801697818","","","","","","","","","","72","H","0","img/none_selected.jpg","","160","main_expt","",""
"","bandit","244","565097","0.0-202.0-0.0","25748784","wem/bandit_party_2","A2MD4K1YFYBLZN","either","1","291","","","","","","","1","0","0","0.7106531984","","0.4","0.6","0.8","0.2","","","","","0.7106531984","0.481388234","0.6776161973","0.2437938608","","","","","","","","","","72","H","0","img/none_selected.jpg","","161","main_expt","",""
"","bandit","245","566956","0.0-203.0-0.0","25748784","wem/bandit_party_2","A2MD4K1YFYBLZN","either","1","344","","","","","","","1","0","0","0.809310282","","0.4","0.6","0.8","0.2","","","","","0.809310282","0.3850106192","0.7134031715","0.2687553501","","","","","","","","","","72","H","0","img/none_selected.jpg","","162","main_expt","",""
"","bandit","246","568844","0.0-204.0-0.0","25748784","wem/bandit_party_2","A2MD4K1YFYBLZN","either","1","312","","","","","","","0","1","0","","0.7492875705","0.4","0.6","0.8","0.2","0.7492875705","0.3498723973","0.6215635068","0.245991677","","","","","","","","","","","","","","72","H","0","img/none_selected.jpg","","163","main_expt","",""
"","bandit","247","570693","0.0-205.0-0.0","25748784","wem/bandit_party_2","A2MD4K1YFYBLZN","either","1","302","","","","","","","0","0","1","","0.7561394707","0.4","0.6","0.8","0.2","0.7561394707","0.4287417444","0.5219240024","0.270385563","","","","","","","","","","","","","","72","H","0","img/none_selected.jpg","","164","main_expt","",""
"","bandit","248","572466","0.0-206.0-0.0","25748784","wem/bandit_party_2","A2MD4K1YFYBLZN","either","1","260","","","","","","","0","1","0","","0.8111415702","0.4","0.6","0.8","0.2","0.8111415702","0.3150145745","0.4727302842","0.3037855967","","","","","","","","","","","","","","72","H","0","img/none_selected.jpg","","165","main_expt","",""
"","bandit","249","574304","0.0-207.0-0.0","25748784","wem/bandit_party_2","A2MD4K1YFYBLZN","either","1","323","","","","","","","1","0","0","0.7759938205","","0.4","0.6","0.8","0.2","","","","","0.7759938205","0.2927018344","0.5181018645","0.3395577104","","","","","","","","","","72","H","0","img/none_selected.jpg","","166","main_expt","",""
"","bandit","250","576261","0.0-208.0-0.0","25748784","wem/bandit_party_2","A2MD4K1YFYBLZN","either","1","441","","","","","","","0","0","1","","0.8267633335","0.4","0.6","0.8","0.2","0.8267633335","0.3610256338","0.5280433419","0.3443901906","","","","","","","","","","","","","","72","H","0","img/none_selected.jpg","","167","main_expt","",""
"","bandit","251","578381","0.0-209.0-0.0","25748784","wem/bandit_party_2","A2MD4K1YFYBLZN","either","1","606","","","","","","","1","0","0","0.8136073627","","0.4","0.6","0.8","0.2","","","","","0.8136073627","0.3137127159","0.5470010145","0.2552323567","","","","","","","","","","72","H","0","img/none_selected.jpg","","168","main_expt","",""
"","bandit","252","580878","0.0-210.0-0.0","25748784","wem/bandit_party_2","A2MD4K1YFYBLZN","either","1","982","","","","","","","1","0","0","0.7308533614","","0.4","0.6","0.8","0.2","","","","","0.7308533614","0.2292796242","0.5558845962","0.289352286","","","","","","","","","","72","H","0","img/none_selected.jpg","","169","main_expt","",""
"","bandit","253","583072","0.0-211.0-0.0","25748784","wem/bandit_party_2","A2MD4K1YFYBLZN","either","1","680","","","","","","","1","0","0","0.7090730391","","0.4","0.6","0.8","0.2","","","","","0.7090730391","0.221948569","0.5799309324","0.2262743404","","","","","","","","","","72","H","0","img/none_selected.jpg","","170","main_expt","",""
"","bandit","254","585106","0.0-212.0-0.0","25748784","wem/bandit_party_2","A2MD4K1YFYBLZN","either","1","521","","","","","","","0","1","0","","0.7229684446","0.4","0.6","0.8","0.2","0.7229684446","0.159615594","0.6643953266","0.2644351609","","","","","","","","","","","","","","72","H","0","img/none_selected.jpg","","171","main_expt","",""
"","bandit","255","587347","0.0-213.0-0.0","25748784","wem/bandit_party_2","A2MD4K1YFYBLZN","either","1","660","","","","","","","0","1","0","","0.6612043244","0.4","0.6","0.8","0.2","0.6612043244","0.1303854457","0.7610666705","0.4136296373","","","","","","","","","","","","","","72","H","0","img/none_selected.jpg","","172","main_expt","",""
"","bandit","256","589333","0.0-214.0-0.0","25748784","wem/bandit_party_2","A2MD4K1YFYBLZN","either","1","391","","","","","","","1","0","0","0.7669021743","","0.4","0.6","0.8","0.2","","","","","0.7669021743","0.07729024622","0.8006149786","0.491318492","","","","","","","","","","72","H","0","img/none_selected.jpg","","173","main_expt","",""
"","bandit","257","591267","0.0-215.0-0.0","25748784","wem/bandit_party_2","A2MD4K1YFYBLZN","either","1","408","","","","","","","0","1","0","","0.8111867287","0.4","0.6","0.8","0.2","0.8111867287","0.1227026474","0.791095403","0.4966763124","","","","","","","","","","","","","","72","H","0","img/none_selected.jpg","","174","main_expt","",""
"","bandit","258","593306","0.0-216.0-0.0","25748784","wem/bandit_party_2","A2MD4K1YFYBLZN","either","1","509","","","","","","","0","1","0","","0.8192498968","0.4","0.6","0.8","0.2","0.8192498968","0.09483306355","0.8572088762","0.5109350621","","","","","","","","","","","","","","72","H","0","img/none_selected.jpg","","175","main_expt","",""
"","bandit","259","595647","0.0-217.0-0.0","25748784","wem/bandit_party_2","A2MD4K1YFYBLZN","either","1","737","","","","","","","1","0","0","0.8371283275","","0.4","0.6","0.8","0.2","","","","","0.8371283275","0.143069758","0.8576080684","0.6321295754","","","","","","","","","","72","H","0","img/none_selected.jpg","","176","main_expt","",""
"","bandit","260","598373","0.0-218.0-0.0","25748784","wem/bandit_party_2","A2MD4K1YFYBLZN","either","1","1206","","","","","","","0","1","0","","0.8545140947","0.4","0.6","0.8","0.2","0.8545140947","0.1741656422","0.8678158231","0.5515755996","","","","","","","","","","","","","","72","H","0","img/none_selected.jpg","","177","main_expt","",""
"","bandit","261","601444","0.0-219.0-0.0","25748784","wem/bandit_party_2","A2MD4K1YFYBLZN","either","1","1555","","","","","","","0","0","1","","0.8794893657","0.4","0.6","0.8","0.2","0.8794893657","0.1904086474","0.8820542777","0.5086275016","","","","","","","","","","","","","","72","H","0","img/none_selected.jpg","","178","main_expt","",""
"","bandit","262","605928","0.0-220.0-0.0","25748784","wem/bandit_party_2","A2MD4K1YFYBLZN","either","1","2965","","","","","","","0","0","1","","0.8939587296","0.4","0.6","0.8","0.2","0.8939587296","0.1778905233","0.8907334788","0.5215192908","","","","","","","","","","","","","","72","H","0","img/none_selected.jpg","","179","main_expt","",""
"","bandit","263","609720","0.0-221.0-0.0","25748784","wem/bandit_party_2","A2MD4K1YFYBLZN","either","1","2276","","","","","","","0","1","0","","0.868077767","0.4","0.6","0.8","0.2","0.868077767","0.2112817454","0.9161653667","0.5193414217","","","","","","","","","","","","","","72","H","0","img/none_selected.jpg","","180","main_expt","",""
"","bandit","264","611910","0.0-222.0-0.0","25748784","wem/bandit_party_2","A2MD4K1YFYBLZN","either","1","673","","","","","","","0","1","0","","0.9295405476","0.4","0.6","0.8","0.2","0.9295405476","0.2236312472","0.9327112184","0.4613460131","","","","","","","","","","","","","","72","H","0","img/none_selected.jpg","","181","main_expt","",""
"","bandit","265","614253","0.0-223.0-0.0","25748784","wem/bandit_party_2","A2MD4K1YFYBLZN","either","1","827","","","","","","","0","1","0","","0.9213574857","0.4","0.6","0.8","0.2","0.9213574857","0.264467441","0.9284398706","0.4468633868","","","","","","","","","","","","","","72","H","0","img/none_selected.jpg","","182","main_expt","",""
"","bandit","266","616240","0.0-224.0-0.0","25748784","wem/bandit_party_2","A2MD4K1YFYBLZN","either","1","469","","","","","","","1","0","0","0.9374560388","","0.4","0.6","0.8","0.2","","","","","0.9374560388","0.2240632979","0.89591471","0.4985091709","","","","","","","","","","72","H","0","img/none_selected.jpg","","183","main_expt","",""
"","bandit","267","618315","0.0-225.0-0.0","25748784","wem/bandit_party_2","A2MD4K1YFYBLZN","either","1","558","","","","","","","1","0","0","0.9120054929","","0.4","0.6","0.8","0.2","","","","","0.9120054929","0.1671404848","0.9146434193","0.6057575335","","","","","","","","","","72","H","0","img/none_selected.jpg","","184","main_expt","",""
"","bandit","268","620042","0.0-226.0-0.0","25748784","wem/bandit_party_2","A2MD4K1YFYBLZN","either","1","210","","","","","","","0","1","0","","0.8428471033","0.4","0.6","0.8","0.2","0.8428471033","0.1932257563","0.8575823977","0.4915456485","","","","","","","","","","","","","","72","H","0","img/none_selected.jpg","","185","main_expt","",""
"","bandit","269","622419","0.0-227.0-0.0","25748784","wem/bandit_party_2","A2MD4K1YFYBLZN","either","1","860","","","","","","","0","1","0","","0.7734335662","0.4","0.6","0.8","0.2","0.7734335662","0.155472597","0.8487952361","0.5976273718","","","","","","","","","","","","","","72","H","0","img/none_selected.jpg","","186","main_expt","",""
"","bandit","270","624425","0.0-228.0-0.0","25748784","wem/bandit_party_2","A2MD4K1YFYBLZN","either","1","492","","","","","","","1","0","0","0.7667319261","","0.4","0.6","0.8","0.2","","","","","0.7667319261","0.1895871356","0.8603972339","0.5743595779","","","","","","","","","","72","H","0","img/none_selected.jpg","","187","main_expt","",""
"","bandit","271","626559","0.0-229.0-0.0","25748784","wem/bandit_party_2","A2MD4K1YFYBLZN","either","1","563","","","","","","","0","1","0","","0.5945875292","0.4","0.6","0.8","0.2","0.5945875292","0.2119556673","0.8834510925","0.6833173747","","","","","","","","","","","","","","72","H","0","img/none_selected.jpg","","188","main_expt","",""
"","bandit","272","628556","0.0-230.0-0.0","25748784","wem/bandit_party_2","A2MD4K1YFYBLZN","either","1","482","","","","","","","0","1","0","","0.7406569186","0.4","0.6","0.8","0.2","0.7406569186","0.2255007403","0.8973947779","0.651089354","","","","","","","","","","","","","","72","H","0","img/none_selected.jpg","","189","main_expt","",""
"","bandit","273","631043","0.0-231.0-0.0","25748784","wem/bandit_party_2","A2MD4K1YFYBLZN","either","1","757","","","","","","","0","0","1","","0.7371931777","0.4","0.6","0.8","0.2","0.7371931777","0.1754842532","0.8824587855","0.6599652607","","","","","","","","","","","","","","72","H","0","img/none_selected.jpg","","190","main_expt","",""
"","bandit","274","633045","0.0-232.0-0.0","25748784","wem/bandit_party_2","A2MD4K1YFYBLZN","either","1","472","","","","","","","0","0","1","","0.7019705866","0.4","0.6","0.8","0.2","0.7019705866","0.1936311571","0.9076431997","0.6960236584","","","","","","","","","","","","","","72","H","0","img/none_selected.jpg","","191","main_expt","",""
"","bandit","275","635989","0.0-233.0-0.0","25748784","wem/bandit_party_2","A2MD4K1YFYBLZN","either","1","1415","","","","","","","0","1","0","","0.6198122665","0.4","0.6","0.8","0.2","0.6198122665","0.215612591","0.8673165995","0.6713911156","","","","","","","","","","","","","","72","H","0","img/none_selected.jpg","","192","main_expt","",""
"","bandit","276","638242","0.0-234.0-0.0","25748784","wem/bandit_party_2","A2MD4K1YFYBLZN","either","1","721","","","","","","","0","1","0","","0.6100930929","0.4","0.6","0.8","0.2","0.6100930929","0.2818734505","0.8264401474","0.7244072205","","","","","","","","","","","","","","72","H","0","img/none_selected.jpg","","193","main_expt","",""
"","bandit","277","640221","0.0-235.0-0.0","25748784","wem/bandit_party_2","A2MD4K1YFYBLZN","either","1","453","","","","","","","0","1","0","","0.6332739585","0.4","0.6","0.8","0.2","0.6332739585","0.3616108755","0.8546086414","0.7397798508","","","","","","","","","","","","","","72","H","0","img/none_selected.jpg","","194","main_expt","",""
"","bandit","278","642536","0.0-236.0-0.0","25748784","wem/bandit_party_2","A2MD4K1YFYBLZN","either","1","797","","","","","","","0","0","1","","0.609207161","0.4","0.6","0.8","0.2","0.609207161","0.3979961615","0.7914914872","0.7602069811","","","","","","","","","","","","","","72","H","0","img/none_selected.jpg","","195","main_expt","",""
"","bandit","279","644943","0.0-237.0-0.0","25748784","wem/bandit_party_2","A2MD4K1YFYBLZN","either","1","882","","","","","","","0","1","0","","0.6560649547","0.4","0.6","0.8","0.2","0.6560649547","0.4366641927","0.7608346536","0.7114092524","","","","","","","","","","","","","","72","H","0","img/none_selected.jpg","","196","main_expt","",""
"","bandit","280","647581","0.0-238.0-0.0","25748784","wem/bandit_party_2","A2MD4K1YFYBLZN","either","1","1106","","","","","","","1","0","0","0.6656533059","","0.4","0.6","0.8","0.2","","","","","0.6656533059","0.560782874","0.7003784325","0.6917424169","","","","","","","","","","72","H","0","img/none_selected.jpg","","197","main_expt","",""
"","bandit","281","650240","0.0-239.0-0.0","25748784","wem/bandit_party_2","A2MD4K1YFYBLZN","either","1","1133","","","","","","","0","0","1","","0.6841747727","0.4","0.6","0.8","0.2","0.6841747727","0.5649388288","0.6036075577","0.6561069913","","","","","","","","","","","","","","72","H","0","img/none_selected.jpg","","198","main_expt","",""
"","bandit","282","652184","0.0-240.0-0.0","25748784","wem/bandit_party_2","A2MD4K1YFYBLZN","either","1","426","","","","","","","0","1","0","","0.7105065455","0.4","0.6","0.8","0.2","0.7105065455","0.5375892324","0.5843314555","0.6948346643","","","","","","","","","","","","","","72","H","0","img/none_selected.jpg","","199","main_expt","",""
"","bandit","283","654465","0.0-241.0-0.0","25748784","wem/bandit_party_2","A2MD4K1YFYBLZN","either","1","764","","","","","","","0","1","0","","0.7380433654","0.4","0.6","0.8","0.2","0.7380433654","0.5625167851","0.539414212","0.7369743936","","","","","","","","","","","","","","72","H","0","img/none_selected.jpg","","200","main_expt","",""
"","bandit","284","657128","0.0-242.0-0.0","25748784","wem/bandit_party_2","A2MD4K1YFYBLZN","either","1","1146","","","","","","","0","1","0","","0.6432951689","0.4","0.6","0.8","0.2","0.6432951689","0.6266810217","0.3774065742","0.8347268415","","","","","","","","","","","","","","72","H","0","img/none_selected.jpg","","201","main_expt","",""
"","bandit","285","659439","0.0-243.0-0.0","25748784","wem/bandit_party_2","A2MD4K1YFYBLZN","either","1","796","","","","","","","0","1","0","","0.4995879772","0.4","0.6","0.8","0.2","0.4995879772","0.6661075828","0.2824615609","0.7612264534","","","","","","","","","","","","","","72","H","0","img/none_selected.jpg","","202","main_expt","",""
"","bandit","286","661828","0.0-244.0-0.0","25748784","wem/bandit_party_2","A2MD4K1YFYBLZN","either","1","873","","","","","","","0","0","1","0.4767352753","","0.4","0.6","0.8","0.2","","","","","0.4767352753","0.7534099026","0.210170224","0.6904596671","","","","","","","","","","72","H","0","img/none_selected.jpg","","203","main_expt","",""
"","bandit","287","664267","0.0-245.0-0.0","25748784","wem/bandit_party_2","A2MD4K1YFYBLZN","either","1","924","","","","","","","0","0","1","","0.3680612217","0.4","0.6","0.8","0.2","0.3680612217","0.7033522103","0.2708138581","0.6855485072","","","","","","","","","","","","","","72","H","0","img/none_selected.jpg","","204","main_expt","",""
"","bandit","288","666341","0.0-246.0-0.0","25748784","wem/bandit_party_2","A2MD4K1YFYBLZN","either","1","546","","","","","","","0","1","0","","0.3404512965","0.4","0.6","0.8","0.2","0.3404512965","0.6105989365","0.3319820794","0.7006332368","","","","","","","","","","","","","","72","H","0","img/none_selected.jpg","","205","main_expt","",""
"","bandit","289","668440","0.0-247.0-0.0","25748784","wem/bandit_party_2","A2MD4K1YFYBLZN","either","1","538","","","","","","","0","0","1","0.2774568564","","0.4","0.6","0.8","0.2","","","","","0.2774568564","0.725137222","0.3517339603","0.7533130943","","","","","","","","","","72","H","0","img/none_selected.jpg","","206","main_expt","",""
"","bandit","290","670628","0.0-248.0-0.0","25748784","wem/bandit_party_2","A2MD4K1YFYBLZN","either","1","670","","","","","","","1","0","0","0.2228883469","","0.4","0.6","0.8","0.2","","","","","0.2228883469","0.5888984072","0.2871079035","0.7191760557","","","","","","","","","","72","H","0","img/none_selected.jpg","","207","main_expt","",""
"","bandit","291","672813","0.0-249.0-0.0","25748784","wem/bandit_party_2","A2MD4K1YFYBLZN","either","1","669","","","","","","","0","0","1","","0.2829247412","0.4","0.6","0.8","0.2","0.2829247412","0.4650323514","0.2642306377","0.6264293856","","","","","","","","","","","","","","72","H","0","img/none_selected.jpg","","208","main_expt","",""
"","bandit","292","675081","0.0-250.0-0.0","25748784","wem/bandit_party_2","A2MD4K1YFYBLZN","either","1","747","","","","","","","0","0","1","","0.3169104167","0.4","0.6","0.8","0.2","0.3169104167","0.4100719568","0.3587725811","0.6500478562","","","","","","","","","","","","","","72","H","0","img/none_selected.jpg","","209","main_expt","",""
"","bandit","293","677584","0.0-251.0-0.0","25748784","wem/bandit_party_2","A2MD4K1YFYBLZN","either","1","987","","","","","","","0","0","1","","0.2090062306","0.4","0.6","0.8","0.2","0.2090062306","0.5177296744","0.3103342645","0.6498865343","","","","","","","","","","","","","","72","H","0","img/none_selected.jpg","","210","main_expt","",""
"","bandit","294","680131","0.0-252.0-0.0","25748784","wem/bandit_party_2","A2MD4K1YFYBLZN","either","1","1032","","","","","","","0","0","1","0.1481662818","","0.4","0.6","0.8","0.2","","","","","0.1481662818","0.5950812693","0.3760595068","0.6056301442","","","","","","","","","","72","H","0","img/none_selected.jpg","","211","main_expt","",""
"","bandit","295","682089","0.0-253.0-0.0","25748784","wem/bandit_party_2","A2MD4K1YFYBLZN","either","1","317","","","","","","","0","0","1","","0.2114888193","0.4","0.6","0.8","0.2","0.2114888193","0.7169745983","0.447023013","0.5524844402","","","","","","","","","","","","","","72","H","0","img/none_selected.jpg","","212","main_expt","",""
"","bandit","296","684802","0.0-254.0-0.0","25748784","wem/bandit_party_2","A2MD4K1YFYBLZN","either","1","1179","","","","","","","0","0","1","0.2234642754","","0.4","0.6","0.8","0.2","","","","","0.2234642754","0.6766124197","0.4529182837","0.6984249358","","","","","","","","","","72","H","0","img/none_selected.jpg","","213","main_expt","",""
"","bandit","297","686687","0.0-255.0-0.0","25748784","wem/bandit_party_2","A2MD4K1YFYBLZN","either","1","359","","","","","","","1","0","0","0.8005648136","","0.4","0.6","0.8","0.2","","","","","0.2315139555","0.8005648136","0.4306534983","0.5996975418","","","","","","","","","","74","J","1","","","214","main_expt","",""
"","bandit","298","688908","0.0-256.0-0.0","25748784","wem/bandit_party_2","A2MD4K1YFYBLZN","either","1","685","","","","","","","0","1","0","","0.8487964291","0.4","0.6","0.8","0.2","0.1949488974","0.8487964291","0.4314469479","0.6067129047","","","","","","","","","","","","","","74","J","1","","","215","main_expt","",""
"","bandit","299","691066","0.0-257.0-0.0","25748784","wem/bandit_party_2","A2MD4K1YFYBLZN","either","1","623","","","","","","","0","1","0","","0.8674123454","0.4","0.6","0.8","0.2","0.2333303883","0.8674123454","0.45439575","0.6297976658","","","","","","","","","","","","","","74","J","1","","","216","main_expt","",""
"","bandit","300","693239","0.0-258.0-0.0","25748784","wem/bandit_party_2","A2MD4K1YFYBLZN","either","1","654","","","","","","","0","0","1","","0.8774404243","0.4","0.6","0.8","0.2","0.2027763819","0.8774404243","0.5228861726","0.6095272491","","","","","","","","","","","","","","74","J","1","","","217","main_expt","",""
"","bandit","301","695901","0.0-259.0-0.0","25748784","wem/bandit_party_2","A2MD4K1YFYBLZN","either","1","1096","","","","","","","0","1","0","","0.8836448068","0.4","0.6","0.8","0.2","0.1895874514","0.8836448068","0.463703458","0.7058099393","","","","","","","","","","","","","","74","J","1","","","218","main_expt","",""
"","bandit","302","698890","0.0-260.0-0.0","25748784","wem/bandit_party_2","A2MD4K1YFYBLZN","either","1","1470","","","","","","","0","1","0","","0.880498508","0.4","0.6","0.8","0.2","0.1537120117","0.880498508","0.4522864467","0.7396246451","","","","","","","","","","","","","","74","J","1","","","219","main_expt","",""
"","bandit","303","701046","0.0-261.0-0.0","25748784","wem/bandit_party_2","A2MD4K1YFYBLZN","either","1","638","","","","","","","1","0","0","0.8740874997","","0.4","0.6","0.8","0.2","","","","","0.2022747423","0.8740874997","0.4561576612","0.7091968036","","","","","","","","","","74","J","1","","","220","main_expt","",""
"","bandit","304","703339","0.0-262.0-0.0","25748784","wem/bandit_party_2","A2MD4K1YFYBLZN","either","1","648","","","","","","","0","1","0","","0.8527830905","0.4","0.6","0.8","0.2","0.3174413427","0.8527830905","0.4264657168","0.7116308873","","","","","","","","","","","","","","74","J","1","","","221","main_expt","",""
"","bandit","305","705431","0.0-263.0-0.0","25748784","wem/bandit_party_2","A2MD4K1YFYBLZN","either","1","574","","","","","","","1","0","0","0.7717907476","","0.4","0.6","0.8","0.2","","","","","0.2315667073","0.7717907476","0.3055141729","0.769465391","","","","","","","","","","74","J","1","","","222","main_expt","",""
"","bandit","306","707311","0.0-264.0-0.0","25748784","wem/bandit_party_2","A2MD4K1YFYBLZN","either","1","363","","","","","","","0","1","0","","0.8359700354","0.4","0.6","0.8","0.2","0.2261006122","0.8359700354","0.2868954791","0.7509006974","","","","","","","","","","","","","","74","J","1","","","223","main_expt","",""
"","bandit","307","709269","0.0-265.0-0.0","25748784","wem/bandit_party_2","A2MD4K1YFYBLZN","either","1","440","","","","","","","0","0","1","","0.819670806","0.4","0.6","0.8","0.2","0.2662378096","0.819670806","0.2698185242","0.7007688409","","","","","","","","","","","","","","74","J","1","","","224","main_expt","",""
"","bandit","308","757721","0.0-266.0-0.0","25748784","wem/bandit_party_2","A2MD4K1YFYBLZN","either","1","46872","","","","","","","1","0","0","0.213842325","","0.4","0.6","0.8","0.2","","","","","0.2163280173","0.8512382749","0.213842325","0.7409020096","","","","","","","","","","75","K","2","","","225","main_expt","",""
"","bandit","309","759415","0.0-267.0-0.0","25748784","wem/bandit_party_2","A2MD4K1YFYBLZN","either","1","159","","","","","","","0","0","1","","0.1616408491","0.4","0.6","0.8","0.2","0.2809353625","0.8342861847","0.1616408491","0.7052945704","","","","","","","","","","","","","","75","K","2","","","226","main_expt","",""
"","bandit","310","761488","0.0-268.0-0.0","25748784","wem/bandit_party_2","A2MD4K1YFYBLZN","either","1","542","","","","","","","0","0","1","0.1777599287","","0.4","0.6","0.8","0.2","","","","","0.2396571279","0.7736041865","0.1777599287","0.606091252","","","","","","","","","","75","K","2","","","227","main_expt","",""
"","bandit","311","763420","0.0-269.0-0.0","25748784","wem/bandit_party_2","A2MD4K1YFYBLZN","either","1","409","","","","","","","0","0","1","0.2866543064","","0.4","0.6","0.8","0.2","","","","","0.3430446928","0.8094350608","0.2866543064","0.5834203199","","","","","","","","","","75","K","2","","","228","main_expt","",""
