"consent","trial_type","trial_index","time_elapsed","internal_node_id","subjID","study","MID","cond","drift","rt","responses","button_pressed","key_press","like","value","connected","gems","bombs","no_reward","GemPrChosen","BombPrChosen","GainOverPainPr_0","GainOverPainPr_1","GainOverPainPr_2","GainOverPainPr_3","LosePr_0","LosePr_1","LosePr_2","LosePr_3","WinPr_0","WinPr_1","WinPr_2","WinPr_3","Q0","Q1","Q2","gender","age","ethnicity","label","expt_phase","target","respCharCode","respKey","respChoiceNum","respChoice","practice","trial_counter","trial_label","Q0_index"
"GDM/GDM_behavioral_consent_30min_online.html","consent","0","16106","0.0-0.0","26564549","wem/bandit_party_2","A1Q8V9050IW4XG","either","1","","","","","","","","","","","","","","","","","","","","","","","","","","","","","","","","","","","","","","","","",""
"","survey-text","1","23977","0.0-1.0","26564549","wem/bandit_party_2","A1Q8V9050IW4XG","either","1","6854","{""Q0"":""A1Q8V9050IW4XG""}","","","","","","","","","","","","","","","","","","","","","","","","","","","","","","","","","","","","","","",""
"","button-response","2","148076","0.0-2.0","26564549","wem/bandit_party_2","A1Q8V9050IW4XG","either","1","122685","","1","","","","","","","","","","","","","","","","","","","","","","","","","","","","","","","","","","","","","",""
"","text-replacement","3","183058","0.0-3.0","26564549","wem/bandit_party_2","A1Q8V9050IW4XG","either","1","33975","","","32","","","","","","","","","","","","","","","","","","","","","","","","","","","","","","","","","","","","",""
"","text-replacement","4","210074","0.0-4.0","26564549","wem/bandit_party_2","A1Q8V9050IW4XG","either","1","27013","","","32","","","","","","","","","","","","","","","","","","","","","","","","","","","","","","","","","","","","",""
"","identification","5","235522","0.0-6.0-0.0","26564549","wem/bandit_party_2","A1Q8V9050IW4XG","either","1","25424","","","","0","0","0","","","","","","","","","","","","","","","","","","","","","","","","pre","identification_pre","the Republican Party","","","","","","","",""
"","identification","6","304821","0.0-6.0-1.0","26564549","wem/bandit_party_2","A1Q8V9050IW4XG","either","1","68277","","","","5","4","4","","","","","","","","","","","","","","","","","","","","","","","","pre","identification_pre","the Democratic Party","","","","","","","",""
"","text-replacement","7","326595","0.0-7.0","26564549","wem/bandit_party_2","A1Q8V9050IW4XG","either","1","20771","","","32","","","","","","","","","","","","","","","","","","","","","","","","","","","","","","","","","","","","",""
"","text-replacement","8","346409","0.0-8.0","26564549","wem/bandit_party_2","A1Q8V9050IW4XG","either","1","19809","","","32","","","","","","","","","","","","","","","","","","","","","","","","","","","","","","","","","","","","",""
"","text-replacement","9","368718","0.0-9.0","26564549","wem/bandit_party_2","A1Q8V9050IW4XG","either","1","22307","","","32","","","","","","","","","","","","","","","","","","","","","","","","","","","","","","","","","","","","",""
"","text-replacement","10","384154","0.0-10.0","26564549","wem/bandit_party_2","A1Q8V9050IW4XG","either","1","15434","","","32","","","","","","","","","","","","","","","","","","","","","","","","","","","","","","","","","","","","",""
"","text-replacement","11","408863","0.0-11.0","26564549","wem/bandit_party_2","A1Q8V9050IW4XG","either","1","24702","","","32","","","","","","","","","","","","","","","","","","","","","","","","","","","","","","","","","","","","",""
"","bandit","12","412400","0.0-12.0-0.0","26564549","wem/bandit_party_2","A1Q8V9050IW4XG","either","1","2026","","","","","","","0","0","1","0","0","","","","","0","","","","0","","","","","","","","","","","","","74","J","0","img/none_selected_demo.jpg","true","0","",""
"","bandit","13","414958","0.0-13.0-0.0","26564549","wem/bandit_party_2","A1Q8V9050IW4XG","either","1","1045","","","","","","","0","0","1","0","0","","","","","0","","","","0","","","","","","","","","","","","","75","K","0","img/none_selected_demo.jpg","true","0","",""
"","text-replacement","14","422305","0.0-14.0","26564549","wem/bandit_party_2","A1Q8V9050IW4XG","either","1","7335","","","32","","","","","","","","","","","","","","","","","","","","","","","","","","","","","","","","","","","","",""
"","text-replacement","15","428180","0.0-15.0","26564549","wem/bandit_party_2","A1Q8V9050IW4XG","either","1","5875","","","32","","","","","","","","","","","","","","","","","","","","","","","","","","","","","","","","","","","","",""
"","text-replacement","16","439627","0.0-16.0","26564549","wem/bandit_party_2","A1Q8V9050IW4XG","either","1","11444","","","32","","","","","","","","","","","","","","","","","","","","","","","","","","","","","","","","","","","","",""
"","text-replacement","17","444937","0.0-17.0","26564549","wem/bandit_party_2","A1Q8V9050IW4XG","either","1","5308","","","32","","","","","","","","","","","","","","","","","","","","","","","","","","","","","","","","","","","","",""
"","bandit","18","447479","0.0-18.0-0.0","26564549","wem/bandit_party_2","A1Q8V9050IW4XG","either","1","1030","","","","","","","0","0","1","","0.8","0.5","0.5","","","0.8","0.2","","","","","","","","","","","","","","","","74","J","0","img/none_selected_demo.jpg","true","0","80_20_practice",""
"","bandit","19","449828","0.0-18.0-1.0","26564549","wem/bandit_party_2","A1Q8V9050IW4XG","either","1","838","","","","","","","1","0","0","0.8","","0.5","0.5","","","","","","","0.8","0.2","","","","","","","","","","","","74","J","0","img/none_selected_demo.jpg","true","0","80_20_practice",""
"","bandit","20","451855","0.0-18.0-2.0","26564549","wem/bandit_party_2","A1Q8V9050IW4XG","either","1","515","","","","","","","0","1","0","","0.2","0.5","0.5","","","0.8","0.2","","","","","","","","","","","","","","","","75","K","1","","true","0","80_20_practice",""
"","bandit","21","454480","0.0-18.0-3.0","26564549","wem/bandit_party_2","A1Q8V9050IW4XG","either","1","1113","","","","","","","0","0","1","","0.2","0.5","0.5","","","0.8","0.2","","","","","","","","","","","","","","","","75","K","1","","true","0","80_20_practice",""
"","bandit","22","456453","0.0-18.0-4.0","26564549","wem/bandit_party_2","A1Q8V9050IW4XG","either","1","460","","","","","","","1","0","0","0.8","","0.5","0.5","","","","","","","0.8","0.2","","","","","","","","","","","","74","J","0","img/none_selected_demo.jpg","true","0","80_20_practice",""
"","bandit","23","458258","0.0-18.0-5.0","26564549","wem/bandit_party_2","A1Q8V9050IW4XG","either","1","287","","","","","","","0","1","0","","0.2","0.5","0.5","","","0.8","0.2","","","","","","","","","","","","","","","","75","K","1","","true","0","80_20_practice",""
"","bandit","24","460348","0.0-18.0-6.0","26564549","wem/bandit_party_2","A1Q8V9050IW4XG","either","1","575","","","","","","","0","1","0","","0.8","0.5","0.5","","","0.8","0.2","","","","","","","","","","","","","","","","74","J","0","img/none_selected_demo.jpg","true","0","80_20_practice",""
"","bandit","25","462196","0.0-18.0-7.0","26564549","wem/bandit_party_2","A1Q8V9050IW4XG","either","1","335","","","","","","","0","0","1","","0.2","0.5","0.5","","","0.8","0.2","","","","","","","","","","","","","","","","75","K","1","","true","0","80_20_practice",""
"","bandit","26","465589","0.0-18.0-8.0","26564549","wem/bandit_party_2","A1Q8V9050IW4XG","either","1","1885","","","","","","","1","0","0","0.8","","0.5","0.5","","","","","","","0.8","0.2","","","","","","","","","","","","74","J","0","img/none_selected_demo.jpg","true","0","80_20_practice",""
"","bandit","27","467422","0.0-18.0-9.0","26564549","wem/bandit_party_2","A1Q8V9050IW4XG","either","1","315","","","","","","","0","0","1","","0.2","0.5","0.5","","","0.8","0.2","","","","","","","","","","","","","","","","75","K","1","","true","0","80_20_practice",""
"","bandit","28","469704","0.0-18.0-10.0","26564549","wem/bandit_party_2","A1Q8V9050IW4XG","either","1","770","","","","","","","0","1","0","","0.8","0.5","0.5","","","0.8","0.2","","","","","","","","","","","","","","","","74","J","0","img/none_selected_demo.jpg","true","0","80_20_practice",""
"","bandit","29","471549","0.0-18.0-11.0","26564549","wem/bandit_party_2","A1Q8V9050IW4XG","either","1","330","","","","","","","0","0","1","","0.2","0.5","0.5","","","0.8","0.2","","","","","","","","","","","","","","","","75","K","1","","true","0","80_20_practice",""
"","bandit","30","473484","0.0-18.0-12.0","26564549","wem/bandit_party_2","A1Q8V9050IW4XG","either","1","425","","","","","","","0","0","1","0.8","","0.5","0.5","","","","","","","0.8","0.2","","","","","","","","","","","","74","J","0","img/none_selected_demo.jpg","true","0","80_20_practice",""
"","bandit","31","475298","0.0-18.0-13.0","26564549","wem/bandit_party_2","A1Q8V9050IW4XG","either","1","304","","","","","","","0","0","1","0.8","","0.5","0.5","","","","","","","0.8","0.2","","","","","","","","","","","","74","J","0","img/none_selected_demo.jpg","true","0","80_20_practice",""
"","bandit","32","477100","0.0-18.0-14.0","26564549","wem/bandit_party_2","A1Q8V9050IW4XG","either","1","284","","","","","","","0","0","1","0.2","","0.5","0.5","","","","","","","0.8","0.2","","","","","","","","","","","","75","K","1","","true","0","80_20_practice",""
"","bandit","33","478962","0.0-18.0-15.0","26564549","wem/bandit_party_2","A1Q8V9050IW4XG","either","1","352","","","","","","","1","0","0","0.8","","0.5","0.5","","","","","","","0.8","0.2","","","","","","","","","","","","74","J","0","img/none_selected_demo.jpg","true","0","80_20_practice",""
"","bandit","34","481169","0.0-18.0-16.0","26564549","wem/bandit_party_2","A1Q8V9050IW4XG","either","1","697","","","","","","","0","0","1","","0.8","0.5","0.5","","","0.8","0.2","","","","","","","","","","","","","","","","74","J","0","img/none_selected_demo.jpg","true","0","80_20_practice",""
"","bandit","35","483692","0.0-18.0-17.0","26564549","wem/bandit_party_2","A1Q8V9050IW4XG","either","1","1010","","","","","","","0","1","0","","0.8","0.5","0.5","","","0.8","0.2","","","","","","","","","","","","","","","","74","J","0","img/none_selected_demo.jpg","true","0","80_20_practice",""
"","bandit","36","485476","0.0-18.0-18.0","26564549","wem/bandit_party_2","A1Q8V9050IW4XG","either","1","275","","","","","","","0","1","0","","0.8","0.5","0.5","","","0.8","0.2","","","","","","","","","","","","","","","","74","J","0","img/none_selected_demo.jpg","true","0","80_20_practice",""
"","bandit","37","487045","0.0-18.0-19.0","26564549","wem/bandit_party_2","A1Q8V9050IW4XG","either","1","60","","","","","","","0","0","1","0.8","","0.5","0.5","","","","","","","0.8","0.2","","","","","","","","","","","","74","J","0","img/none_selected_demo.jpg","true","0","80_20_practice",""
"","text-replacement","38","494664","0.0-19.0","26564549","wem/bandit_party_2","A1Q8V9050IW4XG","either","1","7614","","","32","","","","","","","","","","","","","","","","","","","","","","","","","","","","","","","","","","","","",""
"","bandit","39","497200","0.0-20.0-0.0","26564549","wem/bandit_party_2","A1Q8V9050IW4XG","either","1","1025","","","","","","","1","0","0","1","0","","","","","0","1","","","1","0","","","","","","","","","","","","74","J","0","img/none_selected_demo.jpg","true","0","",""
"","text-replacement","40","512640","0.0-21.0","26564549","wem/bandit_party_2","A1Q8V9050IW4XG","either","1","15433","","","32","","","","","","","","","","","","","","","","","","","","","","","","","","","","","","","","","","","","",""
"","text-replacement","41","583095","0.0-22.0","26564549","wem/bandit_party_2","A1Q8V9050IW4XG","either","1","70451","","","32","","","","","","","","","","","","","","","","","","","","","","","","","","","","","","","","","","","","",""
"","text-replacement","42","599293","0.0-23.0","26564549","wem/bandit_party_2","A1Q8V9050IW4XG","either","1","16194","","","32","","","","","","","","","","","","","","","","","","","","","","","","","","","","","","","","","","","","",""
"","text-replacement","43","605613","0.0-24.0","26564549","wem/bandit_party_2","A1Q8V9050IW4XG","either","1","6316","","","32","","","","","","","","","","","","","","","","","","","","","","","","","","","","","","","","","","","","",""
"","text-replacement","44","653328","0.0-25.0","26564549","wem/bandit_party_2","A1Q8V9050IW4XG","either","1","47711","","","32","","","","","","","","","","","","","","","","","","","","","","","","","","","","","","","","","","","","",""
"","text-replacement","45","657617","0.0-26.0","26564549","wem/bandit_party_2","A1Q8V9050IW4XG","either","1","4283","","","32","","","","","","","","","","","","","","","","","","","","","","","","","","","","","","","","","","","","",""
"","text-replacement","46","673229","0.0-27.0","26564549","wem/bandit_party_2","A1Q8V9050IW4XG","either","1","15608","","","32","","","","","","","","","","","","","","","","","","","","","","","","","","","","","","","","","","","","",""
"","text-replacement","47","679148","0.0-28.0","26564549","wem/bandit_party_2","A1Q8V9050IW4XG","either","1","5915","","","32","","","","","","","","","","","","","","","","","","","","","","","","","","","","","","","","","","","","",""
"","text-replacement","48","725405","0.0-29.0","26564549","wem/bandit_party_2","A1Q8V9050IW4XG","either","1","46253","","","32","","","","","","","","","","","","","","","","","","","","","","","","","","","","","","","","","","","","",""
"","text-replacement","49","748001","0.0-30.0","26564549","wem/bandit_party_2","A1Q8V9050IW4XG","either","1","22592","","","32","","","","","","","","","","","","","","","","","","","","","","","","","","","","","","","","","","","","",""
"","text-replacement","50","754169","0.0-31.0","26564549","wem/bandit_party_2","A1Q8V9050IW4XG","either","1","6164","","","32","","","","","","","","","","","","","","","","","","","","","","","","","","","","","","","","","","","","",""
"","bandit","51","756931","0.0-32.0-0.0","26564549","wem/bandit_party_2","A1Q8V9050IW4XG","either","1","1252","","","","","","","1","0","0","0.8","","0.5","0.5","0.5","0.5","","","","","0.8","0.2","0.6","0.2","","","","","","","","","","72","H","0","img/none_selected.jpg","true","0","full_practice",""
"","bandit","52","759173","0.0-32.0-1.0","26564549","wem/bandit_party_2","A1Q8V9050IW4XG","either","1","730","","","","","","","0","0","1","0.2","","0.5","0.5","0.5","0.5","","","","","0.8","0.2","0.6","0.2","","","","","","","","","","74","J","1","","true","0","full_practice",""
"","bandit","53","761980","0.0-32.0-2.0","26564549","wem/bandit_party_2","A1Q8V9050IW4XG","either","1","1297","","","","","","","0","0","1","0.6","","0.5","0.5","0.5","0.5","","","","","0.8","0.2","0.6","0.2","","","","","","","","","","75","K","2","","true","0","full_practice",""
"","bandit","54","763515","0.0-32.0-3.0","26564549","wem/bandit_party_2","A1Q8V9050IW4XG","either","1","23","","","","","","","0","0","1","0.2","","0.5","0.5","0.5","0.5","","","","","0.8","0.2","0.6","0.2","","","","","","","","","","76","L","3","","true","0","full_practice",""
"","bandit","55","766498","0.0-32.0-4.0","26564549","wem/bandit_party_2","A1Q8V9050IW4XG","either","1","1470","","","","","","","0","1","0","","0.8","0.5","0.5","0.5","0.5","0.8","0.2","0.6","0.2","","","","","","","","","","","","","","72","H","0","img/none_selected.jpg","true","0","full_practice",""
"","bandit","56","768409","0.0-32.0-5.0","26564549","wem/bandit_party_2","A1Q8V9050IW4XG","either","1","401","","","","","","","0","0","1","0.2","","0.5","0.5","0.5","0.5","","","","","0.8","0.2","0.6","0.2","","","","","","","","","","74","J","1","","true","0","full_practice",""
"","bandit","57","770221","0.0-32.0-6.0","26564549","wem/bandit_party_2","A1Q8V9050IW4XG","either","1","301","","","","","","","0","0","1","","0.6","0.5","0.5","0.5","0.5","0.8","0.2","0.6","0.2","","","","","","","","","","","","","","75","K","2","","true","0","full_practice",""
"","bandit","58","772139","0.0-32.0-7.0","26564549","wem/bandit_party_2","A1Q8V9050IW4XG","either","1","407","","","","","","","0","0","1","","0.2","0.5","0.5","0.5","0.5","0.8","0.2","0.6","0.2","","","","","","","","","","","","","","76","L","3","","true","0","full_practice",""
"","bandit","59","774522","0.0-32.0-8.0","26564549","wem/bandit_party_2","A1Q8V9050IW4XG","either","1","863","","","","","","","1","0","0","0.8","","0.5","0.5","0.5","0.5","","","","","0.8","0.2","0.6","0.2","","","","","","","","","","72","H","0","img/none_selected.jpg","true","0","full_practice",""
"","bandit","60","776356","0.0-32.0-9.0","26564549","wem/bandit_party_2","A1Q8V9050IW4XG","either","1","325","","","","","","","0","1","0","","0.8","0.5","0.5","0.5","0.5","0.8","0.2","0.6","0.2","","","","","","","","","","","","","","72","H","0","img/none_selected.jpg","true","0","full_practice",""
"","bandit","61","778170","0.0-32.0-10.0","26564549","wem/bandit_party_2","A1Q8V9050IW4XG","either","1","301","","","","","","","0","1","0","","0.8","0.5","0.5","0.5","0.5","0.8","0.2","0.6","0.2","","","","","","","","","","","","","","72","H","0","img/none_selected.jpg","true","0","full_practice",""
"","bandit","62","780310","0.0-32.0-11.0","26564549","wem/bandit_party_2","A1Q8V9050IW4XG","either","1","629","","","","","","","1","0","0","0.8","","0.5","0.5","0.5","0.5","","","","","0.8","0.2","0.6","0.2","","","","","","","","","","72","H","0","img/none_selected.jpg","true","0","full_practice",""
"","bandit","63","784812","0.0-32.0-12.0","26564549","wem/bandit_party_2","A1Q8V9050IW4XG","either","1","2988","","","","","","","1","0","0","0.8","","0.5","0.5","0.5","0.5","","","","","0.8","0.2","0.6","0.2","","","","","","","","","","72","H","0","img/none_selected.jpg","true","0","full_practice",""
"","bandit","64","786519","0.0-32.0-13.0","26564549","wem/bandit_party_2","A1Q8V9050IW4XG","either","1","194","","","","","","","0","0","1","0.8","","0.5","0.5","0.5","0.5","","","","","0.8","0.2","0.6","0.2","","","","","","","","","","72","H","0","img/none_selected.jpg","true","0","full_practice",""
"","bandit","65","790063","0.0-32.0-14.0","26564549","wem/bandit_party_2","A1Q8V9050IW4XG","either","1","2034","","","","","","","0","0","1","","0.8","0.5","0.5","0.5","0.5","0.8","0.2","0.6","0.2","","","","","","","","","","","","","","72","H","0","img/none_selected.jpg","true","0","full_practice",""
"","bandit","66","792240","0.0-32.0-15.0","26564549","wem/bandit_party_2","A1Q8V9050IW4XG","either","1","667","","","","","","","0","0","1","0.2","","0.5","0.5","0.5","0.5","","","","","0.8","0.2","0.6","0.2","","","","","","","","","","74","J","1","","true","0","full_practice",""
"","bandit","67","794153","0.0-32.0-16.0","26564549","wem/bandit_party_2","A1Q8V9050IW4XG","either","1","363","","","","","","","1","0","0","0.6","","0.5","0.5","0.5","0.5","","","","","0.8","0.2","0.6","0.2","","","","","","","","","","75","K","2","","true","0","full_practice",""
"","bandit","68","795928","0.0-32.0-17.0","26564549","wem/bandit_party_2","A1Q8V9050IW4XG","either","1","265","","","","","","","0","0","1","0.2","","0.5","0.5","0.5","0.5","","","","","0.8","0.2","0.6","0.2","","","","","","","","","","76","L","3","","true","0","full_practice",""
"","bandit","69","798234","0.0-32.0-18.0","26564549","wem/bandit_party_2","A1Q8V9050IW4XG","either","1","793","","","","","","","1","0","0","0.6","","0.5","0.5","0.5","0.5","","","","","0.8","0.2","0.6","0.2","","","","","","","","","","75","K","2","","true","0","full_practice",""
"","bandit","70","800192","0.0-32.0-19.0","26564549","wem/bandit_party_2","A1Q8V9050IW4XG","either","1","445","","","","","","","0","0","1","","0.8","0.5","0.5","0.5","0.5","0.8","0.2","0.6","0.2","","","","","","","","","","","","","","72","H","0","img/none_selected.jpg","true","0","full_practice",""
"","text","71","804761","0.0-33.0","26564549","wem/bandit_party_2","A1Q8V9050IW4XG","either","1","4519","","","32","","","","","","","","","","","","","","","","","","","","","","","","","","","","","","","","","","","","",""
"","text-replacement","72","830517","0.0-34.0","26564549","wem/bandit_party_2","A1Q8V9050IW4XG","either","1","24751","","","32","","","","","","","","","","","","","","","","","","","","","","","","","","","","","","","","","","","","",""
"","text-replacement","73","849178","0.0-35.0","26564549","wem/bandit_party_2","A1Q8V9050IW4XG","either","1","18655","","","32","","","","","","","","","","","","","","","","","","","","","","","","","","","","","","","","","","","","",""
"","text-replacement","74","857926","0.0-36.0","26564549","wem/bandit_party_2","A1Q8V9050IW4XG","either","1","8743","","","32","","","","","","","","","","","","","","","","","","","","","","","","","","","","","","","","","","","","",""
"","text-replacement","75","867097","0.0-37.0","26564549","wem/bandit_party_2","A1Q8V9050IW4XG","either","1","9164","","","32","","","","","","","","","","","","","","","","","","","","","","","","","","","","","","","","","","","","",""
"","text-replacement","76","877969","0.0-38.0","26564549","wem/bandit_party_2","A1Q8V9050IW4XG","either","1","10868","","","32","","","","","","","","","","","","","","","","","","","","","","","","","","","","","","","","","","","","",""
"","survey-multi-choice-replacement","77","887724","0.0-39.0-0.0","26564549","wem/bandit_party_2","A1Q8V9050IW4XG","either","1","9741","","","","","","","","","","","","","","","","","","","","","","","","Money will be added to the pool for <span style='color:blue;'>DEMOCRATS</span>","","","","","","","attn_check","","","","","","","","","0"
"","survey-multi-choice-replacement","78","898535","0.0-40.0-0.0","26564549","wem/bandit_party_2","A1Q8V9050IW4XG","either","1","9789","","","","","","","","","","","","","","","","","","","","","","","","Equal amounts of money will be added to the pool for <span style='color:blue;'>DEMOCRATS</span> and subtracted from the pool for <span style='color:red;'>REPUBLICANS</span>","","","","","","","attn_check","","","","","","","","","2"
"","survey-multi-choice-replacement","79","910323","0.0-41.0-0.0","26564549","wem/bandit_party_2","A1Q8V9050IW4XG","either","1","10765","","","","","","","","","","","","","","","","","","","","","","","","No money will be added to either pool","","","","","","","attn_check","","","","","","","","","3"
"","bandit","80","915099","0.0-42.0-0.0","26564549","wem/bandit_party_2","A1Q8V9050IW4XG","either","1","2256","","","","","","","1","0","0","0.8101107889","","0.6","0.4","0.2","0.8","","","","","0.8101107889","0.7674833066","0.4995060561","0.5202783506","","","","","","","","","","72","H","0","img/none_selected.jpg","","1","main_expt",""
"","bandit","81","917554","0.0-43.0-0.0","26564549","wem/bandit_party_2","A1Q8V9050IW4XG","either","1","942","","","","","","","0","0","1","0.7786696111","","0.6","0.4","0.2","0.8","","","","","0.8827976921","0.7786696111","0.4452888422","0.4559554218","","","","","","","","","","74","J","1","","","2","main_expt",""
"","bandit","82","919578","0.0-44.0-0.0","26564549","wem/bandit_party_2","A1Q8V9050IW4XG","either","1","511","","","","","","","0","0","1","","0.4956599627","0.6","0.4","0.2","0.8","0.918633781","0.7883912796","0.4956599627","0.3791335739","","","","","","","","","","","","","","75","K","2","","","3","main_expt",""
"","bandit","83","921505","0.0-45.0-0.0","26564549","wem/bandit_party_2","A1Q8V9050IW4XG","either","1","413","","","","","","","0","0","1","","0.362446662","0.6","0.4","0.2","0.8","0.8961075186","0.8311681014","0.3939226057","0.362446662","","","","","","","","","","","","","","76","L","3","","","4","main_expt",""
"","bandit","84","923642","0.0-46.0-0.0","26564549","wem/bandit_party_2","A1Q8V9050IW4XG","either","1","621","","","","","","","1","0","0","0.9065038385","","0.6","0.4","0.2","0.8","","","","","0.9065038385","0.706748425","0.4737796053","0.4337427147","","","","","","","","","","72","H","0","img/none_selected.jpg","","5","main_expt",""
"","bandit","85","927452","0.0-47.0-0.0","26564549","wem/bandit_party_2","A1Q8V9050IW4XG","either","1","2297","","","","","","","0","1","0","","0.9628954729","0.6","0.4","0.2","0.8","0.9628954729","0.7246132019","0.5798080576","0.4260566605","","","","","","","","","","","","","","72","H","0","img/none_selected.jpg","","6","main_expt",""
"","bandit","86","929835","0.0-48.0-0.0","26564549","wem/bandit_party_2","A1Q8V9050IW4XG","either","1","867","","","","","","","1","0","0","0.9244273404","","0.6","0.4","0.2","0.8","","","","","0.9244273404","0.822103072","0.6184433593","0.5595739282","","","","","","","","","","72","H","0","img/none_selected.jpg","","7","main_expt",""
"","bandit","87","932080","0.0-49.0-0.0","26564549","wem/bandit_party_2","A1Q8V9050IW4XG","either","1","722","","","","","","","0","0","1","","0.9214665689","0.6","0.4","0.2","0.8","0.9214665689","0.8176183596","0.5380809204","0.5757792393","","","","","","","","","","","","","","72","H","0","img/none_selected.jpg","","8","main_expt",""
"","bandit","88","933893","0.0-50.0-0.0","26564549","wem/bandit_party_2","A1Q8V9050IW4XG","either","1","302","","","","","","","1","0","0","0.7421782695","","0.6","0.4","0.2","0.8","","","","","0.9604963414","0.7421782695","0.4884558296","0.5508288143","","","","","","","","","","74","J","1","","","9","main_expt",""
"","bandit","89","936015","0.0-51.0-0.0","26564549","wem/bandit_party_2","A1Q8V9050IW4XG","either","1","580","","","","","","","0","1","0","","0.7112185725","0.6","0.4","0.2","0.8","0.973544224","0.7112185725","0.6062827564","0.4615344473","","","","","","","","","","","","","","74","J","1","","","10","main_expt",""
"","bandit","90","938185","0.0-52.0-0.0","26564549","wem/bandit_party_2","A1Q8V9050IW4XG","either","1","612","","","","","","","1","0","0","0.6656122322","","0.6","0.4","0.2","0.8","","","","","0.9756729976","0.6656122322","0.6618996933","0.4731032433","","","","","","","","","","74","J","1","","","11","main_expt",""
"","bandit","91","940159","0.0-53.0-0.0","26564549","wem/bandit_party_2","A1Q8V9050IW4XG","either","1","465","","","","","","","0","1","0","","0.632951522","0.6","0.4","0.2","0.8","0.9824084628","0.632951522","0.6589688621","0.5028989732","","","","","","","","","","","","","","74","J","1","","","12","main_expt",""
"","bandit","92","942083","0.0-54.0-0.0","26564549","wem/bandit_party_2","A1Q8V9050IW4XG","either","1","403","","","","","","","0","0","1","0.6428643634","","0.6","0.4","0.2","0.8","","","","","0.9852841122","0.6428643634","0.7483501345","0.5252386458","","","","","","","","","","74","J","1","","","13","main_expt",""
"","bandit","93","943855","0.0-55.0-0.0","26564549","wem/bandit_party_2","A1Q8V9050IW4XG","either","1","255","","","","","","","0","1","0","","0.7642220585","0.6","0.4","0.2","0.8","0.9844185579","0.5693663763","0.7642220585","0.4883642101","","","","","","","","","","","","","","75","K","2","","","14","main_expt",""
"","bandit","94","945788","0.0-56.0-0.0","26564549","wem/bandit_party_2","A1Q8V9050IW4XG","either","1","421","","","","","","","0","0","1","","0.8255663415","0.6","0.4","0.2","0.8","0.9716790186","0.6354763258","0.8255663415","0.5125695872","","","","","","","","","","","","","","75","K","2","","","15","main_expt",""
"","bandit","95","947696","0.0-57.0-0.0","26564549","wem/bandit_party_2","A1Q8V9050IW4XG","either","1","392","","","","","","","1","0","0","0.483313844","","0.6","0.4","0.2","0.8","","","","","0.9724226268","0.6074668868","0.8262734196","0.483313844","","","","","","","","","","76","L","3","","","16","main_expt",""
"","bandit","96","950043","0.0-58.0-0.0","26564549","wem/bandit_party_2","A1Q8V9050IW4XG","either","1","832","","","","","","","1","0","0","0.4764119597","","0.6","0.4","0.2","0.8","","","","","0.969397438","0.634379517","0.8957105494","0.4764119597","","","","","","","","","","76","L","3","","","17","main_expt",""
"","bandit","97","952241","0.0-59.0-0.0","26564549","wem/bandit_party_2","A1Q8V9050IW4XG","either","1","685","","","","","","","1","0","0","0.4742144938","","0.6","0.4","0.2","0.8","","","","","0.9487821198","0.7399013172","0.8243017832","0.4742144938","","","","","","","","","","76","L","3","","","18","main_expt",""
"","bandit","98","954194","0.0-60.0-0.0","26564549","wem/bandit_party_2","A1Q8V9050IW4XG","either","1","362","","","","","","","1","0","0","0.5445729057","","0.6","0.4","0.2","0.8","","","","","0.8822386923","0.6892422428","0.8174393347","0.5445729057","","","","","","","","","","76","L","3","","","19","main_expt",""
"","bandit","99","956211","0.0-61.0-0.0","26564549","wem/bandit_party_2","A1Q8V9050IW4XG","either","1","503","","","","","","","0","0","1","0.5114357523","","0.6","0.4","0.2","0.8","","","","","0.8658452863","0.5544472153","0.8457625901","0.5114357523","","","","","","","","","","76","L","3","","","20","main_expt",""
"","bandit","100","958849","0.0-62.0-0.0","26564549","wem/bandit_party_2","A1Q8V9050IW4XG","either","1","1124","","","","","","","1","0","0","0.8597265301","","0.6","0.4","0.2","0.8","","","","","0.8597265301","0.4705077418","0.8565453533","0.4948626968","","","","","","","","","","72","H","0","img/none_selected.jpg","","21","main_expt",""
"","bandit","101","960967","0.0-63.0-0.0","26564549","wem/bandit_party_2","A1Q8V9050IW4XG","either","1","606","","","","","","","1","0","0","0.929530396","","0.6","0.4","0.2","0.8","","","","","0.929530396","0.5364913494","0.8821281293","0.3750889156","","","","","","","","","","72","H","0","img/none_selected.jpg","","22","main_expt",""
"","bandit","102","963013","0.0-64.0-0.0","26564549","wem/bandit_party_2","A1Q8V9050IW4XG","either","1","532","","","","","","","1","0","0","0.9149061772","","0.6","0.4","0.2","0.8","","","","","0.9149061772","0.5450887529","0.8253896901","0.3874093852","","","","","","","","","","72","H","0","img/none_selected.jpg","","23","main_expt",""
"","bandit","103","965223","0.0-65.0-0.0","26564549","wem/bandit_party_2","A1Q8V9050IW4XG","either","1","698","","","","","","","1","0","0","0.9389899916","","0.6","0.4","0.2","0.8","","","","","0.9389899916","0.6013055931","0.8682133559","0.4126546177","","","","","","","","","","72","H","0","img/none_selected.jpg","","24","main_expt",""
"","bandit","104","967480","0.0-66.0-0.0","26564549","wem/bandit_party_2","A1Q8V9050IW4XG","either","1","745","","","","","","","0","1","0","","0.9583062328","0.6","0.4","0.2","0.8","0.9583062328","0.7116226269","0.8186134727","0.3871809826","","","","","","","","","","","","","","72","H","0","img/none_selected.jpg","","25","main_expt",""
"","bandit","105","969550","0.0-67.0-0.0","26564549","wem/bandit_party_2","A1Q8V9050IW4XG","either","1","559","","","","","","","1","0","0","0.9349434311","","0.6","0.4","0.2","0.8","","","","","0.9349434311","0.7284905038","0.841170918","0.4162773602","","","","","","","","","","72","H","0","img/none_selected.jpg","","26","main_expt",""
"","bandit","106","971498","0.0-68.0-0.0","26564549","wem/bandit_party_2","A1Q8V9050IW4XG","either","1","435","","","","","","","1","0","0","0.9147743466","","0.6","0.4","0.2","0.8","","","","","0.9147743466","0.7007901837","0.8332298301","0.4153433109","","","","","","","","","","72","H","0","img/none_selected.jpg","","27","main_expt",""
"","bandit","107","973399","0.0-69.0-0.0","26564549","wem/bandit_party_2","A1Q8V9050IW4XG","either","1","387","","","","","","","0","0","1","","0.8913744663","0.6","0.4","0.2","0.8","0.8913744663","0.7197690037","0.8340804883","0.3083156359","","","","","","","","","","","","","","72","H","0","img/none_selected.jpg","","28","main_expt",""
"","bandit","108","975352","0.0-70.0-0.0","26564549","wem/bandit_party_2","A1Q8V9050IW4XG","either","1","438","","","","","","","1","0","0","0.7569205749","","0.6","0.4","0.2","0.8","","","","","0.9004815278","0.7569205749","0.8800986549","0.4048150761","","","","","","","","","","74","J","1","","","29","main_expt",""
"","bandit","109","977284","0.0-71.0-0.0","26564549","wem/bandit_party_2","A1Q8V9050IW4XG","either","1","417","","","","","","","0","1","0","","0.7007062976","0.6","0.4","0.2","0.8","0.8335499875","0.7007062976","0.800988266","0.5604470694","","","","","","","","","","","","","","74","J","1","","","30","main_expt",""
"","bandit","110","979268","0.0-72.0-0.0","26564549","wem/bandit_party_2","A1Q8V9050IW4XG","either","1","470","","","","","","","0","1","0","","0.6218809145","0.6","0.4","0.2","0.8","0.7904098286","0.6218809145","0.8092707987","0.5114456598","","","","","","","","","","","","","","74","J","1","","","31","main_expt",""
"","bandit","111","981112","0.0-73.0-0.0","26564549","wem/bandit_party_2","A1Q8V9050IW4XG","either","1","329","","","","","","","0","1","0","","0.5448888872","0.6","0.4","0.2","0.8","0.8156470634","0.5448888872","0.7600689364","0.5195843055","","","","","","","","","","","","","","74","J","1","","","32","main_expt",""
"","bandit","112","983205","0.0-74.0-0.0","26564549","wem/bandit_party_2","A1Q8V9050IW4XG","either","1","556","","","","","","","0","0","1","","0.4396040002","0.6","0.4","0.2","0.8","0.7458483223","0.4396040002","0.7268405739","0.4278216128","","","","","","","","","","","","","","74","J","1","","","33","main_expt",""
"","bandit","113","984730","0.0-75.0-0.0","26564549","wem/bandit_party_2","A1Q8V9050IW4XG","either","1","12","","","","","","","1","0","0","0.7867385379","","0.6","0.4","0.2","0.8","","","","","0.8745519215","0.3418027302","0.7867385379","0.4581725564","","","","","","","","","","75","K","2","","","34","main_expt",""
"","bandit","114","986620","0.0-76.0-0.0","26564549","wem/bandit_party_2","A1Q8V9050IW4XG","either","1","337","","","","","","","1","0","0","0.7776722478","","0.6","0.4","0.2","0.8","","","","","0.8761773117","0.3770378826","0.7776722478","0.5170179058","","","","","","","","","","75","K","2","","","35","main_expt",""
"","bandit","115","988680","0.0-77.0-0.0","26564549","wem/bandit_party_2","A1Q8V9050IW4XG","either","1","545","","","","","","","0","1","0","","0.8110731924","0.6","0.4","0.2","0.8","0.8898579413","0.3264650107","0.8110731924","0.5761285305","","","","","","","","","","","","","","75","K","2","","","36","main_expt",""
"","bandit","116","990563","0.0-78.0-0.0","26564549","wem/bandit_party_2","A1Q8V9050IW4XG","either","1","368","","","","","","","1","0","0","0.8371501114","","0.6","0.4","0.2","0.8","","","","","0.9189960073","0.1696248696","0.8371501114","0.5824592389","","","","","","","","","","75","K","2","","","37","main_expt",""
"","bandit","117","992483","0.0-79.0-0.0","26564549","wem/bandit_party_2","A1Q8V9050IW4XG","either","1","404","","","","","","","1","0","0","0.801984358","","0.6","0.4","0.2","0.8","","","","","0.9429067042","0.3008725236","0.801984358","0.5039158184","","","","","","","","","","75","K","2","","","38","main_expt",""
"","bandit","118","994803","0.0-80.0-0.0","26564549","wem/bandit_party_2","A1Q8V9050IW4XG","either","1","807","","","","","","","0","0","1","","0.836760671","0.6","0.4","0.2","0.8","0.8860185862","0.3612597963","0.836760671","0.4906961915","","","","","","","","","","","","","","75","K","2","","","39","main_expt",""
"","bandit","119","996435","0.0-81.0-0.0","26564549","wem/bandit_party_2","A1Q8V9050IW4XG","either","1","115","","","","","","","1","0","0","0.5118773476","","0.6","0.4","0.2","0.8","","","","","0.8958725565","0.3316001813","0.7930168878","0.5118773476","","","","","","","","","","76","L","3","","","40","main_expt",""
"","bandit","120","998700","0.0-82.0-0.0","26564549","wem/bandit_party_2","A1Q8V9050IW4XG","either","1","751","","","","","","","1","0","0","0.5207000815","","0.6","0.4","0.2","0.8","","","","","0.8369757826","0.251761063","0.6758505439","0.5207000815","","","","","","","","","","76","L","3","","","41","main_expt",""
"","bandit","121","1000853","0.0-83.0-0.0","26564549","wem/bandit_party_2","A1Q8V9050IW4XG","either","1","636","","","","","","","0","0","1","0.6208632684","","0.6","0.4","0.2","0.8","","","","","0.8724413244","0.3764367217","0.669091732","0.6208632684","","","","","","","","","","76","L","3","","","42","main_expt",""
"","bandit","122","1002646","0.0-84.0-0.0","26564549","wem/bandit_party_2","A1Q8V9050IW4XG","either","1","273","","","","","","","0","1","0","","0.8721156492","0.6","0.4","0.2","0.8","0.8721156492","0.4280411123","0.5774386383","0.6736877605","","","","","","","","","","","","","","72","H","0","img/none_selected.jpg","","43","main_expt",""
"","bandit","123","1004789","0.0-85.0-0.0","26564549","wem/bandit_party_2","A1Q8V9050IW4XG","either","1","625","","","","","","","0","0","1","0.874486911","","0.6","0.4","0.2","0.8","","","","","0.874486911","0.4250007774","0.5402750746","0.6770598463","","","","","","","","","","72","H","0","img/none_selected.jpg","","44","main_expt",""
"","bandit","124","1006620","0.0-86.0-0.0","26564549","wem/bandit_party_2","A1Q8V9050IW4XG","either","1","308","","","","","","","0","0","1","0.3964774122","","0.6","0.4","0.2","0.8","","","","","0.7653026016","0.3964774122","0.4769525635","0.6811336834","","","","","","","","","","74","J","1","","","45","main_expt",""
"","bandit","125","1008232","0.0-87.0-0.0","26564549","wem/bandit_party_2","A1Q8V9050IW4XG","either","1","43","","","","","","","0","0","1","","0.460739512","0.6","0.4","0.2","0.8","0.6884850605","0.3755541509","0.460739512","0.7409040253","","","","","","","","","","","","","","75","K","2","","","46","main_expt",""
"","bandit","126","1010103","0.0-88.0-0.0","26564549","wem/bandit_party_2","A1Q8V9050IW4XG","either","1","357","","","","","","","1","0","0","0.8602274841","","0.6","0.4","0.2","0.8","","","","","0.6869729855","0.3698766084","0.3953603582","0.8602274841","","","","","","","","","","76","L","3","","","47","main_expt",""
"","bandit","127","1012082","0.0-89.0-0.0","26564549","wem/bandit_party_2","A1Q8V9050IW4XG","either","1","456","","","","","","","1","0","0","0.8947369126","","0.6","0.4","0.2","0.8","","","","","0.624749708","0.2924141828","0.5194217752","0.8947369126","","","","","","","","","","76","L","3","","","48","main_expt",""
"","bandit","128","1014256","0.0-90.0-0.0","26564549","wem/bandit_party_2","A1Q8V9050IW4XG","either","1","658","","","","","","","0","0","1","0.9071052574","","0.6","0.4","0.2","0.8","","","","","0.6269608649","0.2506794134","0.5015721984","0.9071052574","","","","","","","","","","76","L","3","","","49","main_expt",""
"","bandit","129","1016110","0.0-91.0-0.0","26564549","wem/bandit_party_2","A1Q8V9050IW4XG","either","1","341","","","","","","","0","1","0","","0.5394470416","0.6","0.4","0.2","0.8","0.5394470416","0.2200095001","0.4427204185","0.8569531155","","","","","","","","","","","","","","72","H","0","img/none_selected.jpg","","50","main_expt",""
"","bandit","130","1018050","0.0-92.0-0.0","26564549","wem/bandit_party_2","A1Q8V9050IW4XG","either","1","425","","","","","","","1","0","0","0.4991806479","","0.6","0.4","0.2","0.8","","","","","0.4991806479","0.2703780474","0.5194544998","0.8728609703","","","","","","","","","","72","H","0","img/none_selected.jpg","","51","main_expt",""
"","bandit","131","1020161","0.0-93.0-0.0","26564549","wem/bandit_party_2","A1Q8V9050IW4XG","either","1","598","","","","","","","0","0","1","","0.5431464126","0.6","0.4","0.2","0.8","0.5431464126","0.3215640211","0.4420680866","0.902184381","","","","","","","","","","","","","","72","H","0","img/none_selected.jpg","","52","main_expt",""
"","bandit","132","1021722","0.0-94.0-0.0","26564549","wem/bandit_party_2","A1Q8V9050IW4XG","either","1","45","","","","","","","0","1","0","","0.2918797996","0.6","0.4","0.2","0.8","0.4799783957","0.2918797996","0.5541791803","0.8975054296","","","","","","","","","","","","","","74","J","1","","","53","main_expt",""
"","bandit","133","1024393","0.0-95.0-0.0","26564549","wem/bandit_party_2","A1Q8V9050IW4XG","either","1","1155","","","","","","","0","0","1","","0.2432815539","0.6","0.4","0.2","0.8","0.3946877269","0.2432815539","0.6187664305","0.9436546011","","","","","","","","","","","","","","74","J","1","","","54","main_expt",""
"","bandit","134","1026185","0.0-96.0-0.0","26564549","wem/bandit_party_2","A1Q8V9050IW4XG","either","1","276","","","","","","","1","0","0","0.538030076","","0.6","0.4","0.2","0.8","","","","","0.3892466866","0.1993500609","0.538030076","0.9411334538","","","","","","","","","","75","K","2","","","55","main_expt",""
"","bandit","135","1028250","0.0-97.0-0.0","26564549","wem/bandit_party_2","A1Q8V9050IW4XG","either","1","552","","","","","","","0","0","1","","0.5137881872","0.6","0.4","0.2","0.8","0.347268188","0.1832364248","0.5137881872","0.862285227","","","","","","","","","","","","","","75","K","2","","","56","main_expt",""
"","bandit","136","1030244","0.0-98.0-0.0","26564549","wem/bandit_party_2","A1Q8V9050IW4XG","either","1","479","","","","","","","1","0","0","0.9034803314","","0.6","0.4","0.2","0.8","","","","","0.3462231845","0.1703919496","0.6274604021","0.9034803314","","","","","","","","","","76","L","3","","","57","main_expt",""
"","bandit","137","1032694","0.0-99.0-0.0","26564549","wem/bandit_party_2","A1Q8V9050IW4XG","either","1","937","","","","","","","1","0","0","0.9062052911","","0.6","0.4","0.2","0.8","","","","","0.3707442777","0.2146973212","0.5636132077","0.9062052911","","","","","","","","","","76","L","3","","","58","main_expt",""
"","bandit","138","1035545","0.0-100.0-0.0","26564549","wem/bandit_party_2","A1Q8V9050IW4XG","either","1","1334","","","","","","","1","0","0","0.9169546289","","0.6","0.4","0.2","0.8","","","","","0.4530366532","0.2118107272","0.6555757088","0.9169546289","","","","","","","","","","76","L","3","","","59","main_expt",""
"","bandit","139","1037612","0.0-101.0-0.0","26564549","wem/bandit_party_2","A1Q8V9050IW4XG","either","1","541","","","","","","","1","0","0","0.9048679239","","0.6","0.4","0.2","0.8","","","","","0.4335409142","0.2096036334","0.6555481193","0.9048679239","","","","","","","","","","76","L","3","","","60","main_expt",""
"","bandit","140","1040165","0.0-102.0-0.0","26564549","wem/bandit_party_2","A1Q8V9050IW4XG","either","1","1031","","","","","","","1","0","0","0.9346572725","","0.6","0.4","0.2","0.8","","","","","0.3601573371","0.1985607356","0.6988977931","0.9346572725","","","","","","","","","","76","L","3","","","61","main_expt",""
"","bandit","141","1042666","0.0-103.0-0.0","26564549","wem/bandit_party_2","A1Q8V9050IW4XG","either","1","977","","","","","","","1","0","0","0.9332729597","","0.6","0.4","0.2","0.8","","","","","0.3187004912","0.2352246004","0.6124712875","0.9332729597","","","","","","","","","","76","L","3","","","62","main_expt",""
"","bandit","142","1044737","0.0-104.0-0.0","26564549","wem/bandit_party_2","A1Q8V9050IW4XG","either","1","543","","","","","","","1","0","0","0.9300142507","","0.6","0.4","0.2","0.8","","","","","0.331276396","0.1989126294","0.4881994696","0.9300142507","","","","","","","","","","76","L","3","","","63","main_expt",""
"","bandit","143","1046954","0.0-105.0-0.0","26564549","wem/bandit_party_2","A1Q8V9050IW4XG","either","1","697","","","","","","","1","0","0","0.8992917639","","0.6","0.4","0.2","0.8","","","","","0.3984677","0.2231035509","0.5007509184","0.8992917639","","","","","","","","","","76","L","3","","","64","main_expt",""
"","bandit","144","1049452","0.0-106.0-0.0","26564549","wem/bandit_party_2","A1Q8V9050IW4XG","either","1","979","","","","","","","0","1","0","","0.7939475476","0.6","0.4","0.2","0.8","0.3012021372","0.174077904","0.6077525222","0.7939475476","","","","","","","","","","","","","","76","L","3","","","65","main_expt",""
"","bandit","145","1051478","0.0-107.0-0.0","26564549","wem/bandit_party_2","A1Q8V9050IW4XG","either","1","508","","","","","","","0","0","1","0.7848839068","","0.6","0.4","0.2","0.8","","","","","0.2848395029","0.1505104035","0.4876759876","0.7848839068","","","","","","","","","","76","L","3","","","66","main_expt",""
"","bandit","146","1053422","0.0-108.0-0.0","26564549","wem/bandit_party_2","A1Q8V9050IW4XG","either","1","420","","","","","","","0","0","1","0.2908363747","","0.6","0.4","0.2","0.8","","","","","0.2908363747","0.1706094741","0.4705728971","0.7712869283","","","","","","","","","","72","H","0","img/none_selected.jpg","","67","main_expt",""
"","bandit","147","1055824","0.0-109.0-0.0","26564549","wem/bandit_party_2","A1Q8V9050IW4XG","either","1","884","","","","","","","0","1","0","","0.193375558","0.6","0.4","0.2","0.8","0.3226378352","0.193375558","0.5822594153","0.7426915226","","","","","","","","","","","","","","74","J","1","","","68","main_expt",""
"","bandit","148","1057940","0.0-110.0-0.0","26564549","wem/bandit_party_2","A1Q8V9050IW4XG","either","1","597","","","","","","","0","0","1","","0.226811003","0.6","0.4","0.2","0.8","0.4490581071","0.226811003","0.6189715015","0.592712881","","","","","","","","","","","","","","74","J","1","","","69","main_expt",""
"","bandit","149","1060005","0.0-111.0-0.0","26564549","wem/bandit_party_2","A1Q8V9050IW4XG","either","1","544","","","","","","","0","0","1","","0.5307799745","0.6","0.4","0.2","0.8","0.42365523","0.191142909","0.5307799745","0.6587085967","","","","","","","","","","","","","","75","K","2","","","70","main_expt",""
"","bandit","150","1061959","0.0-112.0-0.0","26564549","wem/bandit_party_2","A1Q8V9050IW4XG","either","1","438","","","","","","","0","1","0","","0.7562029562","0.6","0.4","0.2","0.8","0.427101634","0.2371486809","0.5205551237","0.7562029562","","","","","","","","","","","","","","76","L","3","","","71","main_expt",""
"","bandit","151","1063886","0.0-113.0-0.0","26564549","wem/bandit_party_2","A1Q8V9050IW4XG","either","1","406","","","","","","","1","0","0","0.5387899421","","0.6","0.4","0.2","0.8","","","","","0.5387899421","0.2602117984","0.5913901284","0.670676276","","","","","","","","","","72","H","0","img/none_selected.jpg","","72","main_expt",""
"","bandit","152","1065826","0.0-114.0-0.0","26564549","wem/bandit_party_2","A1Q8V9050IW4XG","either","1","417","","","","","","","0","1","0","","0.4931252492","0.6","0.4","0.2","0.8","0.4931252492","0.1837165363","0.7127465592","0.6870219419","","","","","","","","","","","","","","72","H","0","img/none_selected.jpg","","73","main_expt",""
"","bandit","153","1067907","0.0-115.0-0.0","26564549","wem/bandit_party_2","A1Q8V9050IW4XG","either","1","558","","","","","","","0","0","1","","0.2032334464","0.6","0.4","0.2","0.8","0.3888626504","0.2032334464","0.7804212289","0.582898469","","","","","","","","","","","","","","74","J","1","","","74","main_expt",""
"","bandit","154","1069721","0.0-116.0-0.0","26564549","wem/bandit_party_2","A1Q8V9050IW4XG","either","1","285","","","","","","","0","1","0","","0.7966502287","0.6","0.4","0.2","0.8","0.3866429177","0.2782751631","0.7966502287","0.6452442043","","","","","","","","","","","","","","75","K","2","","","75","main_expt",""
"","bandit","155","1071638","0.0-117.0-0.0","26564549","wem/bandit_party_2","A1Q8V9050IW4XG","either","1","404","","","","","","","1","0","0","0.7031137023","","0.6","0.4","0.2","0.8","","","","","0.3948468247","0.3318782676","0.7775959854","0.7031137023","","","","","","","","","","76","L","3","","","76","main_expt",""
"","bandit","156","1073515","0.0-118.0-0.0","26564549","wem/bandit_party_2","A1Q8V9050IW4XG","either","1","361","","","","","","","0","0","1","0.6096498107","","0.6","0.4","0.2","0.8","","","","","0.4853082722","0.312607664","0.8523583745","0.6096498107","","","","","","","","","","76","L","3","","","77","main_expt",""
"","bandit","157","1075410","0.0-119.0-0.0","26564549","wem/bandit_party_2","A1Q8V9050IW4XG","either","1","376","","","","","","","1","0","0","0.4971609959","","0.6","0.4","0.2","0.8","","","","","0.4971609959","0.3250695504","0.7707034136","0.532302087","","","","","","","","","","72","H","0","img/none_selected.jpg","","78","main_expt",""
"","bandit","158","1077306","0.0-120.0-0.0","26564549","wem/bandit_party_2","A1Q8V9050IW4XG","either","1","378","","","","","","","0","0","1","0.5349041547","","0.6","0.4","0.2","0.8","","","","","0.5349041547","0.277144637","0.7919080975","0.4448734945","","","","","","","","","","72","H","0","img/none_selected.jpg","","79","main_expt",""
"","bandit","159","1079217","0.0-121.0-0.0","26564549","wem/bandit_party_2","A1Q8V9050IW4XG","either","1","305","","","","","","","0","0","1","","0.293018971","0.6","0.4","0.2","0.8","0.4713204996","0.293018971","0.8107458935","0.34513516","","","","","","","","","","","","","","74","J","1","","","80","main_expt",""
"","bandit","160","1081044","0.0-122.0-0.0","26564549","wem/bandit_party_2","A1Q8V9050IW4XG","either","1","303","","","","","","","0","1","0","","0.7851591746","0.6","0.4","0.2","0.8","0.4132476049","0.2730851157","0.7851591746","0.406584365","","","","","","","","","","","","","","75","K","2","","","81","main_expt",""
"","bandit","161","1082963","0.0-123.0-0.0","26564549","wem/bandit_party_2","A1Q8V9050IW4XG","either","1","396","","","","","","","0","1","0","","0.8067558171","0.6","0.4","0.2","0.8","0.4640808921","0.2436011542","0.8067558171","0.5068312928","","","","","","","","","","","","","","75","K","2","","","82","main_expt",""
"","bandit","162","1085363","0.0-124.0-0.0","26564549","wem/bandit_party_2","A1Q8V9050IW4XG","either","1","884","","","","","","","1","0","0","0.7777816444","","0.6","0.4","0.2","0.8","","","","","0.442115463","0.2009218657","0.7777816444","0.5209063211","","","","","","","","","","75","K","2","","","83","main_expt",""
"","bandit","163","1087564","0.0-125.0-0.0","26564549","wem/bandit_party_2","A1Q8V9050IW4XG","either","1","676","","","","","","","0","0","1","","0.7801041195","0.6","0.4","0.2","0.8","0.5117806844","0.1550904625","0.7801041195","0.6221591745","","","","","","","","","","","","","","75","K","2","","","84","main_expt",""
"","bandit","164","1089560","0.0-126.0-0.0","26564549","wem/bandit_party_2","A1Q8V9050IW4XG","either","1","485","","","","","","","1","0","0","0.6939346182","","0.6","0.4","0.2","0.8","","","","","0.5309627618","0.1193398435","0.7593249252","0.6939346182","","","","","","","","","","76","L","3","","","85","main_expt",""
"","bandit","165","1091427","0.0-127.0-0.0","26564549","wem/bandit_party_2","A1Q8V9050IW4XG","either","1","346","","","","","","","1","0","0","0.7533471596","","0.6","0.4","0.2","0.8","","","","","0.5482659382","0.1398572341","0.7911667705","0.7533471596","","","","","","","","","","76","L","3","","","86","main_expt",""
"","bandit","166","1093616","0.0-128.0-0.0","26564549","wem/bandit_party_2","A1Q8V9050IW4XG","either","1","674","","","","","","","0","0","1","","0.8040573679","0.6","0.4","0.2","0.8","0.4772076429","0.1941505275","0.8480662183","0.8040573679","","","","","","","","","","","","","","76","L","3","","","87","main_expt",""
"","bandit","167","1095525","0.0-129.0-0.0","26564549","wem/bandit_party_2","A1Q8V9050IW4XG","either","1","390","","","","","","","0","1","0","","0.5202977678","0.6","0.4","0.2","0.8","0.5202977678","0.09645570925","0.8110462569","0.7800800897","","","","","","","","","","","","","","72","H","0","img/none_selected.jpg","","88","main_expt",""
"","bandit","168","1097747","0.0-130.0-0.0","26564549","wem/bandit_party_2","A1Q8V9050IW4XG","either","1","704","","","","","","","1","0","0","0.4970482359","","0.6","0.4","0.2","0.8","","","","","0.4970482359","0.1304326216","0.7924414871","0.7329239748","","","","","","","","","","72","H","0","img/none_selected.jpg","","89","main_expt",""
"","bandit","169","1100078","0.0-131.0-0.0","26564549","wem/bandit_party_2","A1Q8V9050IW4XG","either","1","816","","","","","","","1","0","0","0.4671205494","","0.6","0.4","0.2","0.8","","","","","0.4671205494","0.1410434261","0.8190855249","0.7202813078","","","","","","","","","","72","H","0","img/none_selected.jpg","","90","main_expt",""
"","bandit","170","1102090","0.0-132.0-0.0","26564549","wem/bandit_party_2","A1Q8V9050IW4XG","either","1","487","","","","","","","1","0","0","0.5518401665","","0.6","0.4","0.2","0.8","","","","","0.5518401665","0.1277095213","0.858270253","0.698586111","","","","","","","","","","72","H","0","img/none_selected.jpg","","91","main_expt",""
"","bandit","171","1104021","0.0-133.0-0.0","26564549","wem/bandit_party_2","A1Q8V9050IW4XG","either","1","419","","","","","","","0","1","0","","0.620788192","0.6","0.4","0.2","0.8","0.620788192","0.08596821216","0.8583259383","0.6054304462","","","","","","","","","","","","","","72","H","0","img/none_selected.jpg","","92","main_expt",""
"","bandit","172","1106040","0.0-134.0-0.0","26564549","wem/bandit_party_2","A1Q8V9050IW4XG","either","1","503","","","","","","","0","0","1","0.679669404","","0.6","0.4","0.2","0.8","","","","","0.679669404","0.05652587691","0.8335107661","0.6829204303","","","","","","","","","","72","H","0","img/none_selected.jpg","","93","main_expt",""
"","bandit","173","1108545","0.0-135.0-0.0","26564549","wem/bandit_party_2","A1Q8V9050IW4XG","either","1","965","","","","","","","0","0","1","","0.07490457358","0.6","0.4","0.2","0.8","0.6726581754","0.07490457358","0.8849423118","0.6084783934","","","","","","","","","","","","","","74","J","1","","","94","main_expt",""
"","bandit","174","1110530","0.0-136.0-0.0","26564549","wem/bandit_party_2","A1Q8V9050IW4XG","either","1","468","","","","","","","0","1","0","","0.9175662658","0.6","0.4","0.2","0.8","0.5983950962","0.05201682933","0.9175662658","0.51962455","","","","","","","","","","","","","","75","K","2","","","95","main_expt",""
"","bandit","175","1112475","0.0-137.0-0.0","26564549","wem/bandit_party_2","A1Q8V9050IW4XG","either","1","431","","","","","","","0","1","0","","0.8726153548","0.6","0.4","0.2","0.8","0.6316158747","0.0353667714","0.8726153548","0.453067158","","","","","","","","","","","","","","75","K","2","","","96","main_expt",""
"","bandit","176","1114487","0.0-138.0-0.0","26564549","wem/bandit_party_2","A1Q8V9050IW4XG","either","1","496","","","","","","","0","0","1","","0.7260562137","0.6","0.4","0.2","0.8","0.6660601513","0.04301306848","0.7260562137","0.4090095009","","","","","","","","","","","","","","75","K","2","","","97","main_expt",""
"","bandit","177","1116295","0.0-139.0-0.0","26564549","wem/bandit_party_2","A1Q8V9050IW4XG","either","1","294","","","","","","","0","0","1","","0.360727585","0.6","0.4","0.2","0.8","0.6185462561","0.03950067624","0.6506148609","0.360727585","","","","","","","","","","","","","","76","L","3","","","98","main_expt",""
"","bandit","178","1118222","0.0-140.0-0.0","26564549","wem/bandit_party_2","A1Q8V9050IW4XG","either","1","367","","","","","","","1","0","0","0.581128502","","0.6","0.4","0.2","0.8","","","","","0.581128502","0.03156699585","0.5816342488","0.3351327477","","","","","","","","","","72","H","0","img/none_selected.jpg","","99","main_expt",""
"","bandit","179","1120074","0.0-141.0-0.0","26564549","wem/bandit_party_2","A1Q8V9050IW4XG","either","1","340","","","","","","","0","0","1","0.479775063","","0.6","0.4","0.2","0.8","","","","","0.479775063","0.0248161238","0.5521464449","0.3491912274","","","","","","","","","","72","H","0","img/none_selected.jpg","","100","main_expt",""
"","bandit","180","1122402","0.0-142.0-0.0","26564549","wem/bandit_party_2","A1Q8V9050IW4XG","either","1","812","","","","","","","0","0","1","","0.02218075004","0.6","0.4","0.2","0.8","0.5114647241","0.02218075004","0.6063232436","0.4105375765","","","","","","","","","","","","","","74","J","1","","","101","main_expt",""
"","bandit","181","1124227","0.0-143.0-0.0","26564549","wem/bandit_party_2","A1Q8V9050IW4XG","either","1","229","","","","","","","0","1","0","","0.5636213764","0.6","0.4","0.2","0.8","0.4718740674","0.01802152149","0.5636213764","0.438632671","","","","","","","","","","","","","","75","K","2","","","102","main_expt",""
"","bandit","182","1126189","0.0-144.0-0.0","26564549","wem/bandit_party_2","A1Q8V9050IW4XG","either","1","448","","","","","","","1","0","0","0.5370473259","","0.6","0.4","0.2","0.8","","","","","0.5245129891","0.01877214671","0.5370473259","0.372838406","","","","","","","","","","75","K","2","","","103","main_expt",""
"","bandit","183","1128222","0.0-145.0-0.0","26564549","wem/bandit_party_2","A1Q8V9050IW4XG","either","1","432","","","","","","","1","0","0","0.549647281","","0.6","0.4","0.2","0.8","","","","","0.5170751474","0.01556743346","0.549647281","0.3057692375","","","","","","","","","","75","K","2","","","104","main_expt",""
"","bandit","184","1130032","0.0-146.0-0.0","26564549","wem/bandit_party_2","A1Q8V9050IW4XG","either","1","297","","","","","","","0","0","1","","0.4225976111","0.6","0.4","0.2","0.8","0.472330124","0.03717147126","0.4225976111","0.37369274","","","","","","","","","","","","","","75","K","2","","","105","main_expt",""
"","bandit","185","1131809","0.0-147.0-0.0","26564549","wem/bandit_party_2","A1Q8V9050IW4XG","either","1","255","","","","","","","0","0","1","0.3179799449","","0.6","0.4","0.2","0.8","","","","","0.568133852","0.07687033395","0.5005163425","0.3179799449","","","","","","","","","","76","L","3","","","106","main_expt",""
"","bandit","186","1133542","0.0-148.0-0.0","26564549","wem/bandit_party_2","A1Q8V9050IW4XG","either","1","218","","","","","","","0","0","1","0.536018559","","0.6","0.4","0.2","0.8","","","","","0.536018559","0.07659049968","0.3995396385","0.3053765494","","","","","","","","","","72","H","0","img/none_selected.jpg","","107","main_expt",""
"","bandit","187","1135061","0.0-149.0-0.0","26564549","wem/bandit_party_2","A1Q8V9050IW4XG","either","1","1","","","","","","","0","0","1","0.07827602418","","0.6","0.4","0.2","0.8","","","","","0.3880888981","0.07827602418","0.3855926336","0.2732860947","","","","","","","","","","74","J","1","","","108","main_expt",""
"","bandit","188","1136617","0.0-150.0-0.0","26564549","wem/bandit_party_2","A1Q8V9050IW4XG","either","1","27","","","","","","","0","0","1","0.3059937163","","0.6","0.4","0.2","0.8","","","","","0.3675045314","0.1352418701","0.3059937163","0.2624197952","","","","","","","","","","75","K","2","","","109","main_expt",""
"","bandit","189","1138819","0.0-151.0-0.0","26564549","wem/bandit_party_2","A1Q8V9050IW4XG","either","1","683","","","","","","","0","0","1","0.3303210632","","0.6","0.4","0.2","0.8","","","","","0.4560700489","0.1705666919","0.2752892785","0.3303210632","","","","","","","","","","76","L","3","","","110","main_expt",""
"","bandit","190","1140818","0.0-152.0-0.0","26564549","wem/bandit_party_2","A1Q8V9050IW4XG","either","1","474","","","","","","","0","0","1","0.5366389876","","0.6","0.4","0.2","0.8","","","","","0.5366389876","0.2202970635","0.3038626008","0.3541452024","","","","","","","","","","72","H","0","img/none_selected.jpg","","111","main_expt",""
"","bandit","191","1143796","0.0-153.0-0.0","26564549","wem/bandit_party_2","A1Q8V9050IW4XG","either","1","1463","","","","","","","0","1","0","","0.2368742277","0.6","0.4","0.2","0.8","0.5742054707","0.2368742277","0.2308866464","0.4468573219","","","","","","","","","","","","","","74","J","1","","","112","main_expt",""
"","bandit","192","1145854","0.0-154.0-0.0","26564549","wem/bandit_party_2","A1Q8V9050IW4XG","either","1","534","","","","","","","0","0","1","0.2487241586","","0.6","0.4","0.2","0.8","","","","","0.6014260319","0.2487241586","0.2420052043","0.5163231944","","","","","","","","","","74","J","1","","","113","main_expt",""
"","bandit","193","1147634","0.0-155.0-0.0","26564549","wem/bandit_party_2","A1Q8V9050IW4XG","either","1","263","","","","","","","0","0","1","","0.3277817495","0.6","0.4","0.2","0.8","0.5398035654","0.238824581","0.3277817495","0.4064640458","","","","","","","","","","","","","","75","K","2","","","114","main_expt",""
"","bandit","194","1149584","0.0-156.0-0.0","26564549","wem/bandit_party_2","A1Q8V9050IW4XG","either","1","432","","","","","","","0","0","1","0.4085425191","","0.6","0.4","0.2","0.8","","","","","0.5008208772","0.1480638281","0.3280884562","0.4085425191","","","","","","","","","","76","L","3","","","115","main_expt",""
"","bandit","195","1152625","0.0-157.0-0.0","26564549","wem/bandit_party_2","A1Q8V9050IW4XG","either","1","1522","","","","","","","0","1","0","","0.4200837231","0.6","0.4","0.2","0.8","0.4200837231","0.1246447603","0.4137256642","0.4412864427","","","","","","","","","","","","","","72","H","0","img/none_selected.jpg","","116","main_expt",""
"","bandit","196","1155617","0.0-158.0-0.0","26564549","wem/bandit_party_2","A1Q8V9050IW4XG","either","1","1478","","","","","","","1","0","0","0.4094987027","","0.6","0.4","0.2","0.8","","","","","0.4094987027","0.1308085784","0.372751341","0.5188885271","","","","","","","","","","72","H","0","img/none_selected.jpg","","117","main_expt",""
"","bandit","197","1158208","0.0-159.0-0.0","26564549","wem/bandit_party_2","A1Q8V9050IW4XG","either","1","1071","","","","","","","0","0","1","0.3862907493","","0.6","0.4","0.2","0.8","","","","","0.3862907493","0.09076242324","0.4225631273","0.5728151575","","","","","","","","","","72","H","0","img/none_selected.jpg","","118","main_expt",""
"","bandit","198","1160840","0.0-160.0-0.0","26564549","wem/bandit_party_2","A1Q8V9050IW4XG","either","1","1113","","","","","","","1","0","0","0.4437318585","","0.6","0.4","0.2","0.8","","","","","0.4437318585","0.09057925276","0.4188482812","0.5065624602","","","","","","","","","","72","H","0","img/none_selected.jpg","","119","main_expt",""
"","bandit","199","1163389","0.0-161.0-0.0","26564549","wem/bandit_party_2","A1Q8V9050IW4XG","either","1","1029","","","","","","","0","0","1","","0.293469011","0.6","0.4","0.2","0.8","0.293469011","0.1288926122","0.3729077829","0.4064427813","","","","","","","","","","","","","","72","H","0","img/none_selected.jpg","","120","main_expt",""
"","bandit","200","1165384","0.0-162.0-0.0","26564549","wem/bandit_party_2","A1Q8V9050IW4XG","either","1","479","","","","","","","0","0","1","","0.1479701512","0.6","0.4","0.2","0.8","0.2141601759","0.1479701512","0.3817262037","0.3948988447","","","","","","","","","","","","","","74","J","1","","","121","main_expt",""
"","bandit","201","1167428","0.0-163.0-0.0","26564549","wem/bandit_party_2","A1Q8V9050IW4XG","either","1","523","","","","","","","0","1","0","","0.3537210734","0.6","0.4","0.2","0.8","0.2594293103","0.1663524813","0.3537210734","0.316823658","","","","","","","","","","","","","","75","K","2","","","122","main_expt",""
"","bandit","202","1169442","0.0-164.0-0.0","26564549","wem/bandit_party_2","A1Q8V9050IW4XG","either","1","499","","","","","","","0","1","0","","0.3633727708","0.6","0.4","0.2","0.8","0.1519240937","0.1993917655","0.3633727708","0.3045978244","","","","","","","","","","","","","","75","K","2","","","123","main_expt",""
"","bandit","203","1171602","0.0-165.0-0.0","26564549","wem/bandit_party_2","A1Q8V9050IW4XG","either","1","647","","","","","","","0","1","0","","0.4139908316","0.6","0.4","0.2","0.8","0.2311656533","0.2948689786","0.4139908316","0.2389028675","","","","","","","","","","","","","","75","K","2","","","124","main_expt",""
"","bandit","204","1173761","0.0-166.0-0.0","26564549","wem/bandit_party_2","A1Q8V9050IW4XG","either","1","638","","","","","","","0","1","0","","0.3619800754","0.6","0.4","0.2","0.8","0.1956748967","0.4054398129","0.3619800754","0.2166803268","","","","","","","","","","","","","","75","K","2","","","125","main_expt",""
"","bandit","205","1176041","0.0-167.0-0.0","26564549","wem/bandit_party_2","A1Q8V9050IW4XG","either","1","766","","","","","","","1","0","0","0.353362548","","0.6","0.4","0.2","0.8","","","","","0.1419383156","0.5337661481","0.353362548","0.1613674106","","","","","","","","","","75","K","2","","","126","main_expt",""
"","bandit","206","1178190","0.0-168.0-0.0","26564549","wem/bandit_party_2","A1Q8V9050IW4XG","either","1","628","","","","","","","0","1","0","","0.2888217425","0.6","0.4","0.2","0.8","0.1768105291","0.5510518781","0.2888217425","0.1682412955","","","","","","","","","","","","","","75","K","2","","","127","main_expt",""
"","bandit","207","1180296","0.0-169.0-0.0","26564549","wem/bandit_party_2","A1Q8V9050IW4XG","either","1","593","","","","","","","0","0","1","","0.3131893798","0.6","0.4","0.2","0.8","0.1187699492","0.4746642732","0.3131893798","0.1655910943","","","","","","","","","","","","","","75","K","2","","","128","main_expt",""
"","bandit","208","1182899","0.0-170.0-0.0","26564549","wem/bandit_party_2","A1Q8V9050IW4XG","either","1","1079","","","","","","","0","0","1","","0.1845506081","0.6","0.4","0.2","0.8","0.1860330609","0.5345142674","0.2826861836","0.1845506081","","","","","","","","","","","","","","76","L","3","","","129","main_expt",""
"","bandit","209","1184813","0.0-171.0-0.0","26564549","wem/bandit_party_2","A1Q8V9050IW4XG","either","1","400","","","","","","","0","0","1","","0.09722607165","0.6","0.4","0.2","0.8","0.09722607165","0.6617219445","0.3434973012","0.1548240476","","","","","","","","","","","","","","72","H","0","img/none_selected.jpg","","130","main_expt",""
"","bandit","210","1186676","0.0-172.0-0.0","26564549","wem/bandit_party_2","A1Q8V9050IW4XG","either","1","344","","","","","","","0","1","0","","0.6183560712","0.6","0.4","0.2","0.8","0.05626421391","0.6183560712","0.3848082556","0.1503989","","","","","","","","","","","","","","74","J","1","","","131","main_expt",""
"","bandit","211","1188992","0.0-173.0-0.0","26564549","wem/bandit_party_2","A1Q8V9050IW4XG","either","1","797","","","","","","","0","1","0","","0.7009512511","0.6","0.4","0.2","0.8","0.1149854728","0.7009512511","0.4140069858","0.1199593994","","","","","","","","","","","","","","74","J","1","","","132","main_expt",""
"","bandit","212","1191111","0.0-174.0-0.0","26564549","wem/bandit_party_2","A1Q8V9050IW4XG","either","1","604","","","","","","","1","0","0","0.5838974895","","0.6","0.4","0.2","0.8","","","","","0.1698175541","0.5838974895","0.3745017877","0.1518383839","","","","","","","","","","74","J","1","","","133","main_expt",""
"","bandit","213","1193239","0.0-175.0-0.0","26564549","wem/bandit_party_2","A1Q8V9050IW4XG","either","1","531","","","","","","","1","0","0","0.6628563986","","0.6","0.4","0.2","0.8","","","","","0.1925371395","0.6628563986","0.3918835711","0.1855528241","","","","","","","","","","74","J","1","","","134","main_expt",""
"","bandit","214","1195337","0.0-176.0-0.0","26564549","wem/bandit_party_2","A1Q8V9050IW4XG","either","1","584","","","","","","","0","0","1","","0.5610912218","0.6","0.4","0.2","0.8","0.246136332","0.5610912218","0.3405764209","0.2187769305","","","","","","","","","","","","","","74","J","1","","","135","main_expt",""
"","bandit","215","1197095","0.0-177.0-0.0","26564549","wem/bandit_party_2","A1Q8V9050IW4XG","either","1","240","","","","","","","0","0","1","","0.4155430462","0.6","0.4","0.2","0.8","0.2277518718","0.4834649218","0.4155430462","0.2001534018","","","","","","","","","","","","","","75","K","2","","","136","main_expt",""
"","bandit","216","1198962","0.0-178.0-0.0","26564549","wem/bandit_party_2","A1Q8V9050IW4XG","either","1","347","","","","","","","0","0","1","0.176995917","","0.6","0.4","0.2","0.8","","","","","0.252962458","0.513072369","0.3389252929","0.176995917","","","","","","","","","","76","L","3","","","137","main_expt",""
"","bandit","217","1201092","0.0-179.0-0.0","26564549","wem/bandit_party_2","A1Q8V9050IW4XG","either","1","616","","","","","","","0","0","1","","0.3018696236","0.6","0.4","0.2","0.8","0.3018696236","0.5502636267","0.2698753193","0.1460019238","","","","","","","","","","","","","","72","H","0","img/none_selected.jpg","","138","main_expt",""
"","bandit","218","1203734","0.0-180.0-0.0","26564549","wem/bandit_party_2","A1Q8V9050IW4XG","either","1","1122","","","","","","","0","1","0","","0.4564922144","0.6","0.4","0.2","0.8","0.347353107","0.4564922144","0.2821570394","0.06707115951","","","","","","","","","","","","","","74","J","1","","","139","main_expt",""
"","bandit","219","1205798","0.0-181.0-0.0","26564549","wem/bandit_party_2","A1Q8V9050IW4XG","either","1","546","","","","","","","0","0","1","0.4116013625","","0.6","0.4","0.2","0.8","","","","","0.2477375586","0.4116013625","0.3577533322","0.1071331831","","","","","","","","","","74","J","1","","","140","main_expt",""
"","bandit","220","1208286","0.0-182.0-0.0","26564549","wem/bandit_party_2","A1Q8V9050IW4XG","either","1","970","","","","","","","0","0","1","","0.4250900652","0.6","0.4","0.2","0.8","0.2880826197","0.4498847811","0.4250900652","0.1224459691","","","","","","","","","","","","","","75","K","2","","","141","main_expt",""
"","bandit","221","1211635","0.0-183.0-0.0","26564549","wem/bandit_party_2","A1Q8V9050IW4XG","either","1","1830","","","","","","","0","0","1","0.1127900777","","0.6","0.4","0.2","0.8","","","","","0.2287108423","0.4822150968","0.3451055681","0.1127900777","","","","","","","","","","76","L","3","","","142","main_expt",""
"","bandit","222","1213857","0.0-184.0-0.0","26564549","wem/bandit_party_2","A1Q8V9050IW4XG","either","1","708","","","","","","","0","0","1","0.2096850542","","0.6","0.4","0.2","0.8","","","","","0.2096850542","0.513506041","0.4661026996","0.1736101882","","","","","","","","","","72","H","0","img/none_selected.jpg","","143","main_expt",""
"","bandit","223","1216615","0.0-185.0-0.0","26564549","wem/bandit_party_2","A1Q8V9050IW4XG","either","1","1233","","","","","","","0","1","0","","0.556822441","0.6","0.4","0.2","0.8","0.2214165798","0.556822441","0.4683168179","0.1231714597","","","","","","","","","","","","","","74","J","1","","","144","main_expt",""
"","bandit","224","1218527","0.0-186.0-0.0","26564549","wem/bandit_party_2","A1Q8V9050IW4XG","either","1","395","","","","","","","0","0","1","","0.5633269006","0.6","0.4","0.2","0.8","0.2412424024","0.5633269006","0.448697065","0.10514291","","","","","","","","","","","","","","74","J","1","","","145","main_expt",""
"","bandit","225","1220331","0.0-187.0-0.0","26564549","wem/bandit_party_2","A1Q8V9050IW4XG","either","1","286","","","","","","","1","0","0","0.1841611904","","0.6","0.4","0.2","0.8","","","","","0.1841611904","0.6482805244","0.4560677512","0.0972381369","","","","","","","","","","72","H","0","img/none_selected.jpg","","146","main_expt",""
"","bandit","226","1222327","0.0-188.0-0.0","26564549","wem/bandit_party_2","A1Q8V9050IW4XG","either","1","473","","","","","","","1","0","0","0.1577922033","","0.6","0.4","0.2","0.8","","","","","0.1577922033","0.6036290043","0.513472809","0.1897119627","","","","","","","","","","72","H","0","img/none_selected.jpg","","147","main_expt",""
"","bandit","227","1224449","0.0-189.0-0.0","26564549","wem/bandit_party_2","A1Q8V9050IW4XG","either","1","607","","","","","","","0","0","1","0.1663963597","","0.6","0.4","0.2","0.8","","","","","0.1663963597","0.6110248825","0.3820674583","0.1759094881","","","","","","","","","","72","H","0","img/none_selected.jpg","","148","main_expt",""
"","bandit","228","1226258","0.0-190.0-0.0","26564549","wem/bandit_party_2","A1Q8V9050IW4XG","either","1","292","","","","","","","0","1","0","","0.6453676348","0.6","0.4","0.2","0.8","0.319747154","0.6453676348","0.3116557105","0.2204336569","","","","","","","","","","","","","","74","J","1","","","149","main_expt",""
"","bandit","229","1228264","0.0-191.0-0.0","26564549","wem/bandit_party_2","A1Q8V9050IW4XG","either","1","487","","","","","","","0","1","0","","0.66235511","0.6","0.4","0.2","0.8","0.5410110608","0.66235511","0.3039338698","0.2328853871","","","","","","","","","","","","","","74","J","1","","","150","main_expt",""
"","bandit","230","1230304","0.0-192.0-0.0","26564549","wem/bandit_party_2","A1Q8V9050IW4XG","either","1","522","","","","","","","0","0","1","0.5547575852","","0.6","0.4","0.2","0.8","","","","","0.5584745132","0.5547575852","0.3092958796","0.2652525627","","","","","","","","","","74","J","1","","","151","main_expt",""
"","bandit","231","1232057","0.0-193.0-0.0","26564549","wem/bandit_party_2","A1Q8V9050IW4XG","either","1","233","","","","","","","0","0","1","","0.3097370874","0.6","0.4","0.2","0.8","0.5709378499","0.5223098228","0.3097370874","0.2654363334","","","","","","","","","","","","","","75","K","2","","","152","main_expt",""
"","bandit","232","1233659","0.0-194.0-0.0","26564549","wem/bandit_party_2","A1Q8V9050IW4XG","either","1","86","","","","","","","1","0","0","0.6314515046","","0.6","0.4","0.2","0.8","","","","","0.6314515046","0.5137303037","0.2955649657","0.3505589273","","","","","","","","","","72","H","0","img/none_selected.jpg","","153","main_expt",""
"","bandit","233","1235629","0.0-195.0-0.0","26564549","wem/bandit_party_2","A1Q8V9050IW4XG","either","1","453","","","","","","","0","0","1","","0.6734276465","0.6","0.4","0.2","0.8","0.6734276465","0.5193194566","0.221553637","0.39889796","","","","","","","","","","","","","","72","H","0","img/none_selected.jpg","","154","main_expt",""
"","bandit","234","1237730","0.0-196.0-0.0","26564549","wem/bandit_party_2","A1Q8V9050IW4XG","either","1","564","","","","","","","0","0","1","0.4736812385","","0.6","0.4","0.2","0.8","","","","","0.7019144477","0.4736812385","0.2231547498","0.4202606707","","","","","","","","","","74","J","1","","","155","main_expt",""
"","bandit","235","1239339","0.0-197.0-0.0","26564549","wem/bandit_party_2","A1Q8V9050IW4XG","either","1","47","","","","","","","0","0","1","0.4814159609","","0.6","0.4","0.2","0.8","","","","","0.6695455193","0.4616442501","0.2750957943","0.4814159609","","","","","","","","","","76","L","3","","","156","main_expt",""
"","bandit","236","1241327","0.0-198.0-0.0","26564549","wem/bandit_party_2","A1Q8V9050IW4XG","either","1","471","","","","","","","0","0","1","0.2005793054","","0.6","0.4","0.2","0.8","","","","","0.6179864128","0.5025740222","0.2005793054","0.5316807058","","","","","","","","","","75","K","2","","","157","main_expt",""
"","bandit","237","1243257","0.0-199.0-0.0","26564549","wem/bandit_party_2","A1Q8V9050IW4XG","either","1","413","","","","","","","1","0","0","0.7380689997","","0.6","0.4","0.2","0.8","","","","","0.7380689997","0.4548105643","0.2502080146","0.5429668589","","","","","","","","","","72","H","0","img/none_selected.jpg","","158","main_expt",""
"","bandit","238","1245253","0.0-200.0-0.0","26564549","wem/bandit_party_2","A1Q8V9050IW4XG","either","1","477","","","","","","","1","0","0","0.7632184112","","0.6","0.4","0.2","0.8","","","","","0.7632184112","0.4622667215","0.2729805177","0.5991419929","","","","","","","","","","72","H","0","img/none_selected.jpg","","159","main_expt",""
"","bandit","239","1247275","0.0-201.0-0.0","26564549","wem/bandit_party_2","A1Q8V9050IW4XG","either","1","504","","","","","","","0","1","0","","0.6917664031","0.6","0.4","0.2","0.8","0.6917664031","0.4600517474","0.2801697818","0.6480894682","","","","","","","","","","","","","","72","H","0","img/none_selected.jpg","","160","main_expt",""
"","bandit","240","1249268","0.0-202.0-0.0","26564549","wem/bandit_party_2","A1Q8V9050IW4XG","either","1","474","","","","","","","1","0","0","0.7106531984","","0.6","0.4","0.2","0.8","","","","","0.7106531984","0.481388234","0.2437938608","0.6776161973","","","","","","","","","","72","H","0","img/none_selected.jpg","","161","main_expt",""
"","bandit","241","1251579","0.0-203.0-0.0","26564549","wem/bandit_party_2","A1Q8V9050IW4XG","either","1","794","","","","","","","0","1","0","","0.809310282","0.6","0.4","0.2","0.8","0.809310282","0.3850106192","0.2687553501","0.7134031715","","","","","","","","","","","","","","72","H","0","img/none_selected.jpg","","162","main_expt",""
"","bandit","242","1253671","0.0-204.0-0.0","26564549","wem/bandit_party_2","A1Q8V9050IW4XG","either","1","573","","","","","","","0","0","1","","0.7492875705","0.6","0.4","0.2","0.8","0.7492875705","0.3498723973","0.245991677","0.6215635068","","","","","","","","","","","","","","72","H","0","img/none_selected.jpg","","163","main_expt",""
"","bandit","243","1256645","0.0-205.0-0.0","26564549","wem/bandit_party_2","A1Q8V9050IW4XG","either","1","1455","","","","","","","0","0","1","","0.270385563","0.6","0.4","0.2","0.8","0.7561394707","0.4287417444","0.270385563","0.5219240024","","","","","","","","","","","","","","75","K","2","","","164","main_expt",""
"","bandit","244","1259269","0.0-206.0-0.0","26564549","wem/bandit_party_2","A1Q8V9050IW4XG","either","1","1108","","","","","","","1","0","0","0.8111415702","","0.6","0.4","0.2","0.8","","","","","0.8111415702","0.3150145745","0.3037855967","0.4727302842","","","","","","","","","","72","H","0","img/none_selected.jpg","","165","main_expt",""
"","bandit","245","1261314","0.0-207.0-0.0","26564549","wem/bandit_party_2","A1Q8V9050IW4XG","either","1","496","","","","","","","1","0","0","0.7759938205","","0.6","0.4","0.2","0.8","","","","","0.7759938205","0.2927018344","0.3395577104","0.5181018645","","","","","","","","","","72","H","0","img/none_selected.jpg","","166","main_expt",""
"","bandit","246","1263472","0.0-208.0-0.0","26564549","wem/bandit_party_2","A1Q8V9050IW4XG","either","1","632","","","","","","","1","0","0","0.8267633335","","0.6","0.4","0.2","0.8","","","","","0.8267633335","0.3610256338","0.3443901906","0.5280433419","","","","","","","","","","72","H","0","img/none_selected.jpg","","167","main_expt",""
"","bandit","247","1265501","0.0-209.0-0.0","26564549","wem/bandit_party_2","A1Q8V9050IW4XG","either","1","508","","","","","","","0","1","0","","0.8136073627","0.6","0.4","0.2","0.8","0.8136073627","0.3137127159","0.2552323567","0.5470010145","","","","","","","","","","","","","","72","H","0","img/none_selected.jpg","","168","main_expt",""
"","bandit","248","1267852","0.0-210.0-0.0","26564549","wem/bandit_party_2","A1Q8V9050IW4XG","either","1","800","","","","","","","1","0","0","0.7308533614","","0.6","0.4","0.2","0.8","","","","","0.7308533614","0.2292796242","0.289352286","0.5558845962","","","","","","","","","","72","H","0","img/none_selected.jpg","","169","main_expt",""
"","bandit","249","1269911","0.0-211.0-0.0","26564549","wem/bandit_party_2","A1Q8V9050IW4XG","either","1","541","","","","","","","1","0","0","0.7090730391","","0.6","0.4","0.2","0.8","","","","","0.7090730391","0.221948569","0.2262743404","0.5799309324","","","","","","","","","","72","H","0","img/none_selected.jpg","","170","main_expt",""
"","bandit","250","1272212","0.0-212.0-0.0","26564549","wem/bandit_party_2","A1Q8V9050IW4XG","either","1","781","","","","","","","0","1","0","","0.7229684446","0.6","0.4","0.2","0.8","0.7229684446","0.159615594","0.2644351609","0.6643953266","","","","","","","","","","","","","","72","H","0","img/none_selected.jpg","","171","main_expt",""
"","bandit","251","1274070","0.0-213.0-0.0","26564549","wem/bandit_party_2","A1Q8V9050IW4XG","either","1","342","","","","","","","0","0","1","0.6612043244","","0.6","0.4","0.2","0.8","","","","","0.6612043244","0.1303854457","0.4136296373","0.7610666705","","","","","","","","","","72","H","0","img/none_selected.jpg","","172","main_expt",""
"","bandit","252","1277406","0.0-214.0-0.0","26564549","wem/bandit_party_2","A1Q8V9050IW4XG","either","1","1816","","","","","","","0","1","0","","0.491318492","0.6","0.4","0.2","0.8","0.7669021743","0.07729024622","0.491318492","0.8006149786","","","","","","","","","","","","","","75","K","2","","","173","main_expt",""
"","bandit","253","1279288","0.0-215.0-0.0","26564549","wem/bandit_party_2","A1Q8V9050IW4XG","either","1","359","","","","","","","0","0","1","","0.4966763124","0.6","0.4","0.2","0.8","0.8111867287","0.1227026474","0.4966763124","0.791095403","","","","","","","","","","","","","","75","K","2","","","174","main_expt",""
"","bandit","254","1281170","0.0-216.0-0.0","26564549","wem/bandit_party_2","A1Q8V9050IW4XG","either","1","355","","","","","","","1","0","0","0.8192498968","","0.6","0.4","0.2","0.8","","","","","0.8192498968","0.09483306355","0.5109350621","0.8572088762","","","","","","","","","","72","H","0","img/none_selected.jpg","","175","main_expt",""
"","bandit","255","1283247","0.0-217.0-0.0","26564549","wem/bandit_party_2","A1Q8V9050IW4XG","either","1","466","","","","","","","0","0","1","","0.8371283275","0.6","0.4","0.2","0.8","0.8371283275","0.143069758","0.6321295754","0.8576080684","","","","","","","","","","","","","","72","H","0","img/none_selected.jpg","","176","main_expt",""
"","bandit","256","1285204","0.0-218.0-0.0","26564549","wem/bandit_party_2","A1Q8V9050IW4XG","either","1","435","","","","","","","0","1","0","","0.5515755996","0.6","0.4","0.2","0.8","0.8545140947","0.1741656422","0.5515755996","0.8678158231","","","","","","","","","","","","","","75","K","2","","","177","main_expt",""
"","bandit","257","1287240","0.0-219.0-0.0","26564549","wem/bandit_party_2","A1Q8V9050IW4XG","either","1","509","","","","","","","0","1","0","","0.5086275016","0.6","0.4","0.2","0.8","0.8794893657","0.1904086474","0.5086275016","0.8820542777","","","","","","","","","","","","","","75","K","2","","","178","main_expt",""
"","bandit","258","1289251","0.0-220.0-0.0","26564549","wem/bandit_party_2","A1Q8V9050IW4XG","either","1","410","","","","","","","0","1","0","","0.5215192908","0.6","0.4","0.2","0.8","0.8939587296","0.1778905233","0.5215192908","0.8907334788","","","","","","","","","","","","","","75","K","2","","","179","main_expt",""
"","bandit","259","1291183","0.0-221.0-0.0","26564549","wem/bandit_party_2","A1Q8V9050IW4XG","either","1","412","","","","","","","0","1","0","","0.5193414217","0.6","0.4","0.2","0.8","0.868077767","0.2112817454","0.5193414217","0.9161653667","","","","","","","","","","","","","","75","K","2","","","180","main_expt",""
"","bandit","260","1293073","0.0-222.0-0.0","26564549","wem/bandit_party_2","A1Q8V9050IW4XG","either","1","367","","","","","","","1","0","0","0.4613460131","","0.6","0.4","0.2","0.8","","","","","0.9295405476","0.2236312472","0.4613460131","0.9327112184","","","","","","","","","","75","K","2","","","181","main_expt",""
"","bandit","261","1294921","0.0-223.0-0.0","26564549","wem/bandit_party_2","A1Q8V9050IW4XG","either","1","328","","","","","","","0","0","1","","0.4468633868","0.6","0.4","0.2","0.8","0.9213574857","0.264467441","0.4468633868","0.9284398706","","","","","","","","","","","","","","75","K","2","","","182","main_expt",""
"","bandit","262","1296783","0.0-224.0-0.0","26564549","wem/bandit_party_2","A1Q8V9050IW4XG","either","1","339","","","","","","","0","1","0","","0.9374560388","0.6","0.4","0.2","0.8","0.9374560388","0.2240632979","0.4985091709","0.89591471","","","","","","","","","","","","","","72","H","0","img/none_selected.jpg","","183","main_expt",""
"","bandit","263","1299295","0.0-225.0-0.0","26564549","wem/bandit_party_2","A1Q8V9050IW4XG","either","1","991","","","","","","","1","0","0","0.9120054929","","0.6","0.4","0.2","0.8","","","","","0.9120054929","0.1671404848","0.6057575335","0.9146434193","","","","","","","","","","72","H","0","img/none_selected.jpg","","184","main_expt",""
"","bandit","264","1301613","0.0-226.0-0.0","26564549","wem/bandit_party_2","A1Q8V9050IW4XG","either","1","801","","","","","","","0","0","1","0.8428471033","","0.6","0.4","0.2","0.8","","","","","0.8428471033","0.1932257563","0.4915456485","0.8575823977","","","","","","","","","","72","H","0","img/none_selected.jpg","","185","main_expt",""
"","bandit","265","1303632","0.0-227.0-0.0","26564549","wem/bandit_party_2","A1Q8V9050IW4XG","either","1","499","","","","","","","0","1","0","","0.5976273718","0.6","0.4","0.2","0.8","0.7734335662","0.155472597","0.5976273718","0.8487952361","","","","","","","","","","","","","","75","K","2","","","186","main_expt",""
"","bandit","266","1307256","0.0-228.0-0.0","26564549","wem/bandit_party_2","A1Q8V9050IW4XG","either","1","2100","","","","","","","0","1","0","","0.5743595779","0.6","0.4","0.2","0.8","0.7667319261","0.1895871356","0.5743595779","0.8603972339","","","","","","","","","","","","","","75","K","2","","","187","main_expt",""
"","bandit","267","1310466","0.0-229.0-0.0","26564549","wem/bandit_party_2","A1Q8V9050IW4XG","either","1","1689","","","","","","","0","1","0","","0.6833173747","0.6","0.4","0.2","0.8","0.5945875292","0.2119556673","0.6833173747","0.8834510925","","","","","","","","","","","","","","75","K","2","","","188","main_expt",""
"","bandit","268","1312562","0.0-230.0-0.0","26564549","wem/bandit_party_2","A1Q8V9050IW4XG","either","1","576","","","","","","","0","1","0","","0.651089354","0.6","0.4","0.2","0.8","0.7406569186","0.2255007403","0.651089354","0.8973947779","","","","","","","","","","","","","","75","K","2","","","189","main_expt",""
"","bandit","269","1314946","0.0-231.0-0.0","26564549","wem/bandit_party_2","A1Q8V9050IW4XG","either","1","863","","","","","","","0","1","0","","0.6599652607","0.6","0.4","0.2","0.8","0.7371931777","0.1754842532","0.6599652607","0.8824587855","","","","","","","","","","","","","","75","K","2","","","190","main_expt",""
"","bandit","270","1317027","0.0-232.0-0.0","26564549","wem/bandit_party_2","A1Q8V9050IW4XG","either","1","558","","","","","","","0","1","0","","0.6960236584","0.6","0.4","0.2","0.8","0.7019705866","0.1936311571","0.6960236584","0.9076431997","","","","","","","","","","","","","","75","K","2","","","191","main_expt",""
"","bandit","271","1318887","0.0-233.0-0.0","26564549","wem/bandit_party_2","A1Q8V9050IW4XG","either","1","340","","","","","","","1","0","0","0.6713911156","","0.6","0.4","0.2","0.8","","","","","0.6198122665","0.215612591","0.6713911156","0.8673165995","","","","","","","","","","75","K","2","","","192","main_expt",""
"","bandit","272","1320880","0.0-234.0-0.0","26564549","wem/bandit_party_2","A1Q8V9050IW4XG","either","1","471","","","","","","","0","0","1","","0.7244072205","0.6","0.4","0.2","0.8","0.6100930929","0.2818734505","0.7244072205","0.8264401474","","","","","","","","","","","","","","75","K","2","","","193","main_expt",""
"","bandit","273","1322426","0.0-235.0-0.0","26564549","wem/bandit_party_2","A1Q8V9050IW4XG","either","1","21","","","","","","","0","1","0","","0.6332739585","0.6","0.4","0.2","0.8","0.6332739585","0.3616108755","0.7397798508","0.8546086414","","","","","","","","","","","","","","72","H","0","img/none_selected.jpg","","194","main_expt",""
"","bandit","274","1324498","0.0-236.0-0.0","26564549","wem/bandit_party_2","A1Q8V9050IW4XG","either","1","549","","","","","","","0","0","1","0.609207161","","0.6","0.4","0.2","0.8","","","","","0.609207161","0.3979961615","0.7602069811","0.7914914872","","","","","","","","","","72","H","0","img/none_selected.jpg","","195","main_expt",""
"","bandit","275","1326311","0.0-237.0-0.0","26564549","wem/bandit_party_2","A1Q8V9050IW4XG","either","1","294","","","","","","","0","1","0","","0.7114092524","0.6","0.4","0.2","0.8","0.6560649547","0.4366641927","0.7114092524","0.7608346536","","","","","","","","","","","","","","75","K","2","","","196","main_expt",""
"","bandit","276","1328268","0.0-238.0-0.0","26564549","wem/bandit_party_2","A1Q8V9050IW4XG","either","1","435","","","","","","","0","1","0","","0.6917424169","0.6","0.4","0.2","0.8","0.6656533059","0.560782874","0.6917424169","0.7003784325","","","","","","","","","","","","","","75","K","2","","","197","main_expt",""
"","bandit","277","1330121","0.0-239.0-0.0","26564549","wem/bandit_party_2","A1Q8V9050IW4XG","either","1","331","","","","","","","1","0","0","0.6561069913","","0.6","0.4","0.2","0.8","","","","","0.6841747727","0.5649388288","0.6561069913","0.6036075577","","","","","","","","","","75","K","2","","","198","main_expt",""
"","bandit","278","1331924","0.0-240.0-0.0","26564549","wem/bandit_party_2","A1Q8V9050IW4XG","either","1","275","","","","","","","0","0","1","","0.6948346643","0.6","0.4","0.2","0.8","0.7105065455","0.5375892324","0.6948346643","0.5843314555","","","","","","","","","","","","","","75","K","2","","","199","main_expt",""
"","bandit","279","1333773","0.0-241.0-0.0","26564549","wem/bandit_party_2","A1Q8V9050IW4XG","either","1","316","","","","","","","1","0","0","0.7380433654","","0.6","0.4","0.2","0.8","","","","","0.7380433654","0.5625167851","0.7369743936","0.539414212","","","","","","","","","","72","H","0","img/none_selected.jpg","","200","main_expt",""
"","bandit","280","1335699","0.0-242.0-0.0","26564549","wem/bandit_party_2","A1Q8V9050IW4XG","either","1","397","","","","","","","0","0","1","0.6432951689","","0.6","0.4","0.2","0.8","","","","","0.6432951689","0.6266810217","0.8347268415","0.3774065742","","","","","","","","","","72","H","0","img/none_selected.jpg","","201","main_expt",""
"","bandit","281","1337832","0.0-243.0-0.0","26564549","wem/bandit_party_2","A1Q8V9050IW4XG","either","1","605","","","","","","","0","1","0","","0.4995879772","0.6","0.4","0.2","0.8","0.4995879772","0.6661075828","0.7612264534","0.2824615609","","","","","","","","","","","","","","72","H","0","img/none_selected.jpg","","202","main_expt",""
"","bandit","282","1341065","0.0-244.0-0.0","26564549","wem/bandit_party_2","A1Q8V9050IW4XG","either","1","1698","","","","","","","0","0","1","","0.4767352753","0.6","0.4","0.2","0.8","0.4767352753","0.7534099026","0.6904596671","0.210170224","","","","","","","","","","","","","","72","H","0","img/none_selected.jpg","","203","main_expt",""
"","bandit","283","1342930","0.0-245.0-0.0","26564549","wem/bandit_party_2","A1Q8V9050IW4XG","either","1","338","","","","","","","0","1","0","","0.6855485072","0.6","0.4","0.2","0.8","0.3680612217","0.7033522103","0.6855485072","0.2708138581","","","","","","","","","","","","","","75","K","2","","","204","main_expt",""
"","bandit","284","1344938","0.0-246.0-0.0","26564549","wem/bandit_party_2","A1Q8V9050IW4XG","either","1","485","","","","","","","0","0","1","0.7006332368","","0.6","0.4","0.2","0.8","","","","","0.3404512965","0.6105989365","0.7006332368","0.3319820794","","","","","","","","","","75","K","2","","","205","main_expt",""
"","bandit","285","1348066","0.0-247.0-0.0","26564549","wem/bandit_party_2","A1Q8V9050IW4XG","either","1","1600","","","","","","","0","0","1","0.2774568564","","0.6","0.4","0.2","0.8","","","","","0.2774568564","0.725137222","0.7533130943","0.3517339603","","","","","","","","","","72","H","0","img/none_selected.jpg","","206","main_expt",""
"","bandit","286","1349938","0.0-248.0-0.0","26564549","wem/bandit_party_2","A1Q8V9050IW4XG","either","1","351","","","","","","","1","0","0","0.7191760557","","0.6","0.4","0.2","0.8","","","","","0.2228883469","0.5888984072","0.7191760557","0.2871079035","","","","","","","","","","75","K","2","","","207","main_expt",""
"","bandit","287","1351913","0.0-249.0-0.0","26564549","wem/bandit_party_2","A1Q8V9050IW4XG","either","1","454","","","","","","","0","1","0","","0.6264293856","0.6","0.4","0.2","0.8","0.2829247412","0.4650323514","0.6264293856","0.2642306377","","","","","","","","","","","","","","75","K","2","","","208","main_expt",""
"","bandit","288","1354083","0.0-250.0-0.0","26564549","wem/bandit_party_2","A1Q8V9050IW4XG","either","1","647","","","","","","","0","0","1","","0.6500478562","0.6","0.4","0.2","0.8","0.3169104167","0.4100719568","0.6500478562","0.3587725811","","","","","","","","","","","","","","75","K","2","","","209","main_expt",""
"","bandit","289","1356046","0.0-251.0-0.0","26564549","wem/bandit_party_2","A1Q8V9050IW4XG","either","1","437","","","","","","","0","0","1","","0.2090062306","0.6","0.4","0.2","0.8","0.2090062306","0.5177296744","0.6498865343","0.3103342645","","","","","","","","","","","","","","72","H","0","img/none_selected.jpg","","210","main_expt",""
"","bandit","290","1358739","0.0-252.0-0.0","26564549","wem/bandit_party_2","A1Q8V9050IW4XG","either","1","1168","","","","","","","0","0","1","0.1481662818","","0.6","0.4","0.2","0.8","","","","","0.1481662818","0.5950812693","0.6056301442","0.3760595068","","","","","","","","","","72","H","0","img/none_selected.jpg","","211","main_expt",""
"","bandit","291","1360584","0.0-253.0-0.0","26564549","wem/bandit_party_2","A1Q8V9050IW4XG","either","1","323","","","","","","","0","1","0","","0.5524844402","0.6","0.4","0.2","0.8","0.2114888193","0.7169745983","0.5524844402","0.447023013","","","","","","","","","","","","","","75","K","2","","","212","main_expt",""
"","bandit","292","1362715","0.0-254.0-0.0","26564549","wem/bandit_party_2","A1Q8V9050IW4XG","either","1","605","","","","","","","0","1","0","","0.6984249358","0.6","0.4","0.2","0.8","0.2234642754","0.6766124197","0.6984249358","0.4529182837","","","","","","","","","","","","","","75","K","2","","","213","main_expt",""
"","bandit","293","1364652","0.0-255.0-0.0","26564549","wem/bandit_party_2","A1Q8V9050IW4XG","either","1","417","","","","","","","0","0","1","","0.5996975418","0.6","0.4","0.2","0.8","0.2315139555","0.8005648136","0.5996975418","0.4306534983","","","","","","","","","","","","","","75","K","2","","","214","main_expt",""
"","bandit","294","1367072","0.0-256.0-0.0","26564549","wem/bandit_party_2","A1Q8V9050IW4XG","either","1","894","","","","","","","0","1","0","","0.8487964291","0.6","0.4","0.2","0.8","0.1949488974","0.8487964291","0.6067129047","0.4314469479","","","","","","","","","","","","","","74","J","1","","","215","main_expt",""
"","bandit","295","1369029","0.0-257.0-0.0","26564549","wem/bandit_party_2","A1Q8V9050IW4XG","either","1","427","","","","","","","0","1","0","","0.8674123454","0.6","0.4","0.2","0.8","0.2333303883","0.8674123454","0.6297976658","0.45439575","","","","","","","","","","","","","","74","J","1","","","216","main_expt",""
"","bandit","296","1371085","0.0-258.0-0.0","26564549","wem/bandit_party_2","A1Q8V9050IW4XG","either","1","538","","","","","","","0","1","0","","0.8774404243","0.6","0.4","0.2","0.8","0.2027763819","0.8774404243","0.6095272491","0.5228861726","","","","","","","","","","","","","","74","J","1","","","217","main_expt",""
"","bandit","297","1373005","0.0-259.0-0.0","26564549","wem/bandit_party_2","A1Q8V9050IW4XG","either","1","399","","","","","","","0","1","0","","0.8836448068","0.6","0.4","0.2","0.8","0.1895874514","0.8836448068","0.7058099393","0.463703458","","","","","","","","","","","","","","74","J","1","","","218","main_expt",""
"","bandit","298","1374990","0.0-260.0-0.0","26564549","wem/bandit_party_2","A1Q8V9050IW4XG","either","1","463","","","","","","","0","1","0","","0.880498508","0.6","0.4","0.2","0.8","0.1537120117","0.880498508","0.7396246451","0.4522864467","","","","","","","","","","","","","","74","J","1","","","219","main_expt",""
"","bandit","299","1376941","0.0-261.0-0.0","26564549","wem/bandit_party_2","A1Q8V9050IW4XG","either","1","429","","","","","","","0","1","0","","0.8740874997","0.6","0.4","0.2","0.8","0.2022747423","0.8740874997","0.7091968036","0.4561576612","","","","","","","","","","","","","","74","J","1","","","220","main_expt",""
"","bandit","300","1378840","0.0-262.0-0.0","26564549","wem/bandit_party_2","A1Q8V9050IW4XG","either","1","377","","","","","","","0","1","0","","0.8527830905","0.6","0.4","0.2","0.8","0.3174413427","0.8527830905","0.7116308873","0.4264657168","","","","","","","","","","","","","","74","J","1","","","221","main_expt",""
"","bandit","301","1380905","0.0-263.0-0.0","26564549","wem/bandit_party_2","A1Q8V9050IW4XG","either","1","540","","","","","","","0","1","0","","0.7717907476","0.6","0.4","0.2","0.8","0.2315667073","0.7717907476","0.769465391","0.3055141729","","","","","","","","","","","","","","74","J","1","","","222","main_expt",""
"","bandit","302","1382863","0.0-264.0-0.0","26564549","wem/bandit_party_2","A1Q8V9050IW4XG","either","1","437","","","","","","","0","1","0","","0.8359700354","0.6","0.4","0.2","0.8","0.2261006122","0.8359700354","0.7509006974","0.2868954791","","","","","","","","","","","","","","74","J","1","","","223","main_expt",""
"","bandit","303","1385000","0.0-265.0-0.0","26564549","wem/bandit_party_2","A1Q8V9050IW4XG","either","1","616","","","","","","","0","1","0","","0.819670806","0.6","0.4","0.2","0.8","0.2662378096","0.819670806","0.7007688409","0.2698185242","","","","","","","","","","","","","","74","J","1","","","224","main_expt",""
"","bandit","304","1387088","0.0-266.0-0.0","26564549","wem/bandit_party_2","A1Q8V9050IW4XG","either","1","566","","","","","","","1","0","0","0.8512382749","","0.6","0.4","0.2","0.8","","","","","0.2163280173","0.8512382749","0.7409020096","0.213842325","","","","","","","","","","74","J","1","","","225","main_expt",""
"","bandit","305","1388985","0.0-267.0-0.0","26564549","wem/bandit_party_2","A1Q8V9050IW4XG","either","1","375","","","","","","","0","0","1","","0.8342861847","0.6","0.4","0.2","0.8","0.2809353625","0.8342861847","0.7052945704","0.1616408491","","","","","","","","","","","","","","74","J","1","","","226","main_expt",""
"","bandit","306","1395008","0.0-268.0-0.0","26564549","wem/bandit_party_2","A1Q8V9050IW4XG","either","1","4502","","","","","","","0","0","1","0.1777599287","","0.6","0.4","0.2","0.8","","","","","0.2396571279","0.7736041865","0.606091252","0.1777599287","","","","","","","","","","76","L","3","","","227","main_expt",""
"","bandit","307","1396936","0.0-269.0-0.0","26564549","wem/bandit_party_2","A1Q8V9050IW4XG","either","1","404","","","","","","","0","0","1","","0.3430446928","0.6","0.4","0.2","0.8","0.3430446928","0.8094350608","0.5834203199","0.2866543064","","","","","","","","","","","","","","72","H","0","img/none_selected.jpg","","228","main_expt",""
"","bandit","308","1400680","0.0-270.0-0.0","26564549","wem/bandit_party_2","A1Q8V9050IW4XG","either","1","2220","","","","","","","0","1","0","","0.8078722129","0.6","0.4","0.2","0.8","0.2886233194","0.8078722129","0.5466214007","0.3948293382","","","","","","","","","","","","","","74","J","1","","","229","main_expt",""
"","bandit","309","1402648","0.0-271.0-0.0","26564549","wem/bandit_party_2","A1Q8V9050IW4XG","either","1","447","","","","","","","1","0","0","0.7719043616","","0.6","0.4","0.2","0.8","","","","","0.3213731463","0.7719043616","0.5519014059","0.3291786684","","","","","","","","","","74","J","1","","","230","main_expt",""
"","bandit","310","1405284","0.0-272.0-0.0","26564549","wem/bandit_party_2","A1Q8V9050IW4XG","either","1","1112","","","","","","","1","0","0","0.8049264475","","0.6","0.4","0.2","0.8","","","","","0.2771614906","0.8049264475","0.4527164215","0.2378236032","","","","","","","","","","74","J","1","","","231","main_expt",""
"","bandit","311","1407210","0.0-273.0-0.0","26564549","wem/bandit_party_2","A1Q8V9050IW4XG","either","1","403","","","","","","","0","1","0","","0.8850589997","0.6","0.4","0.2","0.8","0.2249105956","0.8850589997","0.5135082398","0.246393804","","","","","","","","","","","","","","74","J","1","","","232","main_expt",""
"","bandit","312","1409350","0.0-274.0-0.0","26564549","wem/bandit_party_2","A1Q8V9050IW4XG","either","1","617","","","","","","","1","0","0","0.9183615156","","0.6","0.4","0.2","0.8","","","","","0.2447973041","0.9183615156","0.5502454751","0.2141634692","","","","","","","","","","74","J","1","","","233","main_expt",""
"","bandit","313","1411312","0.0-275.0-0.0","26564549","wem/bandit_party_2","A1Q8V9050IW4XG","either","1","443","","","","","","","0","1","0","","0.9639410842","0.6","0.4","0.2","0.8","0.24601643","0.9639410842","0.3783923662","0.2876436191","","","","","","","","","","","","","","74","J","1","","","234","main_expt",""
"","bandit","314","1413579","0.0-276.0-0.0","26564549","wem/bandit_party_2","A1Q8V9050IW4XG","either","1","745","","","","","","","1","0","0","0.9697187448","","0.6","0.4","0.2","0.8","","","","","0.1629844561","0.9697187448","0.2814299379","0.2769077257","","","","","","","","","","74","J","1","","","235","main_expt",""
