"consent","trial_type","trial_index","time_elapsed","internal_node_id","subjID","study","MID","cond","drift","rt","responses","button_pressed","key_press","like","value","connected","gems","bombs","no_reward","GemPrChosen","BombPrChosen","GainOverPainPr_0","GainOverPainPr_1","GainOverPainPr_2","GainOverPainPr_3","LosePr_0","LosePr_1","LosePr_2","LosePr_3","WinPr_0","WinPr_1","WinPr_2","WinPr_3","Q0","Q1","Q2","gender","age","ethnicity","label","expt_phase","target","respCharCode","respKey","respChoiceNum","respChoice","practice","trial_counter","trial_label","Q0_index"
"GDM/GDM_behavioral_consent_30min_online.html","consent","0","5042","0.0-0.0","26901453","wem/bandit_party_2","A1B2V27QSGPT6W","either","8","","","","","","","","","","","","","","","","","","","","","","","","","","","","","","","","","","","","","","","","",""
"","survey-text","1","9714","0.0-1.0","26901453","wem/bandit_party_2","A1B2V27QSGPT6W","either","8","3662","{""Q0"":""A1B2V27QSGPT6W""}","","","","","","","","","","","","","","","","","","","","","","","","","","","","","","","","","","","","","","",""
"","button-response","2","12128","0.0-2.0","26901453","wem/bandit_party_2","A1B2V27QSGPT6W","either","8","1405","","2","","","","","","","","","","","","","","","","","","","","","","","","","","","","","","","","","","","","","",""
"","text-replacement","3","19534","0.0-3.0","26901453","wem/bandit_party_2","A1B2V27QSGPT6W","either","8","6403","","","32","","","","","","","","","","","","","","","","","","","","","","","","","","","","","","","","","","","","",""
"","text-replacement","4","23501","0.0-4.0","26901453","wem/bandit_party_2","A1B2V27QSGPT6W","either","8","3966","","","32","","","","","","","","","","","","","","","","","","","","","","","","","","","","","","","","","","","","",""
"","text-replacement","5","27933","0.0-5.0-0.0","26901453","wem/bandit_party_2","A1B2V27QSGPT6W","either","8","4429","","","32","","","","","","","","","","","","","","","","","","","","","","","","","","","","","","","","","","","","",""
"","identification","6","33282","0.0-6.0-0.0","26901453","wem/bandit_party_2","A1B2V27QSGPT6W","either","8","5331","","","","3","3","2","","","","","","","","","","","","","","","","","","","","","","","","pre","identification_pre","the Democratic Party","","","","","","","",""
"","identification","7","41690","0.0-6.0-1.0","26901453","wem/bandit_party_2","A1B2V27QSGPT6W","either","8","7378","","","","0","0","0","","","","","","","","","","","","","","","","","","","","","","","","pre","identification_pre","the Republican Party","","","","","","","",""
"","text-replacement","8","55557","0.0-7.0","26901453","wem/bandit_party_2","A1B2V27QSGPT6W","either","8","12864","","","32","","","","","","","","","","","","","","","","","","","","","","","","","","","","","","","","","","","","",""
"","text-replacement","9","59237","0.0-8.0","26901453","wem/bandit_party_2","A1B2V27QSGPT6W","either","8","3677","","","32","","","","","","","","","","","","","","","","","","","","","","","","","","","","","","","","","","","","",""
"","text-replacement","10","63093","0.0-9.0","26901453","wem/bandit_party_2","A1B2V27QSGPT6W","either","8","3855","","","32","","","","","","","","","","","","","","","","","","","","","","","","","","","","","","","","","","","","",""
"","text-replacement","11","64973","0.0-10.0","26901453","wem/bandit_party_2","A1B2V27QSGPT6W","either","8","1879","","","32","","","","","","","","","","","","","","","","","","","","","","","","","","","","","","","","","","","","",""
"","text-replacement","12","67997","0.0-11.0","26901453","wem/bandit_party_2","A1B2V27QSGPT6W","either","8","3023","","","32","","","","","","","","","","","","","","","","","","","","","","","","","","","","","","","","","","","","",""
"","bandit","13","70368","0.0-12.0-0.0","26901453","wem/bandit_party_2","A1B2V27QSGPT6W","either","8","857","","","","","","","0","0","1","0","0","","","","","0","","","","0","","","","","","","","","","","","","74","J","0","img/none_selected_demo.jpg","true","0","",""
"","bandit","14","72630","0.0-13.0-0.0","26901453","wem/bandit_party_2","A1B2V27QSGPT6W","either","8","751","","","","","","","0","0","1","0","0","","","","","0","","","","0","","","","","","","","","","","","","75","K","0","img/none_selected_demo.jpg","true","0","",""
"","text-replacement","15","76332","0.0-14.0","26901453","wem/bandit_party_2","A1B2V27QSGPT6W","either","8","3701","","","32","","","","","","","","","","","","","","","","","","","","","","","","","","","","","","","","","","","","",""
"","text-replacement","16","79276","0.0-15.0","26901453","wem/bandit_party_2","A1B2V27QSGPT6W","either","8","2941","","","32","","","","","","","","","","","","","","","","","","","","","","","","","","","","","","","","","","","","",""
"","text-replacement","17","82085","0.0-16.0","26901453","wem/bandit_party_2","A1B2V27QSGPT6W","either","8","2806","","","32","","","","","","","","","","","","","","","","","","","","","","","","","","","","","","","","","","","","",""
"","text-replacement","18","86196","0.0-17.0","26901453","wem/bandit_party_2","A1B2V27QSGPT6W","either","8","4110","","","32","","","","","","","","","","","","","","","","","","","","","","","","","","","","","","","","","","","","",""
"","bandit","19","88581","0.0-18.0-0.0","26901453","wem/bandit_party_2","A1B2V27QSGPT6W","either","8","875","","","","","","","0","1","0","","0.8","0.5","0.5","","","0.8","0.2","","","","","","","","","","","","","","","","74","J","0","img/none_selected_demo.jpg","true","0","80_20_practice",""
"","bandit","20","91357","0.0-18.0-1.0","26901453","wem/bandit_party_2","A1B2V27QSGPT6W","either","8","1267","","","","","","","0","1","0","","0.8","0.5","0.5","","","0.8","0.2","","","","","","","","","","","","","","","","74","J","0","img/none_selected_demo.jpg","true","0","80_20_practice",""
"","bandit","21","93835","0.0-18.0-2.0","26901453","wem/bandit_party_2","A1B2V27QSGPT6W","either","8","971","","","","","","","1","0","0","0.8","","0.5","0.5","","","","","","","0.8","0.2","","","","","","","","","","","","74","J","0","img/none_selected_demo.jpg","true","0","80_20_practice",""
"","bandit","22","96115","0.0-18.0-3.0","26901453","wem/bandit_party_2","A1B2V27QSGPT6W","either","8","773","","","","","","","1","0","0","0.8","","0.5","0.5","","","","","","","0.8","0.2","","","","","","","","","","","","74","J","0","img/none_selected_demo.jpg","true","0","80_20_practice",""
"","bandit","23","98676","0.0-18.0-4.0","26901453","wem/bandit_party_2","A1B2V27QSGPT6W","either","8","1053","","","","","","","1","0","0","0.8","","0.5","0.5","","","","","","","0.8","0.2","","","","","","","","","","","","74","J","0","img/none_selected_demo.jpg","true","0","80_20_practice",""
"","bandit","24","100947","0.0-18.0-5.0","26901453","wem/bandit_party_2","A1B2V27QSGPT6W","either","8","763","","","","","","","0","0","1","0.8","","0.5","0.5","","","","","","","0.8","0.2","","","","","","","","","","","","74","J","0","img/none_selected_demo.jpg","true","0","80_20_practice",""
"","bandit","25","103076","0.0-18.0-6.0","26901453","wem/bandit_party_2","A1B2V27QSGPT6W","either","8","621","","","","","","","1","0","0","0.8","","0.5","0.5","","","","","","","0.8","0.2","","","","","","","","","","","","74","J","0","img/none_selected_demo.jpg","true","0","80_20_practice",""
"","bandit","26","104997","0.0-18.0-7.0","26901453","wem/bandit_party_2","A1B2V27QSGPT6W","either","8","412","","","","","","","1","0","0","0.8","","0.5","0.5","","","","","","","0.8","0.2","","","","","","","","","","","","74","J","0","img/none_selected_demo.jpg","true","0","80_20_practice",""
"","bandit","27","107156","0.0-18.0-8.0","26901453","wem/bandit_party_2","A1B2V27QSGPT6W","either","8","652","","","","","","","1","0","0","0.8","","0.5","0.5","","","","","","","0.8","0.2","","","","","","","","","","","","74","J","0","img/none_selected_demo.jpg","true","0","80_20_practice",""
"","bandit","28","109355","0.0-18.0-9.0","26901453","wem/bandit_party_2","A1B2V27QSGPT6W","either","8","691","","","","","","","1","0","0","0.8","","0.5","0.5","","","","","","","0.8","0.2","","","","","","","","","","","","74","J","0","img/none_selected_demo.jpg","true","0","80_20_practice",""
"","bandit","29","111395","0.0-18.0-10.0","26901453","wem/bandit_party_2","A1B2V27QSGPT6W","either","8","534","","","","","","","0","1","0","","0.8","0.5","0.5","","","0.8","0.2","","","","","","","","","","","","","","","","74","J","0","img/none_selected_demo.jpg","true","0","80_20_practice",""
"","bandit","30","113579","0.0-18.0-11.0","26901453","wem/bandit_party_2","A1B2V27QSGPT6W","either","8","676","","","","","","","1","0","0","0.8","","0.5","0.5","","","","","","","0.8","0.2","","","","","","","","","","","","74","J","0","img/none_selected_demo.jpg","true","0","80_20_practice",""
"","bandit","31","116755","0.0-18.0-12.0","26901453","wem/bandit_party_2","A1B2V27QSGPT6W","either","8","1668","","","","","","","1","0","0","0.8","","0.5","0.5","","","","","","","0.8","0.2","","","","","","","","","","","","74","J","0","img/none_selected_demo.jpg","true","0","80_20_practice",""
"","bandit","32","118907","0.0-18.0-13.0","26901453","wem/bandit_party_2","A1B2V27QSGPT6W","either","8","642","","","","","","","0","0","1","","0.8","0.5","0.5","","","0.8","0.2","","","","","","","","","","","","","","","","74","J","0","img/none_selected_demo.jpg","true","0","80_20_practice",""
"","bandit","33","120700","0.0-18.0-14.0","26901453","wem/bandit_party_2","A1B2V27QSGPT6W","either","8","283","","","","","","","0","0","1","0.2","","0.5","0.5","","","","","","","0.8","0.2","","","","","","","","","","","","75","K","1","","true","0","80_20_practice",""
"","bandit","34","122483","0.0-18.0-15.0","26901453","wem/bandit_party_2","A1B2V27QSGPT6W","either","8","274","","","","","","","0","1","0","","0.8","0.5","0.5","","","0.8","0.2","","","","","","","","","","","","","","","","74","J","0","img/none_selected_demo.jpg","true","0","80_20_practice",""
"","bandit","35","124474","0.0-18.0-16.0","26901453","wem/bandit_party_2","A1B2V27QSGPT6W","either","8","485","","","","","","","0","1","0","","0.8","0.5","0.5","","","0.8","0.2","","","","","","","","","","","","","","","","74","J","0","img/none_selected_demo.jpg","true","0","80_20_practice",""
"","bandit","36","126947","0.0-18.0-17.0","26901453","wem/bandit_party_2","A1B2V27QSGPT6W","either","8","966","","","","","","","0","1","0","","0.8","0.5","0.5","","","0.8","0.2","","","","","","","","","","","","","","","","74","J","0","img/none_selected_demo.jpg","true","0","80_20_practice",""
"","bandit","37","129195","0.0-18.0-18.0","26901453","wem/bandit_party_2","A1B2V27QSGPT6W","either","8","742","","","","","","","1","0","0","0.8","","0.5","0.5","","","","","","","0.8","0.2","","","","","","","","","","","","74","J","0","img/none_selected_demo.jpg","true","0","80_20_practice",""
"","bandit","38","131203","0.0-18.0-19.0","26901453","wem/bandit_party_2","A1B2V27QSGPT6W","either","8","502","","","","","","","0","1","0","","0.2","0.5","0.5","","","0.8","0.2","","","","","","","","","","","","","","","","75","K","1","","true","0","80_20_practice",""
"","text-replacement","39","134891","0.0-19.0","26901453","wem/bandit_party_2","A1B2V27QSGPT6W","either","8","3687","","","32","","","","","","","","","","","","","","","","","","","","","","","","","","","","","","","","","","","","",""
"","bandit","40","137075","0.0-20.0-0.0","26901453","wem/bandit_party_2","A1B2V27QSGPT6W","either","8","678","","","","","","","1","0","0","1","0","","","","","0","1","","","1","0","","","","","","","","","","","","74","J","0","img/none_selected_demo.jpg","true","0","",""
"","text-replacement","41","140483","0.0-21.0","26901453","wem/bandit_party_2","A1B2V27QSGPT6W","either","8","3407","","","32","","","","","","","","","","","","","","","","","","","","","","","","","","","","","","","","","","","","",""
"","text-replacement","42","142651","0.0-22.0","26901453","wem/bandit_party_2","A1B2V27QSGPT6W","either","8","2166","","","32","","","","","","","","","","","","","","","","","","","","","","","","","","","","","","","","","","","","",""
"","text-replacement","43","143963","0.0-23.0","26901453","wem/bandit_party_2","A1B2V27QSGPT6W","either","8","1310","","","32","","","","","","","","","","","","","","","","","","","","","","","","","","","","","","","","","","","","",""
"","text-replacement","44","148358","0.0-24.0","26901453","wem/bandit_party_2","A1B2V27QSGPT6W","either","8","4393","","","32","","","","","","","","","","","","","","","","","","","","","","","","","","","","","","","","","","","","",""
"","text-replacement","45","152491","0.0-25.0","26901453","wem/bandit_party_2","A1B2V27QSGPT6W","either","8","4131","","","32","","","","","","","","","","","","","","","","","","","","","","","","","","","","","","","","","","","","",""
"","text-replacement","46","154555","0.0-26.0","26901453","wem/bandit_party_2","A1B2V27QSGPT6W","either","8","2062","","","32","","","","","","","","","","","","","","","","","","","","","","","","","","","","","","","","","","","","",""
"","text-replacement","47","156699","0.0-27.0","26901453","wem/bandit_party_2","A1B2V27QSGPT6W","either","8","2142","","","32","","","","","","","","","","","","","","","","","","","","","","","","","","","","","","","","","","","","",""
"","text-replacement","48","158874","0.0-28.0","26901453","wem/bandit_party_2","A1B2V27QSGPT6W","either","8","2174","","","32","","","","","","","","","","","","","","","","","","","","","","","","","","","","","","","","","","","","",""
"","text-replacement","49","162162","0.0-29.0","26901453","wem/bandit_party_2","A1B2V27QSGPT6W","either","8","3287","","","32","","","","","","","","","","","","","","","","","","","","","","","","","","","","","","","","","","","","",""
"","text-replacement","50","163890","0.0-30.0","26901453","wem/bandit_party_2","A1B2V27QSGPT6W","either","8","1726","","","32","","","","","","","","","","","","","","","","","","","","","","","","","","","","","","","","","","","","",""
"","text-replacement","51","166986","0.0-31.0","26901453","wem/bandit_party_2","A1B2V27QSGPT6W","either","8","3094","","","32","","","","","","","","","","","","","","","","","","","","","","","","","","","","","","","","","","","","",""
"","bandit","52","169155","0.0-32.0-0.0","26901453","wem/bandit_party_2","A1B2V27QSGPT6W","either","8","661","","","","","","","1","0","0","0.2","","0.5","0.5","0.5","0.5","","","","","0.8","0.2","0.6","0.2","","","","","","","","","","74","J","1","","true","0","full_practice",""
"","bandit","53","171434","0.0-32.0-1.0","26901453","wem/bandit_party_2","A1B2V27QSGPT6W","either","8","772","","","","","","","1","0","0","0.6","","0.5","0.5","0.5","0.5","","","","","0.8","0.2","0.6","0.2","","","","","","","","","","75","K","2","","true","0","full_practice",""
"","bandit","54","173796","0.0-32.0-2.0","26901453","wem/bandit_party_2","A1B2V27QSGPT6W","either","8","853","","","","","","","0","0","1","","0.2","0.5","0.5","0.5","0.5","0.8","0.2","0.6","0.2","","","","","","","","","","","","","","74","J","1","","true","0","full_practice",""
"","bandit","55","175858","0.0-32.0-3.0","26901453","wem/bandit_party_2","A1B2V27QSGPT6W","either","8","554","","","","","","","1","0","0","0.6","","0.5","0.5","0.5","0.5","","","","","0.8","0.2","0.6","0.2","","","","","","","","","","75","K","2","","true","0","full_practice",""
"","bandit","56","178025","0.0-32.0-4.0","26901453","wem/bandit_party_2","A1B2V27QSGPT6W","either","8","661","","","","","","","1","0","0","0.2","","0.5","0.5","0.5","0.5","","","","","0.8","0.2","0.6","0.2","","","","","","","","","","74","J","1","","true","0","full_practice",""
"","bandit","57","180306","0.0-32.0-5.0","26901453","wem/bandit_party_2","A1B2V27QSGPT6W","either","8","774","","","","","","","1","0","0","0.2","","0.5","0.5","0.5","0.5","","","","","0.8","0.2","0.6","0.2","","","","","","","","","","74","J","1","","true","0","full_practice",""
"","bandit","58","182507","0.0-32.0-6.0","26901453","wem/bandit_party_2","A1B2V27QSGPT6W","either","8","694","","","","","","","0","0","1","0.2","","0.5","0.5","0.5","0.5","","","","","0.8","0.2","0.6","0.2","","","","","","","","","","74","J","1","","true","0","full_practice",""
"","bandit","59","184970","0.0-32.0-7.0","26901453","wem/bandit_party_2","A1B2V27QSGPT6W","either","8","957","","","","","","","0","0","1","0.6","","0.5","0.5","0.5","0.5","","","","","0.8","0.2","0.6","0.2","","","","","","","","","","75","K","2","","true","0","full_practice",""
"","bandit","60","186891","0.0-32.0-8.0","26901453","wem/bandit_party_2","A1B2V27QSGPT6W","either","8","413","","","","","","","1","0","0","0.2","","0.5","0.5","0.5","0.5","","","","","0.8","0.2","0.6","0.2","","","","","","","","","","76","L","3","","true","0","full_practice",""
"","bandit","61","189147","0.0-32.0-9.0","26901453","wem/bandit_party_2","A1B2V27QSGPT6W","either","8","747","","","","","","","0","0","1","","0.2","0.5","0.5","0.5","0.5","0.8","0.2","0.6","0.2","","","","","","","","","","","","","","74","J","1","","true","0","full_practice",""
"","bandit","62","190947","0.0-32.0-10.0","26901453","wem/bandit_party_2","A1B2V27QSGPT6W","either","8","292","","","","","","","0","0","1","0.2","","0.5","0.5","0.5","0.5","","","","","0.8","0.2","0.6","0.2","","","","","","","","","","76","L","3","","true","0","full_practice",""
"","bandit","63","192947","0.0-32.0-11.0","26901453","wem/bandit_party_2","A1B2V27QSGPT6W","either","8","492","","","","","","","0","0","1","","0.2","0.5","0.5","0.5","0.5","0.8","0.2","0.6","0.2","","","","","","","","","","","","","","76","L","3","","true","0","full_practice",""
"","bandit","64","194715","0.0-32.0-12.0","26901453","wem/bandit_party_2","A1B2V27QSGPT6W","either","8","260","","","","","","","0","0","1","","0.2","0.5","0.5","0.5","0.5","0.8","0.2","0.6","0.2","","","","","","","","","","","","","","74","J","1","","true","0","full_practice",""
"","bandit","65","196898","0.0-32.0-13.0","26901453","wem/bandit_party_2","A1B2V27QSGPT6W","either","8","675","","","","","","","1","0","0","0.8","","0.5","0.5","0.5","0.5","","","","","0.8","0.2","0.6","0.2","","","","","","","","","","72","H","0","img/none_selected.jpg","true","0","full_practice",""
"","bandit","66","198714","0.0-32.0-14.0","26901453","wem/bandit_party_2","A1B2V27QSGPT6W","either","8","307","","","","","","","0","1","0","","0.8","0.5","0.5","0.5","0.5","0.8","0.2","0.6","0.2","","","","","","","","","","","","","","72","H","0","img/none_selected.jpg","true","0","full_practice",""
"","bandit","67","200585","0.0-32.0-15.0","26901453","wem/bandit_party_2","A1B2V27QSGPT6W","either","8","365","","","","","","","1","0","0","0.8","","0.5","0.5","0.5","0.5","","","","","0.8","0.2","0.6","0.2","","","","","","","","","","72","H","0","img/none_selected.jpg","true","0","full_practice",""
"","bandit","68","202425","0.0-32.0-16.0","26901453","wem/bandit_party_2","A1B2V27QSGPT6W","either","8","333","","","","","","","0","1","0","","0.8","0.5","0.5","0.5","0.5","0.8","0.2","0.6","0.2","","","","","","","","","","","","","","72","H","0","img/none_selected.jpg","true","0","full_practice",""
"","bandit","69","204329","0.0-32.0-17.0","26901453","wem/bandit_party_2","A1B2V27QSGPT6W","either","8","397","","","","","","","0","1","0","","0.8","0.5","0.5","0.5","0.5","0.8","0.2","0.6","0.2","","","","","","","","","","","","","","72","H","0","img/none_selected.jpg","true","0","full_practice",""
"","bandit","70","206177","0.0-32.0-18.0","26901453","wem/bandit_party_2","A1B2V27QSGPT6W","either","8","341","","","","","","","0","0","1","0.8","","0.5","0.5","0.5","0.5","","","","","0.8","0.2","0.6","0.2","","","","","","","","","","72","H","0","img/none_selected.jpg","true","0","full_practice",""
"","bandit","71","208138","0.0-32.0-19.0","26901453","wem/bandit_party_2","A1B2V27QSGPT6W","either","8","446","","","","","","","0","0","1","0.2","","0.5","0.5","0.5","0.5","","","","","0.8","0.2","0.6","0.2","","","","","","","","","","74","J","1","","true","0","full_practice",""
"","text","72","211762","0.0-33.0","26901453","wem/bandit_party_2","A1B2V27QSGPT6W","either","8","3619","","","32","","","","","","","","","","","","","","","","","","","","","","","","","","","","","","","","","","","","",""
"","text-replacement","73","220601","0.0-34.0","26901453","wem/bandit_party_2","A1B2V27QSGPT6W","either","8","7836","","","32","","","","","","","","","","","","","","","","","","","","","","","","","","","","","","","","","","","","",""
"","text-replacement","74","227081","0.0-35.0","26901453","wem/bandit_party_2","A1B2V27QSGPT6W","either","8","6478","","","32","","","","","","","","","","","","","","","","","","","","","","","","","","","","","","","","","","","","",""
"","text-replacement","75","229441","0.0-36.0","26901453","wem/bandit_party_2","A1B2V27QSGPT6W","either","8","2358","","","32","","","","","","","","","","","","","","","","","","","","","","","","","","","","","","","","","","","","",""
"","text-replacement","76","232289","0.0-37.0","26901453","wem/bandit_party_2","A1B2V27QSGPT6W","either","8","2846","","","32","","","","","","","","","","","","","","","","","","","","","","","","","","","","","","","","","","","","",""
"","text-replacement","77","234169","0.0-38.0","26901453","wem/bandit_party_2","A1B2V27QSGPT6W","either","8","1878","","","32","","","","","","","","","","","","","","","","","","","","","","","","","","","","","","","","","","","","",""
"","survey-multi-choice-replacement","78","239710","0.0-39.0-0.0","26901453","wem/bandit_party_2","A1B2V27QSGPT6W","either","8","5531","","","","","","","","","","","","","","","","","","","","","","","","Money will be added to the pool for <span style='color:red;'>REPUBLICANS</span>","","","","","","","attn_check","","","","","","","","","0"
"","survey-multi-choice-replacement","79","243166","0.0-40.0-0.0","26901453","wem/bandit_party_2","A1B2V27QSGPT6W","either","8","2439","","","","","","","","","","","","","","","","","","","","","","","","Equal amounts of money will be added to the pool for <span style='color:red;'>REPUBLICANS</span> and subtracted from the pool for <span style='color:blue;'>DEMOCRATS</span>","","","","","","","attn_check","","","","","","","","","2"
"","survey-multi-choice-replacement","80","246157","0.0-41.0-0.0","26901453","wem/bandit_party_2","A1B2V27QSGPT6W","either","8","1981","","","","","","","","","","","","","","","","","","","","","","","","No money will be added to either pool","","","","","","","attn_check","","","","","","","","","3"
"","bandit","81","251217","0.0-42.0-0.0","26901453","wem/bandit_party_2","A1B2V27QSGPT6W","either","8","2549","","","","","","","0","1","0","","0.4468950172","0.2","0.8","0.4","0.6","0.4468950172","0.3040937467","0.6337563202","0.2428949588","","","","","","","","","","","","","","72","H","0","img/none_selected.jpg","","1","main_expt",""
"","bandit","82","253024","0.0-43.0-0.0","26901453","wem/bandit_party_2","A1B2V27QSGPT6W","either","8","293","","","","","","","0","0","1","0.2687625136","","0.2","0.8","0.4","0.6","","","","","0.3846124694","0.2687625136","0.7380673114","0.248961424","","","","","","","","","","74","J","1","","","2","main_expt",""
"","bandit","83","254890","0.0-44.0-0.0","26901453","wem/bandit_party_2","A1B2V27QSGPT6W","either","8","324","","","","","","","0","0","1","","0.3885967974","0.2","0.8","0.4","0.6","0.3885967974","0.3017919557","0.7715549737","0.1878604038","","","","","","","","","","","","","","72","H","0","img/none_selected.jpg","","3","main_expt",""
"","bandit","84","256928","0.0-45.0-0.0","26901453","wem/bandit_party_2","A1B2V27QSGPT6W","either","8","530","","","","","","","1","0","0","0.8257013646","","0.2","0.8","0.4","0.6","","","","","0.2891644394","0.3388517529","0.8257013646","0.1194049449","","","","","","","","","","75","K","2","","","4","main_expt",""
"","bandit","85","258849","0.0-46.0-0.0","26901453","wem/bandit_party_2","A1B2V27QSGPT6W","either","8","413","","","","","","","0","0","1","","0.8617886559","0.2","0.8","0.4","0.6","0.2654579937","0.389096829","0.8617886559","0.197046458","","","","","","","","","","","","","","75","K","2","","","5","main_expt",""
"","bandit","86","260680","0.0-47.0-0.0","26901453","wem/bandit_party_2","A1B2V27QSGPT6W","either","8","323","","","","","","","1","0","0","0.4799636182","","0.2","0.8","0.4","0.6","","","","","0.355160999","0.4799636182","0.8452125903","0.2312720201","","","","","","","","","","74","J","1","","","6","main_expt",""
"","bandit","87","262889","0.0-48.0-0.0","26901453","wem/bandit_party_2","A1B2V27QSGPT6W","either","8","700","","","","","","","0","0","1","0.3255591742","","0.2","0.8","0.4","0.6","","","","","0.4733904832","0.5316557606","0.8765288384","0.3255591742","","","","","","","","","","76","L","3","","","7","main_expt",""
"","bandit","88","264696","0.0-49.0-0.0","26901453","wem/bandit_party_2","A1B2V27QSGPT6W","either","8","300","","","","","","","1","0","0","0.4935712437","","0.2","0.8","0.4","0.6","","","","","0.4900136729","0.4935712437","0.8625068071","0.163151729","","","","","","","","","","74","J","1","","","8","main_expt",""
"","bandit","89","266625","0.0-50.0-0.0","26901453","wem/bandit_party_2","A1B2V27QSGPT6W","either","8","419","","","","","","","0","1","0","","0.5400450001","0.2","0.8","0.4","0.6","0.4543552171","0.5400450001","0.8385781597","0.1671639775","","","","","","","","","","","","","","74","J","1","","","9","main_expt",""
"","bandit","90","268527","0.0-51.0-0.0","26901453","wem/bandit_party_2","A1B2V27QSGPT6W","either","8","394","","","","","","","0","0","1","0.4523920981","","0.2","0.8","0.4","0.6","","","","","0.4523920981","0.6510952772","0.833356221","0.1315225434","","","","","","","","","","72","H","0","img/none_selected.jpg","","10","main_expt",""
"","bandit","91","270399","0.0-52.0-0.0","26901453","wem/bandit_party_2","A1B2V27QSGPT6W","either","8","364","","","","","","","0","1","0","","0.6117649901","0.2","0.8","0.4","0.6","0.4053083118","0.6117649901","0.9030756702","0.1287002637","","","","","","","","","","","","","","74","J","1","","","11","main_expt",""
"","bandit","92","272503","0.0-53.0-0.0","26901453","wem/bandit_party_2","A1B2V27QSGPT6W","either","8","596","","","","","","","1","0","0","0.6360746298","","0.2","0.8","0.4","0.6","","","","","0.4059907931","0.6360746298","0.9129290363","0.1026596936","","","","","","","","","","74","J","1","","","12","main_expt",""
"","bandit","93","274704","0.0-54.0-0.0","26901453","wem/bandit_party_2","A1B2V27QSGPT6W","either","8","692","","","","","","","0","0","1","","0.8638417716","0.2","0.8","0.4","0.6","0.2934167972","0.5673960652","0.8638417716","0.1287514256","","","","","","","","","","","","","","75","K","2","","","13","main_expt",""
"","bandit","94","276560","0.0-55.0-0.0","26901453","wem/bandit_party_2","A1B2V27QSGPT6W","either","8","347","","","","","","","1","0","0","0.6747725803","","0.2","0.8","0.4","0.6","","","","","0.3260927596","0.6747725803","0.787806988","0.1786171179","","","","","","","","","","74","J","1","","","14","main_expt",""
"","bandit","95","278464","0.0-56.0-0.0","26901453","wem/bandit_party_2","A1B2V27QSGPT6W","either","8","396","","","","","","","0","0","1","0.6277188345","","0.2","0.8","0.4","0.6","","","","","0.3355382734","0.6277188345","0.7254212376","0.1459410532","","","","","","","","","","74","J","1","","","15","main_expt",""
"","bandit","96","280240","0.0-57.0-0.0","26901453","wem/bandit_party_2","A1B2V27QSGPT6W","either","8","265","","","","","","","0","0","1","","0.3040928121","0.2","0.8","0.4","0.6","0.3040928121","0.5435568235","0.7238415528","0.2255600906","","","","","","","","","","","","","","72","H","0","img/none_selected.jpg","","16","main_expt",""
"","bandit","97","282009","0.0-58.0-0.0","26901453","wem/bandit_party_2","A1B2V27QSGPT6W","either","8","259","","","","","","","0","0","1","0.4180161478","","0.2","0.8","0.4","0.6","","","","","0.2730366263","0.4180161478","0.7796243455","0.2052013943","","","","","","","","","","74","J","1","","","17","main_expt",""
"","bandit","98","283695","0.0-59.0-0.0","26901453","wem/bandit_party_2","A1B2V27QSGPT6W","either","8","179","","","","","","","0","1","0","","0.6928902724","0.2","0.8","0.4","0.6","0.4105298721","0.4961111773","0.6928902724","0.1780354615","","","","","","","","","","","","","","75","K","2","","","18","main_expt",""
"","bandit","99","285319","0.0-60.0-0.0","26901453","wem/bandit_party_2","A1B2V27QSGPT6W","either","8","117","","","","","","","0","0","1","0.1576496117","","0.2","0.8","0.4","0.6","","","","","0.3586923344","0.445530788","0.7658630901","0.1576496117","","","","","","","","","","76","L","3","","","19","main_expt",""
"","bandit","100","287039","0.0-61.0-0.0","26901453","wem/bandit_party_2","A1B2V27QSGPT6W","either","8","213","","","","","","","0","1","0","","0.7584200513","0.2","0.8","0.4","0.6","0.3220075653","0.3443163705","0.7584200513","0.1618752313","","","","","","","","","","","","","","75","K","2","","","20","main_expt",""
"","bandit","101","288887","0.0-62.0-0.0","26901453","wem/bandit_party_2","A1B2V27QSGPT6W","either","8","341","","","","","","","0","1","0","","0.7727038765","0.2","0.8","0.4","0.6","0.2729660799","0.3012808647","0.7727038765","0.2152187387","","","","","","","","","","","","","","75","K","2","","","21","main_expt",""
"","bandit","102","290799","0.0-63.0-0.0","26901453","wem/bandit_party_2","A1B2V27QSGPT6W","either","8","404","","","","","","","0","1","0","","0.8152565923","0.2","0.8","0.4","0.6","0.2712352107","0.2882062485","0.8152565923","0.3547982299","","","","","","","","","","","","","","75","K","2","","","22","main_expt",""
"","bandit","103","292727","0.0-64.0-0.0","26901453","wem/bandit_party_2","A1B2V27QSGPT6W","either","8","418","","","","","","","0","1","0","","0.7537075358","0.2","0.8","0.4","0.6","0.3390855774","0.2113421372","0.7537075358","0.323805638","","","","","","","","","","","","","","75","K","2","","","23","main_expt",""
"","bandit","104","294727","0.0-65.0-0.0","26901453","wem/bandit_party_2","A1B2V27QSGPT6W","either","8","493","","","","","","","0","0","1","","0.7108822858","0.2","0.8","0.4","0.6","0.3483259141","0.2201805416","0.7108822858","0.3588909826","","","","","","","","","","","","","","75","K","2","","","24","main_expt",""
"","bandit","105","296607","0.0-66.0-0.0","26901453","wem/bandit_party_2","A1B2V27QSGPT6W","either","8","372","","","","","","","0","0","1","0.2580956466","","0.2","0.8","0.4","0.6","","","","","0.3416976173","0.2580956466","0.6930515954","0.3885553436","","","","","","","","","","74","J","1","","","25","main_expt",""
"","bandit","106","298407","0.0-67.0-0.0","26901453","wem/bandit_party_2","A1B2V27QSGPT6W","either","8","292","","","","","","","1","0","0","0.6905393417","","0.2","0.8","0.4","0.6","","","","","0.4243476322","0.2153432854","0.6905393417","0.4871556374","","","","","","","","","","75","K","2","","","26","main_expt",""
"","bandit","107","300327","0.0-68.0-0.0","26901453","wem/bandit_party_2","A1B2V27QSGPT6W","either","8","412","","","","","","","0","1","0","","0.7531652131","0.2","0.8","0.4","0.6","0.5257754898","0.1727955236","0.7531652131","0.4934119911","","","","","","","","","","","","","","75","K","2","","","27","main_expt",""
"","bandit","108","302398","0.0-69.0-0.0","26901453","wem/bandit_party_2","A1B2V27QSGPT6W","either","8","564","","","","","","","1","0","0","0.8001777041","","0.2","0.8","0.4","0.6","","","","","0.5246232361","0.1894296703","0.8001777041","0.4322092846","","","","","","","","","","75","K","2","","","28","main_expt",""
"","bandit","109","304392","0.0-70.0-0.0","26901453","wem/bandit_party_2","A1B2V27QSGPT6W","either","8","486","","","","","","","0","1","0","","0.8118404327","0.2","0.8","0.4","0.6","0.375994784","0.2128919211","0.8118404327","0.3459113699","","","","","","","","","","","","","","75","K","2","","","29","main_expt",""
"","bandit","110","306336","0.0-71.0-0.0","26901453","wem/bandit_party_2","A1B2V27QSGPT6W","either","8","436","","","","","","","1","0","0","0.7839534503","","0.2","0.8","0.4","0.6","","","","","0.2936890161","0.206056468","0.7839534503","0.280789843","","","","","","","","","","75","K","2","","","30","main_expt",""
"","bandit","111","308159","0.0-72.0-0.0","26901453","wem/bandit_party_2","A1B2V27QSGPT6W","either","8","314","","","","","","","0","1","0","","0.8066372971","0.2","0.8","0.4","0.6","0.2878812258","0.1725623241","0.8066372971","0.2613810438","","","","","","","","","","","","","","75","K","2","","","31","main_expt",""
"","bandit","112","309952","0.0-73.0-0.0","26901453","wem/bandit_party_2","A1B2V27QSGPT6W","either","8","282","","","","","","","0","0","1","","0.8049259064","0.2","0.8","0.4","0.6","0.2451492808","0.1629883914","0.8049259064","0.3821585683","","","","","","","","","","","","","","75","K","2","","","32","main_expt",""
"","bandit","113","311768","0.0-74.0-0.0","26901453","wem/bandit_party_2","A1B2V27QSGPT6W","either","8","307","","","","","","","0","0","1","0.2107911223","","0.2","0.8","0.4","0.6","","","","","0.2802113289","0.2107911223","0.7891664673","0.2714925976","","","","","","","","","","74","J","1","","","33","main_expt",""
"","bandit","114","313576","0.0-75.0-0.0","26901453","wem/bandit_party_2","A1B2V27QSGPT6W","either","8","298","","","","","","","0","1","0","","0.7854278051","0.2","0.8","0.4","0.6","0.2892342718","0.1025901997","0.7854278051","0.2755575364","","","","","","","","","","","","","","75","K","2","","","34","main_expt",""
"","bandit","115","315511","0.0-76.0-0.0","26901453","wem/bandit_party_2","A1B2V27QSGPT6W","either","8","426","","","","","","","0","0","1","","0.7260182018","0.2","0.8","0.4","0.6","0.2486893666","0.1289879153","0.7260182018","0.2697856654","","","","","","","","","","","","","","75","K","2","","","35","main_expt",""
"","bandit","116","317759","0.0-77.0-0.0","26901453","wem/bandit_party_2","A1B2V27QSGPT6W","either","8","739","","","","","","","0","1","0","","0.3536408983","0.2","0.8","0.4","0.6","0.3536408983","0.1645491317","0.7910957192","0.2483646443","","","","","","","","","","","","","","72","H","0","img/none_selected.jpg","","36","main_expt",""
"","bandit","117","319678","0.0-78.0-0.0","26901453","wem/bandit_party_2","A1B2V27QSGPT6W","either","8","411","","","","","","","0","0","1","","0.2493566902","0.2","0.8","0.4","0.6","0.2493566902","0.1698046746","0.7996551039","0.2103950957","","","","","","","","","","","","","","72","H","0","img/none_selected.jpg","","37","main_expt",""
"","bandit","118","321486","0.0-79.0-0.0","26901453","wem/bandit_party_2","A1B2V27QSGPT6W","either","8","300","","","","","","","0","0","1","0.2128944509","","0.2","0.8","0.4","0.6","","","","","0.2948354516","0.2281502886","0.6717479894","0.2128944509","","","","","","","","","","76","L","3","","","38","main_expt",""
"","bandit","119","323190","0.0-80.0-0.0","26901453","wem/bandit_party_2","A1B2V27QSGPT6W","either","8","196","","","","","","","0","0","1","","0.2965153327","0.2","0.8","0.4","0.6","0.3373274679","0.1561271762","0.7121128808","0.2965153327","","","","","","","","","","","","","","76","L","3","","","39","main_expt",""
"","bandit","120","325246","0.0-81.0-0.0","26901453","wem/bandit_party_2","A1B2V27QSGPT6W","either","8","547","","","","","","","0","1","0","","0.7157410044","0.2","0.8","0.4","0.6","0.4138768052","0.1543620621","0.7157410044","0.4447532253","","","","","","","","","","","","","","75","K","2","","","40","main_expt",""
"","bandit","121","327078","0.0-82.0-0.0","26901453","wem/bandit_party_2","A1B2V27QSGPT6W","either","8","324","","","","","","","1","0","0","0.681196038","","0.2","0.8","0.4","0.6","","","","","0.438096834","0.2271499981","0.681196038","0.5330008696","","","","","","","","","","75","K","2","","","41","main_expt",""
"","bandit","122","328887","0.0-83.0-0.0","26901453","wem/bandit_party_2","A1B2V27QSGPT6W","either","8","300","","","","","","","0","1","0","","0.6504320647","0.2","0.8","0.4","0.6","0.4185173612","0.2882452936","0.6504320647","0.573861049","","","","","","","","","","","","","","75","K","2","","","42","main_expt",""
"","bandit","123","330791","0.0-84.0-0.0","26901453","wem/bandit_party_2","A1B2V27QSGPT6W","either","8","395","","","","","","","0","1","0","","0.7369830744","0.2","0.8","0.4","0.6","0.3796335567","0.298522686","0.7369830744","0.6654349765","","","","","","","","","","","","","","75","K","2","","","43","main_expt",""
"","bandit","124","332599","0.0-85.0-0.0","26901453","wem/bandit_party_2","A1B2V27QSGPT6W","either","8","299","","","","","","","0","1","0","","0.6797935378","0.2","0.8","0.4","0.6","0.31766129","0.3188886026","0.6797935378","0.691198465","","","","","","","","","","","","","","75","K","2","","","44","main_expt",""
"","bandit","125","334398","0.0-86.0-0.0","26901453","wem/bandit_party_2","A1B2V27QSGPT6W","either","8","291","","","","","","","1","0","0","0.6507473666","","0.2","0.8","0.4","0.6","","","","","0.4047397141","0.2705760174","0.6507473666","0.7652674903","","","","","","","","","","75","K","2","","","45","main_expt",""
"","bandit","126","336470","0.0-87.0-0.0","26901453","wem/bandit_party_2","A1B2V27QSGPT6W","either","8","564","","","","","","","0","1","0","","0.6334510787","0.2","0.8","0.4","0.6","0.4961613307","0.2506880939","0.6334510787","0.8065230058","","","","","","","","","","","","","","75","K","2","","","46","main_expt",""
"","bandit","127","338414","0.0-88.0-0.0","26901453","wem/bandit_party_2","A1B2V27QSGPT6W","either","8","436","","","","","","","0","1","0","","0.6143175143","0.2","0.8","0.4","0.6","0.4624468315","0.2491585872","0.6143175143","0.7774474893","","","","","","","","","","","","","","75","K","2","","","47","main_expt",""
"","bandit","128","340278","0.0-89.0-0.0","26901453","wem/bandit_party_2","A1B2V27QSGPT6W","either","8","356","","","","","","","0","1","0","","0.6404512611","0.2","0.8","0.4","0.6","0.4886537242","0.1997021219","0.6404512611","0.7693176975","","","","","","","","","","","","","","75","K","2","","","48","main_expt",""
"","bandit","129","342094","0.0-90.0-0.0","26901453","wem/bandit_party_2","A1B2V27QSGPT6W","either","8","308","","","","","","","0","0","1","","0.2119577724","0.2","0.8","0.4","0.6","0.4270302022","0.2119577724","0.6758621215","0.807419373","","","","","","","","","","","","","","74","J","1","","","49","main_expt",""
"","bandit","130","343758","0.0-91.0-0.0","26901453","wem/bandit_party_2","A1B2V27QSGPT6W","either","8","156","","","","","","","0","1","0","","0.6873234502","0.2","0.8","0.4","0.6","0.5151345658","0.2615271711","0.6873234502","0.8562769227","","","","","","","","","","","","","","75","K","2","","","50","main_expt",""
"","bandit","131","345558","0.0-92.0-0.0","26901453","wem/bandit_party_2","A1B2V27QSGPT6W","either","8","292","","","","","","","1","0","0","0.7776044395","","0.2","0.8","0.4","0.6","","","","","0.5134524181","0.2764427577","0.7776044395","0.8705114925","","","","","","","","","","75","K","2","","","51","main_expt",""
"","bandit","132","347398","0.0-93.0-0.0","26901453","wem/bandit_party_2","A1B2V27QSGPT6W","either","8","332","","","","","","","0","1","0","","0.8403410939","0.2","0.8","0.4","0.6","0.4842684999","0.3833776697","0.8403410939","0.9310361031","","","","","","","","","","","","","","75","K","2","","","52","main_expt",""
"","bandit","133","349238","0.0-94.0-0.0","26901453","wem/bandit_party_2","A1B2V27QSGPT6W","either","8","332","","","","","","","1","0","0","0.8151983534","","0.2","0.8","0.4","0.6","","","","","0.4412850773","0.4356502318","0.8151983534","0.905794742","","","","","","","","","","75","K","2","","","53","main_expt",""
"","bandit","134","351118","0.0-95.0-0.0","26901453","wem/bandit_party_2","A1B2V27QSGPT6W","either","8","372","","","","","","","0","1","0","","0.8081222638","0.2","0.8","0.4","0.6","0.4397693946","0.4120588364","0.8081222638","0.9391541593","","","","","","","","","","","","","","75","K","2","","","54","main_expt",""
"","bandit","135","352885","0.0-96.0-0.0","26901453","wem/bandit_party_2","A1B2V27QSGPT6W","either","8","260","","","","","","","1","0","0","0.742009976","","0.2","0.8","0.4","0.6","","","","","0.3928202278","0.2714296105","0.742009976","0.9596285882","","","","","","","","","","75","K","2","","","55","main_expt",""
"","bandit","136","354767","0.0-97.0-0.0","26901453","wem/bandit_party_2","A1B2V27QSGPT6W","either","8","373","","","","","","","0","1","0","","0.7065076074","0.2","0.8","0.4","0.6","0.4593665993","0.2122311877","0.7065076074","0.9565658233","","","","","","","","","","","","","","75","K","2","","","56","main_expt",""
"","bandit","137","356558","0.0-98.0-0.0","26901453","wem/bandit_party_2","A1B2V27QSGPT6W","either","8","283","","","","","","","1","0","0","0.6860695476","","0.2","0.8","0.4","0.6","","","","","0.4006145211","0.2282278588","0.6860695476","0.9681540372","","","","","","","","","","75","K","2","","","57","main_expt",""
"","bandit","138","358758","0.0-99.0-0.0","26901453","wem/bandit_party_2","A1B2V27QSGPT6W","either","8","691","","","","","","","0","1","0","","0.742301155","0.2","0.8","0.4","0.6","0.4597890412","0.1392076118","0.742301155","0.9207083952","","","","","","","","","","","","","","75","K","2","","","58","main_expt",""
"","bandit","139","360654","0.0-100.0-0.0","26901453","wem/bandit_party_2","A1B2V27QSGPT6W","either","8","388","","","","","","","0","1","0","","0.5291004622","0.2","0.8","0.4","0.6","0.4232266093","0.1706239206","0.5291004622","0.9178227258","","","","","","","","","","","","","","75","K","2","","","59","main_expt",""
"","bandit","140","362494","0.0-101.0-0.0","26901453","wem/bandit_party_2","A1B2V27QSGPT6W","either","8","332","","","","","","","0","0","1","","0.6348838793","0.2","0.8","0.4","0.6","0.3565880291","0.1674269281","0.6348838793","0.8951285427","","","","","","","","","","","","","","75","K","2","","","60","main_expt",""
"","bandit","141","364310","0.0-102.0-0.0","26901453","wem/bandit_party_2","A1B2V27QSGPT6W","either","8","308","","","","","","","0","1","0","","0.6796423313","0.2","0.8","0.4","0.6","0.3663276413","0.2182313474","0.6796423313","0.8506814954","","","","","","","","","","","","","","75","K","2","","","61","main_expt",""
"","bandit","142","366118","0.0-103.0-0.0","26901453","wem/bandit_party_2","A1B2V27QSGPT6W","either","8","300","","","","","","","0","1","0","","0.6928172916","0.2","0.8","0.4","0.6","0.3193005293","0.2949218256","0.6928172916","0.8513854559","","","","","","","","","","","","","","75","K","2","","","62","main_expt",""
"","bandit","143","367895","0.0-104.0-0.0","26901453","wem/bandit_party_2","A1B2V27QSGPT6W","either","8","267","","","","","","","0","0","1","0.6996506825","","0.2","0.8","0.4","0.6","","","","","0.1562068481","0.3170222383","0.6996506825","0.8927579502","","","","","","","","","","75","K","2","","","63","main_expt",""
"","bandit","144","369445","0.0-105.0-0.0","26901453","wem/bandit_party_2","A1B2V27QSGPT6W","either","8","41","","","","","","","0","1","0","","0.7294442249","0.2","0.8","0.4","0.6","0.2300477965","0.3033511374","0.7294442249","0.9217936765","","","","","","","","","","","","","","75","K","2","","","64","main_expt",""
"","bandit","145","371885","0.0-106.0-0.0","26901453","wem/bandit_party_2","A1B2V27QSGPT6W","either","8","932","","","","","","","0","1","0","","0.6605354899","0.2","0.8","0.4","0.6","0.2869838185","0.3973690147","0.6605354899","0.9357047413","","","","","","","","","","","","","","75","K","2","","","65","main_expt",""
"","bandit","146","373797","0.0-107.0-0.0","26901453","wem/bandit_party_2","A1B2V27QSGPT6W","either","8","404","","","","","","","1","0","0","0.6959621059","","0.2","0.8","0.4","0.6","","","","","0.3287476356","0.4320294497","0.6959621059","0.910343843","","","","","","","","","","75","K","2","","","66","main_expt",""
"","bandit","147","376934","0.0-108.0-0.0","26901453","wem/bandit_party_2","A1B2V27QSGPT6W","either","8","1629","","","","","","","0","0","1","0.653899752","","0.2","0.8","0.4","0.6","","","","","0.3018365728","0.3208465419","0.653899752","0.9022080512","","","","","","","","","","75","K","2","","","67","main_expt",""
"","bandit","148","379293","0.0-109.0-0.0","26901453","wem/bandit_party_2","A1B2V27QSGPT6W","either","8","851","","","","","","","0","1","0","","0.6517851336","0.2","0.8","0.4","0.6","0.3208616414","0.3570730799","0.6517851336","0.8492414063","","","","","","","","","","","","","","75","K","2","","","68","main_expt",""
"","bandit","149","381189","0.0-110.0-0.0","26901453","wem/bandit_party_2","A1B2V27QSGPT6W","either","8","387","","","","","","","0","1","0","","0.7011615004","0.2","0.8","0.4","0.6","0.386863802","0.3451514791","0.7011615004","0.768219052","","","","","","","","","","","","","","75","K","2","","","69","main_expt",""
"","bandit","150","391294","0.0-111.0-0.0","26901453","wem/bandit_party_2","A1B2V27QSGPT6W","either","8","8596","","","","","","","0","1","0","","0.6278947594","0.2","0.8","0.4","0.6","0.3628244161","0.3127714871","0.6278947594","0.7996218848","","","","","","","","","","","","","","75","K","2","","","70","main_expt",""
"","bandit","151","393685","0.0-112.0-0.0","26901453","wem/bandit_party_2","A1B2V27QSGPT6W","either","8","883","","","","","","","0","1","0","","0.688517509","0.2","0.8","0.4","0.6","0.2969295023","0.3855297895","0.688517509","0.9130189757","","","","","","","","","","","","","","75","K","2","","","71","main_expt",""
"","bandit","152","407818","0.0-113.0-0.0","26901453","wem/bandit_party_2","A1B2V27QSGPT6W","either","8","12621","","","","","","","1","0","0","0.6125440106","","0.2","0.8","0.4","0.6","","","","","0.3512325323","0.3555010044","0.6125440106","0.9016843832","","","","","","","","","","75","K","2","","","72","main_expt",""
"","bandit","153","409615","0.0-114.0-0.0","26901453","wem/bandit_party_2","A1B2V27QSGPT6W","either","8","280","","","","","","","0","0","1","0.4884410468","","0.2","0.8","0.4","0.6","","","","","0.3845321254","0.3278360739","0.4884410468","0.9166584401","","","","","","","","","","75","K","2","","","73","main_expt",""
"","bandit","154","411277","0.0-115.0-0.0","26901453","wem/bandit_party_2","A1B2V27QSGPT6W","either","8","152","","","","","","","1","0","0","0.5800760741","","0.2","0.8","0.4","0.6","","","","","0.3760614253","0.3275161349","0.5800760741","0.8699410266","","","","","","","","","","75","K","2","","","74","main_expt",""
"","bandit","155","413134","0.0-116.0-0.0","26901453","wem/bandit_party_2","A1B2V27QSGPT6W","either","8","347","","","","","","","0","0","1","","0.6614390465","0.2","0.8","0.4","0.6","0.370831352","0.3454333807","0.6614390465","0.8192171788","","","","","","","","","","","","","","75","K","2","","","75","main_expt",""
"","bandit","156","414926","0.0-117.0-0.0","26901453","wem/bandit_party_2","A1B2V27QSGPT6W","either","8","282","","","","","","","0","0","1","","0.4213924804","0.2","0.8","0.4","0.6","0.4008199491","0.4213924804","0.6861570843","0.8990587115","","","","","","","","","","","","","","74","J","1","","","76","main_expt",""
"","bandit","157","416727","0.0-118.0-0.0","26901453","wem/bandit_party_2","A1B2V27QSGPT6W","either","8","291","","","","","","","0","0","1","","0.5980737028","0.2","0.8","0.4","0.6","0.3928984844","0.439510692","0.5980737028","0.9062137116","","","","","","","","","","","","","","75","K","2","","","77","main_expt",""
"","bandit","158","418486","0.0-119.0-0.0","26901453","wem/bandit_party_2","A1B2V27QSGPT6W","either","8","249","","","","","","","0","0","1","","0.4709058574","0.2","0.8","0.4","0.6","0.4709058574","0.4419424199","0.6754083514","0.9215914722","","","","","","","","","","","","","","72","H","0","img/none_selected.jpg","","78","main_expt",""
"","bandit","159","420309","0.0-120.0-0.0","26901453","wem/bandit_party_2","A1B2V27QSGPT6W","either","8","315","","","","","","","1","0","0","0.895443078","","0.2","0.8","0.4","0.6","","","","","0.4971614577","0.5056762283","0.7012934339","0.895443078","","","","","","","","","","76","L","3","","","79","main_expt",""
"","bandit","160","422164","0.0-121.0-0.0","26901453","wem/bandit_party_2","A1B2V27QSGPT6W","either","8","346","","","","","","","1","0","0","0.7789772955","","0.2","0.8","0.4","0.6","","","","","0.4828267768","0.4558190996","0.7067798052","0.7789772955","","","","","","","","","","76","L","3","","","80","main_expt",""
"","bandit","161","424109","0.0-122.0-0.0","26901453","wem/bandit_party_2","A1B2V27QSGPT6W","either","8","435","","","","","","","0","1","0","","0.755426824","0.2","0.8","0.4","0.6","0.4280570329","0.4774921548","0.7259433061","0.755426824","","","","","","","","","","","","","","76","L","3","","","81","main_expt",""
"","bandit","162","425973","0.0-123.0-0.0","26901453","wem/bandit_party_2","A1B2V27QSGPT6W","either","8","354","","","","","","","0","1","0","","0.8356426425","0.2","0.8","0.4","0.6","0.486136241","0.3611036613","0.7022130872","0.8356426425","","","","","","","","","","","","","","76","L","3","","","82","main_expt",""
"","bandit","163","427892","0.0-124.0-0.0","26901453","wem/bandit_party_2","A1B2V27QSGPT6W","either","8","407","","","","","","","0","1","0","","0.8783145762","0.2","0.8","0.4","0.6","0.3539143083","0.3341354767","0.75927227","0.8783145762","","","","","","","","","","","","","","76","L","3","","","83","main_expt",""
"","bandit","164","429765","0.0-125.0-0.0","26901453","wem/bandit_party_2","A1B2V27QSGPT6W","either","8","363","","","","","","","0","1","0","","0.9087743635","0.2","0.8","0.4","0.6","0.374811954","0.288479151","0.8556046088","0.9087743635","","","","","","","","","","","","","","76","L","3","","","84","main_expt",""
"","bandit","165","431620","0.0-126.0-0.0","26901453","wem/bandit_party_2","A1B2V27QSGPT6W","either","8","345","","","","","","","1","0","0","0.8632011641","","0.2","0.8","0.4","0.6","","","","","0.4518264681","0.3061923995","0.7835234447","0.8632011641","","","","","","","","","","76","L","3","","","85","main_expt",""
"","bandit","166","433516","0.0-127.0-0.0","26901453","wem/bandit_party_2","A1B2V27QSGPT6W","either","8","387","","","","","","","1","0","0","0.8341253046","","0.2","0.8","0.4","0.6","","","","","0.461936863","0.3370204437","0.7037548709","0.8341253046","","","","","","","","","","76","L","3","","","86","main_expt",""
"","bandit","167","435404","0.0-128.0-0.0","26901453","wem/bandit_party_2","A1B2V27QSGPT6W","either","8","375","","","","","","","0","1","0","","0.8728746981","0.2","0.8","0.4","0.6","0.3681660755","0.3900809043","0.6903674631","0.8728746981","","","","","","","","","","","","","","76","L","3","","","87","main_expt",""
"","bandit","168","437221","0.0-129.0-0.0","26901453","wem/bandit_party_2","A1B2V27QSGPT6W","either","8","307","","","","","","","1","0","0","0.8408980459","","0.2","0.8","0.4","0.6","","","","","0.3788462328","0.4296615172","0.5883284312","0.8408980459","","","","","","","","","","76","L","3","","","88","main_expt",""
"","bandit","169","439006","0.0-130.0-0.0","26901453","wem/bandit_party_2","A1B2V27QSGPT6W","either","8","275","","","","","","","0","1","0","","0.8585781628","0.2","0.8","0.4","0.6","0.3316952272","0.4636560077","0.5258490985","0.8585781628","","","","","","","","","","","","","","76","L","3","","","89","main_expt",""
"","bandit","170","440878","0.0-131.0-0.0","26901453","wem/bandit_party_2","A1B2V27QSGPT6W","either","8","359","","","","","","","0","0","1","0.925840658","","0.2","0.8","0.4","0.6","","","","","0.438068917","0.4463585346","0.6395041767","0.925840658","","","","","","","","","","76","L","3","","","90","main_expt",""
"","bandit","171","442525","0.0-132.0-0.0","26901453","wem/bandit_party_2","A1B2V27QSGPT6W","either","8","137","","","","","","","0","1","0","","0.9201841885","0.2","0.8","0.4","0.6","0.5158843935","0.4734463503","0.6931091445","0.9201841885","","","","","","","","","","","","","","76","L","3","","","91","main_expt",""
"","bandit","172","444700","0.0-133.0-0.0","26901453","wem/bandit_party_2","A1B2V27QSGPT6W","either","8","667","","","","","","","1","0","0","0.8508076908","","0.2","0.8","0.4","0.6","","","","","0.5182757575","0.5248255385","0.6725373887","0.8508076908","","","","","","","","","","76","L","3","","","92","main_expt",""
"","bandit","173","446988","0.0-134.0-0.0","26901453","wem/bandit_party_2","A1B2V27QSGPT6W","either","8","779","","","","","","","0","1","0","","0.8106711147","0.2","0.8","0.4","0.6","0.5498130742","0.3386726181","0.7388835399","0.8106711147","","","","","","","","","","","","","","76","L","3","","","93","main_expt",""
"","bandit","174","449380","0.0-135.0-0.0","26901453","wem/bandit_party_2","A1B2V27QSGPT6W","either","8","884","","","","","","","0","1","0","","0.8543263914","0.2","0.8","0.4","0.6","0.6049407638","0.3718894848","0.697373586","0.8543263914","","","","","","","","","","","","","","76","L","3","","","94","main_expt",""
"","bandit","175","451429","0.0-136.0-0.0","26901453","wem/bandit_party_2","A1B2V27QSGPT6W","either","8","540","","","","","","","0","1","0","","0.8387782901","0.2","0.8","0.4","0.6","0.6604115927","0.4005278521","0.7550322224","0.8387782901","","","","","","","","","","","","","","76","L","3","","","95","main_expt",""
"","bandit","176","453324","0.0-137.0-0.0","26901453","wem/bandit_party_2","A1B2V27QSGPT6W","either","8","382","","","","","","","1","0","0","0.8208071174","","0.2","0.8","0.4","0.6","","","","","0.7003847986","0.3694595514","0.6576962358","0.8208071174","","","","","","","","","","76","L","3","","","96","main_expt",""
"","bandit","177","455142","0.0-138.0-0.0","26901453","wem/bandit_party_2","A1B2V27QSGPT6W","either","8","307","","","","","","","1","0","0","0.765358829","","0.2","0.8","0.4","0.6","","","","","0.6793148949","0.3186037095","0.6802484638","0.765358829","","","","","","","","","","76","L","3","","","97","main_expt",""
"","bandit","178","457066","0.0-139.0-0.0","26901453","wem/bandit_party_2","A1B2V27QSGPT6W","either","8","409","","","","","","","0","1","0","","0.7823463211","0.2","0.8","0.4","0.6","0.6204607354","0.2786717818","0.7042077447","0.7823463211","","","","","","","","","","","","","","76","L","3","","","98","main_expt",""
"","bandit","179","459063","0.0-140.0-0.0","26901453","wem/bandit_party_2","A1B2V27QSGPT6W","either","8","477","","","","","","","0","0","1","0.7523003034","","0.2","0.8","0.4","0.6","","","","","0.6166262367","0.32929866","0.7355617892","0.7523003034","","","","","","","","","","76","L","3","","","99","main_expt",""
"","bandit","180","461006","0.0-141.0-0.0","26901453","wem/bandit_party_2","A1B2V27QSGPT6W","either","8","430","","","","","","","0","0","1","0.7174790615","","0.2","0.8","0.4","0.6","","","","","0.5347115766","0.3115323478","0.7117411671","0.7174790615","","","","","","","","","","76","L","3","","","100","main_expt",""
"","bandit","181","462826","0.0-142.0-0.0","26901453","wem/bandit_party_2","A1B2V27QSGPT6W","either","8","281","","","","","","","1","0","0","0.7263903312","","0.2","0.8","0.4","0.6","","","","","0.3418016043","0.4221749579","0.7263903312","0.7660578318","","","","","","","","","","75","K","2","","","101","main_expt",""
"","bandit","182","464689","0.0-143.0-0.0","26901453","wem/bandit_party_2","A1B2V27QSGPT6W","either","8","341","","","","","","","1","0","0","0.7357346189","","0.2","0.8","0.4","0.6","","","","","0.2550922237","0.2718078598","0.7357346189","0.7201180075","","","","","","","","","","75","K","2","","","102","main_expt",""
"","bandit","183","466542","0.0-144.0-0.0","26901453","wem/bandit_party_2","A1B2V27QSGPT6W","either","8","337","","","","","","","0","0","1","","0.7026134783","0.2","0.8","0.4","0.6","0.3181696353","0.3011307106","0.7026134783","0.8452780714","","","","","","","","","","","","","","75","K","2","","","103","main_expt",""
"","bandit","184","468324","0.0-145.0-0.0","26901453","wem/bandit_party_2","A1B2V27QSGPT6W","either","8","271","","","","","","","1","0","0","0.8073666152","","0.2","0.8","0.4","0.6","","","","","0.3383579412","0.3659291838","0.8073666152","0.7236924273","","","","","","","","","","75","K","2","","","104","main_expt",""
"","bandit","185","470229","0.0-146.0-0.0","26901453","wem/bandit_party_2","A1B2V27QSGPT6W","either","8","394","","","","","","","0","0","1","","0.824483439","0.2","0.8","0.4","0.6","0.2354673658","0.3499435223","0.824483439","0.743719778","","","","","","","","","","","","","","75","K","2","","","105","main_expt",""
"","bandit","186","472364","0.0-147.0-0.0","26901453","wem/bandit_party_2","A1B2V27QSGPT6W","either","8","625","","","","","","","0","1","0","","0.9208810438","0.2","0.8","0.4","0.6","0.159398249","0.3602262465","0.9208810438","0.7985687284","","","","","","","","","","","","","","75","K","2","","","106","main_expt",""
"","bandit","187","474317","0.0-148.0-0.0","26901453","wem/bandit_party_2","A1B2V27QSGPT6W","either","8","443","","","","","","","0","1","0","","0.8911910097","0.2","0.8","0.4","0.6","0.1295169146","0.3252215163","0.8911910097","0.799345197","","","","","","","","","","","","","","75","K","2","","","107","main_expt",""
"","bandit","188","476339","0.0-149.0-0.0","26901453","wem/bandit_party_2","A1B2V27QSGPT6W","either","8","513","","","","","","","0","1","0","","0.8450149587","0.2","0.8","0.4","0.6","0.07754053308","0.2812406992","0.8450149587","0.8681690713","","","","","","","","","","","","","","75","K","2","","","108","main_expt",""
"","bandit","189","478500","0.0-150.0-0.0","26901453","wem/bandit_party_2","A1B2V27QSGPT6W","either","8","649","","","","","","","0","1","0","","0.868327257","0.2","0.8","0.4","0.6","0.06591215473","0.2559497519","0.868327257","0.8556732204","","","","","","","","","","","","","","75","K","2","","","109","main_expt",""
"","bandit","190","480483","0.0-151.0-0.0","26901453","wem/bandit_party_2","A1B2V27QSGPT6W","either","8","474","","","","","","","0","1","0","","0.8868335222","0.2","0.8","0.4","0.6","0.1189546392","0.2817400418","0.8868335222","0.8669893864","","","","","","","","","","","","","","75","K","2","","","110","main_expt",""
"","bandit","191","482469","0.0-152.0-0.0","26901453","wem/bandit_party_2","A1B2V27QSGPT6W","either","8","475","","","","","","","1","0","0","0.2773620367","","0.2","0.8","0.4","0.6","","","","","0.09523351692","0.2773620367","0.8770728171","0.799383849","","","","","","","","","","74","J","1","","","111","main_expt",""
"","bandit","192","484588","0.0-153.0-0.0","26901453","wem/bandit_party_2","A1B2V27QSGPT6W","either","8","609","","","","","","","1","0","0","0.8481710002","","0.2","0.8","0.4","0.6","","","","","0.107489667","0.2833316415","0.8481710002","0.859799476","","","","","","","","","","75","K","2","","","112","main_expt",""
"","bandit","193","486804","0.0-154.0-0.0","26901453","wem/bandit_party_2","A1B2V27QSGPT6W","either","8","704","","","","","","","1","0","0","0.8573528835","","0.2","0.8","0.4","0.6","","","","","0.1026187258","0.3433702059","0.8573528835","0.7932436089","","","","","","","","","","75","K","2","","","113","main_expt",""
"","bandit","194","489156","0.0-155.0-0.0","26901453","wem/bandit_party_2","A1B2V27QSGPT6W","either","8","843","","","","","","","0","1","0","","0.8291807482","0.2","0.8","0.4","0.6","0.1044839951","0.4828882278","0.8291807482","0.849407262","","","","","","","","","","","","","","75","K","2","","","114","main_expt",""
"","bandit","195","491029","0.0-156.0-0.0","26901453","wem/bandit_party_2","A1B2V27QSGPT6W","either","8","360","","","","","","","1","0","0","0.54932579","","0.2","0.8","0.4","0.6","","","","","0.1213931844","0.54932579","0.761972944","0.8882716547","","","","","","","","","","74","J","1","","","115","main_expt",""
"","bandit","196","492836","0.0-157.0-0.0","26901453","wem/bandit_party_2","A1B2V27QSGPT6W","either","8","298","","","","","","","0","1","0","","0.786197192","0.2","0.8","0.4","0.6","0.1184144227","0.6971345968","0.786197192","0.8741354715","","","","","","","","","","","","","","75","K","2","","","116","main_expt",""
"","bandit","197","494684","0.0-158.0-0.0","26901453","wem/bandit_party_2","A1B2V27QSGPT6W","either","8","339","","","","","","","0","0","1","0.5396272374","","0.2","0.8","0.4","0.6","","","","","0.1983931569","0.5396272374","0.7834453561","0.8083823922","","","","","","","","","","74","J","1","","","117","main_expt",""
"","bandit","198","496459","0.0-159.0-0.0","26901453","wem/bandit_party_2","A1B2V27QSGPT6W","either","8","267","","","","","","","0","0","1","","0.6742380839","0.2","0.8","0.4","0.6","0.2840039584","0.5544567993","0.6742380839","0.868525306","","","","","","","","","","","","","","75","K","2","","","118","main_expt",""
"","bandit","199","498228","0.0-160.0-0.0","26901453","wem/bandit_party_2","A1B2V27QSGPT6W","either","8","256","","","","","","","0","0","1","0.7350700153","","0.2","0.8","0.4","0.6","","","","","0.3563325119","0.5504896642","0.7350700153","0.8386471998","","","","","","","","","","75","K","2","","","119","main_expt",""
"","bandit","200","500323","0.0-161.0-0.0","26901453","wem/bandit_party_2","A1B2V27QSGPT6W","either","8","586","","","","","","","0","1","0","","0.8103559508","0.2","0.8","0.4","0.6","0.5682387565","0.5812137135","0.70601835","0.8103559508","","","","","","","","","","","","","","76","L","3","","","120","main_expt",""
"","bandit","201","502347","0.0-162.0-0.0","26901453","wem/bandit_party_2","A1B2V27QSGPT6W","either","8","515","","","","","","","1","0","0","0.8193015173","","0.2","0.8","0.4","0.6","","","","","0.5189107771","0.6033058466","0.7347719752","0.8193015173","","","","","","","","","","76","L","3","","","121","main_expt",""
"","bandit","202","504197","0.0-163.0-0.0","26901453","wem/bandit_party_2","A1B2V27QSGPT6W","either","8","339","","","","","","","0","0","1","","0.4428493372","0.2","0.8","0.4","0.6","0.4428493372","0.6102220397","0.8270923978","0.8025146027","","","","","","","","","","","","","","72","H","0","img/none_selected.jpg","","122","main_expt",""
"","bandit","203","505860","0.0-164.0-0.0","26901453","wem/bandit_party_2","A1B2V27QSGPT6W","either","8","153","","","","","","","1","0","0","0.8121847492","","0.2","0.8","0.4","0.6","","","","","0.472724465","0.6108151959","0.7980631313","0.8121847492","","","","","","","","","","76","L","3","","","123","main_expt",""
"","bandit","204","507643","0.0-165.0-0.0","26901453","wem/bandit_party_2","A1B2V27QSGPT6W","either","8","274","","","","","","","0","0","1","0.8299418439","","0.2","0.8","0.4","0.6","","","","","0.4799585558","0.7117385939","0.7369852887","0.8299418439","","","","","","","","","","76","L","3","","","124","main_expt",""
"","bandit","205","509340","0.0-166.0-0.0","26901453","wem/bandit_party_2","A1B2V27QSGPT6W","either","8","186","","","","","","","0","0","1","0.5080184993","","0.2","0.8","0.4","0.6","","","","","0.5080184993","0.7554186078","0.7465944313","0.825688343","","","","","","","","","","72","H","0","img/none_selected.jpg","","125","main_expt",""
"","bandit","206","510939","0.0-167.0-0.0","26901453","wem/bandit_party_2","A1B2V27QSGPT6W","either","8","88","","","","","","","0","1","0","","0.8372054396","0.2","0.8","0.4","0.6","0.4555098289","0.8855751833","0.7596834852","0.8372054396","","","","","","","","","","","","","","76","L","3","","","126","main_expt",""
"","bandit","207","512676","0.0-168.0-0.0","26901453","wem/bandit_party_2","A1B2V27QSGPT6W","either","8","227","","","","","","","0","0","1","0.7398299979","","0.2","0.8","0.4","0.6","","","","","0.5475411796","0.8003015049","0.7398299979","0.7906689898","","","","","","","","","","75","K","2","","","127","main_expt",""
"","bandit","208","514418","0.0-169.0-0.0","26901453","wem/bandit_party_2","A1B2V27QSGPT6W","either","8","233","","","","","","","1","0","0","0.8008571507","","0.2","0.8","0.4","0.6","","","","","0.612647382","0.8403113951","0.7764866849","0.8008571507","","","","","","","","","","76","L","3","","","128","main_expt",""
"","bandit","209","516179","0.0-170.0-0.0","26901453","wem/bandit_party_2","A1B2V27QSGPT6W","either","8","251","","","","","","","0","0","1","0.7829297973","","0.2","0.8","0.4","0.6","","","","","0.7128970287","0.8826872071","0.6435675963","0.7829297973","","","","","","","","","","76","L","3","","","129","main_expt",""
"","bandit","210","518139","0.0-171.0-0.0","26901453","wem/bandit_party_2","A1B2V27QSGPT6W","either","8","451","","","","","","","0","1","0","","0.6898445721","0.2","0.8","0.4","0.6","0.7309911721","0.8641000085","0.7030252038","0.6898445721","","","","","","","","","","","","","","76","L","3","","","130","main_expt",""
"","bandit","211","519939","0.0-172.0-0.0","26901453","wem/bandit_party_2","A1B2V27QSGPT6W","either","8","292","","","","","","","1","0","0","0.5864867529","","0.2","0.8","0.4","0.6","","","","","0.73180147","0.8752037592","0.6829232191","0.5864867529","","","","","","","","","","76","L","3","","","131","main_expt",""
"","bandit","212","521499","0.0-173.0-0.0","26901453","wem/bandit_party_2","A1B2V27QSGPT6W","either","8","52","","","","","","","0","0","1","0.560122833","","0.2","0.8","0.4","0.6","","","","","0.8467134838","0.8279556795","0.7406452387","0.560122833","","","","","","","","","","76","L","3","","","132","main_expt",""
"","bandit","213","523324","0.0-174.0-0.0","26901453","wem/bandit_party_2","A1B2V27QSGPT6W","either","8","315","","","","","","","1","0","0","0.48439517","","0.2","0.8","0.4","0.6","","","","","0.8481264083","0.8194722428","0.6666234363","0.48439517","","","","","","","","","","76","L","3","","","133","main_expt",""
"","bandit","214","525582","0.0-175.0-0.0","26901453","wem/bandit_party_2","A1B2V27QSGPT6W","either","8","738","","","","","","","1","0","0","0.3919863126","","0.2","0.8","0.4","0.6","","","","","0.8771050955","0.8037084922","0.680542061","0.3919863126","","","","","","","","","","76","L","3","","","134","main_expt",""
"","bandit","215","527637","0.0-176.0-0.0","26901453","wem/bandit_party_2","A1B2V27QSGPT6W","either","8","538","","","","","","","0","0","1","0.5174750093","","0.2","0.8","0.4","0.6","","","","","0.9103241533","0.8155916457","0.7006187635","0.5174750093","","","","","","","","","","76","L","3","","","135","main_expt",""
"","bandit","216","529644","0.0-177.0-0.0","26901453","wem/bandit_party_2","A1B2V27QSGPT6W","either","8","495","","","","","","","0","1","0","","0.6936815578","0.2","0.8","0.4","0.6","0.9126032517","0.8281957705","0.6936815578","0.4264762493","","","","","","","","","","","","","","75","K","2","","","136","main_expt",""
"","bandit","217","531900","0.0-178.0-0.0","26901453","wem/bandit_party_2","A1B2V27QSGPT6W","either","8","745","","","","","","","1","0","0","0.5351999402","","0.2","0.8","0.4","0.6","","","","","0.8983360858","0.7055403129","0.6531428085","0.5351999402","","","","","","","","","","76","L","3","","","137","main_expt",""
"","bandit","218","533756","0.0-179.0-0.0","26901453","wem/bandit_party_2","A1B2V27QSGPT6W","either","8","344","","","","","","","0","0","1","","0.4758748922","0.2","0.8","0.4","0.6","0.8851370462","0.6884351598","0.6769758131","0.4758748922","","","","","","","","","","","","","","76","L","3","","","138","main_expt",""
"","bandit","219","535676","0.0-180.0-0.0","26901453","wem/bandit_party_2","A1B2V27QSGPT6W","either","8","409","","","","","","","1","0","0","0.7649589049","","0.2","0.8","0.4","0.6","","","","","0.8662270416","0.6090423031","0.7649589049","0.4039793023","","","","","","","","","","75","K","2","","","139","main_expt",""
"","bandit","220","537779","0.0-181.0-0.0","26901453","wem/bandit_party_2","A1B2V27QSGPT6W","either","8","592","","","","","","","0","0","1","0.384774136","","0.2","0.8","0.4","0.6","","","","","0.8345767194","0.7000077187","0.7674202191","0.384774136","","","","","","","","","","76","L","3","","","140","main_expt",""
"","bandit","221","539565","0.0-182.0-0.0","26901453","wem/bandit_party_2","A1B2V27QSGPT6W","either","8","272","","","","","","","0","0","1","","0.8575114448","0.2","0.8","0.4","0.6","0.8783670964","0.6643185619","0.8575114448","0.327254859","","","","","","","","","","","","","","75","K","2","","","141","main_expt",""
"","bandit","222","541475","0.0-183.0-0.0","26901453","wem/bandit_party_2","A1B2V27QSGPT6W","either","8","400","","","","","","","1","0","0","0.7079845674","","0.2","0.8","0.4","0.6","","","","","0.8895828315","0.7079845674","0.8134430427","0.4536641492","","","","","","","","","","74","J","1","","","142","main_expt",""
"","bandit","223","543286","0.0-184.0-0.0","26901453","wem/bandit_party_2","A1B2V27QSGPT6W","either","8","298","","","","","","","0","0","1","","0.8345505038","0.2","0.8","0.4","0.6","0.9053928798","0.6624187643","0.8345505038","0.4348486293","","","","","","","","","","","","","","75","K","2","","","143","main_expt",""
"","bandit","224","545236","0.0-185.0-0.0","26901453","wem/bandit_party_2","A1B2V27QSGPT6W","either","8","432","","","","","","","1","0","0","0.6779247185","","0.2","0.8","0.4","0.6","","","","","0.9033088386","0.6779247185","0.7482817554","0.4086594597","","","","","","","","","","74","J","1","","","144","main_expt",""
"","bandit","225","547187","0.0-186.0-0.0","26901453","wem/bandit_party_2","A1B2V27QSGPT6W","either","8","438","","","","","","","1","0","0","0.7216102374","","0.2","0.8","0.4","0.6","","","","","0.8572864227","0.7216102374","0.7400387939","0.4420772456","","","","","","","","","","74","J","1","","","145","main_expt",""
"","bandit","226","548900","0.0-187.0-0.0","26901453","wem/bandit_party_2","A1B2V27QSGPT6W","either","8","201","","","","","","","0","0","1","","0.7837267619","0.2","0.8","0.4","0.6","0.8687508917","0.7837267619","0.795971973","0.508741462","","","","","","","","","","","","","","74","J","1","","","146","main_expt",""
"","bandit","227","550787","0.0-188.0-0.0","26901453","wem/bandit_party_2","A1B2V27QSGPT6W","either","8","376","","","","","","","1","0","0","0.7652264833","","0.2","0.8","0.4","0.6","","","","","0.8657621525","0.7652264833","0.7503502301","0.4624398998","","","","","","","","","","74","J","1","","","147","main_expt",""
"","bandit","228","552659","0.0-189.0-0.0","26901453","wem/bandit_party_2","A1B2V27QSGPT6W","either","8","362","","","","","","","0","0","1","0.7358716413","","0.2","0.8","0.4","0.6","","","","","0.8362891365","0.7358716413","0.8200474043","0.4062589849","","","","","","","","","","74","J","1","","","148","main_expt",""
"","bandit","229","554667","0.0-190.0-0.0","26901453","wem/bandit_party_2","A1B2V27QSGPT6W","either","8","497","","","","","","","1","0","0","0.7129200786","","0.2","0.8","0.4","0.6","","","","","0.8144386017","0.7129200786","0.8509010271","0.4895331913","","","","","","","","","","74","J","1","","","149","main_expt",""
"","bandit","230","556443","0.0-191.0-0.0","26901453","wem/bandit_party_2","A1B2V27QSGPT6W","either","8","266","","","","","","","0","0","1","0.705531668","","0.2","0.8","0.4","0.6","","","","","0.6948055455","0.705531668","0.8298908313","0.4704746919","","","","","","","","","","74","J","1","","","150","main_expt",""
"","bandit","231","558043","0.0-192.0-0.0","26901453","wem/bandit_party_2","A1B2V27QSGPT6W","either","8","88","","","","","","","0","0","1","0.5744604188","","0.2","0.8","0.4","0.6","","","","","0.6231991314","0.5744604188","0.7362749002","0.4725745774","","","","","","","","","","74","J","1","","","151","main_expt",""
"","bandit","232","559682","0.0-193.0-0.0","26901453","wem/bandit_party_2","A1B2V27QSGPT6W","either","8","129","","","","","","","0","1","0","","0.7045057733","0.2","0.8","0.4","0.6","0.7045057733","0.5372669321","0.7601791643","0.4943906398","","","","","","","","","","","","","","72","H","0","img/none_selected.jpg","","152","main_expt",""
"","bandit","233","561636","0.0-194.0-0.0","26901453","wem/bandit_party_2","A1B2V27QSGPT6W","either","8","442","","","","","","","0","1","0","","0.5331338622","0.2","0.8","0.4","0.6","0.5331338622","0.5447545218","0.7590648118","0.4639524782","","","","","","","","","","","","","","72","H","0","img/none_selected.jpg","","153","main_expt",""
"","bandit","234","563555","0.0-195.0-0.0","26901453","wem/bandit_party_2","A1B2V27QSGPT6W","either","8","408","","","","","","","0","1","0","","0.5096720896","0.2","0.8","0.4","0.6","0.5096720896","0.4191749193","0.7805387907","0.3935792086","","","","","","","","","","","","","","72","H","0","img/none_selected.jpg","","154","main_expt",""
"","bandit","235","565330","0.0-196.0-0.0","26901453","wem/bandit_party_2","A1B2V27QSGPT6W","either","8","264","","","","","","","1","0","0","0.4719011365","","0.2","0.8","0.4","0.6","","","","","0.4719011365","0.4269770229","0.8450805748","0.4127348605","","","","","","","","","","72","H","0","img/none_selected.jpg","","155","main_expt",""
"","bandit","236","567130","0.0-197.0-0.0","26901453","wem/bandit_party_2","A1B2V27QSGPT6W","either","8","289","","","","","","","1","0","0","0.5818713095","","0.2","0.8","0.4","0.6","","","","","0.5818713095","0.4589862704","0.8513110265","0.3697675558","","","","","","","","","","72","H","0","img/none_selected.jpg","","156","main_expt",""
"","bandit","237","568979","0.0-198.0-0.0","26901453","wem/bandit_party_2","A1B2V27QSGPT6W","either","8","338","","","","","","","0","0","1","","0.5804022203","0.2","0.8","0.4","0.6","0.5804022203","0.5370818316","0.8226236001","0.3604398023","","","","","","","","","","","","","","72","H","0","img/none_selected.jpg","","157","main_expt",""
"","bandit","238","570746","0.0-199.0-0.0","26901453","wem/bandit_party_2","A1B2V27QSGPT6W","either","8","257","","","","","","","0","1","0","","0.4773166223","0.2","0.8","0.4","0.6","0.4773166223","0.4757376888","0.8843141367","0.4061750625","","","","","","","","","","","","","","72","H","0","img/none_selected.jpg","","158","main_expt",""
"","bandit","239","572587","0.0-200.0-0.0","26901453","wem/bandit_party_2","A1B2V27QSGPT6W","either","8","326","","","","","","","0","0","1","","0.419048585","0.2","0.8","0.4","0.6","0.419048585","0.4887287223","0.8078798749","0.4696417586","","","","","","","","","","","","","","72","H","0","img/none_selected.jpg","","159","main_expt",""
"","bandit","240","574275","0.0-201.0-0.0","26901453","wem/bandit_party_2","A1B2V27QSGPT6W","either","8","176","","","","","","","1","0","0","0.4672574386","","0.2","0.8","0.4","0.6","","","","","0.4672574386","0.4588489809","0.7689164465","0.4659569923","","","","","","","","","","72","H","0","img/none_selected.jpg","","160","main_expt",""
"","bandit","241","576051","0.0-202.0-0.0","26901453","wem/bandit_party_2","A1B2V27QSGPT6W","either","8","265","","","","","","","0","0","1","","0.5612985374","0.2","0.8","0.4","0.6","0.5612985374","0.4920004413","0.7863156869","0.3947207546","","","","","","","","","","","","","","72","H","0","img/none_selected.jpg","","161","main_expt",""
"","bandit","242","578106","0.0-203.0-0.0","26901453","wem/bandit_party_2","A1B2V27QSGPT6W","either","8","544","","","","","","","1","0","0","0.8098475403","","0.2","0.8","0.4","0.6","","","","","0.5288680036","0.5389881207","0.8098475403","0.2460097942","","","","","","","","","","75","K","2","","","162","main_expt",""
"","bandit","243","580011","0.0-204.0-0.0","26901453","wem/bandit_party_2","A1B2V27QSGPT6W","either","8","395","","","","","","","0","1","0","","0.8222712862","0.2","0.8","0.4","0.6","0.6096883849","0.6040136001","0.8222712862","0.3603606056","","","","","","","","","","","","","","75","K","2","","","163","main_expt",""
"","bandit","244","581906","0.0-205.0-0.0","26901453","wem/bandit_party_2","A1B2V27QSGPT6W","either","8","385","","","","","","","0","1","0","","0.7876031225","0.2","0.8","0.4","0.6","0.4868922288","0.623756827","0.7876031225","0.2507209727","","","","","","","","","","","","","","75","K","2","","","164","main_expt",""
"","bandit","245","583729","0.0-206.0-0.0","26901453","wem/bandit_party_2","A1B2V27QSGPT6W","either","8","313","","","","","","","0","1","0","","0.7435052823","0.2","0.8","0.4","0.6","0.4055552053","0.6164515281","0.7435052823","0.2162043423","","","","","","","","","","","","","","75","K","2","","","165","main_expt",""
"","bandit","246","585514","0.0-207.0-0.0","26901453","wem/bandit_party_2","A1B2V27QSGPT6W","either","8","274","","","","","","","0","0","1","0.6545739251","","0.2","0.8","0.4","0.6","","","","","0.4748236382","0.4660222187","0.6545739251","0.2573409732","","","","","","","","","","75","K","2","","","166","main_expt",""
"","bandit","247","587265","0.0-208.0-0.0","26901453","wem/bandit_party_2","A1B2V27QSGPT6W","either","8","237","","","","","","","0","1","0","","0.6645907447","0.2","0.8","0.4","0.6","0.4725242185","0.3336058786","0.6645907447","0.4016088623","","","","","","","","","","","","","","75","K","2","","","167","main_expt",""
"","bandit","248","589173","0.0-209.0-0.0","26901453","wem/bandit_party_2","A1B2V27QSGPT6W","either","8","394","","","","","","","1","0","0","0.7243751722","","0.2","0.8","0.4","0.6","","","","","0.4775208721","0.2887723434","0.7243751722","0.5522858252","","","","","","","","","","75","K","2","","","168","main_expt",""
"","bandit","249","590754","0.0-210.0-0.0","26901453","wem/bandit_party_2","A1B2V27QSGPT6W","either","8","71","","","","","","","1","0","0","0.6453105543","","0.2","0.8","0.4","0.6","","","","","0.4682732781","0.3357056981","0.6453105543","0.5461138513","","","","","","","","","","75","K","2","","","169","main_expt",""
"","bandit","250","592634","0.0-211.0-0.0","26901453","wem/bandit_party_2","A1B2V27QSGPT6W","either","8","369","","","","","","","1","0","0","0.5334010147","","0.2","0.8","0.4","0.6","","","","","0.4246621539","0.4179693295","0.5334010147","0.4402798015","","","","","","","","","","75","K","2","","","170","main_expt",""
"","bandit","251","594673","0.0-212.0-0.0","26901453","wem/bandit_party_2","A1B2V27QSGPT6W","either","8","529","","","","","","","0","1","0","","0.498122785","0.2","0.8","0.4","0.6","0.2843380906","0.3050406521","0.498122785","0.450294849","","","","","","","","","","","","","","75","K","2","","","171","main_expt",""
"","bandit","252","596490","0.0-213.0-0.0","26901453","wem/bandit_party_2","A1B2V27QSGPT6W","either","8","306","","","","","","","0","0","1","0.4356988635","","0.2","0.8","0.4","0.6","","","","","0.2668952485","0.3364500029","0.4356988635","0.6475755847","","","","","","","","","","75","K","2","","","172","main_expt",""
"","bandit","253","598267","0.0-214.0-0.0","26901453","wem/bandit_party_2","A1B2V27QSGPT6W","either","8","265","","","","","","","0","0","1","","0.3964199688","0.2","0.8","0.4","0.6","0.3802819164","0.421339117","0.3964199688","0.6095255177","","","","","","","","","","","","","","75","K","2","","","173","main_expt",""
"","bandit","254","599794","0.0-215.0-0.0","26901453","wem/bandit_party_2","A1B2V27QSGPT6W","either","8","17","","","","","","","1","0","0","0.5003628493","","0.2","0.8","0.4","0.6","","","","","0.4042455133","0.4913704717","0.3194345802","0.5003628493","","","","","","","","","","76","L","3","","","174","main_expt",""
"","bandit","255","601658","0.0-216.0-0.0","26901453","wem/bandit_party_2","A1B2V27QSGPT6W","either","8","354","","","","","","","0","0","1","0.5576212716","","0.2","0.8","0.4","0.6","","","","","0.4393989914","0.5882611891","0.2865230234","0.5576212716","","","","","","","","","","76","L","3","","","175","main_expt",""
"","bandit","256","603330","0.0-217.0-0.0","26901453","wem/bandit_party_2","A1B2V27QSGPT6W","either","8","160","","","","","","","0","1","0","","0.6230679906","0.2","0.8","0.4","0.6","0.4705173801","0.6313830356","0.3352692614","0.6230679906","","","","","","","","","","","","","","76","L","3","","","176","main_expt",""
"","bandit","257","605347","0.0-218.0-0.0","26901453","wem/bandit_party_2","A1B2V27QSGPT6W","either","8","498","","","","","","","0","0","1","0.6501784685","","0.2","0.8","0.4","0.6","","","","","0.4698597734","0.5531265137","0.3389264817","0.6501784685","","","","","","","","","","76","L","3","","","177","main_expt",""
"","bandit","258","607068","0.0-219.0-0.0","26901453","wem/bandit_party_2","A1B2V27QSGPT6W","either","8","205","","","","","","","1","0","0","0.6334155083","","0.2","0.8","0.4","0.6","","","","","0.3570804947","0.4621004187","0.3709673039","0.6334155083","","","","","","","","","","76","L","3","","","178","main_expt",""
"","bandit","259","608994","0.0-220.0-0.0","26901453","wem/bandit_party_2","A1B2V27QSGPT6W","either","8","414","","","","","","","0","1","0","","0.7548338289","0.2","0.8","0.4","0.6","0.3441184995","0.512884041","0.2940579202","0.7548338289","","","","","","","","","","","","","","76","L","3","","","179","main_expt",""
"","bandit","260","610954","0.0-221.0-0.0","26901453","wem/bandit_party_2","A1B2V27QSGPT6W","either","8","448","","","","","","","1","0","0","0.8074073351","","0.2","0.8","0.4","0.6","","","","","0.3646136501","0.506744284","0.3218724025","0.8074073351","","","","","","","","","","76","L","3","","","180","main_expt",""
"","bandit","261","612586","0.0-222.0-0.0","26901453","wem/bandit_party_2","A1B2V27QSGPT6W","either","8","121","","","","","","","0","1","0","","0.780721516","0.2","0.8","0.4","0.6","0.3777688814","0.4556494723","0.3633286182","0.780721516","","","","","","","","","","","","","","76","L","3","","","181","main_expt",""
"","bandit","262","614433","0.0-223.0-0.0","26901453","wem/bandit_party_2","A1B2V27QSGPT6W","either","8","336","","","","","","","1","0","0","0.7647415088","","0.2","0.8","0.4","0.6","","","","","0.4578236703","0.4494525508","0.3324048704","0.7647415088","","","","","","","","","","76","L","3","","","182","main_expt",""
"","bandit","263","616297","0.0-224.0-0.0","26901453","wem/bandit_party_2","A1B2V27QSGPT6W","either","8","353","","","","","","","1","0","0","0.7349307529","","0.2","0.8","0.4","0.6","","","","","0.4244895098","0.5189143621","0.3092830871","0.7349307529","","","","","","","","","","76","L","3","","","183","main_expt",""
"","bandit","264","618066","0.0-225.0-0.0","26901453","wem/bandit_party_2","A1B2V27QSGPT6W","either","8","256","","","","","","","0","1","0","","0.8298088288","0.2","0.8","0.4","0.6","0.3566779322","0.5167606333","0.3905692936","0.8298088288","","","","","","","","","","","","","","76","L","3","","","184","main_expt",""
"","bandit","265","621098","0.0-226.0-0.0","26901453","wem/bandit_party_2","A1B2V27QSGPT6W","either","8","1520","","","","","","","0","1","0","","0.7894193193","0.2","0.8","0.4","0.6","0.3737416658","0.5270237034","0.4626192444","0.7894193193","","","","","","","","","","","","","","76","L","3","","","185","main_expt",""
"","bandit","266","622954","0.0-227.0-0.0","26901453","wem/bandit_party_2","A1B2V27QSGPT6W","either","8","345","","","","","","","0","1","0","","0.7665022487","0.2","0.8","0.4","0.6","0.3120176694","0.5556036571","0.6061762586","0.7665022487","","","","","","","","","","","","","","76","L","3","","","186","main_expt",""
"","bandit","267","625108","0.0-228.0-0.0","26901453","wem/bandit_party_2","A1B2V27QSGPT6W","either","8","640","","","","","","","0","0","1","0.7394266891","","0.2","0.8","0.4","0.6","","","","","0.4134691065","0.5865134094","0.530958695","0.7394266891","","","","","","","","","","76","L","3","","","187","main_expt",""
"","bandit","268","627377","0.0-229.0-0.0","26901453","wem/bandit_party_2","A1B2V27QSGPT6W","either","8","758","","","","","","","1","0","0","0.6567361442","","0.2","0.8","0.4","0.6","","","","","0.4637770407","0.5034866795","0.380024655","0.6567361442","","","","","","","","","","76","L","3","","","188","main_expt",""
"","bandit","269","629306","0.0-230.0-0.0","26901453","wem/bandit_party_2","A1B2V27QSGPT6W","either","8","417","","","","","","","0","1","0","","0.6572443956","0.2","0.8","0.4","0.6","0.5739034088","0.5761715841","0.4563575644","0.6572443956","","","","","","","","","","","","","","76","L","3","","","189","main_expt",""
"","bandit","270","631338","0.0-231.0-0.0","26901453","wem/bandit_party_2","A1B2V27QSGPT6W","either","8","521","","","","","","","0","0","1","0.6735764162","","0.2","0.8","0.4","0.6","","","","","0.5859504021","0.5325489933","0.4540853102","0.6735764162","","","","","","","","","","76","L","3","","","190","main_expt",""
"","bandit","271","633106","0.0-232.0-0.0","26901453","wem/bandit_party_2","A1B2V27QSGPT6W","either","8","256","","","","","","","0","1","0","","0.5997518312","0.2","0.8","0.4","0.6","0.5325822721","0.5614919892","0.4328006462","0.5997518312","","","","","","","","","","","","","","76","L","3","","","191","main_expt",""
"","bandit","272","634940","0.0-233.0-0.0","26901453","wem/bandit_party_2","A1B2V27QSGPT6W","either","8","318","","","","","","","0","0","1","0.6582178794","","0.2","0.8","0.4","0.6","","","","","0.4622441745","0.5972832049","0.4979354652","0.6582178794","","","","","","","","","","76","L","3","","","192","main_expt",""
"","bandit","273","636987","0.0-234.0-0.0","26901453","wem/bandit_party_2","A1B2V27QSGPT6W","either","8","527","","","","","","","0","1","0","","0.7246172867","0.2","0.8","0.4","0.6","0.4765036663","0.6997951875","0.4887187701","0.7246172867","","","","","","","","","","","","","","76","L","3","","","193","main_expt",""
"","bandit","274","639489","0.0-235.0-0.0","26901453","wem/bandit_party_2","A1B2V27QSGPT6W","either","8","990","","","","","","","1","0","0","0.7721250451","","0.2","0.8","0.4","0.6","","","","","0.4504155567","0.7511051992","0.4993882896","0.7721250451","","","","","","","","","","76","L","3","","","194","main_expt",""
"","bandit","275","641690","0.0-236.0-0.0","26901453","wem/bandit_party_2","A1B2V27QSGPT6W","either","8","688","","","","","","","0","1","0","","0.8366496483","0.2","0.8","0.4","0.6","0.4354252764","0.8281457055","0.5011331455","0.8366496483","","","","","","","","","","","","","","76","L","3","","","195","main_expt",""
"","bandit","276","643705","0.0-237.0-0.0","26901453","wem/bandit_party_2","A1B2V27QSGPT6W","either","8","504","","","","","","","0","0","1","0.8484646997","","0.2","0.8","0.4","0.6","","","","","0.4170899215","0.8248544968","0.4487960683","0.8484646997","","","","","","","","","","76","L","3","","","196","main_expt",""
"","bandit","277","645409","0.0-238.0-0.0","26901453","wem/bandit_party_2","A1B2V27QSGPT6W","either","8","192","","","","","","","1","0","0","0.8734060335","","0.2","0.8","0.4","0.6","","","","","0.4149059055","0.8532714289","0.3975590019","0.8734060335","","","","","","","","","","76","L","3","","","197","main_expt",""
"","bandit","278","647329","0.0-239.0-0.0","26901453","wem/bandit_party_2","A1B2V27QSGPT6W","either","8","410","","","","","","","0","1","0","","0.8515360685","0.2","0.8","0.4","0.6","0.4737306044","0.7587337752","0.4161601929","0.8515360685","","","","","","","","","","","","","","76","L","3","","","198","main_expt",""
"","bandit","279","649354","0.0-240.0-0.0","26901453","wem/bandit_party_2","A1B2V27QSGPT6W","either","8","513","","","","","","","0","1","0","","0.8805923715","0.2","0.8","0.4","0.6","0.4541760911","0.8124408481","0.4483979408","0.8805923715","","","","","","","","","","","","","","76","L","3","","","199","main_expt",""
"","bandit","280","651170","0.0-241.0-0.0","26901453","wem/bandit_party_2","A1B2V27QSGPT6W","either","8","303","","","","","","","1","0","0","0.9645818821","","0.2","0.8","0.4","0.6","","","","","0.3964714959","0.7935778268","0.5303380975","0.9645818821","","","","","","","","","","76","L","3","","","200","main_expt",""
"","bandit","281","653017","0.0-242.0-0.0","26901453","wem/bandit_party_2","A1B2V27QSGPT6W","either","8","336","","","","","","","1","0","0","0.9689478708","","0.2","0.8","0.4","0.6","","","","","0.3815447649","0.736942723","0.4014045657","0.9689478708","","","","","","","","","","76","L","3","","","201","main_expt",""
"","bandit","282","654889","0.0-243.0-0.0","26901453","wem/bandit_party_2","A1B2V27QSGPT6W","either","8","361","","","","","","","0","1","0","","0.9678291885","0.2","0.8","0.4","0.6","0.3726367513","0.7001951276","0.5115169607","0.9678291885","","","","","","","","","","","","","","76","L","3","","","202","main_expt",""
"","bandit","283","656827","0.0-244.0-0.0","26901453","wem/bandit_party_2","A1B2V27QSGPT6W","either","8","423","","","","","","","0","1","0","","0.9633244117","0.2","0.8","0.4","0.6","0.3062653216","0.7209300446","0.5026191452","0.9633244117","","","","","","","","","","","","","","76","L","3","","","203","main_expt",""
"","bandit","284","658872","0.0-245.0-0.0","26901453","wem/bandit_party_2","A1B2V27QSGPT6W","either","8","534","","","","","","","0","1","0","","0.9730812582","0.2","0.8","0.4","0.6","0.2848501254","0.8574132932","0.4736298566","0.9730812582","","","","","","","","","","","","","","76","L","3","","","204","main_expt",""
"","bandit","285","660754","0.0-246.0-0.0","26901453","wem/bandit_party_2","A1B2V27QSGPT6W","either","8","369","","","","","","","0","0","1","0.9038760074","","0.2","0.8","0.4","0.6","","","","","0.3457586416","0.9038760074","0.6121858428","0.9521206422","","","","","","","","","","74","J","1","","","205","main_expt",""
"","bandit","286","662488","0.0-247.0-0.0","26901453","wem/bandit_party_2","A1B2V27QSGPT6W","either","8","224","","","","","","","0","1","0","","0.9614764056","0.2","0.8","0.4","0.6","0.4609097875","0.9273356803","0.6377028942","0.9614764056","","","","","","","","","","","","","","76","L","3","","","206","main_expt",""
"","bandit","287","664256","0.0-248.0-0.0","26901453","wem/bandit_party_2","A1B2V27QSGPT6W","either","8","256","","","","","","","0","1","0","","0.9625830716","0.2","0.8","0.4","0.6","0.4980316736","0.9502037039","0.5700483165","0.9625830716","","","","","","","","","","","","","","76","L","3","","","207","main_expt",""
"","bandit","288","666128","0.0-249.0-0.0","26901453","wem/bandit_party_2","A1B2V27QSGPT6W","either","8","358","","","","","","","1","0","0","0.9359306517","","0.2","0.8","0.4","0.6","","","","","0.4537691537","0.944094639","0.624428721","0.9359306517","","","","","","","","","","76","L","3","","","208","main_expt",""
"","bandit","289","668105","0.0-250.0-0.0","26901453","wem/bandit_party_2","A1B2V27QSGPT6W","either","8","463","","","","","","","0","1","0","","0.9632917203","0.2","0.8","0.4","0.6","0.4475842875","0.9070839441","0.4861871301","0.9632917203","","","","","","","","","","","","","","76","L","3","","","209","main_expt",""
"","bandit","290","669618","0.0-251.0-0.0","26901453","wem/bandit_party_2","A1B2V27QSGPT6W","either","8","0","","","","","","","1","0","0","0.9633226214","","0.2","0.8","0.4","0.6","","","","","0.4803454055","0.8960653589","0.3956361612","0.9633226214","","","","","","","","","","76","L","3","","","210","main_expt",""
"","bandit","291","672008","0.0-252.0-0.0","26901453","wem/bandit_party_2","A1B2V27QSGPT6W","either","8","880","","","","","","","1","0","0","0.9719781217","","0.2","0.8","0.4","0.6","","","","","0.4126443349","0.9155455821","0.3599204452","0.9719781217","","","","","","","","","","76","L","3","","","211","main_expt",""
"","bandit","292","673832","0.0-253.0-0.0","26901453","wem/bandit_party_2","A1B2V27QSGPT6W","either","8","313","","","","","","","1","0","0","0.9700781686","","0.2","0.8","0.4","0.6","","","","","0.3384802849","0.9087954588","0.3349000901","0.9700781686","","","","","","","","","","76","L","3","","","212","main_expt",""
"","bandit","293","675696","0.0-254.0-0.0","26901453","wem/bandit_party_2","A1B2V27QSGPT6W","either","8","353","","","","","","","0","1","0","","0.971165811","0.2","0.8","0.4","0.6","0.3039242722","0.8528540962","0.3183344176","0.971165811","","","","","","","","","","","","","","76","L","3","","","213","main_expt",""
"","bandit","294","677664","0.0-255.0-0.0","26901453","wem/bandit_party_2","A1B2V27QSGPT6W","either","8","458","","","","","","","0","1","0","","0.9627117","0.2","0.8","0.4","0.6","0.4541530846","0.8506041988","0.2390758011","0.9627117","","","","","","","","","","","","","","76","L","3","","","214","main_expt",""
"","bandit","295","679448","0.0-256.0-0.0","26901453","wem/bandit_party_2","A1B2V27QSGPT6W","either","8","274","","","","","","","1","0","0","0.9552130497","","0.2","0.8","0.4","0.6","","","","","0.5101749692","0.8001829978","0.1997060473","0.9552130497","","","","","","","","","","76","L","3","","","215","main_expt",""
"","bandit","296","681273","0.0-257.0-0.0","26901453","wem/bandit_party_2","A1B2V27QSGPT6W","either","8","311","","","","","","","1","0","0","0.9220350188","","0.2","0.8","0.4","0.6","","","","","0.5580520347","0.733614842","0.2326539104","0.9220350188","","","","","","","","","","76","L","3","","","216","main_expt",""
"","bandit","297","683306","0.0-258.0-0.0","26901453","wem/bandit_party_2","A1B2V27QSGPT6W","either","8","521","","","","","","","1","0","0","0.8736667029","","0.2","0.8","0.4","0.6","","","","","0.4368451062","0.7479737912","0.2319826337","0.8736667029","","","","","","","","","","76","L","3","","","217","main_expt",""
"","bandit","298","685120","0.0-259.0-0.0","26901453","wem/bandit_party_2","A1B2V27QSGPT6W","either","8","304","","","","","","","1","0","0","0.7602784417","","0.2","0.8","0.4","0.6","","","","","0.3963441813","0.7713398237","0.3143382807","0.7602784417","","","","","","","","","","76","L","3","","","218","main_expt",""
"","bandit","299","686738","0.0-260.0-0.0","26901453","wem/bandit_party_2","A1B2V27QSGPT6W","either","8","105","","","","","","","0","1","0","","0.7643050859","0.2","0.8","0.4","0.6","0.4809426617","0.8077055691","0.3304972923","0.7643050859","","","","","","","","","","","","","","76","L","3","","","219","main_expt",""
"","bandit","300","688968","0.0-261.0-0.0","26901453","wem/bandit_party_2","A1B2V27QSGPT6W","either","8","718","","","","","","","0","1","0","","0.7793587236","0.2","0.8","0.4","0.6","0.397759556","0.7778114837","0.2866104843","0.7793587236","","","","","","","","","","","","","","76","L","3","","","220","main_expt",""
"","bandit","301","691959","0.0-262.0-0.0","26901453","wem/bandit_party_2","A1B2V27QSGPT6W","either","8","1481","","","","","","","0","1","0","","0.82086311","0.2","0.8","0.4","0.6","0.4087677593","0.7214198583","0.3602561646","0.82086311","","","","","","","","","","","","","","76","L","3","","","221","main_expt",""
"","bandit","302","703285","0.0-263.0-0.0","26901453","wem/bandit_party_2","A1B2V27QSGPT6W","either","8","9811","","","","","","","1","0","0","0.8543662658","","0.2","0.8","0.4","0.6","","","","","0.4561280915","0.8091526303","0.3228749062","0.8543662658","","","","","","","","","","76","L","3","","","222","main_expt",""
"","bandit","303","707401","0.0-264.0-0.0","26901453","wem/bandit_party_2","A1B2V27QSGPT6W","either","8","2598","","","","","","","1","0","0","0.8599459829","","0.2","0.8","0.4","0.6","","","","","0.4419858618","0.8240838469","0.2549485676","0.8599459829","","","","","","","","","","76","L","3","","","223","main_expt",""
"","bandit","304","710160","0.0-265.0-0.0","26901453","wem/bandit_party_2","A1B2V27QSGPT6W","either","8","1245","","","","","","","1","0","0","0.8747991669","","0.2","0.8","0.4","0.6","","","","","0.494409337","0.7670685714","0.2389333491","0.8747991669","","","","","","","","","","76","L","3","","","224","main_expt",""
"","bandit","305","716208","0.0-266.0-0.0","26901453","wem/bandit_party_2","A1B2V27QSGPT6W","either","8","4535","","","","","","","1","0","0","0.7910409491","","0.2","0.8","0.4","0.6","","","","","0.3713348049","0.8775689376","0.1517307125","0.7910409491","","","","","","","","","","76","L","3","","","225","main_expt",""
"","bandit","306","724367","0.0-267.0-0.0","26901453","wem/bandit_party_2","A1B2V27QSGPT6W","either","8","6647","","","","","","","0","1","0","","0.7212928749","0.2","0.8","0.4","0.6","0.4013452417","0.8846504348","0.1002450003","0.7212928749","","","","","","","","","","","","","","76","L","3","","","226","main_expt",""
"","bandit","307","726129","0.0-268.0-0.0","26901453","wem/bandit_party_2","A1B2V27QSGPT6W","either","8","249","","","","","","","0","1","0","","0.7090989562","0.2","0.8","0.4","0.6","0.393451628","0.851087938","0.1049945928","0.7090989562","","","","","","","","","","","","","","76","L","3","","","227","main_expt",""
"","bandit","308","728015","0.0-269.0-0.0","26901453","wem/bandit_party_2","A1B2V27QSGPT6W","either","8","376","","","","","","","1","0","0","0.6606736223","","0.2","0.8","0.4","0.6","","","","","0.4175844788","0.9074720337","0.03915988122","0.6606736223","","","","","","","","","","76","L","3","","","228","main_expt",""
"","bandit","309","729856","0.0-270.0-0.0","26901453","wem/bandit_party_2","A1B2V27QSGPT6W","either","8","330","","","","","","","1","0","0","0.6893924153","","0.2","0.8","0.4","0.6","","","","","0.408368909","0.872332114","0.03767516843","0.6893924153","","","","","","","","","","76","L","3","","","229","main_expt",""
"","bandit","310","731896","0.0-271.0-0.0","26901453","wem/bandit_party_2","A1B2V27QSGPT6W","either","8","527","","","","","","","1","0","0","0.6067604319","","0.2","0.8","0.4","0.6","","","","","0.4777699032","0.7967167456","0.05804790214","0.6067604319","","","","","","","","","","76","L","3","","","230","main_expt",""
"","bandit","311","736479","0.0-272.0-0.0","26901453","wem/bandit_party_2","A1B2V27QSGPT6W","either","8","3072","","","","","","","1","0","0","0.5037419277","","0.2","0.8","0.4","0.6","","","","","0.4935442242","0.7760618079","0.04963095007","0.5037419277","","","","","","","","","","76","L","3","","","231","main_expt",""
"","bandit","312","739976","0.0-273.0-0.0","26901453","wem/bandit_party_2","A1B2V27QSGPT6W","either","8","1985","","","","","","","1","0","0","0.4339479185","","0.2","0.8","0.4","0.6","","","","","0.4889590317","0.7765467853","0.03759782928","0.4339479185","","","","","","","","","","76","L","3","","","232","main_expt",""
"","bandit","313","743007","0.0-274.0-0.0","26901453","wem/bandit_party_2","A1B2V27QSGPT6W","either","8","1516","","","","","","","0","0","1","0.4525546635","","0.2","0.8","0.4","0.6","","","","","0.5212294662","0.7895219362","0.03147013274","0.4525546635","","","","","","","","","","76","L","3","","","233","main_expt",""
"","bandit","314","744896","0.0-275.0-0.0","26901453","wem/bandit_party_2","A1B2V27QSGPT6W","either","8","376","","","","","","","0","0","1","0.3680080929","","0.2","0.8","0.4","0.6","","","","","0.4420617392","0.7491899586","0.03547440544","0.3680080929","","","","","","","","","","76","L","3","","","234","main_expt",""
"","bandit","315","747318","0.0-276.0-0.0","26901453","wem/bandit_party_2","A1B2V27QSGPT6W","either","8","909","","","","","","","0","1","0","","0.4816955248","0.2","0.8","0.4","0.6","0.4816955248","0.7397351474","0.04486782706","0.3416373547","","","","","","","","","","","","","","72","H","0","img/none_selected.jpg","","235","main_expt",""
"","bandit","316","749214","0.0-277.0-0.0","26901453","wem/bandit_party_2","A1B2V27QSGPT6W","either","8","384","","","","","","","0","1","0","","0.3028121716","0.2","0.8","0.4","0.6","0.3028121716","0.6587673302","0.03122339122","0.3722877153","","","","","","","","","","","","","","72","H","0","img/none_selected.jpg","","236","main_expt",""
"","bandit","317","751216","0.0-278.0-0.0","26901453","wem/bandit_party_2","A1B2V27QSGPT6W","either","8","486","","","","","","","0","0","1","","0.3802502189","0.2","0.8","0.4","0.6","0.3802502189","0.7534934878","0.04191117605","0.3081002542","","","","","","","","","","","","","","72","H","0","img/none_selected.jpg","","237","main_expt",""
"","bandit","318","752856","0.0-279.0-0.0","26901453","wem/bandit_party_2","A1B2V27QSGPT6W","either","8","127","","","","","","","0","1","0","","0.4160754302","0.2","0.8","0.4","0.6","0.4160754302","0.8023031038","0.06367740527","0.2546656634","","","","","","","","","","","","","","72","H","0","img/none_selected.jpg","","238","main_expt",""
