"consent","trial_type","trial_index","time_elapsed","internal_node_id","subjID","study","MID","cond","drift","rt","responses","button_pressed","key_press","like","value","connected","gems","bombs","no_reward","GemPrChosen","BombPrChosen","GainOverPainPr_0","GainOverPainPr_1","GainOverPainPr_2","GainOverPainPr_3","LosePr_0","LosePr_1","LosePr_2","LosePr_3","WinPr_0","WinPr_1","WinPr_2","WinPr_3","Q0","Q1","Q2","gender","age","ethnicity","label","expt_phase","target","respCharCode","respKey","respChoiceNum","respChoice","practice","trial_counter","trial_label","Q0_index","view_history"
"GDM/GDM_behavioral_consent_30min_online.html","consent","0","20887","0.0-0.0","26926124","wem/bandit_party_2","A2WYEOT1O3OXPS","either","5","","","","","","","","","","","","","","","","","","","","","","","","","","","","","","","","","","","","","","","","","",""
"","survey-text","1","31289","0.0-1.0","26926124","wem/bandit_party_2","A2WYEOT1O3OXPS","either","5","9311","{""Q0"":""A2WYEOT1O3OXPS""}","","","","","","","","","","","","","","","","","","","","","","","","","","","","","","","","","","","","","","","",""
"","button-response","2","34482","0.0-2.0","26926124","wem/bandit_party_2","A2WYEOT1O3OXPS","either","5","2178","","1","","","","","","","","","","","","","","","","","","","","","","","","","","","","","","","","","","","","","","",""
"","text-replacement","3","55876","0.0-3.0","26926124","wem/bandit_party_2","A2WYEOT1O3OXPS","either","5","20382","","","32","","","","","","","","","","","","","","","","","","","","","","","","","","","","","","","","","","","","","",""
"","text-replacement","4","76016","0.0-4.0","26926124","wem/bandit_party_2","A2WYEOT1O3OXPS","either","5","20132","","","32","","","","","","","","","","","","","","","","","","","","","","","","","","","","","","","","","","","","","",""
"","identification","5","93568","0.0-6.0-0.0","26926124","wem/bandit_party_2","A2WYEOT1O3OXPS","either","5","17480","","","","3","6","3","","","","","","","","","","","","","","","","","","","","","","","","pre","identification_pre","the Republican Party","","","","","","","","",""
"","identification","6","112322","0.0-6.0-1.0","26926124","wem/bandit_party_2","A2WYEOT1O3OXPS","either","5","17680","","","","5","6","5","","","","","","","","","","","","","","","","","","","","","","","","pre","identification_pre","the Democratic Party","","","","","","","","",""
"","text-replacement","7","151481","0.0-7.0","26926124","wem/bandit_party_2","A2WYEOT1O3OXPS","either","5","38150","","","32","","","","","","","","","","","","","","","","","","","","","","","","","","","","","","","","","","","","","",""
"","text-replacement","8","165925","0.0-8.0","26926124","wem/bandit_party_2","A2WYEOT1O3OXPS","either","5","14433","","","32","","","","","","","","","","","","","","","","","","","","","","","","","","","","","","","","","","","","","",""
"","text-replacement","9","177924","0.0-9.0","26926124","wem/bandit_party_2","A2WYEOT1O3OXPS","either","5","11985","","","32","","","","","","","","","","","","","","","","","","","","","","","","","","","","","","","","","","","","","",""
"","text-replacement","10","184420","0.0-10.0","26926124","wem/bandit_party_2","A2WYEOT1O3OXPS","either","5","6488","","","32","","","","","","","","","","","","","","","","","","","","","","","","","","","","","","","","","","","","","",""
"","text-replacement","11","193461","0.0-11.0","26926124","wem/bandit_party_2","A2WYEOT1O3OXPS","either","5","9033","","","32","","","","","","","","","","","","","","","","","","","","","","","","","","","","","","","","","","","","","",""
"","bandit","12","200896","0.0-12.0-0.0","26926124","wem/bandit_party_2","A2WYEOT1O3OXPS","either","5","5901","","","","","","","0","0","1","0","0","","","","","0","","","","0","","","","","","","","","","","","","74","J","0","img/none_selected_demo.jpg","true","0","","",""
"","bandit","13","204298","0.0-13.0-0.0","26926124","wem/bandit_party_2","A2WYEOT1O3OXPS","either","5","1876","","","","","","","0","0","1","0","0","","","","","0","","","","0","","","","","","","","","","","","","75","K","0","img/none_selected_demo.jpg","true","0","","",""
"","text-replacement","14","212463","0.0-14.0","26926124","wem/bandit_party_2","A2WYEOT1O3OXPS","either","5","8158","","","32","","","","","","","","","","","","","","","","","","","","","","","","","","","","","","","","","","","","","",""
"","text-replacement","15","225955","0.0-15.0","26926124","wem/bandit_party_2","A2WYEOT1O3OXPS","either","5","13486","","","32","","","","","","","","","","","","","","","","","","","","","","","","","","","","","","","","","","","","","",""
"","text-replacement","16","234846","0.0-16.0","26926124","wem/bandit_party_2","A2WYEOT1O3OXPS","either","5","8884","","","32","","","","","","","","","","","","","","","","","","","","","","","","","","","","","","","","","","","","","",""
"","text-replacement","17","240545","0.0-17.0","26926124","wem/bandit_party_2","A2WYEOT1O3OXPS","either","5","5689","","","32","","","","","","","","","","","","","","","","","","","","","","","","","","","","","","","","","","","","","",""
"","bandit","18","243675","0.0-18.0-0.0","26926124","wem/bandit_party_2","A2WYEOT1O3OXPS","either","5","1595","","","","","","","1","0","0","0.8","","0.5","0.5","","","","","","","0.8","0.2","","","","","","","","","","","","74","J","0","img/none_selected_demo.jpg","true","0","80_20_practice","",""
"","bandit","19","248930","0.0-18.0-1.0","26926124","wem/bandit_party_2","A2WYEOT1O3OXPS","either","5","3654","","","","","","","1","0","0","0.2","","0.5","0.5","","","","","","","0.8","0.2","","","","","","","","","","","","75","K","1","","true","0","80_20_practice","",""
"","bandit","20","254187","0.0-18.0-2.0","26926124","wem/bandit_party_2","A2WYEOT1O3OXPS","either","5","3587","","","","","","","0","1","0","","0.8","0.5","0.5","","","0.8","0.2","","","","","","","","","","","","","","","","74","J","0","img/none_selected_demo.jpg","true","0","80_20_practice","",""
"","bandit","21","256962","0.0-18.0-3.0","26926124","wem/bandit_party_2","A2WYEOT1O3OXPS","either","5","1249","","","","","","","0","1","0","","0.8","0.5","0.5","","","0.8","0.2","","","","","","","","","","","","","","","","74","J","0","img/none_selected_demo.jpg","true","0","80_20_practice","",""
"","bandit","22","259576","0.0-18.0-4.0","26926124","wem/bandit_party_2","A2WYEOT1O3OXPS","either","5","1067","","","","","","","1","0","0","0.8","","0.5","0.5","","","","","","","0.8","0.2","","","","","","","","","","","","74","J","0","img/none_selected_demo.jpg","true","0","80_20_practice","",""
"","bandit","23","261840","0.0-18.0-5.0","26926124","wem/bandit_party_2","A2WYEOT1O3OXPS","either","5","742","","","","","","","1","0","0","0.8","","0.5","0.5","","","","","","","0.8","0.2","","","","","","","","","","","","74","J","0","img/none_selected_demo.jpg","true","0","80_20_practice","",""
"","bandit","24","263767","0.0-18.0-6.0","26926124","wem/bandit_party_2","A2WYEOT1O3OXPS","either","5","406","","","","","","","1","0","0","0.8","","0.5","0.5","","","","","","","0.8","0.2","","","","","","","","","","","","74","J","0","img/none_selected_demo.jpg","true","0","80_20_practice","",""
"","bandit","25","265700","0.0-18.0-7.0","26926124","wem/bandit_party_2","A2WYEOT1O3OXPS","either","5","312","","","","","","","0","0","1","","0.8","0.5","0.5","","","0.8","0.2","","","","","","","","","","","","","","","","74","J","0","img/none_selected_demo.jpg","true","0","80_20_practice","",""
"","bandit","26","267598","0.0-18.0-8.0","26926124","wem/bandit_party_2","A2WYEOT1O3OXPS","either","5","375","","","","","","","0","0","1","0.8","","0.5","0.5","","","","","","","0.8","0.2","","","","","","","","","","","","74","J","0","img/none_selected_demo.jpg","true","0","80_20_practice","",""
"","bandit","27","269959","0.0-18.0-9.0","26926124","wem/bandit_party_2","A2WYEOT1O3OXPS","either","5","842","","","","","","","0","0","1","","0.2","0.5","0.5","","","0.8","0.2","","","","","","","","","","","","","","","","75","K","1","","true","0","80_20_practice","",""
"","bandit","28","271590","0.0-18.0-10.0","26926124","wem/bandit_party_2","A2WYEOT1O3OXPS","either","5","58","","","","","","","0","0","1","0.8","","0.5","0.5","","","","","","","0.8","0.2","","","","","","","","","","","","74","J","0","img/none_selected_demo.jpg","true","0","80_20_practice","",""
"","bandit","29","273729","0.0-18.0-11.0","26926124","wem/bandit_party_2","A2WYEOT1O3OXPS","either","5","595","","","","","","","1","0","0","0.8","","0.5","0.5","","","","","","","0.8","0.2","","","","","","","","","","","","74","J","0","img/none_selected_demo.jpg","true","0","80_20_practice","",""
"","bandit","30","275945","0.0-18.0-12.0","26926124","wem/bandit_party_2","A2WYEOT1O3OXPS","either","5","691","","","","","","","1","0","0","0.8","","0.5","0.5","","","","","","","0.8","0.2","","","","","","","","","","","","74","J","0","img/none_selected_demo.jpg","true","0","80_20_practice","",""
"","bandit","31","278150","0.0-18.0-13.0","26926124","wem/bandit_party_2","A2WYEOT1O3OXPS","either","5","677","","","","","","","1","0","0","0.8","","0.5","0.5","","","","","","","0.8","0.2","","","","","","","","","","","","74","J","0","img/none_selected_demo.jpg","true","0","80_20_practice","",""
"","bandit","32","280096","0.0-18.0-14.0","26926124","wem/bandit_party_2","A2WYEOT1O3OXPS","either","5","421","","","","","","","1","0","0","0.8","","0.5","0.5","","","","","","","0.8","0.2","","","","","","","","","","","","74","J","0","img/none_selected_demo.jpg","true","0","80_20_practice","",""
"","bandit","33","282159","0.0-18.0-15.0","26926124","wem/bandit_party_2","A2WYEOT1O3OXPS","either","5","440","","","","","","","0","0","1","0.8","","0.5","0.5","","","","","","","0.8","0.2","","","","","","","","","","","","74","J","0","img/none_selected_demo.jpg","true","0","80_20_practice","",""
"","bandit","34","283996","0.0-18.0-16.0","26926124","wem/bandit_party_2","A2WYEOT1O3OXPS","either","5","244","","","","","","","0","1","0","","0.8","0.5","0.5","","","0.8","0.2","","","","","","","","","","","","","","","","74","J","0","img/none_selected_demo.jpg","true","0","80_20_practice","",""
"","bandit","35","285933","0.0-18.0-17.0","26926124","wem/bandit_party_2","A2WYEOT1O3OXPS","either","5","404","","","","","","","1","0","0","0.8","","0.5","0.5","","","","","","","0.8","0.2","","","","","","","","","","","","74","J","0","img/none_selected_demo.jpg","true","0","80_20_practice","",""
"","bandit","36","288239","0.0-18.0-18.0","26926124","wem/bandit_party_2","A2WYEOT1O3OXPS","either","5","266","","","","","","","0","1","0","","0.8","0.5","0.5","","","0.8","0.2","","","","","","","","","","","","","","","","74","J","0","img/none_selected_demo.jpg","true","0","80_20_practice","",""
"","bandit","37","290390","0.0-18.0-19.0","26926124","wem/bandit_party_2","A2WYEOT1O3OXPS","either","5","614","","","","","","","0","1","0","","0.8","0.5","0.5","","","0.8","0.2","","","","","","","","","","","","","","","","74","J","0","img/none_selected_demo.jpg","true","0","80_20_practice","",""
"","text-replacement","38","299857","0.0-19.0","26926124","wem/bandit_party_2","A2WYEOT1O3OXPS","either","5","9445","","","32","","","","","","","","","","","","","","","","","","","","","","","","","","","","","","","","","","","","","",""
"","bandit","39","302044","0.0-20.0-0.0","26926124","wem/bandit_party_2","A2WYEOT1O3OXPS","either","5","505","","","","","","","1","0","0","1","0","","","","","0","1","","","1","0","","","","","","","","","","","","74","J","0","img/none_selected_demo.jpg","true","0","","",""
"","text-replacement","40","310955","0.0-21.0","26926124","wem/bandit_party_2","A2WYEOT1O3OXPS","either","5","8897","","","32","","","","","","","","","","","","","","","","","","","","","","","","","","","","","","","","","","","","","",""
"","text-replacement","41","318631","0.0-22.0","26926124","wem/bandit_party_2","A2WYEOT1O3OXPS","either","5","7663","","","32","","","","","","","","","","","","","","","","","","","","","","","","","","","","","","","","","","","","","",""
"","text-replacement","42","328598","0.0-23.0","26926124","wem/bandit_party_2","A2WYEOT1O3OXPS","either","5","9952","","","32","","","","","","","","","","","","","","","","","","","","","","","","","","","","","","","","","","","","","",""
"","text-replacement","43","334248","0.0-24.0","26926124","wem/bandit_party_2","A2WYEOT1O3OXPS","either","5","5642","","","32","","","","","","","","","","","","","","","","","","","","","","","","","","","","","","","","","","","","","",""
"","text-replacement","44","341795","0.0-25.0","26926124","wem/bandit_party_2","A2WYEOT1O3OXPS","either","5","7540","","","32","","","","","","","","","","","","","","","","","","","","","","","","","","","","","","","","","","","","","",""
"","text-replacement","45","342987","0.0-26.0","26926124","wem/bandit_party_2","A2WYEOT1O3OXPS","either","5","1184","","","32","","","","","","","","","","","","","","","","","","","","","","","","","","","","","","","","","","","","","",""
"","text-replacement","46","346404","0.0-27.0","26926124","wem/bandit_party_2","A2WYEOT1O3OXPS","either","5","3405","","","32","","","","","","","","","","","","","","","","","","","","","","","","","","","","","","","","","","","","","",""
"","text-replacement","47","349479","0.0-28.0","26926124","wem/bandit_party_2","A2WYEOT1O3OXPS","either","5","3063","","","32","","","","","","","","","","","","","","","","","","","","","","","","","","","","","","","","","","","","","",""
"","text-replacement","48","364275","0.0-29.0","26926124","wem/bandit_party_2","A2WYEOT1O3OXPS","either","5","14788","","","32","","","","","","","","","","","","","","","","","","","","","","","","","","","","","","","","","","","","","",""
"","text-replacement","49","366760","0.0-30.0","26926124","wem/bandit_party_2","A2WYEOT1O3OXPS","either","5","2478","","","32","","","","","","","","","","","","","","","","","","","","","","","","","","","","","","","","","","","","","",""
"","text-replacement","50","372272","0.0-31.0","26926124","wem/bandit_party_2","A2WYEOT1O3OXPS","either","5","5503","","","32","","","","","","","","","","","","","","","","","","","","","","","","","","","","","","","","","","","","","",""
"","bandit","51","375461","0.0-32.0-0.0","26926124","wem/bandit_party_2","A2WYEOT1O3OXPS","either","5","1655","","","","","","","1","0","0","0.8","","0.5","0.5","0.5","0.5","","","","","0.8","0.2","0.6","0.2","","","","","","","","","","72","H","0","img/none_selected.jpg","true","0","full_practice","",""
"","bandit","52","383546","0.0-32.0-1.0","26926124","wem/bandit_party_2","A2WYEOT1O3OXPS","either","5","6471","","","","","","","0","0","1","0.2","","0.5","0.5","0.5","0.5","","","","","0.8","0.2","0.6","0.2","","","","","","","","","","74","J","1","","true","0","full_practice","",""
"","bandit","53","385742","0.0-32.0-2.0","26926124","wem/bandit_party_2","A2WYEOT1O3OXPS","either","5","668","","","","","","","0","1","0","","0.6","0.5","0.5","0.5","0.5","0.8","0.2","0.6","0.2","","","","","","","","","","","","","","75","K","2","","true","0","full_practice","",""
"","bandit","54","388052","0.0-32.0-3.0","26926124","wem/bandit_party_2","A2WYEOT1O3OXPS","either","5","718","","","","","","","0","1","0","","0.2","0.5","0.5","0.5","0.5","0.8","0.2","0.6","0.2","","","","","","","","","","","","","","76","L","3","","true","0","full_practice","",""
"","bandit","55","391702","0.0-32.0-4.0","26926124","wem/bandit_party_2","A2WYEOT1O3OXPS","either","5","2117","","","","","","","0","0","1","","0.8","0.5","0.5","0.5","0.5","0.8","0.2","0.6","0.2","","","","","","","","","","","","","","72","H","0","img/none_selected.jpg","true","0","full_practice","",""
"","bandit","56","393736","0.0-32.0-5.0","26926124","wem/bandit_party_2","A2WYEOT1O3OXPS","either","5","509","","","","","","","0","0","1","","0.2","0.5","0.5","0.5","0.5","0.8","0.2","0.6","0.2","","","","","","","","","","","","","","74","J","1","","true","0","full_practice","",""
"","bandit","57","395484","0.0-32.0-6.0","26926124","wem/bandit_party_2","A2WYEOT1O3OXPS","either","5","218","","","","","","","1","0","0","0.6","","0.5","0.5","0.5","0.5","","","","","0.8","0.2","0.6","0.2","","","","","","","","","","75","K","2","","true","0","full_practice","",""
"","bandit","58","397317","0.0-32.0-7.0","26926124","wem/bandit_party_2","A2WYEOT1O3OXPS","either","5","203","","","","","","","0","1","0","","0.2","0.5","0.5","0.5","0.5","0.8","0.2","0.6","0.2","","","","","","","","","","","","","","76","L","3","","true","0","full_practice","",""
"","bandit","59","401333","0.0-32.0-8.0","26926124","wem/bandit_party_2","A2WYEOT1O3OXPS","either","5","2483","","","","","","","0","0","1","0.8","","0.5","0.5","0.5","0.5","","","","","0.8","0.2","0.6","0.2","","","","","","","","","","72","H","0","img/none_selected.jpg","true","0","full_practice","",""
"","bandit","60","403686","0.0-32.0-9.0","26926124","wem/bandit_party_2","A2WYEOT1O3OXPS","either","5","757","","","","","","","0","0","1","0.2","","0.5","0.5","0.5","0.5","","","","","0.8","0.2","0.6","0.2","","","","","","","","","","74","J","1","","true","0","full_practice","",""
"","bandit","61","405638","0.0-32.0-10.0","26926124","wem/bandit_party_2","A2WYEOT1O3OXPS","either","5","424","","","","","","","0","0","1","","0.6","0.5","0.5","0.5","0.5","0.8","0.2","0.6","0.2","","","","","","","","","","","","","","75","K","2","","true","0","full_practice","",""
"","bandit","62","407925","0.0-32.0-11.0","26926124","wem/bandit_party_2","A2WYEOT1O3OXPS","either","5","762","","","","","","","0","1","0","","0.2","0.5","0.5","0.5","0.5","0.8","0.2","0.6","0.2","","","","","","","","","","","","","","76","L","3","","true","0","full_practice","",""
"","bandit","63","412359","0.0-32.0-12.0","26926124","wem/bandit_party_2","A2WYEOT1O3OXPS","either","5","2880","","","","","","","0","0","1","0.8","","0.5","0.5","0.5","0.5","","","","","0.8","0.2","0.6","0.2","","","","","","","","","","72","H","0","img/none_selected.jpg","true","0","full_practice","",""
"","bandit","64","414111","0.0-32.0-13.0","26926124","wem/bandit_party_2","A2WYEOT1O3OXPS","either","5","216","","","","","","","0","0","1","0.2","","0.5","0.5","0.5","0.5","","","","","0.8","0.2","0.6","0.2","","","","","","","","","","74","J","1","","true","0","full_practice","",""
"","bandit","65","417376","0.0-32.0-14.0","26926124","wem/bandit_party_2","A2WYEOT1O3OXPS","either","5","265","","","","","","","1","0","0","0.6","","0.5","0.5","0.5","0.5","","","","","0.8","0.2","0.6","0.2","","","","","","","","","","75","K","2","","true","0","full_practice","",""
"","bandit","66","419805","0.0-32.0-15.0","26926124","wem/bandit_party_2","A2WYEOT1O3OXPS","either","5","890","","","","","","","0","0","1","0.2","","0.5","0.5","0.5","0.5","","","","","0.8","0.2","0.6","0.2","","","","","","","","","","76","L","3","","true","0","full_practice","",""
"","bandit","67","424267","0.0-32.0-16.0","26926124","wem/bandit_party_2","A2WYEOT1O3OXPS","either","5","2894","","","","","","","0","1","0","","0.8","0.5","0.5","0.5","0.5","0.8","0.2","0.6","0.2","","","","","","","","","","","","","","72","H","0","img/none_selected.jpg","true","0","full_practice","",""
"","bandit","68","426284","0.0-32.0-17.0","26926124","wem/bandit_party_2","A2WYEOT1O3OXPS","either","5","479","","","","","","","0","0","1","","0.2","0.5","0.5","0.5","0.5","0.8","0.2","0.6","0.2","","","","","","","","","","","","","","74","J","1","","true","0","full_practice","",""
"","bandit","69","428201","0.0-32.0-18.0","26926124","wem/bandit_party_2","A2WYEOT1O3OXPS","either","5","289","","","","","","","0","0","1","","0.6","0.5","0.5","0.5","0.5","0.8","0.2","0.6","0.2","","","","","","","","","","","","","","75","K","2","","true","0","full_practice","",""
"","bandit","70","430181","0.0-32.0-19.0","26926124","wem/bandit_party_2","A2WYEOT1O3OXPS","either","5","294","","","","","","","0","0","1","0.2","","0.5","0.5","0.5","0.5","","","","","0.8","0.2","0.6","0.2","","","","","","","","","","76","L","3","","true","0","full_practice","",""
"","text","71","437291","0.0-33.0","26926124","wem/bandit_party_2","A2WYEOT1O3OXPS","either","5","7083","","","32","","","","","","","","","","","","","","","","","","","","","","","","","","","","","","","","","","","","","",""
"","text-replacement","72","452188","0.0-34.0","26926124","wem/bandit_party_2","A2WYEOT1O3OXPS","either","5","13881","","","32","","","","","","","","","","","","","","","","","","","","","","","","","","","","","","","","","","","","","",""
"","text-replacement","73","457421","0.0-35.0","26926124","wem/bandit_party_2","A2WYEOT1O3OXPS","either","5","5215","","","32","","","","","","","","","","","","","","","","","","","","","","","","","","","","","","","","","","","","","",""
"","text-replacement","74","459459","0.0-36.0","26926124","wem/bandit_party_2","A2WYEOT1O3OXPS","either","5","2027","","","32","","","","","","","","","","","","","","","","","","","","","","","","","","","","","","","","","","","","","",""
"","text-replacement","75","462997","0.0-37.0","26926124","wem/bandit_party_2","A2WYEOT1O3OXPS","either","5","3528","","","32","","","","","","","","","","","","","","","","","","","","","","","","","","","","","","","","","","","","","",""
"","text-replacement","76","465334","0.0-38.0","26926124","wem/bandit_party_2","A2WYEOT1O3OXPS","either","5","2326","","","32","","","","","","","","","","","","","","","","","","","","","","","","","","","","","","","","","","","","","",""
"","survey-multi-choice-replacement","77","472669","0.0-39.0-0.0","26926124","wem/bandit_party_2","A2WYEOT1O3OXPS","either","5","7296","","","","","","","","","","","","","","","","","","","","","","","","Money will be added to the pool for <span style='color:blue;'>DEMOCRATS</span>","","","","","","","attn_check","","","","","","","","","0",""
"","survey-multi-choice-replacement","78","482567","0.0-40.0-0.0","26926124","wem/bandit_party_2","A2WYEOT1O3OXPS","either","5","8849","","","","","","","","","","","","","","","","","","","","","","","","Money will be subtracted from the pool for <span style='color:red;'>REPUBLICANS</span>","","","","","","","attn_check","","","","","","","","","1",""
"","instructions","79","485553","0.0-40.0-1.0-0.0","26926124","wem/bandit_party_2","A2WYEOT1O3OXPS","either","5","1967","","","","","","","","","","","","","","","","","","","","","","","","","","","","","","","","","","","","","","","","","[{""page_index"":0,""viewing_time"":1965}]"
"","survey-multi-choice-replacement","80","494472","0.0-40.1-0.1","26926124","wem/bandit_party_2","A2WYEOT1O3OXPS","either","5","7870","","","","","","","","","","","","","","","","","","","","","","","","Equal amounts of money will be added to the pool for <span style='color:blue;'>DEMOCRATS</span> and subtracted from the pool for <span style='color:red;'>REPUBLICANS</span>","","","","","","","attn_check","","","","","","","","","2",""
"","survey-multi-choice-replacement","81","509020","0.0-41.0-0.0","26926124","wem/bandit_party_2","A2WYEOT1O3OXPS","either","5","13469","","","","","","","","","","","","","","","","","","","","","","","","No money will be added to either pool","","","","","","","attn_check","","","","","","","","","3",""
"","bandit","82","517281","0.0-42.0-0.0","26926124","wem/bandit_party_2","A2WYEOT1O3OXPS","either","5","5692","","","","","","","0","0","1","0.6131215568","","0.8","0.6","0.4","0.2","","","","","0.6131215568","0.32692793","0.4909711759","0.4253928501","","","","","","","","","","72","H","0","img/none_selected.jpg","","1","main_expt","",""
"","bandit","83","520703","0.0-43.0-0.0","26926124","wem/bandit_party_2","A2WYEOT1O3OXPS","either","5","1886","","","","","","","0","0","1","","0.3068321923","0.8","0.6","0.4","0.2","0.6783759564","0.3068321923","0.5514346198","0.5447097682","","","","","","","","","","","","","","74","J","1","","","2","main_expt","",""
"","bandit","84","523009","0.0-44.0-0.0","26926124","wem/bandit_party_2","A2WYEOT1O3OXPS","either","5","719","","","","","","","1","0","0","0.5966913043","","0.8","0.6","0.4","0.2","","","","","0.6535049038","0.2871808385","0.5966913043","0.5631376832","","","","","","","","","","75","K","2","","","3","main_expt","",""
"","bandit","85","525916","0.0-45.0-0.0","26926124","wem/bandit_party_2","A2WYEOT1O3OXPS","either","5","1379","","","","","","","1","0","0","0.5889355808","","0.8","0.6","0.4","0.2","","","","","0.5433476707","0.3062311279","0.6236804691","0.5889355808","","","","","","","","","","76","L","3","","","4","main_expt","",""
"","bandit","86","527961","0.0-46.0-0.0","26926124","wem/bandit_party_2","A2WYEOT1O3OXPS","either","5","520","","","","","","","0","0","1","0.4256320799","","0.8","0.6","0.4","0.2","","","","","0.4256320799","0.2453374439","0.5844938386","0.6125363118","","","","","","","","","","72","H","0","img/none_selected.jpg","","5","main_expt","",""
"","bandit","87","529673","0.0-47.0-0.0","26926124","wem/bandit_party_2","A2WYEOT1O3OXPS","either","5","185","","","","","","","0","0","1","0.2258644136","","0.8","0.6","0.4","0.2","","","","","0.4097031487","0.2258644136","0.4929788692","0.5204159956","","","","","","","","","","74","J","1","","","6","main_expt","",""
"","bandit","88","531723","0.0-48.0-0.0","26926124","wem/bandit_party_2","A2WYEOT1O3OXPS","either","5","507","","","","","","","0","0","1","","0.2251512132","0.8","0.6","0.4","0.2","0.4614862243","0.2251512132","0.3978044106","0.5949894572","","","","","","","","","","","","","","74","J","1","","","7","main_expt","",""
"","bandit","89","534113","0.0-49.0-0.0","26926124","wem/bandit_party_2","A2WYEOT1O3OXPS","either","5","791","","","","","","","1","0","0","0.1597376121","","0.8","0.6","0.4","0.2","","","","","0.4305419438","0.1597376121","0.5080346622","0.7043393759","","","","","","","","","","74","J","1","","","8","main_expt","",""
"","bandit","90","542064","0.0-50.0-0.0","26926124","wem/bandit_party_2","A2WYEOT1O3OXPS","either","5","6418","","","","","","","0","0","1","0.6000641755","","0.8","0.6","0.4","0.2","","","","","0.6000641755","0.1395884133","0.440708512","0.6866437556","","","","","","","","","","72","H","0","img/none_selected.jpg","","9","main_expt","",""
"","bandit","91","544357","0.0-51.0-0.0","26926124","wem/bandit_party_2","A2WYEOT1O3OXPS","either","5","768","","","","","","","0","1","0","","0.1529628815","0.8","0.6","0.4","0.2","0.66675231","0.1529628815","0.4862198985","0.6743415364","","","","","","","","","","","","","","74","J","1","","","10","main_expt","",""
"","bandit","92","546335","0.0-52.0-0.0","26926124","wem/bandit_party_2","A2WYEOT1O3OXPS","either","5","447","","","","","","","0","0","1","0.1918890603","","0.8","0.6","0.4","0.2","","","","","0.538431352","0.1918890603","0.4942886423","0.6907290289","","","","","","","","","","74","J","1","","","11","main_expt","",""
"","bandit","93","549456","0.0-53.0-0.0","26926124","wem/bandit_party_2","A2WYEOT1O3OXPS","either","5","1593","","","","","","","0","0","1","","0.4999864232","0.8","0.6","0.4","0.2","0.5683478731","0.1412308375","0.4999864232","0.7254617755","","","","","","","","","","","","","","75","K","2","","","12","main_expt","",""
"","bandit","94","551631","0.0-54.0-0.0","26926124","wem/bandit_party_2","A2WYEOT1O3OXPS","either","5","558","","","","","","","0","0","1","","0.7533793381","0.8","0.6","0.4","0.2","0.5870071372","0.1854965676","0.3945724157","0.7533793381","","","","","","","","","","","","","","76","L","3","","","13","main_expt","",""
"","bandit","95","555058","0.0-55.0-0.0","26926124","wem/bandit_party_2","A2WYEOT1O3OXPS","either","5","1903","","","","","","","0","1","0","","0.6909187676","0.8","0.6","0.4","0.2","0.3389967741","0.2200151947","0.458684297","0.6909187676","","","","","","","","","","","","","","76","L","3","","","14","main_expt","",""
"","bandit","96","557062","0.0-56.0-0.0","26926124","wem/bandit_party_2","A2WYEOT1O3OXPS","either","5","475","","","","","","","1","0","0","0.5338449271","","0.8","0.6","0.4","0.2","","","","","0.2927381815","0.1497743902","0.5338449271","0.7916820586","","","","","","","","","","75","K","2","","","15","main_expt","",""
"","bandit","97","559286","0.0-57.0-0.0","26926124","wem/bandit_party_2","A2WYEOT1O3OXPS","either","5","677","","","","","","","0","0","1","0.1767244745","","0.8","0.6","0.4","0.2","","","","","0.2268478953","0.1767244745","0.6821016448","0.7991661796","","","","","","","","","","74","J","1","","","16","main_expt","",""
"","bandit","98","561199","0.0-58.0-0.0","26926124","wem/bandit_party_2","A2WYEOT1O3OXPS","either","5","387","","","","","","","0","0","1","","0.2364877179","0.8","0.6","0.4","0.2","0.2364877179","0.1953364786","0.6963612506","0.7352739439","","","","","","","","","","","","","","72","H","0","img/none_selected.jpg","","17","main_expt","",""
"","bandit","99","563463","0.0-59.0-0.0","26926124","wem/bandit_party_2","A2WYEOT1O3OXPS","either","5","737","","","","","","","1","0","0","0.280777314","","0.8","0.6","0.4","0.2","","","","","0.280777314","0.139355503","0.7035779666","0.6911569498","","","","","","","","","","72","H","0","img/none_selected.jpg","","18","main_expt","",""
"","bandit","100","565783","0.0-60.0-0.0","26926124","wem/bandit_party_2","A2WYEOT1O3OXPS","either","5","767","","","","","","","0","0","1","","0.129677489","0.8","0.6","0.4","0.2","0.3280428268","0.129677489","0.677086514","0.6372159304","","","","","","","","","","","","","","74","J","1","","","19","main_expt","",""
"","bandit","101","567394","0.0-61.0-0.0","26926124","wem/bandit_party_2","A2WYEOT1O3OXPS","either","5","85","","","","","","","0","0","1","0.5211019236","","0.8","0.6","0.4","0.2","","","","","0.213865824","0.1584506979","0.5211019236","0.5917564331","","","","","","","","","","75","K","2","","","20","main_expt","",""
"","bandit","102","569009","0.0-62.0-0.0","26926124","wem/bandit_party_2","A2WYEOT1O3OXPS","either","5","10","","","","","","","0","1","0","","0.6351733259","0.8","0.6","0.4","0.2","0.2755747612","0.1934985877","0.6040081297","0.6351733259","","","","","","","","","","","","","","76","L","3","","","21","main_expt","",""
"","bandit","103","573700","0.0-63.0-0.0","26926124","wem/bandit_party_2","A2WYEOT1O3OXPS","either","5","3126","","","","","","","0","1","0","","0.57448168","0.8","0.6","0.4","0.2","0.3096891892","0.1184813826","0.5276460007","0.57448168","","","","","","","","","","","","","","76","L","3","","","22","main_expt","",""
"","bandit","104","575676","0.0-64.0-0.0","26926124","wem/bandit_party_2","A2WYEOT1O3OXPS","either","5","447","","","","","","","0","0","1","","0.4373756081","0.8","0.6","0.4","0.2","0.1855444332","0.1387482349","0.4373756081","0.532235281","","","","","","","","","","","","","","75","K","2","","","23","main_expt","",""
"","bandit","105","578598","0.0-65.0-0.0","26926124","wem/bandit_party_2","A2WYEOT1O3OXPS","either","5","1349","","","","","","","0","0","1","0.1275075135","","0.8","0.6","0.4","0.2","","","","","0.2026045625","0.1275075135","0.4051577966","0.4695599312","","","","","","","","","","74","J","1","","","24","main_expt","",""
"","bandit","106","581846","0.0-66.0-0.0","26926124","wem/bandit_party_2","A2WYEOT1O3OXPS","either","5","1710","","","","","","","1","0","0","0.2610081957","","0.8","0.6","0.4","0.2","","","","","0.2610081957","0.1324238285","0.3583026632","0.3710761786","","","","","","","","","","72","H","0","img/none_selected.jpg","","25","main_expt","",""
"","bandit","107","583896","0.0-67.0-0.0","26926124","wem/bandit_party_2","A2WYEOT1O3OXPS","either","5","524","","","","","","","0","1","0","","0.2222282692","0.8","0.6","0.4","0.2","0.2068764453","0.2222282692","0.4070676783","0.3104834237","","","","","","","","","","","","","","74","J","1","","","26","main_expt","",""
"","bandit","108","586331","0.0-68.0-0.0","26926124","wem/bandit_party_2","A2WYEOT1O3OXPS","either","5","867","","","","","","","0","0","1","0.2367528544","","0.8","0.6","0.4","0.2","","","","","0.1387354037","0.2367528544","0.3962805628","0.4250638914","","","","","","","","","","74","J","1","","","27","main_expt","",""
"","bandit","109","588109","0.0-69.0-0.0","26926124","wem/bandit_party_2","A2WYEOT1O3OXPS","either","5","250","","","","","","","0","0","1","","0.3381264529","0.8","0.6","0.4","0.2","0.2065421522","0.1581712713","0.3381264529","0.3738912408","","","","","","","","","","","","","","75","K","2","","","28","main_expt","",""
"","bandit","110","590052","0.0-70.0-0.0","26926124","wem/bandit_party_2","A2WYEOT1O3OXPS","either","5","398","","","","","","","0","0","1","0.411092256","","0.8","0.6","0.4","0.2","","","","","0.2452437498","0.2361440946","0.3405446746","0.411092256","","","","","","","","","","76","L","3","","","29","main_expt","",""
"","bandit","111","591888","0.0-71.0-0.0","26926124","wem/bandit_party_2","A2WYEOT1O3OXPS","either","5","279","","","","","","","0","0","1","","0.3076129501","0.8","0.6","0.4","0.2","0.3076129501","0.3051502752","0.3536414415","0.306262239","","","","","","","","","","","","","","72","H","0","img/none_selected.jpg","","30","main_expt","",""
"","bandit","112","593807","0.0-72.0-0.0","26926124","wem/bandit_party_2","A2WYEOT1O3OXPS","either","5","390","","","","","","","0","0","1","0.275744379","","0.8","0.6","0.4","0.2","","","","","0.275744379","0.3588845582","0.3201297868","0.2846857217","","","","","","","","","","72","H","0","img/none_selected.jpg","","31","main_expt","",""
"","bandit","113","595820","0.0-73.0-0.0","26926124","wem/bandit_party_2","A2WYEOT1O3OXPS","either","5","456","","","","","","","0","0","1","0.3351264969","","0.8","0.6","0.4","0.2","","","","","0.1582224348","0.3351264969","0.414050106","0.260797537","","","","","","","","","","74","J","1","","","32","main_expt","",""
"","bandit","114","603734","0.0-74.0-0.0","26926124","wem/bandit_party_2","A2WYEOT1O3OXPS","either","5","6263","","","","","","","0","0","1","","0.3108282978","0.8","0.6","0.4","0.2","0.07234251762","0.3369799553","0.4846208784","0.3108282978","","","","","","","","","","","","","","76","L","3","","","33","main_expt","",""
"","bandit","115","605653","0.0-75.0-0.0","26926124","wem/bandit_party_2","A2WYEOT1O3OXPS","either","5","392","","","","","","","0","0","1","","0.3996464291","0.8","0.6","0.4","0.2","0.07244310326","0.3040676539","0.4250330595","0.3996464291","","","","","","","","","","","","","","76","L","3","","","34","main_expt","",""
"","bandit","116","608020","0.0-76.0-0.0","26926124","wem/bandit_party_2","A2WYEOT1O3OXPS","either","5","840","","","","","","","0","0","1","","0.499329675","0.8","0.6","0.4","0.2","0.07140094546","0.2974236485","0.499329675","0.4368131495","","","","","","","","","","","","","","75","K","2","","","35","main_expt","",""
"","bandit","117","611520","0.0-77.0-0.0","26926124","wem/bandit_party_2","A2WYEOT1O3OXPS","either","5","1973","","","","","","","0","1","0","","0.310238309","0.8","0.6","0.4","0.2","0.08624361683","0.310238309","0.3892953339","0.3396719642","","","","","","","","","","","","","","74","J","1","","","36","main_expt","",""
"","bandit","118","614247","0.0-78.0-0.0","26926124","wem/bandit_party_2","A2WYEOT1O3OXPS","either","5","1202","","","","","","","0","0","1","0.2818719109","","0.8","0.6","0.4","0.2","","","","","0.07543251018","0.2818719109","0.3680424748","0.4409026667","","","","","","","","","","74","J","1","","","37","main_expt","",""
"","bandit","119","616465","0.0-79.0-0.0","26926124","wem/bandit_party_2","A2WYEOT1O3OXPS","either","5","690","","","","","","","0","0","1","","0.2925765749","0.8","0.6","0.4","0.2","0.1324785543","0.2925765749","0.4909804269","0.489392614","","","","","","","","","","","","","","74","J","1","","","38","main_expt","",""
"","bandit","120","620795","0.0-80.0-0.0","26926124","wem/bandit_party_2","A2WYEOT1O3OXPS","either","5","2801","","","","","","","0","0","1","0.3033582507","","0.8","0.6","0.4","0.2","","","","","0.1824024676","0.3033582507","0.5165168671","0.4403114744","","","","","","","","","","74","J","1","","","39","main_expt","",""
"","bandit","121","622763","0.0-81.0-0.0","26926124","wem/bandit_party_2","A2WYEOT1O3OXPS","either","5","435","","","","","","","0","0","1","","0.2371445562","0.8","0.6","0.4","0.2","0.09861269436","0.2371445562","0.6036007873","0.343221944","","","","","","","","","","","","","","74","J","1","","","40","main_expt","",""
"","bandit","122","624692","0.0-82.0-0.0","26926124","wem/bandit_party_2","A2WYEOT1O3OXPS","either","5","398","","","","","","","0","0","1","0.2072661203","","0.8","0.6","0.4","0.2","","","","","0.1028082326","0.2072661203","0.6078828369","0.450343793","","","","","","","","","","74","J","1","","","41","main_expt","",""
"","bandit","123","626850","0.0-83.0-0.0","26926124","wem/bandit_party_2","A2WYEOT1O3OXPS","either","5","579","","","","","","","0","0","1","0.1850700716","","0.8","0.6","0.4","0.2","","","","","0.1326350751","0.1850700716","0.5757077757","0.4422822993","","","","","","","","","","74","J","1","","","42","main_expt","",""
"","bandit","124","628807","0.0-84.0-0.0","26926124","wem/bandit_party_2","A2WYEOT1O3OXPS","either","5","432","","","","","","","0","0","1","0.1700345657","","0.8","0.6","0.4","0.2","","","","","0.1591685393","0.1700345657","0.504524575","0.4755437476","","","","","","","","","","74","J","1","","","43","main_expt","",""
"","bandit","125","630858","0.0-85.0-0.0","26926124","wem/bandit_party_2","A2WYEOT1O3OXPS","either","5","522","","","","","","","0","0","1","","0.150922449","0.8","0.6","0.4","0.2","0.1558361793","0.150922449","0.3354744533","0.6211160782","","","","","","","","","","","","","","74","J","1","","","44","main_expt","",""
"","bandit","126","633078","0.0-86.0-0.0","26926124","wem/bandit_party_2","A2WYEOT1O3OXPS","either","5","600","","","","","","","0","0","1","0.08792573626","","0.8","0.6","0.4","0.2","","","","","0.08224127908","0.08792573626","0.2259933845","0.5950963145","","","","","","","","","","74","J","1","","","45","main_expt","",""
"","bandit","127","635127","0.0-87.0-0.0","26926124","wem/bandit_party_2","A2WYEOT1O3OXPS","either","5","366","","","","","","","0","0","1","","0.05210962111","0.8","0.6","0.4","0.2","0.05681632526","0.05210962111","0.1991815266","0.600883672","","","","","","","","","","","","","","74","J","1","","","46","main_expt","",""
"","bandit","128","636955","0.0-88.0-0.0","26926124","wem/bandit_party_2","A2WYEOT1O3OXPS","either","5","301","","","","","","","0","0","1","","0.1658512007","0.8","0.6","0.4","0.2","0.02046531905","0.1658512007","0.1821259253","0.6018426621","","","","","","","","","","","","","","74","J","1","","","47","main_expt","",""
"","bandit","129","639142","0.0-89.0-0.0","26926124","wem/bandit_party_2","A2WYEOT1O3OXPS","either","5","548","","","","","","","0","0","1","","0.2171730843","0.8","0.6","0.4","0.2","0.02793369594","0.2171730843","0.1850219792","0.6719149388","","","","","","","","","","","","","","74","J","1","","","48","main_expt","",""
"","bandit","130","641124","0.0-90.0-0.0","26926124","wem/bandit_party_2","A2WYEOT1O3OXPS","either","5","284","","","","","","","1","0","0","0.2545874694","","0.8","0.6","0.4","0.2","","","","","0.01520235592","0.2545874694","0.2843491098","0.5824093935","","","","","","","","","","74","J","1","","","49","main_expt","",""
"","bandit","131","642865","0.0-91.0-0.0","26926124","wem/bandit_party_2","A2WYEOT1O3OXPS","either","5","201","","","","","","","0","0","1","","0.1971443839","0.8","0.6","0.4","0.2","0.008868670712","0.1971443839","0.2385085868","0.5697547833","","","","","","","","","","","","","","74","J","1","","","50","main_expt","",""
"","bandit","132","651460","0.0-92.0-0.0","26926124","wem/bandit_party_2","A2WYEOT1O3OXPS","either","5","4721","","","","","","","0","0","1","","0.1743954459","0.8","0.6","0.4","0.2","0.004668439046","0.1743954459","0.2762119933","0.5875551098","","","","","","","","","","","","","","74","J","1","","","51","main_expt","",""
"","bandit","133","653453","0.0-93.0-0.0","26926124","wem/bandit_party_2","A2WYEOT1O3OXPS","either","5","391","","","","","","","1","0","0","0.1007451992","","0.8","0.6","0.4","0.2","","","","","0.003090075005","0.1007451992","0.2350807626","0.691822337","","","","","","","","","","74","J","1","","","52","main_expt","",""
"","bandit","134","655476","0.0-94.0-0.0","26926124","wem/bandit_party_2","A2WYEOT1O3OXPS","either","5","409","","","","","","","0","0","1","0.1648918076","","0.8","0.6","0.4","0.2","","","","","0.003474758773","0.1648918076","0.2301492847","0.7363191169","","","","","","","","","","74","J","1","","","53","main_expt","",""
"","bandit","135","657522","0.0-95.0-0.0","26926124","wem/bandit_party_2","A2WYEOT1O3OXPS","either","5","512","","","","","","","0","0","1","0.1761014763","","0.8","0.6","0.4","0.2","","","","","0.003279238457","0.1761014763","0.2779325162","0.7639548597","","","","","","","","","","74","J","1","","","54","main_expt","",""
"","bandit","136","659416","0.0-96.0-0.0","26926124","wem/bandit_party_2","A2WYEOT1O3OXPS","either","5","339","","","","","","","0","0","1","0.1460392243","","0.8","0.6","0.4","0.2","","","","","0.001847339967","0.1460392243","0.2882189161","0.7264154962","","","","","","","","","","74","J","1","","","55","main_expt","",""
"","bandit","137","661559","0.0-97.0-0.0","26926124","wem/bandit_party_2","A2WYEOT1O3OXPS","either","5","553","","","","","","","0","0","1","0.1882527018","","0.8","0.6","0.4","0.2","","","","","0.001186331615","0.1882527018","0.2646822794","0.7511403137","","","","","","","","","","74","J","1","","","56","main_expt","",""
"","bandit","138","663623","0.0-98.0-0.0","26926124","wem/bandit_party_2","A2WYEOT1O3OXPS","either","5","526","","","","","","","0","1","0","","0.3080117871","0.8","0.6","0.4","0.2","0.001917609755","0.1836596221","0.3080117871","0.6292194553","","","","","","","","","","","","","","75","K","2","","","57","main_expt","",""
"","bandit","139","665572","0.0-99.0-0.0","26926124","wem/bandit_party_2","A2WYEOT1O3OXPS","either","5","397","","","","","","","0","0","1","","0.004115025419","0.8","0.6","0.4","0.2","0.004115025419","0.2259562874","0.2609020091","0.5622591622","","","","","","","","","","","","","","72","H","0","img/none_selected.jpg","","58","main_expt","",""
"","bandit","140","667549","0.0-100.0-0.0","26926124","wem/bandit_party_2","A2WYEOT1O3OXPS","either","5","427","","","","","","","0","0","1","","0.3014652953","0.8","0.6","0.4","0.2","0.007083433589","0.1673227733","0.3014652953","0.6394190939","","","","","","","","","","","","","","75","K","2","","","59","main_expt","",""
"","bandit","141","669813","0.0-101.0-0.0","26926124","wem/bandit_party_2","A2WYEOT1O3OXPS","either","5","722","","","","","","","0","0","1","0.1404143731","","0.8","0.6","0.4","0.2","","","","","0.0100473459","0.1404143731","0.2872544729","0.502148976","","","","","","","","","","74","J","1","","","60","main_expt","",""
"","bandit","142","671658","0.0-102.0-0.0","26926124","wem/bandit_party_2","A2WYEOT1O3OXPS","either","5","308","","","","","","","0","0","1","","0.02288810402","0.8","0.6","0.4","0.2","0.02288810402","0.1087230511","0.2347068593","0.5541662771","","","","","","","","","","","","","","72","H","0","img/none_selected.jpg","","61","main_expt","",""
"","bandit","143","673959","0.0-103.0-0.0","26926124","wem/bandit_party_2","A2WYEOT1O3OXPS","either","5","668","","","","","","","0","0","1","0.1173770395","","0.8","0.6","0.4","0.2","","","","","0.04890713094","0.1173770395","0.1786743828","0.6016144889","","","","","","","","","","74","J","1","","","62","main_expt","",""
"","bandit","144","675945","0.0-104.0-0.0","26926124","wem/bandit_party_2","A2WYEOT1O3OXPS","either","5","445","","","","","","","0","0","1","","0.1627017484","0.8","0.6","0.4","0.2","0.06015841579","0.1173961002","0.1627017484","0.6306423252","","","","","","","","","","","","","","75","K","2","","","63","main_expt","",""
"","bandit","145","678147","0.0-105.0-0.0","26926124","wem/bandit_party_2","A2WYEOT1O3OXPS","either","5","654","","","","","","","0","0","1","0.0697324588","","0.8","0.6","0.4","0.2","","","","","0.0697324588","0.1093057248","0.2220220934","0.5963496952","","","","","","","","","","72","H","0","img/none_selected.jpg","","64","main_expt","",""
"","bandit","146","680144","0.0-106.0-0.0","26926124","wem/bandit_party_2","A2WYEOT1O3OXPS","either","5","446","","","","","","","1","0","0","0.5835424673","","0.8","0.6","0.4","0.2","","","","","0.03955641554","0.1437581537","0.1387290973","0.5835424673","","","","","","","","","","76","L","3","","","65","main_expt","",""
"","bandit","147","682126","0.0-107.0-0.0","26926124","wem/bandit_party_2","A2WYEOT1O3OXPS","either","5","398","","","","","","","0","1","0","","0.5789137396","0.8","0.6","0.4","0.2","0.04104317144","0.1321246006","0.1481952943","0.5789137396","","","","","","","","","","","","","","76","L","3","","","66","main_expt","",""
"","bandit","148","684326","0.0-108.0-0.0","26926124","wem/bandit_party_2","A2WYEOT1O3OXPS","either","5","655","","","","","","","0","1","0","","0.6503196648","0.8","0.6","0.4","0.2","0.07749417123","0.1441415222","0.1354395346","0.6503196648","","","","","","","","","","","","","","76","L","3","","","67","main_expt","",""
"","bandit","149","687709","0.0-109.0-0.0","26926124","wem/bandit_party_2","A2WYEOT1O3OXPS","either","5","1829","","","","","","","0","1","0","","0.7295955131","0.8","0.6","0.4","0.2","0.1606162296","0.1794787892","0.09431815687","0.7295955131","","","","","","","","","","","","","","76","L","3","","","68","main_expt","",""
"","bandit","150","689733","0.0-110.0-0.0","26926124","wem/bandit_party_2","A2WYEOT1O3OXPS","either","5","469","","","","","","","1","0","0","0.7924649224","","0.8","0.6","0.4","0.2","","","","","0.1458723802","0.2467892919","0.09491494314","0.7924649224","","","","","","","","","","76","L","3","","","69","main_expt","",""
"","bandit","151","691850","0.0-111.0-0.0","26926124","wem/bandit_party_2","A2WYEOT1O3OXPS","either","5","499","","","","","","","1","0","0","0.7104550926","","0.8","0.6","0.4","0.2","","","","","0.09936082334","0.2683381141","0.144379617","0.7104550926","","","","","","","","","","76","L","3","","","70","main_expt","",""
"","bandit","152","694154","0.0-112.0-0.0","26926124","wem/bandit_party_2","A2WYEOT1O3OXPS","either","5","741","","","","","","","0","0","1","","0.6350436987","0.8","0.6","0.4","0.2","0.08487306657","0.3513633517","0.1522740794","0.6350436987","","","","","","","","","","","","","","76","L","3","","","71","main_expt","",""
"","bandit","153","696451","0.0-113.0-0.0","26926124","wem/bandit_party_2","A2WYEOT1O3OXPS","either","5","719","","","","","","","0","1","0","","0.5987872161","0.8","0.6","0.4","0.2","0.08819471669","0.2914052368","0.1668466162","0.5987872161","","","","","","","","","","","","","","76","L","3","","","72","main_expt","",""
"","bandit","154","699297","0.0-114.0-0.0","26926124","wem/bandit_party_2","A2WYEOT1O3OXPS","either","5","1304","","","","","","","0","1","0","","0.5985066563","0.8","0.6","0.4","0.2","0.1283432424","0.2877488323","0.1896474075","0.5985066563","","","","","","","","","","","","","","76","L","3","","","73","main_expt","",""
"","bandit","155","702084","0.0-115.0-0.0","26926124","wem/bandit_party_2","A2WYEOT1O3OXPS","either","5","1174","","","","","","","0","0","1","","0.6384302553","0.8","0.6","0.4","0.2","0.09379917772","0.2562899571","0.2374421278","0.6384302553","","","","","","","","","","","","","","76","L","3","","","74","main_expt","",""
"","bandit","156","705271","0.0-116.0-0.0","26926124","wem/bandit_party_2","A2WYEOT1O3OXPS","either","5","1638","","","","","","","1","0","0","0.5658832615","","0.8","0.6","0.4","0.2","","","","","0.09049970266","0.2733605005","0.2083661751","0.5658832615","","","","","","","","","","76","L","3","","","75","main_expt","",""
"","bandit","157","708575","0.0-117.0-0.0","26926124","wem/bandit_party_2","A2WYEOT1O3OXPS","either","5","1752","","","","","","","0","1","0","","0.6242699585","0.8","0.6","0.4","0.2","0.08721668036","0.3937912108","0.2438220339","0.6242699585","","","","","","","","","","","","","","76","L","3","","","76","main_expt","",""
"","bandit","158","710805","0.0-118.0-0.0","26926124","wem/bandit_party_2","A2WYEOT1O3OXPS","either","5","621","","","","","","","0","0","1","0.5744400186","","0.8","0.6","0.4","0.2","","","","","0.06435523183","0.2317864895","0.2688374605","0.5744400186","","","","","","","","","","76","L","3","","","77","main_expt","",""
"","bandit","159","712825","0.0-119.0-0.0","26926124","wem/bandit_party_2","A2WYEOT1O3OXPS","either","5","475","","","","","","","0","1","0","","0.5888420407","0.8","0.6","0.4","0.2","0.0482567949","0.1809738678","0.354885782","0.5888420407","","","","","","","","","","","","","","76","L","3","","","78","main_expt","",""
"","bandit","160","715137","0.0-120.0-0.0","26926124","wem/bandit_party_2","A2WYEOT1O3OXPS","either","5","757","","","","","","","0","0","1","","0.6367332082","0.8","0.6","0.4","0.2","0.0437210955","0.1139783564","0.3618930149","0.6367332082","","","","","","","","","","","","","","76","L","3","","","79","main_expt","",""
"","bandit","161","718064","0.0-121.0-0.0","26926124","wem/bandit_party_2","A2WYEOT1O3OXPS","either","5","1302","","","","","","","0","1","0","","0.6870764151","0.8","0.6","0.4","0.2","0.02877808334","0.08785846653","0.2656346555","0.6870764151","","","","","","","","","","","","","","76","L","3","","","80","main_expt","",""
"","bandit","162","721401","0.0-122.0-0.0","26926124","wem/bandit_party_2","A2WYEOT1O3OXPS","either","5","1627","","","","","","","0","1","0","","0.594282643","0.8","0.6","0.4","0.2","0.01921293631","0.09113866108","0.4245431589","0.594282643","","","","","","","","","","","","","","76","L","3","","","81","main_expt","",""
"","bandit","163","723889","0.0-123.0-0.0","26926124","wem/bandit_party_2","A2WYEOT1O3OXPS","either","5","940","","","","","","","0","0","1","","0.6134463007","0.8","0.6","0.4","0.2","0.04933803159","0.1055231707","0.4469352605","0.6134463007","","","","","","","","","","","","","","76","L","3","","","82","main_expt","",""
"","bandit","164","726227","0.0-124.0-0.0","26926124","wem/bandit_party_2","A2WYEOT1O3OXPS","either","5","678","","","","","","","1","0","0","0.573719985","","0.8","0.6","0.4","0.2","","","","","0.03134335394","0.09865920741","0.4492602846","0.573719985","","","","","","","","","","76","L","3","","","83","main_expt","",""
"","bandit","165","728209","0.0-125.0-0.0","26926124","wem/bandit_party_2","A2WYEOT1O3OXPS","either","5","393","","","","","","","0","0","1","","0.5666188995","0.8","0.6","0.4","0.2","0.08181594064","0.06745845416","0.4800113203","0.5666188995","","","","","","","","","","","","","","76","L","3","","","84","main_expt","",""
"","bandit","166","730314","0.0-126.0-0.0","26926124","wem/bandit_party_2","A2WYEOT1O3OXPS","either","5","569","","","","","","","0","0","1","","0.5161506384","0.8","0.6","0.4","0.2","0.09326949564","0.05723787215","0.53417275","0.5161506384","","","","","","","","","","","","","","76","L","3","","","85","main_expt","",""
"","bandit","167","732239","0.0-127.0-0.0","26926124","wem/bandit_party_2","A2WYEOT1O3OXPS","either","5","344","","","","","","","0","0","1","","0.4408304524","0.8","0.6","0.4","0.2","0.1365856799","0.04283717318","0.4431594274","0.4408304524","","","","","","","","","","","","","","76","L","3","","","86","main_expt","",""
"","bandit","168","734298","0.0-128.0-0.0","26926124","wem/bandit_party_2","A2WYEOT1O3OXPS","either","5","398","","","","","","","0","1","0","","0.4926691315","0.8","0.6","0.4","0.2","0.1845868617","0.04801612347","0.4135642243","0.4926691315","","","","","","","","","","","","","","76","L","3","","","87","main_expt","",""
"","bandit","169","736423","0.0-129.0-0.0","26926124","wem/bandit_party_2","A2WYEOT1O3OXPS","either","5","586","","","","","","","0","1","0","","0.6047228172","0.8","0.6","0.4","0.2","0.2304222619","0.1154775412","0.4785462387","0.6047228172","","","","","","","","","","","","","","76","L","3","","","88","main_expt","",""
"","bandit","170","738347","0.0-130.0-0.0","26926124","wem/bandit_party_2","A2WYEOT1O3OXPS","either","5","381","","","","","","","0","1","0","","0.5311406509","0.8","0.6","0.4","0.2","0.1408060154","0.1308375778","0.6395163219","0.5311406509","","","","","","","","","","","","","","76","L","3","","","89","main_expt","",""
"","bandit","171","740566","0.0-131.0-0.0","26926124","wem/bandit_party_2","A2WYEOT1O3OXPS","either","5","666","","","","","","","0","1","0","","0.6262376813","0.8","0.6","0.4","0.2","0.1870966622","0.07282967421","0.6143207643","0.6262376813","","","","","","","","","","","","","","76","L","3","","","90","main_expt","",""
"","bandit","172","742422","0.0-132.0-0.0","26926124","wem/bandit_party_2","A2WYEOT1O3OXPS","either","5","283","","","","","","","0","1","0","","0.690423555","0.8","0.6","0.4","0.2","0.192698437","0.07599207753","0.446485487","0.690423555","","","","","","","","","","","","","","76","L","3","","","91","main_expt","",""
"","bandit","173","744145","0.0-133.0-0.0","26926124","wem/bandit_party_2","A2WYEOT1O3OXPS","either","5","167","","","","","","","0","0","1","","0.6517149298","0.8","0.6","0.4","0.2","0.1683480261","0.04323911508","0.5169677416","0.6517149298","","","","","","","","","","","","","","76","L","3","","","92","main_expt","",""
"","bandit","174","746024","0.0-134.0-0.0","26926124","wem/bandit_party_2","A2WYEOT1O3OXPS","either","5","280","","","","","","","1","0","0","0.5656193004","","0.8","0.6","0.4","0.2","","","","","0.1330499919","0.04253576945","0.4242737166","0.5656193004","","","","","","","","","","76","L","3","","","93","main_expt","",""
"","bandit","175","747901","0.0-135.0-0.0","26926124","wem/bandit_party_2","A2WYEOT1O3OXPS","either","5","327","","","","","","","0","1","0","","0.4344563295","0.8","0.6","0.4","0.2","0.1880917327","0.04534385772","0.3479993201","0.4344563295","","","","","","","","","","","","","","76","L","3","","","94","main_expt","",""
"","bandit","176","749883","0.0-136.0-0.0","26926124","wem/bandit_party_2","A2WYEOT1O3OXPS","either","5","442","","","","","","","0","1","0","","0.5651083109","0.8","0.6","0.4","0.2","0.1867575465","0.03318992591","0.3701135783","0.5651083109","","","","","","","","","","","","","","76","L","3","","","95","main_expt","",""
"","bandit","177","752129","0.0-137.0-0.0","26926124","wem/bandit_party_2","A2WYEOT1O3OXPS","either","5","582","","","","","","","0","1","0","","0.5348041914","0.8","0.6","0.4","0.2","0.2231999883","0.03408771876","0.3430407586","0.5348041914","","","","","","","","","","","","","","76","L","3","","","96","main_expt","",""
"","bandit","178","754047","0.0-138.0-0.0","26926124","wem/bandit_party_2","A2WYEOT1O3OXPS","either","5","362","","","","","","","0","1","0","","0.5627844697","0.8","0.6","0.4","0.2","0.2149045243","0.05013144164","0.2876443713","0.5627844697","","","","","","","","","","","","","","76","L","3","","","97","main_expt","",""
"","bandit","179","756057","0.0-139.0-0.0","26926124","wem/bandit_party_2","A2WYEOT1O3OXPS","either","5","407","","","","","","","0","0","1","","0.6177525637","0.8","0.6","0.4","0.2","0.1963416079","0.03739082544","0.3310412313","0.6177525637","","","","","","","","","","","","","","76","L","3","","","98","main_expt","",""
"","bandit","180","757934","0.0-140.0-0.0","26926124","wem/bandit_party_2","A2WYEOT1O3OXPS","either","5","339","","","","","","","0","1","0","","0.7429557604","0.8","0.6","0.4","0.2","0.1659387142","0.1018336486","0.3893078888","0.7429557604","","","","","","","","","","","","","","76","L","3","","","99","main_expt","",""
"","bandit","181","760378","0.0-141.0-0.0","26926124","wem/bandit_party_2","A2WYEOT1O3OXPS","either","5","752","","","","","","","0","1","0","","0.6717563967","0.8","0.6","0.4","0.2","0.145948344","0.1398961818","0.4049224607","0.6717563967","","","","","","","","","","","","","","76","L","3","","","100","main_expt","",""
"","bandit","182","763603","0.0-142.0-0.0","26926124","wem/bandit_party_2","A2WYEOT1O3OXPS","either","5","1616","","","","","","","0","1","0","","0.6929666651","0.8","0.6","0.4","0.2","0.1366695263","0.1830356504","0.3259939159","0.6929666651","","","","","","","","","","","","","","76","L","3","","","101","main_expt","",""
"","bandit","183","765985","0.0-143.0-0.0","26926124","wem/bandit_party_2","A2WYEOT1O3OXPS","either","5","703","","","","","","","1","0","0","0.6827494989","","0.8","0.6","0.4","0.2","","","","","0.1543059156","0.1396005595","0.3598161211","0.6827494989","","","","","","","","","","76","L","3","","","102","main_expt","",""
"","bandit","184","769238","0.0-144.0-0.0","26926124","wem/bandit_party_2","A2WYEOT1O3OXPS","either","5","1630","","","","","","","0","1","0","","0.7315485361","0.8","0.6","0.4","0.2","0.1484193465","0.0853830874","0.3385951472","0.7315485361","","","","","","","","","","","","","","76","L","3","","","103","main_expt","",""
"","bandit","185","771324","0.0-145.0-0.0","26926124","wem/bandit_party_2","A2WYEOT1O3OXPS","either","5","469","","","","","","","0","0","1","","0.6852971926","0.8","0.6","0.4","0.2","0.1516288854","0.09317924201","0.4881545817","0.6852971926","","","","","","","","","","","","","","76","L","3","","","104","main_expt","",""
"","bandit","186","773755","0.0-146.0-0.0","26926124","wem/bandit_party_2","A2WYEOT1O3OXPS","either","5","761","","","","","","","0","1","0","","0.693594393","0.8","0.6","0.4","0.2","0.1283123627","0.08203708102","0.4790883063","0.693594393","","","","","","","","","","","","","","76","L","3","","","105","main_expt","",""
"","bandit","187","775866","0.0-147.0-0.0","26926124","wem/bandit_party_2","A2WYEOT1O3OXPS","either","5","552","","","","","","","0","0","1","","0.6101065231","0.8","0.6","0.4","0.2","0.2016068708","0.07160056992","0.4354998123","0.6101065231","","","","","","","","","","","","","","76","L","3","","","106","main_expt","",""
"","bandit","188","778230","0.0-148.0-0.0","26926124","wem/bandit_party_2","A2WYEOT1O3OXPS","either","5","760","","","","","","","0","1","0","","0.5549317608","0.8","0.6","0.4","0.2","0.2344181992","0.09799112372","0.4789065637","0.5549317608","","","","","","","","","","","","","","76","L","3","","","107","main_expt","",""
"","bandit","189","780398","0.0-149.0-0.0","26926124","wem/bandit_party_2","A2WYEOT1O3OXPS","either","5","571","","","","","","","0","0","1","","0.5753690117","0.8","0.6","0.4","0.2","0.2234564856","0.1101799882","0.2921896665","0.5753690117","","","","","","","","","","","","","","76","L","3","","","108","main_expt","",""
"","bandit","190","782748","0.0-150.0-0.0","26926124","wem/bandit_party_2","A2WYEOT1O3OXPS","either","5","805","","","","","","","0","1","0","","0.5748544728","0.8","0.6","0.4","0.2","0.2494485671","0.07189968831","0.3545905428","0.5748544728","","","","","","","","","","","","","","76","L","3","","","109","main_expt","",""
"","bandit","191","784748","0.0-151.0-0.0","26926124","wem/bandit_party_2","A2WYEOT1O3OXPS","either","5","454","","","","","","","0","1","0","","0.6473038793","0.8","0.6","0.4","0.2","0.2804015825","0.06101418375","0.3110769573","0.6473038793","","","","","","","","","","","","","","76","L","3","","","110","main_expt","",""
"","bandit","192","788249","0.0-152.0-0.0","26926124","wem/bandit_party_2","A2WYEOT1O3OXPS","either","5","1849","","","","","","","0","1","0","","0.6296147118","0.8","0.6","0.4","0.2","0.254644275","0.1032726654","0.3673577619","0.6296147118","","","","","","","","","","","","","","76","L","3","","","111","main_expt","",""
"","bandit","193","789957","0.0-153.0-0.0","26926124","wem/bandit_party_2","A2WYEOT1O3OXPS","either","5","162","","","","","","","0","0","1","","0.6174722021","0.8","0.6","0.4","0.2","0.2686709136","0.1061240248","0.3439961468","0.6174722021","","","","","","","","","","","","","","76","L","3","","","112","main_expt","",""
"","bandit","194","791885","0.0-154.0-0.0","26926124","wem/bandit_party_2","A2WYEOT1O3OXPS","either","5","297","","","","","","","0","0","1","0.7467975424","","0.8","0.6","0.4","0.2","","","","","0.3211503982","0.1150632514","0.3389202036","0.7467975424","","","","","","","","","","76","L","3","","","113","main_expt","",""
"","bandit","195","793475","0.0-155.0-0.0","26926124","wem/bandit_party_2","A2WYEOT1O3OXPS","either","5","23","","","","","","","0","1","0","","0.7797220863","0.8","0.6","0.4","0.2","0.3067152309","0.1491479201","0.3122185675","0.7797220863","","","","","","","","","","","","","","76","L","3","","","114","main_expt","",""
"","bandit","196","795172","0.0-156.0-0.0","26926124","wem/bandit_party_2","A2WYEOT1O3OXPS","either","5","54","","","","","","","0","1","0","","0.8152411921","0.8","0.6","0.4","0.2","0.3274584286","0.08304421353","0.2431064996","0.8152411921","","","","","","","","","","","","","","76","L","3","","","115","main_expt","",""
"","bandit","197","796744","0.0-157.0-0.0","26926124","wem/bandit_party_2","A2WYEOT1O3OXPS","either","5","31","","","","","","","1","0","0","0.7362727539","","0.8","0.6","0.4","0.2","","","","","0.2491959293","0.1391191417","0.2225404561","0.7362727539","","","","","","","","","","76","L","3","","","116","main_expt","",""
"","bandit","198","801482","0.0-158.0-0.0","26926124","wem/bandit_party_2","A2WYEOT1O3OXPS","either","5","3155","","","","","","","0","0","1","","0.7051771602","0.8","0.6","0.4","0.2","0.1425156065","0.1689833708","0.2891792411","0.7051771602","","","","","","","","","","","","","","76","L","3","","","117","main_expt","",""
"","bandit","199","803681","0.0-159.0-0.0","26926124","wem/bandit_party_2","A2WYEOT1O3OXPS","either","5","642","","","","","","","0","1","0","","0.7099604309","0.8","0.6","0.4","0.2","0.1550025764","0.1341186766","0.3147139712","0.7099604309","","","","","","","","","","","","","","76","L","3","","","118","main_expt","",""
"","bandit","200","805718","0.0-160.0-0.0","26926124","wem/bandit_party_2","A2WYEOT1O3OXPS","either","5","488","","","","","","","0","0","1","","0.6633752461","0.8","0.6","0.4","0.2","0.1733664784","0.1211065448","0.4890071061","0.6633752461","","","","","","","","","","","","","","76","L","3","","","119","main_expt","",""
"","bandit","201","807682","0.0-161.0-0.0","26926124","wem/bandit_party_2","A2WYEOT1O3OXPS","either","5","406","","","","","","","0","1","0","","0.6748815414","0.8","0.6","0.4","0.2","0.2091577514","0.1317257861","0.5238994176","0.6748815414","","","","","","","","","","","","","","76","L","3","","","120","main_expt","",""
"","bandit","202","809511","0.0-162.0-0.0","26926124","wem/bandit_party_2","A2WYEOT1O3OXPS","either","5","140","","","","","","","0","0","1","","0.694041989","0.8","0.6","0.4","0.2","0.2038206067","0.08851148741","0.4821854017","0.694041989","","","","","","","","","","","","","","76","L","3","","","121","main_expt","",""
"","bandit","203","814600","0.0-163.0-0.0","26926124","wem/bandit_party_2","A2WYEOT1O3OXPS","either","5","3545","","","","","","","0","1","0","","0.7808088803","0.8","0.6","0.4","0.2","0.1646827865","0.1313095228","0.5695824443","0.7808088803","","","","","","","","","","","","","","76","L","3","","","122","main_expt","",""
"","bandit","204","817421","0.0-164.0-0.0","26926124","wem/bandit_party_2","A2WYEOT1O3OXPS","either","5","1279","","","","","","","0","1","0","","0.7513243775","0.8","0.6","0.4","0.2","0.08951947698","0.1990721176","0.5884468641","0.7513243775","","","","","","","","","","","","","","76","L","3","","","123","main_expt","",""
"","bandit","205","820509","0.0-165.0-0.0","26926124","wem/bandit_party_2","A2WYEOT1O3OXPS","either","5","1484","","","","","","","0","1","0","","0.7095593687","0.8","0.6","0.4","0.2","0.09676311751","0.3510587203","0.6578864121","0.7095593687","","","","","","","","","","","","","","76","L","3","","","124","main_expt","",""
"","bandit","206","822421","0.0-166.0-0.0","26926124","wem/bandit_party_2","A2WYEOT1O3OXPS","either","5","371","","","","","","","0","0","1","","0.6464373278","0.8","0.6","0.4","0.2","0.08914634913","0.2829787335","0.6610648035","0.6464373278","","","","","","","","","","","","","","76","L","3","","","125","main_expt","",""
"","bandit","207","824377","0.0-167.0-0.0","26926124","wem/bandit_party_2","A2WYEOT1O3OXPS","either","5","393","","","","","","","0","1","0","","0.69855693","0.8","0.6","0.4","0.2","0.1104844084","0.3253732313","0.6745370829","0.69855693","","","","","","","","","","","","","","76","L","3","","","126","main_expt","",""
"","bandit","208","826477","0.0-168.0-0.0","26926124","wem/bandit_party_2","A2WYEOT1O3OXPS","either","5","563","","","","","","","0","1","0","","0.6394960802","0.8","0.6","0.4","0.2","0.1302598269","0.2969307539","0.6357656308","0.6394960802","","","","","","","","","","","","","","76","L","3","","","127","main_expt","",""
"","bandit","209","828592","0.0-169.0-0.0","26926124","wem/bandit_party_2","A2WYEOT1O3OXPS","either","5","408","","","","","","","0","0","1","","0.5912569563","0.8","0.6","0.4","0.2","0.1739983423","0.3862322559","0.6746479632","0.5912569563","","","","","","","","","","","","","","76","L","3","","","128","main_expt","",""
"","bandit","210","830468","0.0-170.0-0.0","26926124","wem/bandit_party_2","A2WYEOT1O3OXPS","either","5","337","","","","","","","0","1","0","","0.6408154383","0.8","0.6","0.4","0.2","0.2144078185","0.3399993615","0.609360971","0.6408154383","","","","","","","","","","","","","","76","L","3","","","129","main_expt","",""
"","bandit","211","832902","0.0-171.0-0.0","26926124","wem/bandit_party_2","A2WYEOT1O3OXPS","either","5","882","","","","","","","0","1","0","","0.6160079471","0.8","0.6","0.4","0.2","0.2133227205","0.4343217783","0.5791775941","0.6160079471","","","","","","","","","","","","","","76","L","3","","","130","main_expt","",""
"","bandit","212","835060","0.0-172.0-0.0","26926124","wem/bandit_party_2","A2WYEOT1O3OXPS","either","5","583","","","","","","","0","1","0","","0.6639311205","0.8","0.6","0.4","0.2","0.3009586135","0.4116870082","0.6039133906","0.6639311205","","","","","","","","","","","","","","76","L","3","","","131","main_expt","",""
"","bandit","213","837622","0.0-173.0-0.0","26926124","wem/bandit_party_2","A2WYEOT1O3OXPS","either","5","879","","","","","","","0","1","0","","0.7314418876","0.8","0.6","0.4","0.2","0.3257006372","0.3235444519","0.5564977279","0.7314418876","","","","","","","","","","","","","","76","L","3","","","132","main_expt","",""
"","bandit","214","840387","0.0-174.0-0.0","26926124","wem/bandit_party_2","A2WYEOT1O3OXPS","either","5","1213","","","","","","","0","0","1","","0.7343064015","0.8","0.6","0.4","0.2","0.3286432436","0.4204005917","0.5453182718","0.7343064015","","","","","","","","","","","","","","76","L","3","","","133","main_expt","",""
"","bandit","215","843060","0.0-175.0-0.0","26926124","wem/bandit_party_2","A2WYEOT1O3OXPS","either","5","1113","","","","","","","1","0","0","0.6345074403","","0.8","0.6","0.4","0.2","","","","","0.3343575241","0.5326734174","0.5557967555","0.6345074403","","","","","","","","","","76","L","3","","","134","main_expt","",""
"","bandit","216","845683","0.0-176.0-0.0","26926124","wem/bandit_party_2","A2WYEOT1O3OXPS","either","5","937","","","","","","","0","0","1","","0.752921597","0.8","0.6","0.4","0.2","0.2917270645","0.6096825818","0.5719827955","0.752921597","","","","","","","","","","","","","","76","L","3","","","135","main_expt","",""
"","bandit","217","848693","0.0-177.0-0.0","26926124","wem/bandit_party_2","A2WYEOT1O3OXPS","either","5","1451","","","","","","","0","1","0","","0.7642539739","0.8","0.6","0.4","0.2","0.3972485531","0.6827328332","0.4756276611","0.7642539739","","","","","","","","","","","","","","76","L","3","","","136","main_expt","",""
"","bandit","218","850974","0.0-178.0-0.0","26926124","wem/bandit_party_2","A2WYEOT1O3OXPS","either","5","727","","","","","","","0","1","0","","0.7166238274","0.8","0.6","0.4","0.2","0.4294090248","0.6604068036","0.5078949877","0.7166238274","","","","","","","","","","","","","","76","L","3","","","137","main_expt","",""
"","bandit","219","853437","0.0-179.0-0.0","26926124","wem/bandit_party_2","A2WYEOT1O3OXPS","either","5","910","","","","","","","0","1","0","","0.713549589","0.8","0.6","0.4","0.2","0.5009988565","0.653661868","0.4938131475","0.713549589","","","","","","","","","","","","","","76","L","3","","","138","main_expt","",""
"","bandit","220","855533","0.0-180.0-0.0","26926124","wem/bandit_party_2","A2WYEOT1O3OXPS","either","5","541","","","","","","","0","0","1","","0.6905374229","0.8","0.6","0.4","0.2","0.4993746949","0.6169918179","0.654612375","0.6905374229","","","","","","","","","","","","","","76","L","3","","","139","main_expt","",""
"","bandit","221","857994","0.0-181.0-0.0","26926124","wem/bandit_party_2","A2WYEOT1O3OXPS","either","5","916","","","","","","","0","0","1","0.6614813372","","0.8","0.6","0.4","0.2","","","","","0.5448973659","0.6657435074","0.52663091","0.6614813372","","","","","","","","","","76","L","3","","","140","main_expt","",""
"","bandit","222","860096","0.0-182.0-0.0","26926124","wem/bandit_party_2","A2WYEOT1O3OXPS","either","5","524","","","","","","","0","0","1","","0.7024355817","0.8","0.6","0.4","0.2","0.4829720837","0.6349341703","0.5976356642","0.7024355817","","","","","","","","","","","","","","76","L","3","","","141","main_expt","",""
"","bandit","223","862799","0.0-183.0-0.0","26926124","wem/bandit_party_2","A2WYEOT1O3OXPS","either","5","1148","","","","","","","0","1","0","","0.7185929435","0.8","0.6","0.4","0.2","0.5402580016","0.6379356982","0.5956183516","0.7185929435","","","","","","","","","","","","","","76","L","3","","","142","main_expt","",""
"","bandit","224","865428","0.0-184.0-0.0","26926124","wem/bandit_party_2","A2WYEOT1O3OXPS","either","5","1080","","","","","","","1","0","0","0.6240660549","","0.8","0.6","0.4","0.2","","","","","0.5478015274","0.6022688156","0.6432894639","0.6240660549","","","","","","","","","","76","L","3","","","143","main_expt","",""
"","bandit","225","870500","0.0-185.0-0.0","26926124","wem/bandit_party_2","A2WYEOT1O3OXPS","either","5","3508","","","","","","","0","0","1","","0.5797935966","0.8","0.6","0.4","0.2","0.5189832842","0.5806731621","0.6691106198","0.5797935966","","","","","","","","","","","","","","76","L","3","","","144","main_expt","",""
"","bandit","226","875525","0.0-186.0-0.0","26926124","wem/bandit_party_2","A2WYEOT1O3OXPS","either","5","3330","","","","","","","1","0","0","0.520403766","","0.8","0.6","0.4","0.2","","","","","0.4556604905","0.5512406412","0.677031803","0.520403766","","","","","","","","","","76","L","3","","","145","main_expt","",""
"","bandit","227","877574","0.0-187.0-0.0","26926124","wem/bandit_party_2","A2WYEOT1O3OXPS","either","5","493","","","","","","","0","0","1","","0.5330345992","0.8","0.6","0.4","0.2","0.48011385","0.6055708535","0.6697886415","0.5330345992","","","","","","","","","","","","","","76","L","3","","","146","main_expt","",""
"","bandit","228","879701","0.0-188.0-0.0","26926124","wem/bandit_party_2","A2WYEOT1O3OXPS","either","5","550","","","","","","","0","1","0","","0.5692896821","0.8","0.6","0.4","0.2","0.5363471167","0.5711328773","0.7101623398","0.5692896821","","","","","","","","","","","","","","76","L","3","","","147","main_expt","",""
"","bandit","229","881850","0.0-189.0-0.0","26926124","wem/bandit_party_2","A2WYEOT1O3OXPS","either","5","579","","","","","","","0","0","1","","0.4877368026","0.8","0.6","0.4","0.2","0.4929714004","0.4258462921","0.733230793","0.4877368026","","","","","","","","","","","","","","76","L","3","","","148","main_expt","",""
"","bandit","230","883961","0.0-190.0-0.0","26926124","wem/bandit_party_2","A2WYEOT1O3OXPS","either","5","491","","","","","","","0","0","1","","0.5936336812","0.8","0.6","0.4","0.2","0.4356177925","0.327967402","0.7010449773","0.5936336812","","","","","","","","","","","","","","76","L","3","","","149","main_expt","",""
"","bandit","231","886059","0.0-191.0-0.0","26926124","wem/bandit_party_2","A2WYEOT1O3OXPS","either","5","539","","","","","","","0","1","0","","0.7027445866","0.8","0.6","0.4","0.2","0.4054894896","0.4343474627","0.6668672445","0.7027445866","","","","","","","","","","","","","","76","L","3","","","150","main_expt","",""
"","bandit","232","888180","0.0-192.0-0.0","26926124","wem/bandit_party_2","A2WYEOT1O3OXPS","either","5","561","","","","","","","0","1","0","","0.7690633033","0.8","0.6","0.4","0.2","0.5283130311","0.5382828223","0.5612636021","0.7690633033","","","","","","","","","","","","","","76","L","3","","","151","main_expt","",""
"","bandit","233","890200","0.0-193.0-0.0","26926124","wem/bandit_party_2","A2WYEOT1O3OXPS","either","5","471","","","","","","","0","1","0","","0.5989969619","0.8","0.6","0.4","0.2","0.6323123958","0.6572277468","0.7032448324","0.5989969619","","","","","","","","","","","","","","76","L","3","","","152","main_expt","",""
"","bandit","234","893192","0.0-194.0-0.0","26926124","wem/bandit_party_2","A2WYEOT1O3OXPS","either","5","1407","","","","","","","1","0","0","0.6126787421","","0.8","0.6","0.4","0.2","","","","","0.5847243132","0.668560183","0.6918543646","0.6126787421","","","","","","","","","","76","L","3","","","153","main_expt","",""
"","bandit","235","896206","0.0-195.0-0.0","26926124","wem/bandit_party_2","A2WYEOT1O3OXPS","either","5","1458","","","","","","","0","0","1","0.5461115941","","0.8","0.6","0.4","0.2","","","","","0.4285456013","0.6954524596","0.647195156","0.5461115941","","","","","","","","","","76","L","3","","","154","main_expt","",""
"","bandit","236","898191","0.0-196.0-0.0","26926124","wem/bandit_party_2","A2WYEOT1O3OXPS","either","5","435","","","","","","","0","0","1","","0.5456348337","0.8","0.6","0.4","0.2","0.4772645207","0.5684527538","0.6135998722","0.5456348337","","","","","","","","","","","","","","76","L","3","","","155","main_expt","",""
"","bandit","237","900106","0.0-197.0-0.0","26926124","wem/bandit_party_2","A2WYEOT1O3OXPS","either","5","369","","","","","","","0","1","0","","0.4782917504","0.8","0.6","0.4","0.2","0.4982711843","0.6034375159","0.5591033916","0.4782917504","","","","","","","","","","","","","","76","L","3","","","156","main_expt","",""
"","bandit","238","902271","0.0-198.0-0.0","26926124","wem/bandit_party_2","A2WYEOT1O3OXPS","either","5","579","","","","","","","0","1","0","","0.4868537485","0.8","0.6","0.4","0.2","0.5275183668","0.5835723018","0.5090787948","0.4868537485","","","","","","","","","","","","","","76","L","3","","","157","main_expt","",""
"","bandit","239","904196","0.0-199.0-0.0","26926124","wem/bandit_party_2","A2WYEOT1O3OXPS","either","5","380","","","","","","","0","1","0","","0.5361642224","0.8","0.6","0.4","0.2","0.4489423754","0.5234712835","0.6087372924","0.5361642224","","","","","","","","","","","","","","76","L","3","","","158","main_expt","",""
"","bandit","240","906145","0.0-200.0-0.0","26926124","wem/bandit_party_2","A2WYEOT1O3OXPS","either","5","408","","","","","","","0","1","0","","0.4947944436","0.8","0.6","0.4","0.2","0.4933275403","0.5636881177","0.6064578463","0.4947944436","","","","","","","","","","","","","","76","L","3","","","159","main_expt","",""
"","bandit","241","908081","0.0-201.0-0.0","26926124","wem/bandit_party_2","A2WYEOT1O3OXPS","either","5","392","","","","","","","0","1","0","","0.5106889885","0.8","0.6","0.4","0.2","0.4521998099","0.4785340868","0.6951258233","0.5106889885","","","","","","","","","","","","","","76","L","3","","","160","main_expt","",""
"","bandit","242","910068","0.0-202.0-0.0","26926124","wem/bandit_party_2","A2WYEOT1O3OXPS","either","5","378","","","","","","","0","0","1","","0.4566704777","0.8","0.6","0.4","0.2","0.5114636712","0.5038962889","0.7129510734","0.4566704777","","","","","","","","","","","","","","76","L","3","","","161","main_expt","",""
"","bandit","243","912028","0.0-203.0-0.0","26926124","wem/bandit_party_2","A2WYEOT1O3OXPS","either","5","419","","","","","","","0","0","1","0.3259271754","","0.8","0.6","0.4","0.2","","","","","0.5242674757","0.4448395692","0.7028034005","0.3259271754","","","","","","","","","","76","L","3","","","162","main_expt","",""
"","bandit","244","914097","0.0-204.0-0.0","26926124","wem/bandit_party_2","A2WYEOT1O3OXPS","either","5","525","","","","","","","0","0","1","","0.2806734392","0.8","0.6","0.4","0.2","0.5687322637","0.471982621","0.6293758899","0.2806734392","","","","","","","","","","","","","","76","L","3","","","163","main_expt","",""
"","bandit","245","916097","0.0-205.0-0.0","26926124","wem/bandit_party_2","A2WYEOT1O3OXPS","either","5","351","","","","","","","0","1","0","","0.2973163189","0.8","0.6","0.4","0.2","0.5635146256","0.6517066897","0.6813427096","0.2973163189","","","","","","","","","","","","","","76","L","3","","","164","main_expt","",""
"","bandit","246","917973","0.0-206.0-0.0","26926124","wem/bandit_party_2","A2WYEOT1O3OXPS","either","5","335","","","","","","","0","1","0","","0.2872552927","0.8","0.6","0.4","0.2","0.6588968294","0.6339143586","0.7231406025","0.2872552927","","","","","","","","","","","","","","76","L","3","","","165","main_expt","",""
"","bandit","247","920057","0.0-207.0-0.0","26926124","wem/bandit_party_2","A2WYEOT1O3OXPS","either","5","511","","","","","","","0","0","1","","0.325395791","0.8","0.6","0.4","0.2","0.74872254","0.6507743373","0.6274448994","0.325395791","","","","","","","","","","","","","","76","L","3","","","166","main_expt","",""
"","bandit","248","922073","0.0-208.0-0.0","26926124","wem/bandit_party_2","A2WYEOT1O3OXPS","either","5","478","","","","","","","1","0","0","0.3307719744","","0.8","0.6","0.4","0.2","","","","","0.7741304825","0.6753437353","0.6778384319","0.3307719744","","","","","","","","","","76","L","3","","","167","main_expt","",""
"","bandit","249","924219","0.0-209.0-0.0","26926124","wem/bandit_party_2","A2WYEOT1O3OXPS","either","5","606","","","","","","","0","0","1","","0.4033689778","0.8","0.6","0.4","0.2","0.8873722237","0.6308788189","0.6928942004","0.4033689778","","","","","","","","","","","","","","76","L","3","","","168","main_expt","",""
"","bandit","250","926580","0.0-210.0-0.0","26926124","wem/bandit_party_2","A2WYEOT1O3OXPS","either","5","816","","","","","","","0","0","1","","0.4089274666","0.8","0.6","0.4","0.2","0.8649989169","0.6289357746","0.6181376835","0.4089274666","","","","","","","","","","","","","","76","L","3","","","169","main_expt","",""
"","bandit","251","928540","0.0-211.0-0.0","26926124","wem/bandit_party_2","A2WYEOT1O3OXPS","either","5","407","","","","","","","0","0","1","","0.4033631647","0.8","0.6","0.4","0.2","0.8634323334","0.6308829817","0.6539136718","0.4033631647","","","","","","","","","","","","","","76","L","3","","","170","main_expt","",""
"","bandit","252","930641","0.0-212.0-0.0","26926124","wem/bandit_party_2","A2WYEOT1O3OXPS","either","5","555","","","","","","","0","1","0","","0.3743415885","0.8","0.6","0.4","0.2","0.8050812792","0.6008061885","0.7935188527","0.3743415885","","","","","","","","","","","","","","76","L","3","","","171","main_expt","",""
"","bandit","253","932575","0.0-213.0-0.0","26926124","wem/bandit_party_2","A2WYEOT1O3OXPS","either","5","391","","","","","","","0","0","1","","0.4145867416","0.8","0.6","0.4","0.2","0.7635000848","0.6498855282","0.7959482017","0.4145867416","","","","","","","","","","","","","","76","L","3","","","172","main_expt","",""
"","bandit","254","935160","0.0-214.0-0.0","26926124","wem/bandit_party_2","A2WYEOT1O3OXPS","either","5","734","","","","","","","1","0","0","0.4421490518","","0.8","0.6","0.4","0.2","","","","","0.7793560846","0.6361658802","0.7720377381","0.4421490518","","","","","","","","","","76","L","3","","","173","main_expt","",""
"","bandit","255","937108","0.0-215.0-0.0","26926124","wem/bandit_party_2","A2WYEOT1O3OXPS","either","5","301","","","","","","","0","0","1","0.373112653","","0.8","0.6","0.4","0.2","","","","","0.7290013271","0.5494915933","0.7751150559","0.373112653","","","","","","","","","","76","L","3","","","174","main_expt","",""
"","bandit","256","939444","0.0-216.0-0.0","26926124","wem/bandit_party_2","A2WYEOT1O3OXPS","either","5","782","","","","","","","0","0","1","","0.372221374","0.8","0.6","0.4","0.2","0.8353873757","0.6292002022","0.7699246652","0.372221374","","","","","","","","","","","","","","76","L","3","","","175","main_expt","",""
"","bandit","257","942599","0.0-217.0-0.0","26926124","wem/bandit_party_2","A2WYEOT1O3OXPS","either","5","1615","","","","","","","0","1","0","","0.3594456443","0.8","0.6","0.4","0.2","0.8589437223","0.4999600136","0.8092821718","0.3594456443","","","","","","","","","","","","","","76","L","3","","","176","main_expt","",""
"","bandit","258","944492","0.0-218.0-0.0","26926124","wem/bandit_party_2","A2WYEOT1O3OXPS","either","5","351","","","","","","","0","1","0","","0.3705823864","0.8","0.6","0.4","0.2","0.8824379228","0.4500304274","0.7728258073","0.3705823864","","","","","","","","","","","","","","76","L","3","","","177","main_expt","",""
"","bandit","259","947988","0.0-219.0-0.0","26926124","wem/bandit_party_2","A2WYEOT1O3OXPS","either","5","1955","","","","","","","0","0","1","","0.3042584581","0.8","0.6","0.4","0.2","0.8862787626","0.4626099748","0.8128952128","0.3042584581","","","","","","","","","","","","","","76","L","3","","","178","main_expt","",""
"","bandit","260","950007","0.0-220.0-0.0","26926124","wem/bandit_party_2","A2WYEOT1O3OXPS","either","5","479","","","","","","","0","0","1","0.3056645996","","0.8","0.6","0.4","0.2","","","","","0.8851661012","0.3074659707","0.7878088044","0.3056645996","","","","","","","","","","76","L","3","","","179","main_expt","",""
"","bandit","261","951927","0.0-221.0-0.0","26926124","wem/bandit_party_2","A2WYEOT1O3OXPS","either","5","378","","","","","","","1","0","0","0.3124458775","","0.8","0.6","0.4","0.2","","","","","0.8623840347","0.2445312817","0.7626215198","0.3124458775","","","","","","","","","","76","L","3","","","180","main_expt","",""
"","bandit","262","953902","0.0-222.0-0.0","26926124","wem/bandit_party_2","A2WYEOT1O3OXPS","either","5","407","","","","","","","0","0","1","0.2597333415","","0.8","0.6","0.4","0.2","","","","","0.8815853427","0.2284870313","0.7059637017","0.2597333415","","","","","","","","","","76","L","3","","","181","main_expt","",""
"","bandit","263","956382","0.0-223.0-0.0","26926124","wem/bandit_party_2","A2WYEOT1O3OXPS","either","5","861","","","","","","","0","0","1","","0.2117009826","0.8","0.6","0.4","0.2","0.8955826305","0.2195648065","0.6691747745","0.2117009826","","","","","","","","","","","","","","76","L","3","","","182","main_expt","",""
"","bandit","264","958718","0.0-224.0-0.0","26926124","wem/bandit_party_2","A2WYEOT1O3OXPS","either","5","783","","","","","","","0","0","1","","0.2327762041","0.8","0.6","0.4","0.2","0.9362873759","0.2327716204","0.5523838876","0.2327762041","","","","","","","","","","","","","","76","L","3","","","183","main_expt","",""
"","bandit","265","961052","0.0-225.0-0.0","26926124","wem/bandit_party_2","A2WYEOT1O3OXPS","either","5","749","","","","","","","0","1","0","","0.2750618684","0.8","0.6","0.4","0.2","0.9484326647","0.3207903029","0.5451875246","0.2750618684","","","","","","","","","","","","","","76","L","3","","","184","main_expt","",""
"","bandit","266","963406","0.0-226.0-0.0","26926124","wem/bandit_party_2","A2WYEOT1O3OXPS","either","5","795","","","","","","","0","0","1","","0.2305846964","0.8","0.6","0.4","0.2","0.9660783121","0.3609723674","0.6090771744","0.2305846964","","","","","","","","","","","","","","76","L","3","","","185","main_expt","",""
"","bandit","267","966283","0.0-227.0-0.0","26926124","wem/bandit_party_2","A2WYEOT1O3OXPS","either","5","348","","","","","","","0","0","1","0.2597669424","","0.8","0.6","0.4","0.2","","","","","0.9665376101","0.4442397518","0.5810996076","0.2597669424","","","","","","","","","","76","L","3","","","186","main_expt","",""
"","bandit","268","968617","0.0-228.0-0.0","26926124","wem/bandit_party_2","A2WYEOT1O3OXPS","either","5","780","","","","","","","0","0","1","","0.2143742246","0.8","0.6","0.4","0.2","0.9644184371","0.4478442549","0.4445572548","0.2143742246","","","","","","","","","","","","","","76","L","3","","","187","main_expt","",""
"","bandit","269","970692","0.0-229.0-0.0","26926124","wem/bandit_party_2","A2WYEOT1O3OXPS","either","5","515","","","","","","","0","0","1","","0.2294707647","0.8","0.6","0.4","0.2","0.9731237162","0.4026396634","0.4113554433","0.2294707647","","","","","","","","","","","","","","76","L","3","","","188","main_expt","",""
"","bandit","270","972600","0.0-230.0-0.0","26926124","wem/bandit_party_2","A2WYEOT1O3OXPS","either","5","357","","","","","","","0","0","1","","0.2469430613","0.8","0.6","0.4","0.2","0.9787475226","0.5072589837","0.4053553249","0.2469430613","","","","","","","","","","","","","","76","L","3","","","189","main_expt","",""
"","bandit","271","974497","0.0-231.0-0.0","26926124","wem/bandit_party_2","A2WYEOT1O3OXPS","either","5","350","","","","","","","0","0","1","","0.2437728268","0.8","0.6","0.4","0.2","0.9847816181","0.5234843415","0.4927633492","0.2437728268","","","","","","","","","","","","","","76","L","3","","","190","main_expt","",""
"","bandit","272","976585","0.0-232.0-0.0","26926124","wem/bandit_party_2","A2WYEOT1O3OXPS","either","5","336","","","","","","","0","0","1","","0.1655579887","0.8","0.6","0.4","0.2","0.9713064587","0.5054414672","0.428678546","0.1655579887","","","","","","","","","","","","","","76","L","3","","","191","main_expt","",""
"","bandit","273","978528","0.0-233.0-0.0","26926124","wem/bandit_party_2","A2WYEOT1O3OXPS","either","5","390","","","","","","","0","0","1","","0.1501427492","0.8","0.6","0.4","0.2","0.9558555722","0.7037613703","0.3358015867","0.1501427492","","","","","","","","","","","","","","76","L","3","","","192","main_expt","",""
"","bandit","274","980572","0.0-234.0-0.0","26926124","wem/bandit_party_2","A2WYEOT1O3OXPS","either","5","493","","","","","","","1","0","0","0.2062706367","","0.8","0.6","0.4","0.2","","","","","0.9443800135","0.5980286963","0.2816430679","0.2062706367","","","","","","","","","","76","L","3","","","193","main_expt","",""
"","bandit","275","982622","0.0-235.0-0.0","26926124","wem/bandit_party_2","A2WYEOT1O3OXPS","either","5","504","","","","","","","1","0","0","0.2782937815","","0.8","0.6","0.4","0.2","","","","","0.947825408","0.5607231578","0.2951519504","0.2782937815","","","","","","","","","","76","L","3","","","194","main_expt","",""
"","bandit","276","984663","0.0-236.0-0.0","26926124","wem/bandit_party_2","A2WYEOT1O3OXPS","either","5","456","","","","","","","0","0","1","","0.2393938873","0.8","0.6","0.4","0.2","0.9531013361","0.6222063369","0.2482291913","0.2393938873","","","","","","","","","","","","","","76","L","3","","","195","main_expt","",""
"","bandit","277","986724","0.0-237.0-0.0","26926124","wem/bandit_party_2","A2WYEOT1O3OXPS","either","5","514","","","","","","","0","0","1","0.3385483064","","0.8","0.6","0.4","0.2","","","","","0.9653581558","0.7092042058","0.2548661126","0.3385483064","","","","","","","","","","76","L","3","","","196","main_expt","",""
"","bandit","278","988755","0.0-238.0-0.0","26926124","wem/bandit_party_2","A2WYEOT1O3OXPS","either","5","319","","","","","","","0","0","1","","0.3474357388","0.8","0.6","0.4","0.2","0.9774234012","0.7397780251","0.2789697966","0.3474357388","","","","","","","","","","","","","","76","L","3","","","197","main_expt","",""
"","bandit","279","990677","0.0-239.0-0.0","26926124","wem/bandit_party_2","A2WYEOT1O3OXPS","either","5","322","","","","","","","0","0","1","","0.4511600961","0.8","0.6","0.4","0.2","0.9866112083","0.6977166648","0.2893473624","0.4511600961","","","","","","","","","","","","","","76","L","3","","","198","main_expt","",""
"","bandit","280","992554","0.0-240.0-0.0","26926124","wem/bandit_party_2","A2WYEOT1O3OXPS","either","5","334","","","","","","","0","1","0","","0.4387406867","0.8","0.6","0.4","0.2","0.9889390623","0.591703898","0.2499124536","0.4387406867","","","","","","","","","","","","","","76","L","3","","","199","main_expt","",""
"","bandit","281","994897","0.0-241.0-0.0","26926124","wem/bandit_party_2","A2WYEOT1O3OXPS","either","5","793","","","","","","","0","1","0","","0.4368135332","0.8","0.6","0.4","0.2","0.9894921125","0.5107967375","0.2643429758","0.4368135332","","","","","","","","","","","","","","76","L","3","","","200","main_expt","",""
"","bandit","282","997009","0.0-242.0-0.0","26926124","wem/bandit_party_2","A2WYEOT1O3OXPS","either","5","545","","","","","","","0","0","1","","0.3070084091","0.8","0.6","0.4","0.2","0.989248002","0.6528148869","0.2382870841","0.3070084091","","","","","","","","","","","","","","76","L","3","","","201","main_expt","",""
"","bandit","283","999366","0.0-243.0-0.0","26926124","wem/bandit_party_2","A2WYEOT1O3OXPS","either","5","437","","","","","","","0","0","1","","0.3603585946","0.8","0.6","0.4","0.2","0.9957983392","0.6892998309","0.1604624283","0.3603585946","","","","","","","","","","","","","","76","L","3","","","202","main_expt","",""
"","bandit","284","1001795","0.0-244.0-0.0","26926124","wem/bandit_party_2","A2WYEOT1O3OXPS","either","5","764","","","","","","","1","0","0","0.260320329","","0.8","0.6","0.4","0.2","","","","","0.9958893","0.6989476798","0.1407610566","0.260320329","","","","","","","","","","76","L","3","","","203","main_expt","",""
"","bandit","285","1003893","0.0-245.0-0.0","26926124","wem/bandit_party_2","A2WYEOT1O3OXPS","either","5","481","","","","","","","0","0","1","0.2003029851","","0.8","0.6","0.4","0.2","","","","","0.9955962674","0.772264117","0.1343245238","0.2003029851","","","","","","","","","","76","L","3","","","204","main_expt","",""
"","bandit","286","1006236","0.0-246.0-0.0","26926124","wem/bandit_party_2","A2WYEOT1O3OXPS","either","5","776","","","","","","","0","0","1","","0.1922312923","0.8","0.6","0.4","0.2","0.9943432705","0.7366863645","0.1715400642","0.1922312923","","","","","","","","","","","","","","76","L","3","","","205","main_expt","",""
"","bandit","287","1008298","0.0-247.0-0.0","26926124","wem/bandit_party_2","A2WYEOT1O3OXPS","either","5","502","","","","","","","0","0","1","","0.1936085521","0.8","0.6","0.4","0.2","0.9982320458","0.7477287432","0.117617648","0.1936085521","","","","","","","","","","","","","","76","L","3","","","206","main_expt","",""
"","bandit","288","1010553","0.0-248.0-0.0","26926124","wem/bandit_party_2","A2WYEOT1O3OXPS","either","5","689","","","","","","","0","0","1","","0.1821705986","0.8","0.6","0.4","0.2","0.9976530308","0.8185776196","0.1182717864","0.1821705986","","","","","","","","","","","","","","76","L","3","","","207","main_expt","",""
"","bandit","289","1012599","0.0-249.0-0.0","26926124","wem/bandit_party_2","A2WYEOT1O3OXPS","either","5","439","","","","","","","0","0","1","","0.1145050302","0.8","0.6","0.4","0.2","0.9961811318","0.8161769506","0.1445047472","0.1145050302","","","","","","","","","","","","","","76","L","3","","","208","main_expt","",""
"","bandit","290","1015325","0.0-250.0-0.0","26926124","wem/bandit_party_2","A2WYEOT1O3OXPS","either","5","1173","","","","","","","0","0","1","","0.1206637037","0.8","0.6","0.4","0.2","0.9977639941","0.8224464957","0.1264159314","0.1206637037","","","","","","","","","","","","","","76","L","3","","","209","main_expt","",""
"","bandit","291","1017652","0.0-251.0-0.0","26926124","wem/bandit_party_2","A2WYEOT1O3OXPS","either","5","755","","","","","","","0","0","1","","0.1422927172","0.8","0.6","0.4","0.2","0.9953783407","0.7392866018","0.1208777168","0.1422927172","","","","","","","","","","","","","","76","L","3","","","210","main_expt","",""
"","bandit","292","1020992","0.0-252.0-0.0","26926124","wem/bandit_party_2","A2WYEOT1O3OXPS","either","5","1785","","","","","","","1","0","0","0.1811219169","","0.8","0.6","0.4","0.2","","","","","0.9976351195","0.7125411919","0.1733448518","0.1811219169","","","","","","","","","","76","L","3","","","211","main_expt","",""
"","bandit","293","1024892","0.0-253.0-0.0","26926124","wem/bandit_party_2","A2WYEOT1O3OXPS","either","5","2172","","","","","","","0","0","1","","0.1982527665","0.8","0.6","0.4","0.2","0.9983589292","0.7191881067","0.1085262221","0.1982527665","","","","","","","","","","","","","","76","L","3","","","212","main_expt","",""
"","bandit","294","1027491","0.0-254.0-0.0","26926124","wem/bandit_party_2","A2WYEOT1O3OXPS","either","5","1033","","","","","","","0","0","1","","0.124448309","0.8","0.6","0.4","0.2","0.9960427138","0.7523845147","0.08145678985","0.124448309","","","","","","","","","","","","","","76","L","3","","","213","main_expt","",""
"","bandit","295","1030928","0.0-255.0-0.0","26926124","wem/bandit_party_2","A2WYEOT1O3OXPS","either","5","1874","","","","","","","0","0","1","","0.1036015692","0.8","0.6","0.4","0.2","0.9924650588","0.7193420906","0.05725631888","0.1036015692","","","","","","","","","","","","","","76","L","3","","","214","main_expt","",""
"","bandit","296","1034667","0.0-256.0-0.0","26926124","wem/bandit_party_2","A2WYEOT1O3OXPS","either","5","2177","","","","","","","0","0","1","","0.14458031","0.8","0.6","0.4","0.2","0.9858211903","0.6784461291","0.04356988172","0.14458031","","","","","","","","","","","","","","76","L","3","","","215","main_expt","",""
"","bandit","297","1040250","0.0-257.0-0.0","26926124","wem/bandit_party_2","A2WYEOT1O3OXPS","either","5","3922","","","","","","","0","1","0","","0.2094876981","0.8","0.6","0.4","0.2","0.9915289077","0.5658185063","0.04316154837","0.2094876981","","","","","","","","","","","","","","76","L","3","","","216","main_expt","",""
"","bandit","298","1042259","0.0-258.0-0.0","26926124","wem/bandit_party_2","A2WYEOT1O3OXPS","either","5","444","","","","","","","0","1","0","","0.24936904","0.8","0.6","0.4","0.2","0.9929544916","0.4886301847","0.03453558383","0.24936904","","","","","","","","","","","","","","76","L","3","","","217","main_expt","",""
"","bandit","299","1044289","0.0-259.0-0.0","26926124","wem/bandit_party_2","A2WYEOT1O3OXPS","either","5","465","","","","","","","0","0","1","","0.2006789107","0.8","0.6","0.4","0.2","0.9741721496","0.5674985979","0.03800932399","0.2006789107","","","","","","","","","","","","","","76","L","3","","","218","main_expt","",""
"","bandit","300","1047672","0.0-260.0-0.0","26926124","wem/bandit_party_2","A2WYEOT1O3OXPS","either","5","1824","","","","","","","0","0","1","0.2118480588","","0.8","0.6","0.4","0.2","","","","","0.9413517393","0.6088772151","0.07914639327","0.2118480588","","","","","","","","","","76","L","3","","","219","main_expt","",""
"","bandit","301","1050681","0.0-261.0-0.0","26926124","wem/bandit_party_2","A2WYEOT1O3OXPS","either","5","1322","","","","","","","0","0","1","","0.2159213458","0.8","0.6","0.4","0.2","0.9230346446","0.5856238885","0.07044987786","0.2159213458","","","","","","","","","","","","","","76","L","3","","","220","main_expt","",""
"","bandit","302","1054096","0.0-262.0-0.0","26926124","wem/bandit_party_2","A2WYEOT1O3OXPS","either","5","1858","","","","","","","0","1","0","","0.2097338805","0.8","0.6","0.4","0.2","0.9216350241","0.6601978635","0.1351506501","0.2097338805","","","","","","","","","","","","","","76","L","3","","","221","main_expt","",""
"","bandit","303","1056548","0.0-263.0-0.0","26926124","wem/bandit_party_2","A2WYEOT1O3OXPS","either","5","900","","","","","","","0","0","1","","0.1468233299","0.8","0.6","0.4","0.2","0.9093406134","0.6540659739","0.2099108548","0.1468233299","","","","","","","","","","","","","","76","L","3","","","222","main_expt","",""
"","bandit","304","1058379","0.0-264.0-0.0","26926124","wem/bandit_party_2","A2WYEOT1O3OXPS","either","5","283","","","","","","","0","0","1","","0.1379540926","0.8","0.6","0.4","0.2","0.8361447498","0.7010542315","0.2971693323","0.1379540926","","","","","","","","","","","","","","76","L","3","","","223","main_expt","",""
"","bandit","305","1060430","0.0-265.0-0.0","26926124","wem/bandit_party_2","A2WYEOT1O3OXPS","either","5","508","","","","","","","0","0","1","","0.1943723139","0.8","0.6","0.4","0.2","0.8626161161","0.7972730751","0.2754671199","0.1943723139","","","","","","","","","","","","","","76","L","3","","","224","main_expt","",""
"","bandit","306","1062306","0.0-266.0-0.0","26926124","wem/bandit_party_2","A2WYEOT1O3OXPS","either","5","325","","","","","","","0","0","1","","0.2949344278","0.8","0.6","0.4","0.2","0.9176165053","0.8726314772","0.2483133052","0.2949344278","","","","","","","","","","","","","","76","L","3","","","225","main_expt","",""
"","bandit","307","1064357","0.0-267.0-0.0","26926124","wem/bandit_party_2","A2WYEOT1O3OXPS","either","5","496","","","","","","","0","0","1","","0.4040967375","0.8","0.6","0.4","0.2","0.9516545376","0.8569150835","0.2945032007","0.4040967375","","","","","","","","","","","","","","76","L","3","","","226","main_expt","",""
"","bandit","308","1066368","0.0-268.0-0.0","26926124","wem/bandit_party_2","A2WYEOT1O3OXPS","either","5","467","","","","","","","0","0","1","","0.4369809926","0.8","0.6","0.4","0.2","0.9448551655","0.8773762417","0.2544933329","0.4369809926","","","","","","","","","","","","","","76","L","3","","","227","main_expt","",""
"","bandit","309","1068461","0.0-269.0-0.0","26926124","wem/bandit_party_2","A2WYEOT1O3OXPS","either","5","548","","","","","","","0","1","0","","0.4228749262","0.8","0.6","0.4","0.2","0.9298030406","0.8514828757","0.22227057","0.4228749262","","","","","","","","","","","","","","76","L","3","","","228","main_expt","",""
"","bandit","310","1070618","0.0-270.0-0.0","26926124","wem/bandit_party_2","A2WYEOT1O3OXPS","either","5","611","","","","","","","0","0","1","","0.4953143479","0.8","0.6","0.4","0.2","0.9022116856","0.893786405","0.2319557967","0.4953143479","","","","","","","","","","","","","","76","L","3","","","229","main_expt","",""
"","bandit","311","1072484","0.0-271.0-0.0","26926124","wem/bandit_party_2","A2WYEOT1O3OXPS","either","5","315","","","","","","","1","0","0","0.4752889979","","0.8","0.6","0.4","0.2","","","","","0.8934587516","0.9350514117","0.3107577299","0.4752889979","","","","","","","","","","76","L","3","","","230","main_expt","",""
"","bandit","312","1074696","0.0-272.0-0.0","26926124","wem/bandit_party_2","A2WYEOT1O3OXPS","either","5","660","","","","","","","0","0","1","","0.4887049862","0.8","0.6","0.4","0.2","0.8403693225","0.9139197991","0.3046703461","0.4887049862","","","","","","","","","","","","","","76","L","3","","","231","main_expt","",""
"","bandit","313","1076729","0.0-273.0-0.0","26926124","wem/bandit_party_2","A2WYEOT1O3OXPS","either","5","481","","","","","","","0","1","0","","0.6065944358","0.8","0.6","0.4","0.2","0.7373772703","0.8753904063","0.4259459217","0.6065944358","","","","","","","","","","","","","","76","L","3","","","232","main_expt","",""
"","bandit","314","1079689","0.0-274.0-0.0","26926124","wem/bandit_party_2","A2WYEOT1O3OXPS","either","5","1415","","","","","","","0","1","0","","0.5320380184","0.8","0.6","0.4","0.2","0.7275490615","0.807664976","0.3391655585","0.5320380184","","","","","","","","","","","","","","76","L","3","","","233","main_expt","",""
"","bandit","315","1081689","0.0-275.0-0.0","26926124","wem/bandit_party_2","A2WYEOT1O3OXPS","either","5","453","","","","","","","0","0","1","","0.5845689413","0.8","0.6","0.4","0.2","0.6910989812","0.817303243","0.3380141995","0.5845689413","","","","","","","","","","","","","","76","L","3","","","234","main_expt","",""
"","bandit","316","1084846","0.0-276.0-0.0","26926124","wem/bandit_party_2","A2WYEOT1O3OXPS","either","5","1611","","","","","","","0","1","0","","0.4424117598","0.8","0.6","0.4","0.2","0.6506848601","0.8320050337","0.2949514339","0.4424117598","","","","","","","","","","","","","","76","L","3","","","235","main_expt","",""
