"consent","trial_type","trial_index","time_elapsed","internal_node_id","subjID","study","MID","cond","drift","rt","responses","button_pressed","key_press","like","value","connected","gems","bombs","no_reward","GemPrChosen","BombPrChosen","GainOverPainPr_0","GainOverPainPr_1","GainOverPainPr_2","GainOverPainPr_3","LosePr_0","LosePr_1","LosePr_2","LosePr_3","WinPr_0","WinPr_1","WinPr_2","WinPr_3","Q0","Q1","Q2","gender","age","ethnicity","label","expt_phase","target","respCharCode","respKey","respChoiceNum","respChoice","practice","trial_counter","trial_label","Q0_index"
"GDM/GDM_behavioral_consent_30min_online.html","consent","0","4607","0.0-0.0","27460262","wem/bandit_party_2","A2YDA5EGPSTMCC","either","3","","","","","","","","","","","","","","","","","","","","","","","","","","","","","","","","","","","","","","","","",""
"","survey-text","1","8104","0.0-1.0","27460262","wem/bandit_party_2","A2YDA5EGPSTMCC","either","3","2489","{""Q0"":""A2YDA5EGPSTMCC""}","","","","","","","","","","","","","","","","","","","","","","","","","","","","","","","","","","","","","","",""
"","button-response","2","11360","0.0-2.0","27460262","wem/bandit_party_2","A2YDA5EGPSTMCC","either","3","2251","","2","","","","","","","","","","","","","","","","","","","","","","","","","","","","","","","","","","","","","",""
"","text-replacement","3","16581","0.0-3.0","27460262","wem/bandit_party_2","A2YDA5EGPSTMCC","either","3","4217","","","32","","","","","","","","","","","","","","","","","","","","","","","","","","","","","","","","","","","","",""
"","text-replacement","4","19920","0.0-4.0","27460262","wem/bandit_party_2","A2YDA5EGPSTMCC","either","3","3337","","","32","","","","","","","","","","","","","","","","","","","","","","","","","","","","","","","","","","","","",""
"","text-replacement","5","20490","0.0-5.0-0.0","27460262","wem/bandit_party_2","A2YDA5EGPSTMCC","either","3","567","","","32","","","","","","","","","","","","","","","","","","","","","","","","","","","","","","","","","","","","",""
"","identification","6","24352","0.0-6.0-0.0","27460262","wem/bandit_party_2","A2YDA5EGPSTMCC","either","3","3839","","","","1","1","0","","","","","","","","","","","","","","","","","","","","","","","","pre","identification_pre","the Republican Party","","","","","","","",""
"","identification","7","28294","0.0-6.0-1.0","27460262","wem/bandit_party_2","A2YDA5EGPSTMCC","either","3","2934","","","","3","4","4","","","","","","","","","","","","","","","","","","","","","","","","pre","identification_pre","the Democratic Party","","","","","","","",""
"","text-replacement","8","31209","0.0-7.0","27460262","wem/bandit_party_2","A2YDA5EGPSTMCC","either","3","1890","","","32","","","","","","","","","","","","","","","","","","","","","","","","","","","","","","","","","","","","",""
"","text-replacement","9","33070","0.0-8.0","27460262","wem/bandit_party_2","A2YDA5EGPSTMCC","either","3","1857","","","32","","","","","","","","","","","","","","","","","","","","","","","","","","","","","","","","","","","","",""
"","text-replacement","10","37474","0.0-9.0","27460262","wem/bandit_party_2","A2YDA5EGPSTMCC","either","3","4400","","","32","","","","","","","","","","","","","","","","","","","","","","","","","","","","","","","","","","","","",""
"","text-replacement","11","38440","0.0-10.0","27460262","wem/bandit_party_2","A2YDA5EGPSTMCC","either","3","964","","","32","","","","","","","","","","","","","","","","","","","","","","","","","","","","","","","","","","","","",""
"","text-replacement","12","38850","0.0-11.0","27460262","wem/bandit_party_2","A2YDA5EGPSTMCC","either","3","408","","","32","","","","","","","","","","","","","","","","","","","","","","","","","","","","","","","","","","","","",""
"","bandit","13","42316","0.0-12.0-0.0","27460262","wem/bandit_party_2","A2YDA5EGPSTMCC","either","3","1957","","","","","","","0","0","1","0","0","","","","","0","","","","0","","","","","","","","","","","","","74","J","0","img/none_selected_demo.jpg","true","0","",""
"","bandit","14","44554","0.0-13.0-0.0","27460262","wem/bandit_party_2","A2YDA5EGPSTMCC","either","3","726","","","","","","","0","0","1","0","0","","","","","0","","","","0","","","","","","","","","","","","","75","K","0","img/none_selected_demo.jpg","true","0","",""
"","text-replacement","15","45999","0.0-14.0","27460262","wem/bandit_party_2","A2YDA5EGPSTMCC","either","3","1443","","","32","","","","","","","","","","","","","","","","","","","","","","","","","","","","","","","","","","","","",""
"","text-replacement","16","46380","0.0-15.0","27460262","wem/bandit_party_2","A2YDA5EGPSTMCC","either","3","379","","","32","","","","","","","","","","","","","","","","","","","","","","","","","","","","","","","","","","","","",""
"","text-replacement","17","46700","0.0-16.0","27460262","wem/bandit_party_2","A2YDA5EGPSTMCC","either","3","319","","","32","","","","","","","","","","","","","","","","","","","","","","","","","","","","","","","","","","","","",""
"","text-replacement","18","47149","0.0-17.0","27460262","wem/bandit_party_2","A2YDA5EGPSTMCC","either","3","449","","","32","","","","","","","","","","","","","","","","","","","","","","","","","","","","","","","","","","","","",""
"","bandit","19","49235","0.0-18.0-0.0","27460262","wem/bandit_party_2","A2YDA5EGPSTMCC","either","3","580","","","","","","","0","0","1","","0.2","0.5","0.5","","","0.8","0.2","","","","","","","","","","","","","","","","75","K","1","","true","0","80_20_practice",""
"","bandit","20","50843","0.0-18.0-1.0","27460262","wem/bandit_party_2","A2YDA5EGPSTMCC","either","3","103","","","","","","","0","0","1","","0.8","0.5","0.5","","","0.8","0.2","","","","","","","","","","","","","","","","74","J","0","img/none_selected_demo.jpg","true","0","80_20_practice",""
"","bandit","21","52599","0.0-18.0-2.0","27460262","wem/bandit_party_2","A2YDA5EGPSTMCC","either","3","245","","","","","","","1","0","0","0.8","","0.5","0.5","","","","","","","0.8","0.2","","","","","","","","","","","","74","J","0","img/none_selected_demo.jpg","true","0","80_20_practice",""
"","bandit","22","54173","0.0-18.0-3.0","27460262","wem/bandit_party_2","A2YDA5EGPSTMCC","either","3","69","","","","","","","0","0","1","0.2","","0.5","0.5","","","","","","","0.8","0.2","","","","","","","","","","","","75","K","1","","true","0","80_20_practice",""
"","bandit","23","55782","0.0-18.0-4.0","27460262","wem/bandit_party_2","A2YDA5EGPSTMCC","either","3","104","","","","","","","0","1","0","","0.2","0.5","0.5","","","0.8","0.2","","","","","","","","","","","","","","","","75","K","1","","true","0","80_20_practice",""
"","bandit","24","57382","0.0-18.0-5.0","27460262","wem/bandit_party_2","A2YDA5EGPSTMCC","either","3","95","","","","","","","0","0","1","","0.8","0.5","0.5","","","0.8","0.2","","","","","","","","","","","","","","","","74","J","0","img/none_selected_demo.jpg","true","0","80_20_practice",""
"","bandit","25","58943","0.0-18.0-6.0","27460262","wem/bandit_party_2","A2YDA5EGPSTMCC","either","3","56","","","","","","","0","0","1","","0.8","0.5","0.5","","","0.8","0.2","","","","","","","","","","","","","","","","74","J","0","img/none_selected_demo.jpg","true","0","80_20_practice",""
"","bandit","26","61204","0.0-18.0-7.0","27460262","wem/bandit_party_2","A2YDA5EGPSTMCC","either","3","756","","","","","","","1","0","0","0.8","","0.5","0.5","","","","","","","0.8","0.2","","","","","","","","","","","","74","J","0","img/none_selected_demo.jpg","true","0","80_20_practice",""
"","bandit","27","62842","0.0-18.0-8.0","27460262","wem/bandit_party_2","A2YDA5EGPSTMCC","either","3","133","","","","","","","0","1","0","","0.2","0.5","0.5","","","0.8","0.2","","","","","","","","","","","","","","","","75","K","1","","true","0","80_20_practice",""
"","bandit","28","64731","0.0-18.0-9.0","27460262","wem/bandit_party_2","A2YDA5EGPSTMCC","either","3","385","","","","","","","0","1","0","","0.2","0.5","0.5","","","0.8","0.2","","","","","","","","","","","","","","","","75","K","1","","true","0","80_20_practice",""
"","bandit","29","66570","0.0-18.0-10.0","27460262","wem/bandit_party_2","A2YDA5EGPSTMCC","either","3","306","","","","","","","0","0","1","","0.2","0.5","0.5","","","0.8","0.2","","","","","","","","","","","","","","","","75","K","1","","true","0","80_20_practice",""
"","bandit","30","68611","0.0-18.0-11.0","27460262","wem/bandit_party_2","A2YDA5EGPSTMCC","either","3","536","","","","","","","0","0","1","0.2","","0.5","0.5","","","","","","","0.8","0.2","","","","","","","","","","","","75","K","1","","true","0","80_20_practice",""
"","bandit","31","70392","0.0-18.0-12.0","27460262","wem/bandit_party_2","A2YDA5EGPSTMCC","either","3","277","","","","","","","1","0","0","0.2","","0.5","0.5","","","","","","","0.8","0.2","","","","","","","","","","","","75","K","1","","true","0","80_20_practice",""
"","bandit","32","71932","0.0-18.0-13.0","27460262","wem/bandit_party_2","A2YDA5EGPSTMCC","either","3","33","","","","","","","1","0","0","0.8","","0.5","0.5","","","","","","","0.8","0.2","","","","","","","","","","","","74","J","0","img/none_selected_demo.jpg","true","0","80_20_practice",""
"","bandit","33","73823","0.0-18.0-14.0","27460262","wem/bandit_party_2","A2YDA5EGPSTMCC","either","3","386","","","","","","","0","1","0","","0.8","0.5","0.5","","","0.8","0.2","","","","","","","","","","","","","","","","74","J","0","img/none_selected_demo.jpg","true","0","80_20_practice",""
"","bandit","34","75842","0.0-18.0-15.0","27460262","wem/bandit_party_2","A2YDA5EGPSTMCC","either","3","513","","","","","","","1","0","0","0.8","","0.5","0.5","","","","","","","0.8","0.2","","","","","","","","","","","","74","J","0","img/none_selected_demo.jpg","true","0","80_20_practice",""
"","bandit","35","78031","0.0-18.0-16.0","27460262","wem/bandit_party_2","A2YDA5EGPSTMCC","either","3","684","","","","","","","0","0","1","0.8","","0.5","0.5","","","","","","","0.8","0.2","","","","","","","","","","","","74","J","0","img/none_selected_demo.jpg","true","0","80_20_practice",""
"","bandit","36","79781","0.0-18.0-17.0","27460262","wem/bandit_party_2","A2YDA5EGPSTMCC","either","3","245","","","","","","","1","0","0","0.8","","0.5","0.5","","","","","","","0.8","0.2","","","","","","","","","","","","74","J","0","img/none_selected_demo.jpg","true","0","80_20_practice",""
"","bandit","37","81292","0.0-18.0-18.0","27460262","wem/bandit_party_2","A2YDA5EGPSTMCC","either","3","5","","","","","","","0","0","1","","0.2","0.5","0.5","","","0.8","0.2","","","","","","","","","","","","","","","","75","K","1","","true","0","80_20_practice",""
"","bandit","38","83202","0.0-18.0-19.0","27460262","wem/bandit_party_2","A2YDA5EGPSTMCC","either","3","406","","","","","","","1","0","0","0.8","","0.5","0.5","","","","","","","0.8","0.2","","","","","","","","","","","","74","J","0","img/none_selected_demo.jpg","true","0","80_20_practice",""
"","text-replacement","39","97329","0.0-19.0","27460262","wem/bandit_party_2","A2YDA5EGPSTMCC","either","3","14126","","","32","","","","","","","","","","","","","","","","","","","","","","","","","","","","","","","","","","","","",""
"","bandit","40","99451","0.0-20.0-0.0","27460262","wem/bandit_party_2","A2YDA5EGPSTMCC","either","3","616","","","","","","","0","1","0","0","1","","","","","0","1","","","1","0","","","","","","","","","","","","75","K","1","","true","0","",""
"","text-replacement","41","99739","0.0-21.0","27460262","wem/bandit_party_2","A2YDA5EGPSTMCC","either","3","286","","","74","","","","","","","","","","","","","","","","","","","","","","","","","","","","","","","","","","","","",""
"","text-replacement","42","100550","0.0-22.0","27460262","wem/bandit_party_2","A2YDA5EGPSTMCC","either","3","809","","","32","","","","","","","","","","","","","","","","","","","","","","","","","","","","","","","","","","","","",""
"","text-replacement","43","100925","0.0-23.0","27460262","wem/bandit_party_2","A2YDA5EGPSTMCC","either","3","371","","","32","","","","","","","","","","","","","","","","","","","","","","","","","","","","","","","","","","","","",""
"","text-replacement","44","101299","0.0-24.0","27460262","wem/bandit_party_2","A2YDA5EGPSTMCC","either","3","373","","","32","","","","","","","","","","","","","","","","","","","","","","","","","","","","","","","","","","","","",""
"","text-replacement","45","101969","0.0-25.0","27460262","wem/bandit_party_2","A2YDA5EGPSTMCC","either","3","669","","","32","","","","","","","","","","","","","","","","","","","","","","","","","","","","","","","","","","","","",""
"","text-replacement","46","102220","0.0-26.0","27460262","wem/bandit_party_2","A2YDA5EGPSTMCC","either","3","249","","","32","","","","","","","","","","","","","","","","","","","","","","","","","","","","","","","","","","","","",""
"","text-replacement","47","102459","0.0-27.0","27460262","wem/bandit_party_2","A2YDA5EGPSTMCC","either","3","238","","","32","","","","","","","","","","","","","","","","","","","","","","","","","","","","","","","","","","","","",""
"","text-replacement","48","102729","0.0-28.0","27460262","wem/bandit_party_2","A2YDA5EGPSTMCC","either","3","269","","","32","","","","","","","","","","","","","","","","","","","","","","","","","","","","","","","","","","","","",""
"","text-replacement","49","102970","0.0-29.0","27460262","wem/bandit_party_2","A2YDA5EGPSTMCC","either","3","239","","","32","","","","","","","","","","","","","","","","","","","","","","","","","","","","","","","","","","","","",""
"","text-replacement","50","103268","0.0-30.0","27460262","wem/bandit_party_2","A2YDA5EGPSTMCC","either","3","297","","","32","","","","","","","","","","","","","","","","","","","","","","","","","","","","","","","","","","","","",""
"","text-replacement","51","103879","0.0-31.0","27460262","wem/bandit_party_2","A2YDA5EGPSTMCC","either","3","609","","","32","","","","","","","","","","","","","","","","","","","","","","","","","","","","","","","","","","","","",""
"","bandit","52","106164","0.0-32.0-0.0","27460262","wem/bandit_party_2","A2YDA5EGPSTMCC","either","3","778","","","","","","","0","0","1","","0.2","0.5","0.5","0.5","0.5","0.8","0.2","0.6","0.2","","","","","","","","","","","","","","76","L","3","","true","0","full_practice",""
"","bandit","53","107701","0.0-32.0-1.0","27460262","wem/bandit_party_2","A2YDA5EGPSTMCC","either","3","33","","","","","","","0","0","1","0.2","","0.5","0.5","0.5","0.5","","","","","0.8","0.2","0.6","0.2","","","","","","","","","","74","J","1","","true","0","full_practice",""
"","bandit","54","109478","0.0-32.0-2.0","27460262","wem/bandit_party_2","A2YDA5EGPSTMCC","either","3","266","","","","","","","0","0","1","","0.6","0.5","0.5","0.5","0.5","0.8","0.2","0.6","0.2","","","","","","","","","","","","","","75","K","2","","true","0","full_practice",""
"","bandit","55","110997","0.0-32.0-3.0","27460262","wem/bandit_party_2","A2YDA5EGPSTMCC","either","3","14","","","","","","","0","0","1","","0.6","0.5","0.5","0.5","0.5","0.8","0.2","0.6","0.2","","","","","","","","","","","","","","75","K","2","","true","0","full_practice",""
"","bandit","56","113267","0.0-32.0-4.0","27460262","wem/bandit_party_2","A2YDA5EGPSTMCC","either","3","290","","","","","","","1","0","0","0.8","","0.5","0.5","0.5","0.5","","","","","0.8","0.2","0.6","0.2","","","","","","","","","","72","H","0","img/none_selected.jpg","true","0","full_practice",""
"","bandit","57","117274","0.0-32.0-5.0","27460262","wem/bandit_party_2","A2YDA5EGPSTMCC","either","3","2499","","","","","","","0","1","0","","0.8","0.5","0.5","0.5","0.5","0.8","0.2","0.6","0.2","","","","","","","","","","","","","","72","H","0","img/none_selected.jpg","true","0","full_practice",""
"","bandit","58","119474","0.0-32.0-6.0","27460262","wem/bandit_party_2","A2YDA5EGPSTMCC","either","3","692","","","","","","","1","0","0","0.2","","0.5","0.5","0.5","0.5","","","","","0.8","0.2","0.6","0.2","","","","","","","","","","76","L","3","","true","0","full_practice",""
"","bandit","59","121782","0.0-32.0-7.0","27460262","wem/bandit_party_2","A2YDA5EGPSTMCC","either","3","802","","","","","","","0","0","1","0.2","","0.5","0.5","0.5","0.5","","","","","0.8","0.2","0.6","0.2","","","","","","","","","","74","J","1","","true","0","full_practice",""
"","bandit","60","123491","0.0-32.0-8.0","27460262","wem/bandit_party_2","A2YDA5EGPSTMCC","either","3","204","","","","","","","0","0","1","0.2","","0.5","0.5","0.5","0.5","","","","","0.8","0.2","0.6","0.2","","","","","","","","","","76","L","3","","true","0","full_practice",""
"","bandit","61","125192","0.0-32.0-9.0","27460262","wem/bandit_party_2","A2YDA5EGPSTMCC","either","3","197","","","","","","","0","1","0","","0.6","0.5","0.5","0.5","0.5","0.8","0.2","0.6","0.2","","","","","","","","","","","","","","75","K","2","","true","0","full_practice",""
"","bandit","62","127123","0.0-32.0-10.0","27460262","wem/bandit_party_2","A2YDA5EGPSTMCC","either","3","425","","","","","","","0","1","0","","0.8","0.5","0.5","0.5","0.5","0.8","0.2","0.6","0.2","","","","","","","","","","","","","","72","H","0","img/none_selected.jpg","true","0","full_practice",""
"","bandit","63","129132","0.0-32.0-11.0","27460262","wem/bandit_party_2","A2YDA5EGPSTMCC","either","3","504","","","","","","","0","0","1","","0.2","0.5","0.5","0.5","0.5","0.8","0.2","0.6","0.2","","","","","","","","","","","","","","74","J","1","","true","0","full_practice",""
"","bandit","64","131253","0.0-32.0-12.0","27460262","wem/bandit_party_2","A2YDA5EGPSTMCC","either","3","614","","","","","","","0","0","1","0.6","","0.5","0.5","0.5","0.5","","","","","0.8","0.2","0.6","0.2","","","","","","","","","","75","K","2","","true","0","full_practice",""
"","bandit","65","133274","0.0-32.0-13.0","27460262","wem/bandit_party_2","A2YDA5EGPSTMCC","either","3","513","","","","","","","1","0","0","0.2","","0.5","0.5","0.5","0.5","","","","","0.8","0.2","0.6","0.2","","","","","","","","","","76","L","3","","true","0","full_practice",""
"","bandit","66","136171","0.0-32.0-14.0","27460262","wem/bandit_party_2","A2YDA5EGPSTMCC","either","3","1391","","","","","","","0","0","1","","0.2","0.5","0.5","0.5","0.5","0.8","0.2","0.6","0.2","","","","","","","","","","","","","","76","L","3","","true","0","full_practice",""
"","bandit","67","138470","0.0-32.0-15.0","27460262","wem/bandit_party_2","A2YDA5EGPSTMCC","either","3","794","","","","","","","0","1","0","","0.6","0.5","0.5","0.5","0.5","0.8","0.2","0.6","0.2","","","","","","","","","","","","","","75","K","2","","true","0","full_practice",""
"","bandit","68","141158","0.0-32.0-16.0","27460262","wem/bandit_party_2","A2YDA5EGPSTMCC","either","3","1182","","","","","","","0","0","1","0.6","","0.5","0.5","0.5","0.5","","","","","0.8","0.2","0.6","0.2","","","","","","","","","","75","K","2","","true","0","full_practice",""
"","bandit","69","142702","0.0-32.0-17.0","27460262","wem/bandit_party_2","A2YDA5EGPSTMCC","either","3","38","","","","","","","0","1","0","","0.8","0.5","0.5","0.5","0.5","0.8","0.2","0.6","0.2","","","","","","","","","","","","","","72","H","0","img/none_selected.jpg","true","0","full_practice",""
"","bandit","70","144584","0.0-32.0-18.0","27460262","wem/bandit_party_2","A2YDA5EGPSTMCC","either","3","376","","","","","","","0","0","1","","0.2","0.5","0.5","0.5","0.5","0.8","0.2","0.6","0.2","","","","","","","","","","","","","","74","J","1","","true","0","full_practice",""
"","bandit","71","146491","0.0-32.0-19.0","27460262","wem/bandit_party_2","A2YDA5EGPSTMCC","either","3","399","","","","","","","0","1","0","","0.2","0.5","0.5","0.5","0.5","0.8","0.2","0.6","0.2","","","","","","","","","","","","","","76","L","3","","true","0","full_practice",""
"","text","72","153788","0.0-33.0","27460262","wem/bandit_party_2","A2YDA5EGPSTMCC","either","3","7293","","","32","","","","","","","","","","","","","","","","","","","","","","","","","","","","","","","","","","","","",""
"","text-replacement","73","155692","0.0-34.0","27460262","wem/bandit_party_2","A2YDA5EGPSTMCC","either","3","900","","","32","","","","","","","","","","","","","","","","","","","","","","","","","","","","","","","","","","","","",""
"","text-replacement","74","156018","0.0-35.0","27460262","wem/bandit_party_2","A2YDA5EGPSTMCC","either","3","324","","","32","","","","","","","","","","","","","","","","","","","","","","","","","","","","","","","","","","","","",""
"","text-replacement","75","156308","0.0-36.0","27460262","wem/bandit_party_2","A2YDA5EGPSTMCC","either","3","288","","","32","","","","","","","","","","","","","","","","","","","","","","","","","","","","","","","","","","","","",""
"","text-replacement","76","156638","0.0-37.0","27460262","wem/bandit_party_2","A2YDA5EGPSTMCC","either","3","328","","","32","","","","","","","","","","","","","","","","","","","","","","","","","","","","","","","","","","","","",""
"","text-replacement","77","156958","0.0-38.0","27460262","wem/bandit_party_2","A2YDA5EGPSTMCC","either","3","317","","","32","","","","","","","","","","","","","","","","","","","","","","","","","","","","","","","","","","","","",""
"","survey-multi-choice-replacement","78","159912","0.0-39.0-0.0","27460262","wem/bandit_party_2","A2YDA5EGPSTMCC","either","3","2947","","","","","","","","","","","","","","","","","","","","","","","","Money will be added to the pool for <span style='color:blue;'>DEMOCRATS</span>","","","","","","","attn_check","","","","","","","","","0"
"","survey-multi-choice-replacement","79","163272","0.0-40.0-0.0","27460262","wem/bandit_party_2","A2YDA5EGPSTMCC","either","3","2352","","","","","","","","","","","","","","","","","","","","","","","","Equal amounts of money will be added to the pool for <span style='color:blue;'>DEMOCRATS</span> and subtracted from the pool for <span style='color:red;'>REPUBLICANS</span>","","","","","","","attn_check","","","","","","","","","2"
"","survey-multi-choice-replacement","80","166086","0.0-41.0-0.0","27460262","wem/bandit_party_2","A2YDA5EGPSTMCC","either","3","1803","","","","","","","","","","","","","","","","","","","","","","","","No money will be added to either pool","","","","","","","attn_check","","","","","","","","","3"
"","bandit","81","169211","0.0-42.0-0.0","27460262","wem/bandit_party_2","A2YDA5EGPSTMCC","either","3","617","","","","","","","0","1","0","","0.6494041588","0.6","0.8","0.4","0.2","0.6473934842","0.4261870849","0.1387034319","0.6494041588","","","","","","","","","","","","","","76","L","3","","","1","main_expt",""
"","bandit","82","171080","0.0-43.0-0.0","27460262","wem/bandit_party_2","A2YDA5EGPSTMCC","either","3","363","","","","","","","1","0","0","0.3223101542","","0.6","0.8","0.4","0.2","","","","","0.5221866694","0.3223101542","0.2166337036","0.7608835745","","","","","","","","","","74","J","1","","","2","main_expt",""
"","bandit","83","173083","0.0-44.0-0.0","27460262","wem/bandit_party_2","A2YDA5EGPSTMCC","either","3","494","","","","","","","1","0","0","0.2541217019","","0.6","0.8","0.4","0.2","","","","","0.5356292978","0.2541217019","0.3253899216","0.7745567172","","","","","","","","","","74","J","1","","","3","main_expt",""
"","bandit","84","174976","0.0-45.0-0.0","27460262","wem/bandit_party_2","A2YDA5EGPSTMCC","either","3","385","","","","","","","1","0","0","0.5154592071","","0.6","0.8","0.4","0.2","","","","","0.5154592071","0.2272043942","0.3003293127","0.8315703218","","","","","","","","","","72","H","0","img/none_selected.jpg","","4","main_expt",""
"","bandit","85","177281","0.0-46.0-0.0","27460262","wem/bandit_party_2","A2YDA5EGPSTMCC","either","3","801","","","","","","","0","0","1","0.2967729676","","0.6","0.8","0.4","0.2","","","","","0.4578896037","0.2967729676","0.3839660868","0.8380789219","","","","","","","","","","74","J","1","","","5","main_expt",""
"","bandit","86","179241","0.0-47.0-0.0","27460262","wem/bandit_party_2","A2YDA5EGPSTMCC","either","3","454","","","","","","","1","0","0","0.4825789634","","0.6","0.8","0.4","0.2","","","","","0.4825789634","0.3211998527","0.3833463511","0.8233568153","","","","","","","","","","72","H","0","img/none_selected.jpg","","6","main_expt",""
"","bandit","87","181333","0.0-48.0-0.0","27460262","wem/bandit_party_2","A2YDA5EGPSTMCC","either","3","584","","","","","","","0","1","0","","0.4190649117","0.6","0.8","0.4","0.2","0.4013658759","0.4190649117","0.3173395401","0.8672840292","","","","","","","","","","","","","","74","J","1","","","7","main_expt",""
"","bandit","88","183401","0.0-49.0-0.0","27460262","wem/bandit_party_2","A2YDA5EGPSTMCC","either","3","561","","","","","","","0","0","1","0.3265190876","","0.6","0.8","0.4","0.2","","","","","0.3721769634","0.5253498774","0.3265190876","0.7921451217","","","","","","","","","","75","K","2","","","8","main_expt",""
"","bandit","89","185239","0.0-50.0-0.0","27460262","wem/bandit_party_2","A2YDA5EGPSTMCC","either","3","333","","","","","","","0","0","1","","0.4229840653","0.6","0.8","0.4","0.2","0.3934089605","0.5552176016","0.4229840653","0.7826569337","","","","","","","","","","","","","","75","K","2","","","9","main_expt",""
"","bandit","90","187051","0.0-51.0-0.0","27460262","wem/bandit_party_2","A2YDA5EGPSTMCC","either","3","306","","","","","","","1","0","0","0.5107168356","","0.6","0.8","0.4","0.2","","","","","0.3360942297","0.654745146","0.5107168356","0.7150392401","","","","","","","","","","75","K","2","","","10","main_expt",""
"","bandit","91","189218","0.0-52.0-0.0","27460262","wem/bandit_party_2","A2YDA5EGPSTMCC","either","3","663","","","","","","","0","0","1","","0.4969537907","0.6","0.8","0.4","0.2","0.4969537907","0.6089063278","0.4383577931","0.6906605055","","","","","","","","","","","","","","72","H","0","img/none_selected.jpg","","11","main_expt",""
"","bandit","92","191185","0.0-53.0-0.0","27460262","wem/bandit_party_2","A2YDA5EGPSTMCC","either","3","457","","","","","","","0","0","1","","0.6725575113","0.6","0.8","0.4","0.2","0.4760264401","0.559155858","0.5487148549","0.6725575113","","","","","","","","","","","","","","76","L","3","","","12","main_expt",""
"","bandit","93","193023","0.0-54.0-0.0","27460262","wem/bandit_party_2","A2YDA5EGPSTMCC","either","3","315","","","","","","","0","0","1","","0.7404599176","0.6","0.8","0.4","0.2","0.4008761295","0.6464491645","0.7407599438","0.7404599176","","","","","","","","","","","","","","76","L","3","","","13","main_expt",""
"","bandit","94","194651","0.0-55.0-0.0","27460262","wem/bandit_party_2","A2YDA5EGPSTMCC","either","3","122","","","","","","","0","1","0","","0.6936958995","0.6","0.8","0.4","0.2","0.358486362","0.6936958995","0.8307131687","0.6751607758","","","","","","","","","","","","","","74","J","1","","","14","main_expt",""
"","bandit","95","196712","0.0-56.0-0.0","27460262","wem/bandit_party_2","A2YDA5EGPSTMCC","either","3","554","","","","","","","0","0","1","0.395258373","","0.6","0.8","0.4","0.2","","","","","0.395258373","0.731471075","0.8114394421","0.6115440925","","","","","","","","","","72","H","0","img/none_selected.jpg","","15","main_expt",""
"","bandit","96","198465","0.0-57.0-0.0","27460262","wem/bandit_party_2","A2YDA5EGPSTMCC","either","3","226","","","","","","","0","0","1","","0.4197334966","0.6","0.8","0.4","0.2","0.4197334966","0.6487541525","0.8242397169","0.7019001419","","","","","","","","","","","","","","72","H","0","img/none_selected.jpg","","16","main_expt",""
"","bandit","97","200221","0.0-58.0-0.0","27460262","wem/bandit_party_2","A2YDA5EGPSTMCC","either","3","246","","","","","","","1","0","0","0.7017998","","0.6","0.8","0.4","0.2","","","","","0.2160816064","0.7654634758","0.8317633157","0.7017998","","","","","","","","","","76","L","3","","","17","main_expt",""
"","bandit","98","201991","0.0-59.0-0.0","27460262","wem/bandit_party_2","A2YDA5EGPSTMCC","either","3","263","","","","","","","0","1","0","","0.8158638682","0.6","0.8","0.4","0.2","0.2058632209","0.7160830043","0.8158638682","0.7672473748","","","","","","","","","","","","","","75","K","2","","","18","main_expt",""
"","bandit","99","203761","0.0-60.0-0.0","27460262","wem/bandit_party_2","A2YDA5EGPSTMCC","either","3","262","","","","","","","0","0","1","","0.8291878069","0.6","0.8","0.4","0.2","0.2314559036","0.6856656502","0.8291878069","0.7950219121","","","","","","","","","","","","","","75","K","2","","","19","main_expt",""
"","bandit","100","205519","0.0-61.0-0.0","27460262","wem/bandit_party_2","A2YDA5EGPSTMCC","either","3","244","","","","","","","0","0","1","","0.6829400921","0.6","0.8","0.4","0.2","0.1762066147","0.6829400921","0.8665153398","0.8460513568","","","","","","","","","","","","","","74","J","1","","","20","main_expt",""
"","bandit","101","207330","0.0-62.0-0.0","27460262","wem/bandit_party_2","A2YDA5EGPSTMCC","either","3","305","","","","","","","0","0","1","0.8181415858","","0.6","0.8","0.4","0.2","","","","","0.150477598","0.6849203215","0.8181415858","0.8571228725","","","","","","","","","","75","K","2","","","21","main_expt",""
"","bandit","102","209281","0.0-63.0-0.0","27460262","wem/bandit_party_2","A2YDA5EGPSTMCC","either","3","445","","","","","","","0","1","0","","0.7731960963","0.6","0.8","0.4","0.2","0.1957635407","0.6832197831","0.7731960963","0.8498483749","","","","","","","","","","","","","","75","K","2","","","22","main_expt",""
"","bandit","103","211079","0.0-64.0-0.0","27460262","wem/bandit_party_2","A2YDA5EGPSTMCC","either","3","293","","","","","","","0","1","0","","0.887495535","0.6","0.8","0.4","0.2","0.2193187944","0.6103957523","0.8004626553","0.887495535","","","","","","","","","","","","","","76","L","3","","","23","main_expt",""
"","bandit","104","212921","0.0-65.0-0.0","27460262","wem/bandit_party_2","A2YDA5EGPSTMCC","either","3","337","","","","","","","0","0","1","","0.1836328706","0.6","0.8","0.4","0.2","0.1836328706","0.5485819736","0.7941911222","0.918231735","","","","","","","","","","","","","","72","H","0","img/none_selected.jpg","","24","main_expt",""
"","bandit","105","214692","0.0-66.0-0.0","27460262","wem/bandit_party_2","A2YDA5EGPSTMCC","either","3","264","","","","","","","0","0","1","0.5852935809","","0.6","0.8","0.4","0.2","","","","","0.1410441375","0.5852935809","0.7100633829","0.9111146318","","","","","","","","","","74","J","1","","","25","main_expt",""
"","bandit","106","216571","0.0-67.0-0.0","27460262","wem/bandit_party_2","A2YDA5EGPSTMCC","either","3","344","","","","","","","1","0","0","0.6872129375","","0.6","0.8","0.4","0.2","","","","","0.1082593399","0.6097892937","0.6872129375","0.9190640316","","","","","","","","","","75","K","2","","","26","main_expt",""
"","bandit","107","218451","0.0-68.0-0.0","27460262","wem/bandit_party_2","A2YDA5EGPSTMCC","either","3","374","","","","","","","0","0","1","0.1042047793","","0.6","0.8","0.4","0.2","","","","","0.1042047793","0.6653335402","0.6798864795","0.9372614837","","","","","","","","","","72","H","0","img/none_selected.jpg","","27","main_expt",""
"","bandit","108","220201","0.0-69.0-0.0","27460262","wem/bandit_party_2","A2YDA5EGPSTMCC","either","3","244","","","","","","","0","1","0","","0.6812343762","0.6","0.8","0.4","0.2","0.1153509117","0.6850825106","0.6812343762","0.9269484959","","","","","","","","","","","","","","75","K","2","","","28","main_expt",""
"","bandit","109","222159","0.0-70.0-0.0","27460262","wem/bandit_party_2","A2YDA5EGPSTMCC","either","3","404","","","","","","","0","0","1","0.7309016742","","0.6","0.8","0.4","0.2","","","","","0.1601566248","0.7309016742","0.5305157647","0.9376772981","","","","","","","","","","74","J","1","","","29","main_expt",""
"","bandit","110","228007","0.0-71.0-0.0","27460262","wem/bandit_party_2","A2YDA5EGPSTMCC","either","3","4340","","","","","","","1","0","0","0.8141980113","","0.6","0.8","0.4","0.2","","","","","0.09548927903","0.8141980113","0.4713174284","0.8795505253","","","","","","","","","","74","J","1","","","30","main_expt",""
"","bandit","111","230060","0.0-72.0-0.0","27460262","wem/bandit_party_2","A2YDA5EGPSTMCC","either","3","548","","","","","","","0","1","0","","0.8605863748","0.6","0.8","0.4","0.2","0.09272353297","0.8926711601","0.2938490869","0.8605863748","","","","","","","","","","","","","","76","L","3","","","31","main_expt",""
"","bandit","112","232313","0.0-73.0-0.0","27460262","wem/bandit_party_2","A2YDA5EGPSTMCC","either","3","744","","","","","","","0","0","1","","0.3005160425","0.6","0.8","0.4","0.2","0.09547929832","0.8397563013","0.3005160425","0.757600507","","","","","","","","","","","","","","75","K","2","","","32","main_expt",""
"","bandit","113","234281","0.0-74.0-0.0","27460262","wem/bandit_party_2","A2YDA5EGPSTMCC","either","3","462","","","","","","","0","0","1","","0.08683876107","0.6","0.8","0.4","0.2","0.08683876107","0.8251988787","0.3661211491","0.7257103923","","","","","","","","","","","","","","72","H","0","img/none_selected.jpg","","33","main_expt",""
"","bandit","114","236164","0.0-75.0-0.0","27460262","wem/bandit_party_2","A2YDA5EGPSTMCC","either","3","377","","","","","","","0","0","1","0.4614725573","","0.6","0.8","0.4","0.2","","","","","0.08117088791","0.7303528712","0.4614725573","0.5786815464","","","","","","","","","","75","K","2","","","34","main_expt",""
"","bandit","115","238163","0.0-76.0-0.0","27460262","wem/bandit_party_2","A2YDA5EGPSTMCC","either","3","493","","","","","","","1","0","0","0.8093673003","","0.6","0.8","0.4","0.2","","","","","0.09593582107","0.8093673003","0.4597324626","0.4812266686","","","","","","","","","","74","J","1","","","35","main_expt",""
"","bandit","116","240230","0.0-77.0-0.0","27460262","wem/bandit_party_2","A2YDA5EGPSTMCC","either","3","560","","","","","","","0","1","0","","0.4459447539","0.6","0.8","0.4","0.2","0.1392988708","0.79718131","0.4294742096","0.4459447539","","","","","","","","","","","","","","76","L","3","","","36","main_expt",""
"","bandit","117","242842","0.0-78.0-0.0","27460262","wem/bandit_party_2","A2YDA5EGPSTMCC","either","3","1105","","","","","","","1","0","0","0.8157762275","","0.6","0.8","0.4","0.2","","","","","0.07673209605","0.8157762275","0.5301274199","0.5737218407","","","","","","","","","","74","J","1","","","37","main_expt",""
"","bandit","118","245883","0.0-79.0-0.0","27460262","wem/bandit_party_2","A2YDA5EGPSTMCC","either","3","1530","","","","","","","1","0","0","0.7941499978","","0.6","0.8","0.4","0.2","","","","","0.1078843958","0.7941499978","0.5746889943","0.6008421093","","","","","","","","","","74","J","1","","","38","main_expt",""
"","bandit","119","248618","0.0-80.0-0.0","27460262","wem/bandit_party_2","A2YDA5EGPSTMCC","either","3","1222","","","","","","","1","0","0","0.7352357368","","0.6","0.8","0.4","0.2","","","","","0.09731722171","0.7352357368","0.6621100331","0.6076920036","","","","","","","","","","74","J","1","","","39","main_expt",""
"","bandit","120","251150","0.0-81.0-0.0","27460262","wem/bandit_party_2","A2YDA5EGPSTMCC","either","3","1016","","","","","","","0","0","1","","0.6616622706","0.6","0.8","0.4","0.2","0.2123509389","0.7920886563","0.6794361822","0.6616622706","","","","","","","","","","","","","","76","L","3","","","40","main_expt",""
"","bandit","121","253388","0.0-82.0-0.0","27460262","wem/bandit_party_2","A2YDA5EGPSTMCC","either","3","723","","","","","","","0","1","0","","0.7140523024","0.6","0.8","0.4","0.2","0.1265365425","0.8780543775","0.7140523024","0.6945341382","","","","","","","","","","","","","","75","K","2","","","41","main_expt",""
"","bandit","122","255800","0.0-83.0-0.0","27460262","wem/bandit_party_2","A2YDA5EGPSTMCC","either","3","907","","","","","","","1","0","0","0.9167256642","","0.6","0.8","0.4","0.2","","","","","0.166138795","0.9167256642","0.6669732994","0.6833149102","","","","","","","","","","74","J","1","","","42","main_expt",""
"","bandit","123","257751","0.0-84.0-0.0","27460262","wem/bandit_party_2","A2YDA5EGPSTMCC","either","3","445","","","","","","","0","0","1","0.7094953576","","0.6","0.8","0.4","0.2","","","","","0.1782339186","0.9407985187","0.5435093165","0.7094953576","","","","","","","","","","76","L","3","","","43","main_expt",""
"","bandit","124","259581","0.0-85.0-0.0","27460262","wem/bandit_party_2","A2YDA5EGPSTMCC","either","3","322","","","","","","","0","1","0","","0.6002661395","0.6","0.8","0.4","0.2","0.1342945815","0.9000978766","0.6002661395","0.7519468023","","","","","","","","","","","","","","75","K","2","","","44","main_expt",""
"","bandit","125","261972","0.0-86.0-0.0","27460262","wem/bandit_party_2","A2YDA5EGPSTMCC","either","3","886","","","","","","","1","0","0","0.9190036262","","0.6","0.8","0.4","0.2","","","","","0.09086288848","0.9190036262","0.5948203474","0.7673203249","","","","","","","","","","74","J","1","","","45","main_expt",""
"","bandit","126","264511","0.0-87.0-0.0","27460262","wem/bandit_party_2","A2YDA5EGPSTMCC","either","3","1032","","","","","","","0","1","0","","0.6230250108","0.6","0.8","0.4","0.2","0.06420934006","0.8865788656","0.6230250108","0.722836051","","","","","","","","","","","","","","75","K","2","","","46","main_expt",""
"","bandit","127","267143","0.0-88.0-0.0","27460262","wem/bandit_party_2","A2YDA5EGPSTMCC","either","3","1124","","","","","","","0","1","0","","0.8207935484","0.6","0.8","0.4","0.2","0.02332738683","0.8207935484","0.7239235909","0.7392487755","","","","","","","","","","","","","","74","J","1","","","47","main_expt",""
"","bandit","128","270082","0.0-89.0-0.0","27460262","wem/bandit_party_2","A2YDA5EGPSTMCC","either","3","1430","","","","","","","0","1","0","","0.7715310514","0.6","0.8","0.4","0.2","0.03517565614","0.8170742187","0.7715310514","0.7551111279","","","","","","","","","","","","","","75","K","2","","","48","main_expt",""
"","bandit","129","272894","0.0-90.0-0.0","27460262","wem/bandit_party_2","A2YDA5EGPSTMCC","either","3","1191","","","","","","","0","0","1","0.04466115719","","0.6","0.8","0.4","0.2","","","","","0.04466115719","0.7874830355","0.822179592","0.6917772817","","","","","","","","","","72","H","0","img/none_selected.jpg","","49","main_expt",""
"","bandit","130","275465","0.0-91.0-0.0","27460262","wem/bandit_party_2","A2YDA5EGPSTMCC","either","3","1061","","","","","","","0","1","0","","0.6689959301","0.6","0.8","0.4","0.2","0.05053383529","0.8279472521","0.8108951243","0.6689959301","","","","","","","","","","","","","","76","L","3","","","50","main_expt",""
"","bandit","131","277641","0.0-92.0-0.0","27460262","wem/bandit_party_2","A2YDA5EGPSTMCC","either","3","669","","","","","","","1","0","0","0.8426817256","","0.6","0.8","0.4","0.2","","","","","0.04681033125","0.8426817256","0.7649170446","0.6020608281","","","","","","","","","","74","J","1","","","51","main_expt",""
"","bandit","132","279581","0.0-93.0-0.0","27460262","wem/bandit_party_2","A2YDA5EGPSTMCC","either","3","435","","","","","","","0","1","0","","0.8169848275","0.6","0.8","0.4","0.2","0.09308222201","0.8377647656","0.8169848275","0.6583182673","","","","","","","","","","","","","","75","K","2","","","52","main_expt",""
"","bandit","133","281681","0.0-94.0-0.0","27460262","wem/bandit_party_2","A2YDA5EGPSTMCC","either","3","594","","","","","","","0","0","1","","0.1397702629","0.6","0.8","0.4","0.2","0.1397702629","0.8241398149","0.8843577791","0.5419436754","","","","","","","","","","","","","","72","H","0","img/none_selected.jpg","","53","main_expt",""
"","bandit","134","283510","0.0-95.0-0.0","27460262","wem/bandit_party_2","A2YDA5EGPSTMCC","either","3","321","","","","","","","1","0","0","0.8854515068","","0.6","0.8","0.4","0.2","","","","","0.110287685","0.7289352116","0.8854515068","0.5717614462","","","","","","","","","","75","K","2","","","54","main_expt",""
"","bandit","135","285320","0.0-96.0-0.0","27460262","wem/bandit_party_2","A2YDA5EGPSTMCC","either","3","304","","","","","","","1","0","0","0.5895019519","","0.6","0.8","0.4","0.2","","","","","0.1843384007","0.5895019519","0.8884574585","0.5497935615","","","","","","","","","","74","J","1","","","55","main_expt",""
"","bandit","136","287261","0.0-97.0-0.0","27460262","wem/bandit_party_2","A2YDA5EGPSTMCC","either","3","435","","","","","","","0","1","0","","0.4902645195","0.6","0.8","0.4","0.2","0.2056752237","0.4622464331","0.8840911236","0.4902645195","","","","","","","","","","","","","","76","L","3","","","56","main_expt",""
"","bandit","137","289183","0.0-98.0-0.0","27460262","wem/bandit_party_2","A2YDA5EGPSTMCC","either","3","413","","","","","","","0","0","1","0.3410726922","","0.6","0.8","0.4","0.2","","","","","0.3410726922","0.490024734","0.864283103","0.5258365243","","","","","","","","","","72","H","0","img/none_selected.jpg","","57","main_expt",""
"","bandit","138","291201","0.0-99.0-0.0","27460262","wem/bandit_party_2","A2YDA5EGPSTMCC","either","3","512","","","","","","","0","1","0","","0.6182628796","0.6","0.8","0.4","0.2","0.3873695161","0.6182628796","0.7377821737","0.6097664349","","","","","","","","","","","","","","74","J","1","","","58","main_expt",""
"","bandit","139","293122","0.0-100.0-0.0","27460262","wem/bandit_party_2","A2YDA5EGPSTMCC","either","3","414","","","","","","","0","1","0","","0.7469541206","0.6","0.8","0.4","0.2","0.3281321534","0.6976829826","0.7469541206","0.6016711108","","","","","","","","","","","","","","75","K","2","","","59","main_expt",""
"","bandit","140","295259","0.0-101.0-0.0","27460262","wem/bandit_party_2","A2YDA5EGPSTMCC","either","3","621","","","","","","","0","0","1","0.675433977","","0.6","0.8","0.4","0.2","","","","","0.2380439254","0.675433977","0.8019510571","0.5544917648","","","","","","","","","","74","J","1","","","60","main_expt",""
"","bandit","141","297041","0.0-102.0-0.0","27460262","wem/bandit_party_2","A2YDA5EGPSTMCC","either","3","268","","","","","","","0","1","0","","0.2228222105","0.6","0.8","0.4","0.2","0.2228222105","0.7206550838","0.8943887388","0.6842720067","","","","","","","","","","","","","","72","H","0","img/none_selected.jpg","","61","main_expt",""
"","bandit","142","298591","0.0-103.0-0.0","27460262","wem/bandit_party_2","A2YDA5EGPSTMCC","either","3","43","","","","","","","0","1","0","","0.6824345281","0.6","0.8","0.4","0.2","0.2489253665","0.7184677658","0.8942973556","0.6824345281","","","","","","","","","","","","","","76","L","3","","","62","main_expt",""
"","bandit","143","300722","0.0-104.0-0.0","27460262","wem/bandit_party_2","A2YDA5EGPSTMCC","either","3","621","","","","","","","0","0","1","","0.8829609874","0.6","0.8","0.4","0.2","0.2298237489","0.6785259816","0.8829609874","0.7321168219","","","","","","","","","","","","","","75","K","2","","","63","main_expt",""
"","bandit","144","302312","0.0-105.0-0.0","27460262","wem/bandit_party_2","A2YDA5EGPSTMCC","either","3","82","","","","","","","1","0","0","0.8175344892","","0.6","0.8","0.4","0.2","","","","","0.1849055857","0.6349383059","0.8175344892","0.8123013145","","","","","","","","","","75","K","2","","","64","main_expt",""
"","bandit","145","303911","0.0-106.0-0.0","27460262","wem/bandit_party_2","A2YDA5EGPSTMCC","either","3","92","","","","","","","1","0","0","0.629769122","","0.6","0.8","0.4","0.2","","","","","0.2285715909","0.629769122","0.7812905168","0.8236121316","","","","","","","","","","74","J","1","","","65","main_expt",""
"","bandit","146","305972","0.0-107.0-0.0","27460262","wem/bandit_party_2","A2YDA5EGPSTMCC","either","3","553","","","","","","","0","0","1","0.2477643906","","0.6","0.8","0.4","0.2","","","","","0.2477643906","0.7158950816","0.7848445355","0.8270077233","","","","","","","","","","72","H","0","img/none_selected.jpg","","66","main_expt",""
"","bandit","147","307525","0.0-108.0-0.0","27460262","wem/bandit_party_2","A2YDA5EGPSTMCC","either","3","25","","","","","","","0","1","0","","0.6309271871","0.6","0.8","0.4","0.2","0.1801078726","0.6309271871","0.763143195","0.7601471472","","","","","","","","","","","","","","74","J","1","","","67","main_expt",""
"","bandit","148","310452","0.0-109.0-0.0","27460262","wem/bandit_party_2","A2YDA5EGPSTMCC","either","3","1420","","","","","","","0","1","0","","0.617221228","0.6","0.8","0.4","0.2","0.08479184886","0.617221228","0.7966751536","0.7567750057","","","","","","","","","","","","","","74","J","1","","","68","main_expt",""
"","bandit","149","312461","0.0-110.0-0.0","27460262","wem/bandit_party_2","A2YDA5EGPSTMCC","either","3","502","","","","","","","0","1","0","","0.6871277649","0.6","0.8","0.4","0.2","0.06982522498","0.6235929763","0.8534335227","0.6871277649","","","","","","","","","","","","","","76","L","3","","","69","main_expt",""
"","bandit","150","314791","0.0-111.0-0.0","27460262","wem/bandit_party_2","A2YDA5EGPSTMCC","either","3","823","","","","","","","0","1","0","","0.8915498471","0.6","0.8","0.4","0.2","0.05029268469","0.5543620559","0.8915498471","0.773099018","","","","","","","","","","","","","","75","K","2","","","70","main_expt",""
"","bandit","151","317052","0.0-112.0-0.0","27460262","wem/bandit_party_2","A2YDA5EGPSTMCC","either","3","751","","","","","","","0","0","1","","0.06413839938","0.6","0.8","0.4","0.2","0.06413839938","0.5333999135","0.8736989015","0.7412476729","","","","","","","","","","","","","","72","H","0","img/none_selected.jpg","","71","main_expt",""
"","bandit","152","318962","0.0-113.0-0.0","27460262","wem/bandit_party_2","A2YDA5EGPSTMCC","either","3","402","","","","","","","0","1","0","","0.5905126671","0.6","0.8","0.4","0.2","0.05155778705","0.5905126671","0.8837551658","0.8080704968","","","","","","","","","","","","","","74","J","1","","","72","main_expt",""
"","bandit","153","321042","0.0-114.0-0.0","27460262","wem/bandit_party_2","A2YDA5EGPSTMCC","either","3","573","","","","","","","0","0","1","","0.8495494246","0.6","0.8","0.4","0.2","0.0232747386","0.6925119087","0.8495494246","0.8270016227","","","","","","","","","","","","","","75","K","2","","","73","main_expt",""
"","bandit","154","322912","0.0-115.0-0.0","27460262","wem/bandit_party_2","A2YDA5EGPSTMCC","either","3","361","","","","","","","1","0","0","0.7134745341","","0.6","0.8","0.4","0.2","","","","","0.04751547773","0.7134745341","0.9127472651","0.7872017979","","","","","","","","","","74","J","1","","","74","main_expt",""
"","bandit","155","324742","0.0-116.0-0.0","27460262","wem/bandit_party_2","A2YDA5EGPSTMCC","either","3","269","","","","","","","0","0","1","","0.6167225576","0.6","0.8","0.4","0.2","0.05282531612","0.8065440948","0.9199060817","0.6167225576","","","","","","","","","","","","","","76","L","3","","","75","main_expt",""
"","bandit","156","326720","0.0-117.0-0.0","27460262","wem/bandit_party_2","A2YDA5EGPSTMCC","either","3","451","","","","","","","0","1","0","","0.7849172319","0.6","0.8","0.4","0.2","0.08738729654","0.7849172319","0.8691294168","0.637182095","","","","","","","","","","","","","","74","J","1","","","76","main_expt",""
"","bandit","157","329251","0.0-118.0-0.0","27460262","wem/bandit_party_2","A2YDA5EGPSTMCC","either","3","1024","","","","","","","1","0","0","0.7818962729","","0.6","0.8","0.4","0.2","","","","","0.08851312664","0.7818962729","0.9111329321","0.7169911294","","","","","","","","","","74","J","1","","","77","main_expt",""
"","bandit","158","331092","0.0-119.0-0.0","27460262","wem/bandit_party_2","A2YDA5EGPSTMCC","either","3","334","","","","","","","0","0","1","0.145228539","","0.6","0.8","0.4","0.2","","","","","0.145228539","0.7002933386","0.9286966754","0.7446448061","","","","","","","","","","72","H","0","img/none_selected.jpg","","78","main_expt",""
"","bandit","159","332962","0.0-120.0-0.0","27460262","wem/bandit_party_2","A2YDA5EGPSTMCC","either","3","365","","","","","","","0","0","1","","0.8152221547","0.6","0.8","0.4","0.2","0.1669860915","0.6510109529","0.9616021792","0.8152221547","","","","","","","","","","","","","","76","L","3","","","79","main_expt",""
"","bandit","160","334832","0.0-121.0-0.0","27460262","wem/bandit_party_2","A2YDA5EGPSTMCC","either","3","363","","","","","","","0","1","0","","0.950571795","0.6","0.8","0.4","0.2","0.1922913003","0.6765614865","0.950571795","0.810351938","","","","","","","","","","","","","","75","K","2","","","80","main_expt",""
"","bandit","161","337081","0.0-122.0-0.0","27460262","wem/bandit_party_2","A2YDA5EGPSTMCC","either","3","741","","","","","","","0","0","1","0.5908869344","","0.6","0.8","0.4","0.2","","","","","0.2407870914","0.5908869344","0.9331160128","0.8895110989","","","","","","","","","","74","J","1","","","81","main_expt",""
"","bandit","162","339081","0.0-123.0-0.0","27460262","wem/bandit_party_2","A2YDA5EGPSTMCC","either","3","493","","","","","","","0","1","0","","0.9046816681","0.6","0.8","0.4","0.2","0.3077898034","0.5267531711","0.9465986336","0.9046816681","","","","","","","","","","","","","","76","L","3","","","82","main_expt",""
"","bandit","163","341011","0.0-124.0-0.0","27460262","wem/bandit_party_2","A2YDA5EGPSTMCC","either","3","423","","","","","","","0","1","0","","0.9371159138","0.6","0.8","0.4","0.2","0.2337579628","0.6168373964","0.9371159138","0.8465278631","","","","","","","","","","","","","","75","K","2","","","83","main_expt",""
"","bandit","164","342809","0.0-125.0-0.0","27460262","wem/bandit_party_2","A2YDA5EGPSTMCC","either","3","292","","","","","","","1","0","0","0.2781329454","","0.6","0.8","0.4","0.2","","","","","0.2781329454","0.5733990252","0.8998840018","0.7584930438","","","","","","","","","","72","H","0","img/none_selected.jpg","","84","main_expt",""
"","bandit","165","344578","0.0-126.0-0.0","27460262","wem/bandit_party_2","A2YDA5EGPSTMCC","either","3","254","","","","","","","0","1","0","","0.9102188985","0.6","0.8","0.4","0.2","0.3013149798","0.4719695616","0.9102188985","0.7727946294","","","","","","","","","","","","","","75","K","2","","","85","main_expt",""
"","bandit","166","346342","0.0-127.0-0.0","27460262","wem/bandit_party_2","A2YDA5EGPSTMCC","either","3","258","","","","","","","1","0","0","0.6941651786","","0.6","0.8","0.4","0.2","","","","","0.3231836659","0.6941651786","0.9000055418","0.8216594778","","","","","","","","","","74","J","1","","","86","main_expt",""
"","bandit","167","348181","0.0-128.0-0.0","27460262","wem/bandit_party_2","A2YDA5EGPSTMCC","either","3","331","","","","","","","0","0","1","","0.7833884788","0.6","0.8","0.4","0.2","0.3986379136","0.5408952125","0.8563468124","0.7833884788","","","","","","","","","","","","","","76","L","3","","","87","main_expt",""
"","bandit","168","349972","0.0-129.0-0.0","27460262","wem/bandit_party_2","A2YDA5EGPSTMCC","either","3","282","","","","","","","0","0","1","0.4230151841","","0.6","0.8","0.4","0.2","","","","","0.4230151841","0.5438891422","0.7349543302","0.7804426693","","","","","","","","","","72","H","0","img/none_selected.jpg","","88","main_expt",""
"","bandit","169","351809","0.0-130.0-0.0","27460262","wem/bandit_party_2","A2YDA5EGPSTMCC","either","3","330","","","","","","","1","0","0","0.7907967515","","0.6","0.8","0.4","0.2","","","","","0.3761858397","0.4294971294","0.7907967515","0.7930928848","","","","","","","","","","75","K","2","","","89","main_expt",""
"","bandit","170","353651","0.0-131.0-0.0","27460262","wem/bandit_party_2","A2YDA5EGPSTMCC","either","3","335","","","","","","","0","0","1","0.4928337868","","0.6","0.8","0.4","0.2","","","","","0.4799086841","0.4928337868","0.7883246469","0.7683039237","","","","","","","","","","74","J","1","","","90","main_expt",""
"","bandit","171","355243","0.0-132.0-0.0","27460262","wem/bandit_party_2","A2YDA5EGPSTMCC","either","3","82","","","","","","","1","0","0","0.8389096604","","0.6","0.8","0.4","0.2","","","","","0.4558425901","0.5655090935","0.8389096604","0.8072091422","","","","","","","","","","75","K","2","","","91","main_expt",""
"","bandit","172","356761","0.0-133.0-0.0","27460262","wem/bandit_party_2","A2YDA5EGPSTMCC","either","3","10","","","","","","","0","0","1","","0.3781515597","0.6","0.8","0.4","0.2","0.3781515597","0.6154818033","0.8064187158","0.7791444337","","","","","","","","","","","","","","72","H","0","img/none_selected.jpg","","92","main_expt",""
"","bandit","173","358291","0.0-134.0-0.0","27460262","wem/bandit_party_2","A2YDA5EGPSTMCC","either","3","23","","","","","","","0","1","0","","0.8498372391","0.6","0.8","0.4","0.2","0.2858753042","0.7381217307","0.7542368763","0.8498372391","","","","","","","","","","","","","","76","L","3","","","93","main_expt",""
"","bandit","174","360331","0.0-135.0-0.0","27460262","wem/bandit_party_2","A2YDA5EGPSTMCC","either","3","529","","","","","","","0","1","0","","0.8440610374","0.6","0.8","0.4","0.2","0.3914428564","0.7776388333","0.6932487021","0.8440610374","","","","","","","","","","","","","","76","L","3","","","94","main_expt",""
"","bandit","175","362198","0.0-136.0-0.0","27460262","wem/bandit_party_2","A2YDA5EGPSTMCC","either","3","359","","","","","","","1","0","0","0.8299152283","","0.6","0.8","0.4","0.2","","","","","0.3800018616","0.8299152283","0.6706070003","0.8092418145","","","","","","","","","","74","J","1","","","95","main_expt",""
"","bandit","176","364050","0.0-137.0-0.0","27460262","wem/bandit_party_2","A2YDA5EGPSTMCC","either","3","346","","","","","","","0","0","1","","0.6670251336","0.6","0.8","0.4","0.2","0.3078584031","0.7697811485","0.6670251336","0.8655172998","","","","","","","","","","","","","","75","K","2","","","96","main_expt",""
"","bandit","177","366109","0.0-138.0-0.0","27460262","wem/bandit_party_2","A2YDA5EGPSTMCC","either","3","552","","","","","","","1","0","0","0.218486712","","0.6","0.8","0.4","0.2","","","","","0.218486712","0.7487724405","0.7023758817","0.8735151232","","","","","","","","","","72","H","0","img/none_selected.jpg","","97","main_expt",""
"","bandit","178","367941","0.0-139.0-0.0","27460262","wem/bandit_party_2","A2YDA5EGPSTMCC","either","3","324","","","","","","","0","1","0","","0.84409386","0.6","0.8","0.4","0.2","0.2037628256","0.7450583294","0.7036518389","0.84409386","","","","","","","","","","","","","","76","L","3","","","98","main_expt",""
"","bandit","179","369912","0.0-140.0-0.0","27460262","wem/bandit_party_2","A2YDA5EGPSTMCC","either","3","461","","","","","","","0","0","1","","0.7227120129","0.6","0.8","0.4","0.2","0.2400196326","0.7227120129","0.8401346726","0.8089648913","","","","","","","","","","","","","","74","J","1","","","99","main_expt",""
"","bandit","180","371779","0.0-141.0-0.0","27460262","wem/bandit_party_2","A2YDA5EGPSTMCC","either","3","361","","","","","","","1","0","0","0.8640782416","","0.6","0.8","0.4","0.2","","","","","0.3298222115","0.5872141049","0.8640782416","0.7259557377","","","","","","","","","","75","K","2","","","100","main_expt",""
"","bandit","181","373689","0.0-142.0-0.0","27460262","wem/bandit_party_2","A2YDA5EGPSTMCC","either","3","395","","","","","","","0","0","1","0.6432213136","","0.6","0.8","0.4","0.2","","","","","0.3108047587","0.6432213136","0.8232172207","0.6332869741","","","","","","","","","","74","J","1","","","101","main_expt",""
"","bandit","182","375959","0.0-143.0-0.0","27460262","wem/bandit_party_2","A2YDA5EGPSTMCC","either","3","765","","","","","","","0","0","1","","0.2869381514","0.6","0.8","0.4","0.2","0.2869381514","0.6009476408","0.8451901448","0.659443461","","","","","","","","","","","","","","72","H","0","img/none_selected.jpg","","102","main_expt",""
"","bandit","183","377879","0.0-144.0-0.0","27460262","wem/bandit_party_2","A2YDA5EGPSTMCC","either","3","413","","","","","","","0","0","1","","0.5959971703","0.6","0.8","0.4","0.2","0.246485708","0.6120105745","0.8792283932","0.5959971703","","","","","","","","","","","","","","76","L","3","","","103","main_expt",""
"","bandit","184","379768","0.0-145.0-0.0","27460262","wem/bandit_party_2","A2YDA5EGPSTMCC","either","3","383","","","","","","","0","1","0","","0.8887181638","0.6","0.8","0.4","0.2","0.2175667678","0.6821098495","0.8887181638","0.5643630141","","","","","","","","","","","","","","75","K","2","","","104","main_expt",""
"","bandit","185","381640","0.0-146.0-0.0","27460262","wem/bandit_party_2","A2YDA5EGPSTMCC","either","3","353","","","","","","","1","0","0","0.7228510016","","0.6","0.8","0.4","0.2","","","","","0.2645808036","0.7228510016","0.8013578166","0.5489079514","","","","","","","","","","74","J","1","","","105","main_expt",""
"","bandit","186","383654","0.0-147.0-0.0","27460262","wem/bandit_party_2","A2YDA5EGPSTMCC","either","3","506","","","","","","","0","0","1","","0.4336033326","0.6","0.8","0.4","0.2","0.2652424516","0.6639212405","0.7307006529","0.4336033326","","","","","","","","","","","","","","76","L","3","","","106","main_expt",""
"","bandit","187","385729","0.0-148.0-0.0","27460262","wem/bandit_party_2","A2YDA5EGPSTMCC","either","3","566","","","","","","","0","1","0","","0.2481661544","0.6","0.8","0.4","0.2","0.2481661544","0.6237034742","0.7519500851","0.4779201531","","","","","","","","","","","","","","72","H","0","img/none_selected.jpg","","107","main_expt",""
"","bandit","188","387612","0.0-149.0-0.0","27460262","wem/bandit_party_2","A2YDA5EGPSTMCC","either","3","374","","","","","","","0","1","0","","0.7457577851","0.6","0.8","0.4","0.2","0.2361720859","0.5847293191","0.7457577851","0.5075294874","","","","","","","","","","","","","","75","K","2","","","108","main_expt",""
"","bandit","189","389541","0.0-150.0-0.0","27460262","wem/bandit_party_2","A2YDA5EGPSTMCC","either","3","401","","","","","","","0","0","1","0.2799679389","","0.6","0.8","0.4","0.2","","","","","0.2799679389","0.6260859175","0.77583868","0.522842385","","","","","","","","","","72","H","0","img/none_selected.jpg","","109","main_expt",""
"","bandit","190","391659","0.0-151.0-0.0","27460262","wem/bandit_party_2","A2YDA5EGPSTMCC","either","3","609","","","","","","","0","0","1","0.4788227383","","0.6","0.8","0.4","0.2","","","","","0.3333098602","0.4788227383","0.7520827962","0.419893696","","","","","","","","","","74","J","1","","","110","main_expt",""
"","bandit","191","393627","0.0-152.0-0.0","27460262","wem/bandit_party_2","A2YDA5EGPSTMCC","either","3","443","","","","","","","0","1","0","","0.6512809768","0.6","0.8","0.4","0.2","0.3669732535","0.6019778282","0.6512809768","0.431092028","","","","","","","","","","","","","","75","K","2","","","111","main_expt",""
"","bandit","192","395370","0.0-153.0-0.0","27460262","wem/bandit_party_2","A2YDA5EGPSTMCC","either","3","235","","","","","","","0","0","1","0.546445977","","0.6","0.8","0.4","0.2","","","","","0.389765336","0.546445977","0.5891937939","0.3590071368","","","","","","","","","","74","J","1","","","112","main_expt",""
"","bandit","193","397291","0.0-154.0-0.0","27460262","wem/bandit_party_2","A2YDA5EGPSTMCC","either","3","413","","","","","","","1","0","0","0.4498419114","","0.6","0.8","0.4","0.2","","","","","0.3191506652","0.6256092846","0.6490525038","0.4498419114","","","","","","","","","","76","L","3","","","113","main_expt",""
"","bandit","194","399247","0.0-155.0-0.0","27460262","wem/bandit_party_2","A2YDA5EGPSTMCC","either","3","450","","","","","","","0","0","1","","0.2090321438","0.6","0.8","0.4","0.2","0.2090321438","0.6577617598","0.6283680234","0.4829831469","","","","","","","","","","","","","","72","H","0","img/none_selected.jpg","","114","main_expt",""
"","bandit","195","401077","0.0-156.0-0.0","27460262","wem/bandit_party_2","A2YDA5EGPSTMCC","either","3","322","","","","","","","1","0","0","0.6064224059","","0.6","0.8","0.4","0.2","","","","","0.2094439124","0.7140476354","0.6064224059","0.4846695964","","","","","","","","","","75","K","2","","","115","main_expt",""
"","bandit","196","402910","0.0-157.0-0.0","27460262","wem/bandit_party_2","A2YDA5EGPSTMCC","either","3","326","","","","","","","0","0","1","0.6589976567","","0.6","0.8","0.4","0.2","","","","","0.2695181069","0.6589976567","0.545813367","0.5396909338","","","","","","","","","","74","J","1","","","116","main_expt",""
"","bandit","197","404729","0.0-158.0-0.0","27460262","wem/bandit_party_2","A2YDA5EGPSTMCC","either","3","307","","","","","","","0","0","1","0.3402036285","","0.6","0.8","0.4","0.2","","","","","0.3402036285","0.6937703341","0.5179373022","0.5378282835","","","","","","","","","","72","H","0","img/none_selected.jpg","","117","main_expt",""
"","bandit","198","406574","0.0-159.0-0.0","27460262","wem/bandit_party_2","A2YDA5EGPSTMCC","either","3","302","","","","","","","0","1","0","","0.5729988564","0.6","0.8","0.4","0.2","0.3101634078","0.77114399","0.4014157923","0.5729988564","","","","","","","","","","","","","","76","L","3","","","118","main_expt",""
"","bandit","199","408709","0.0-160.0-0.0","27460262","wem/bandit_party_2","A2YDA5EGPSTMCC","either","3","629","","","","","","","1","0","0","0.710000291","","0.6","0.8","0.4","0.2","","","","","0.3242193616","0.710000291","0.4360264599","0.5630251564","","","","","","","","","","74","J","1","","","119","main_expt",""
"","bandit","200","410619","0.0-161.0-0.0","27460262","wem/bandit_party_2","A2YDA5EGPSTMCC","either","3","402","","","","","","","0","0","1","0.3297853269","","0.6","0.8","0.4","0.2","","","","","0.3334277272","0.6767982245","0.3297853269","0.6482115929","","","","","","","","","","75","K","2","","","120","main_expt",""
"","bandit","201","412417","0.0-162.0-0.0","27460262","wem/bandit_party_2","A2YDA5EGPSTMCC","either","3","282","","","","","","","0","1","0","","0.4066521311","0.6","0.8","0.4","0.2","0.4066521311","0.7360115258","0.3767442019","0.5688505083","","","","","","","","","","","","","","72","H","0","img/none_selected.jpg","","121","main_expt",""
"","bandit","202","414109","0.0-163.0-0.0","27460262","wem/bandit_party_2","A2YDA5EGPSTMCC","either","3","185","","","","","","","1","0","0","0.3589515546","","0.6","0.8","0.4","0.2","","","","","0.5193034213","0.7258716992","0.3589515546","0.5349597204","","","","","","","","","","75","K","2","","","122","main_expt",""
"","bandit","203","415957","0.0-164.0-0.0","27460262","wem/bandit_party_2","A2YDA5EGPSTMCC","either","3","331","","","","","","","0","1","0","","0.7848203729","0.6","0.8","0.4","0.2","0.5594962391","0.7848203729","0.3461890545","0.412887176","","","","","","","","","","","","","","74","J","1","","","123","main_expt",""
"","bandit","204","417770","0.0-165.0-0.0","27460262","wem/bandit_party_2","A2YDA5EGPSTMCC","either","3","305","","","","","","","0","1","0","","0.4137060999","0.6","0.8","0.4","0.2","0.6876014299","0.7673004895","0.2287340519","0.4137060999","","","","","","","","","","","","","","76","L","3","","","124","main_expt",""
"","bandit","205","419480","0.0-166.0-0.0","27460262","wem/bandit_party_2","A2YDA5EGPSTMCC","either","3","202","","","","","","","0","0","1","0.3226696341","","0.6","0.8","0.4","0.2","","","","","0.7354493796","0.8020703208","0.2900718705","0.3226696341","","","","","","","","","","76","L","3","","","125","main_expt",""
"","bandit","206","421408","0.0-167.0-0.0","27460262","wem/bandit_party_2","A2YDA5EGPSTMCC","either","3","420","","","","","","","0","1","0","","0.8196031782","0.6","0.8","0.4","0.2","0.76840964","0.8196031782","0.2880997441","0.3904211026","","","","","","","","","","","","","","74","J","1","","","126","main_expt",""
"","bandit","207","423047","0.0-168.0-0.0","27460262","wem/bandit_party_2","A2YDA5EGPSTMCC","either","3","131","","","","","","","0","0","1","0.3451069126","","0.6","0.8","0.4","0.2","","","","","0.7310750685","0.7095492128","0.3451069126","0.4227014292","","","","","","","","","","75","K","2","","","127","main_expt",""
"","bandit","208","424759","0.0-169.0-0.0","27460262","wem/bandit_party_2","A2YDA5EGPSTMCC","either","3","204","","","","","","","0","0","1","0.6582635175","","0.6","0.8","0.4","0.2","","","","","0.6582635175","0.711577854","0.3129298861","0.543317668","","","","","","","","","","72","H","0","img/none_selected.jpg","","128","main_expt",""
"","bandit","209","426301","0.0-170.0-0.0","27460262","wem/bandit_party_2","A2YDA5EGPSTMCC","either","3","34","","","","","","","0","1","0","","0.7529887683","0.6","0.8","0.4","0.2","0.7529887683","0.7022761705","0.3507055597","0.5906282681","","","","","","","","","","","","","","72","H","0","img/none_selected.jpg","","129","main_expt",""
"","bandit","210","427877","0.0-171.0-0.0","27460262","wem/bandit_party_2","A2YDA5EGPSTMCC","either","3","69","","","","","","","0","0","1","0.7309419319","","0.6","0.8","0.4","0.2","","","","","0.7929301986","0.7309419319","0.3753424236","0.6636268631","","","","","","","","","","74","J","1","","","130","main_expt",""
"","bandit","211","429671","0.0-172.0-0.0","27460262","wem/bandit_party_2","A2YDA5EGPSTMCC","either","3","286","","","","","","","0","0","1","0.5686699027","","0.6","0.8","0.4","0.2","","","","","0.8149544693","0.6904825683","0.3473486375","0.5686699027","","","","","","","","","","76","L","3","","","131","main_expt",""
"","bandit","212","431598","0.0-173.0-0.0","27460262","wem/bandit_party_2","A2YDA5EGPSTMCC","either","3","421","","","","","","","0","0","1","","0.303679922","0.6","0.8","0.4","0.2","0.7626544417","0.7153166113","0.303679922","0.6564012045","","","","","","","","","","","","","","75","K","2","","","132","main_expt",""
"","bandit","213","433381","0.0-174.0-0.0","27460262","wem/bandit_party_2","A2YDA5EGPSTMCC","either","3","272","","","","","","","0","0","1","","0.5876654864","0.6","0.8","0.4","0.2","0.7584501248","0.8135501627","0.3385565331","0.5876654864","","","","","","","","","","","","","","76","L","3","","","133","main_expt",""
"","bandit","214","435157","0.0-175.0-0.0","27460262","wem/bandit_party_2","A2YDA5EGPSTMCC","either","3","269","","","","","","","0","1","0","","0.7905015291","0.6","0.8","0.4","0.2","0.7905015291","0.7707892239","0.3686406913","0.5299368298","","","","","","","","","","","","","","72","H","0","img/none_selected.jpg","","134","main_expt",""
"","bandit","215","436889","0.0-176.0-0.0","27460262","wem/bandit_party_2","A2YDA5EGPSTMCC","either","3","223","","","","","","","0","0","1","","0.3672202126","0.6","0.8","0.4","0.2","0.7515189777","0.7689088841","0.3672202126","0.4547966061","","","","","","","","","","","","","","75","K","2","","","135","main_expt",""
"","bandit","216","438480","0.0-177.0-0.0","27460262","wem/bandit_party_2","A2YDA5EGPSTMCC","either","3","72","","","","","","","0","1","0","","0.6641324257","0.6","0.8","0.4","0.2","0.7293518859","0.6641324257","0.4064769993","0.5290841583","","","","","","","","","","","","","","74","J","1","","","136","main_expt",""
"","bandit","217","440207","0.0-178.0-0.0","27460262","wem/bandit_party_2","A2YDA5EGPSTMCC","either","3","214","","","","","","","0","0","1","","0.419904672","0.6","0.8","0.4","0.2","0.7286216209","0.635388201","0.3492503667","0.419904672","","","","","","","","","","","","","","76","L","3","","","137","main_expt",""
"","bandit","218","442118","0.0-179.0-0.0","27460262","wem/bandit_party_2","A2YDA5EGPSTMCC","either","3","404","","","","","","","0","0","1","","0.3315752647","0.6","0.8","0.4","0.2","0.7425921641","0.6889508363","0.3315752647","0.4532768315","","","","","","","","","","","","","","75","K","2","","","138","main_expt",""
"","bandit","219","443969","0.0-180.0-0.0","27460262","wem/bandit_party_2","A2YDA5EGPSTMCC","either","3","343","","","","","","","0","0","1","","0.7356638012","0.6","0.8","0.4","0.2","0.7356638012","0.6481427694","0.3080831972","0.4194835996","","","","","","","","","","","","","","72","H","0","img/none_selected.jpg","","139","main_expt",""
"","bandit","220","445728","0.0-181.0-0.0","27460262","wem/bandit_party_2","A2YDA5EGPSTMCC","either","3","247","","","","","","","1","0","0","0.6497449761","","0.6","0.8","0.4","0.2","","","","","0.7334346803","0.6497449761","0.3254670704","0.420008375","","","","","","","","","","74","J","1","","","140","main_expt",""
"","bandit","221","447489","0.0-182.0-0.0","27460262","wem/bandit_party_2","A2YDA5EGPSTMCC","either","3","255","","","","","","","0","0","1","","0.3908595681","0.6","0.8","0.4","0.2","0.7737071977","0.7328205829","0.3452870884","0.3908595681","","","","","","","","","","","","","","76","L","3","","","141","main_expt",""
"","bandit","222","449287","0.0-183.0-0.0","27460262","wem/bandit_party_2","A2YDA5EGPSTMCC","either","3","292","","","","","","","0","0","1","","0.2659846132","0.6","0.8","0.4","0.2","0.7912630164","0.6396752577","0.2659846132","0.3994278682","","","","","","","","","","","","","","75","K","2","","","142","main_expt",""
"","bandit","223","450919","0.0-184.0-0.0","27460262","wem/bandit_party_2","A2YDA5EGPSTMCC","either","3","123","","","","","","","1","0","0","0.5974809775","","0.6","0.8","0.4","0.2","","","","","0.7709923268","0.5974809775","0.2549781044","0.3137486051","","","","","","","","","","74","J","1","","","143","main_expt",""
"","bandit","224","452467","0.0-185.0-0.0","27460262","wem/bandit_party_2","A2YDA5EGPSTMCC","either","3","41","","","","","","","0","0","1","0.3961992406","","0.6","0.8","0.4","0.2","","","","","0.7492848764","0.5953980303","0.3603981418","0.3961992406","","","","","","","","","","76","L","3","","","144","main_expt",""
"","bandit","225","454179","0.0-186.0-0.0","27460262","wem/bandit_party_2","A2YDA5EGPSTMCC","either","3","203","","","","","","","0","0","1","0.6215671736","","0.6","0.8","0.4","0.2","","","","","0.7343485297","0.6215671736","0.3682949958","0.3186856111","","","","","","","","","","74","J","1","","","145","main_expt",""
"","bandit","226","456118","0.0-187.0-0.0","27460262","wem/bandit_party_2","A2YDA5EGPSTMCC","either","3","433","","","","","","","0","0","1","0.7701032705","","0.6","0.8","0.4","0.2","","","","","0.7701032705","0.5766937592","0.5028772858","0.2724247948","","","","","","","","","","72","H","0","img/none_selected.jpg","","146","main_expt",""
"","bandit","227","457757","0.0-188.0-0.0","27460262","wem/bandit_party_2","A2YDA5EGPSTMCC","either","3","132","","","","","","","0","0","1","","0.4186890645","0.6","0.8","0.4","0.2","0.7521601774","0.4600492943","0.4186890645","0.2844288079","","","","","","","","","","","","","","75","K","2","","","147","main_expt",""
"","bandit","228","459367","0.0-189.0-0.0","27460262","wem/bandit_party_2","A2YDA5EGPSTMCC","either","3","102","","","","","","","0","1","0","","0.4575448178","0.6","0.8","0.4","0.2","0.7762143641","0.4575448178","0.3928328601","0.3095389551","","","","","","","","","","","","","","74","J","1","","","148","main_expt",""
"","bandit","229","461442","0.0-190.0-0.0","27460262","wem/bandit_party_2","A2YDA5EGPSTMCC","either","3","566","","","","","","","1","0","0","0.2464654743","","0.6","0.8","0.4","0.2","","","","","0.716016993","0.3840278576","0.4220063763","0.2464654743","","","","","","","","","","76","L","3","","","149","main_expt",""
"","bandit","230","463217","0.0-191.0-0.0","27460262","wem/bandit_party_2","A2YDA5EGPSTMCC","either","3","269","","","","","","","0","0","1","0.3206822378","","0.6","0.8","0.4","0.2","","","","","0.7182774931","0.3004406684","0.3206822378","0.2088091358","","","","","","","","","","75","K","2","","","150","main_expt",""
"","bandit","231","465228","0.0-192.0-0.0","27460262","wem/bandit_party_2","A2YDA5EGPSTMCC","either","3","504","","","","","","","0","0","1","0.8028216805","","0.6","0.8","0.4","0.2","","","","","0.8028216805","0.2769981479","0.3380172956","0.2670014618","","","","","","","","","","72","H","0","img/none_selected.jpg","","151","main_expt",""
"","bandit","232","466809","0.0-193.0-0.0","27460262","wem/bandit_party_2","A2YDA5EGPSTMCC","either","3","71","","","","","","","0","1","0","","0.40565407","0.6","0.8","0.4","0.2","0.8634692279","0.40565407","0.2461440624","0.3100930243","","","","","","","","","","","","","","74","J","1","","","152","main_expt",""
"","bandit","233","468637","0.0-194.0-0.0","27460262","wem/bandit_party_2","A2YDA5EGPSTMCC","either","3","316","","","","","","","0","0","1","0.3796096158","","0.6","0.8","0.4","0.2","","","","","0.7719190238","0.3829351634","0.1852716423","0.3796096158","","","","","","","","","","76","L","3","","","153","main_expt",""
"","bandit","234","470177","0.0-195.0-0.0","27460262","wem/bandit_party_2","A2YDA5EGPSTMCC","either","3","33","","","","","","","0","0","1","0.4912137185","","0.6","0.8","0.4","0.2","","","","","0.8343429945","0.4912137185","0.1660439368","0.2265028128","","","","","","","","","","74","J","1","","","154","main_expt",""
"","bandit","235","471877","0.0-196.0-0.0","27460262","wem/bandit_party_2","A2YDA5EGPSTMCC","either","3","194","","","","","","","0","1","0","","0.2241607793","0.6","0.8","0.4","0.2","0.7908731232","0.5312535156","0.2241607793","0.2135741777","","","","","","","","","","","","","","75","K","2","","","155","main_expt",""
"","bandit","236","473787","0.0-197.0-0.0","27460262","wem/bandit_party_2","A2YDA5EGPSTMCC","either","3","402","","","","","","","1","0","0","0.7848911391","","0.6","0.8","0.4","0.2","","","","","0.7848911391","0.5747898199","0.1566338899","0.1338357519","","","","","","","","","","72","H","0","img/none_selected.jpg","","156","main_expt",""
"","bandit","237","475537","0.0-198.0-0.0","27460262","wem/bandit_party_2","A2YDA5EGPSTMCC","either","3","242","","","","","","","0","0","1","0.1344370697","","0.6","0.8","0.4","0.2","","","","","0.7467155263","0.5948125822","0.1839373886","0.1344370697","","","","","","","","","","76","L","3","","","157","main_expt",""
"","bandit","238","477186","0.0-199.0-0.0","27460262","wem/bandit_party_2","A2YDA5EGPSTMCC","either","3","139","","","","","","","1","0","0","0.6533804049","","0.6","0.8","0.4","0.2","","","","","0.7413618202","0.6533804049","0.155802242","0.1217930933","","","","","","","","","","74","J","1","","","158","main_expt",""
"","bandit","239","478928","0.0-200.0-0.0","27460262","wem/bandit_party_2","A2YDA5EGPSTMCC","either","3","234","","","","","","","0","0","1","","0.2304237345","0.6","0.8","0.4","0.2","0.6882043704","0.5777198579","0.2304237345","0.08524485746","","","","","","","","","","","","","","75","K","2","","","159","main_expt",""
"","bandit","240","480476","0.0-201.0-0.0","27460262","wem/bandit_party_2","A2YDA5EGPSTMCC","either","3","43","","","","","","","1","0","0","0.7253096401","","0.6","0.8","0.4","0.2","","","","","0.7253096401","0.6777741118","0.2242026456","0.07332219892","","","","","","","","","","72","H","0","img/none_selected.jpg","","160","main_expt",""
"","bandit","241","482137","0.0-202.0-0.0","27460262","wem/bandit_party_2","A2YDA5EGPSTMCC","either","3","155","","","","","","","0","0","1","","0.1063489691","0.6","0.8","0.4","0.2","0.6989182833","0.6249074267","0.2708915048","0.1063489691","","","","","","","","","","","","","","76","L","3","","","161","main_expt",""
"","bandit","242","483968","0.0-203.0-0.0","27460262","wem/bandit_party_2","A2YDA5EGPSTMCC","either","3","323","","","","","","","1","0","0","0.6755041601","","0.6","0.8","0.4","0.2","","","","","0.7679575172","0.6755041601","0.2921592604","0.09670310095","","","","","","","","","","74","J","1","","","162","main_expt",""
"","bandit","243","485698","0.0-204.0-0.0","27460262","wem/bandit_party_2","A2YDA5EGPSTMCC","either","3","223","","","","","","","0","0","1","0.1266359811","","0.6","0.8","0.4","0.2","","","","","0.6877390752","0.6461818487","0.2050535257","0.1266359811","","","","","","","","","","76","L","3","","","163","main_expt",""
"","bandit","244","487539","0.0-205.0-0.0","27460262","wem/bandit_party_2","A2YDA5EGPSTMCC","either","3","333","","","","","","","1","0","0","0.1998759094","","0.6","0.8","0.4","0.2","","","","","0.6957575266","0.76368027","0.1998759094","0.1212611996","","","","","","","","","","75","K","2","","","164","main_expt",""
"","bandit","245","489577","0.0-206.0-0.0","27460262","wem/bandit_party_2","A2YDA5EGPSTMCC","either","3","521","","","","","","","1","0","0","0.6760148625","","0.6","0.8","0.4","0.2","","","","","0.6760148625","0.8400099296","0.1821974317","0.1917887173","","","","","","","","","","72","H","0","img/none_selected.jpg","","165","main_expt",""
"","bandit","246","491469","0.0-207.0-0.0","27460262","wem/bandit_party_2","A2YDA5EGPSTMCC","either","3","384","","","","","","","1","0","0","0.8573275969","","0.6","0.8","0.4","0.2","","","","","0.6463317238","0.8573275969","0.2916844583","0.1560613016","","","","","","","","","","74","J","1","","","166","main_expt",""
"","bandit","247","493278","0.0-208.0-0.0","27460262","wem/bandit_party_2","A2YDA5EGPSTMCC","either","3","301","","","","","","","0","1","0","","0.2214887095","0.6","0.8","0.4","0.2","0.5613055562","0.7735369509","0.3087465624","0.2214887095","","","","","","","","","","","","","","76","L","3","","","167","main_expt",""
"","bandit","248","495278","0.0-209.0-0.0","27460262","wem/bandit_party_2","A2YDA5EGPSTMCC","either","3","493","","","","","","","0","0","1","0.3896626528","","0.6","0.8","0.4","0.2","","","","","0.5586162784","0.8091314607","0.3896626528","0.3463453368","","","","","","","","","","75","K","2","","","168","main_expt",""
"","bandit","249","497187","0.0-210.0-0.0","27460262","wem/bandit_party_2","A2YDA5EGPSTMCC","either","3","403","","","","","","","1","0","0","0.8364166478","","0.6","0.8","0.4","0.2","","","","","0.597448185","0.8364166478","0.4458805252","0.3222551453","","","","","","","","","","74","J","1","","","169","main_expt",""
"","bandit","250","499029","0.0-211.0-0.0","27460262","wem/bandit_party_2","A2YDA5EGPSTMCC","either","3","333","","","","","","","0","0","1","","0.5351242352","0.6","0.8","0.4","0.2","0.5351242352","0.7867883415","0.4844269655","0.2556410415","","","","","","","","","","","","","","72","H","0","img/none_selected.jpg","","170","main_expt",""
"","bandit","251","501556","0.0-212.0-0.0","27460262","wem/bandit_party_2","A2YDA5EGPSTMCC","either","3","980","","","","","","","1","0","0","0.4858642724","","0.6","0.8","0.4","0.2","","","","","0.4819966971","0.8728822524","0.4858642724","0.2248109201","","","","","","","","","","75","K","2","","","171","main_expt",""
"","bandit","252","503467","0.0-213.0-0.0","27460262","wem/bandit_party_2","A2YDA5EGPSTMCC","either","3","403","","","","","","","0","0","1","0.7804912391","","0.6","0.8","0.4","0.2","","","","","0.4038669266","0.7804912391","0.5060245996","0.3468742366","","","","","","","","","","74","J","1","","","172","main_expt",""
"","bandit","253","505239","0.0-214.0-0.0","27460262","wem/bandit_party_2","A2YDA5EGPSTMCC","either","3","264","","","","","","","0","1","0","","0.234408543","0.6","0.8","0.4","0.2","0.3102533384","0.7728490534","0.5413528159","0.234408543","","","","","","","","","","","","","","76","L","3","","","173","main_expt",""
"","bandit","254","507039","0.0-215.0-0.0","27460262","wem/bandit_party_2","A2YDA5EGPSTMCC","either","3","292","","","","","","","0","1","0","","0.6505326818","0.6","0.8","0.4","0.2","0.3818943333","0.814185781","0.6505326818","0.1404050277","","","","","","","","","","","","","","75","K","2","","","174","main_expt",""
"","bandit","255","509017","0.0-216.0-0.0","27460262","wem/bandit_party_2","A2YDA5EGPSTMCC","either","3","472","","","","","","","1","0","0","0.8010682597","","0.6","0.8","0.4","0.2","","","","","0.2893198216","0.8010682597","0.6470977149","0.1081611795","","","","","","","","","","74","J","1","","","175","main_expt",""
"","bandit","256","510848","0.0-217.0-0.0","27460262","wem/bandit_party_2","A2YDA5EGPSTMCC","either","3","324","","","","","","","0","0","1","0.226416223","","0.6","0.8","0.4","0.2","","","","","0.226416223","0.7083228223","0.6844229635","0.0730283124","","","","","","","","","","72","H","0","img/none_selected.jpg","","176","main_expt",""
"","bandit","257","512669","0.0-218.0-0.0","27460262","wem/bandit_party_2","A2YDA5EGPSTMCC","either","3","312","","","","","","","0","0","1","","0.6883244284","0.6","0.8","0.4","0.2","0.2786676386","0.7408938443","0.6883244284","0.07044941978","","","","","","","","","","","","","","75","K","2","","","177","main_expt",""
"","bandit","258","514308","0.0-219.0-0.0","27460262","wem/bandit_party_2","A2YDA5EGPSTMCC","either","3","131","","","","","","","1","0","0","0.6621187214","","0.6","0.8","0.4","0.2","","","","","0.2279078815","0.6621187214","0.6098590842","0.06886985111","","","","","","","","","","74","J","1","","","178","main_expt",""
"","bandit","259","516298","0.0-220.0-0.0","27460262","wem/bandit_party_2","A2YDA5EGPSTMCC","either","3","481","","","","","","","0","0","1","","0.07254371148","0.6","0.8","0.4","0.2","0.1690126781","0.6765487854","0.5924449164","0.07254371148","","","","","","","","","","","","","","76","L","3","","","179","main_expt",""
"","bandit","260","518187","0.0-221.0-0.0","27460262","wem/bandit_party_2","A2YDA5EGPSTMCC","either","3","382","","","","","","","1","0","0","0.7276027883","","0.6","0.8","0.4","0.2","","","","","0.1356066944","0.7276027883","0.4915111467","0.055057054","","","","","","","","","","74","J","1","","","180","main_expt",""
"","bandit","261","519698","0.0-222.0-0.0","27460262","wem/bandit_party_2","A2YDA5EGPSTMCC","either","3","1","","","","","","","0","1","0","","0.4713933083","0.6","0.8","0.4","0.2","0.1889441784","0.7083410305","0.4713933083","0.1187845962","","","","","","","","","","","","","","75","K","2","","","181","main_expt",""
"","bandit","262","521538","0.0-223.0-0.0","27460262","wem/bandit_party_2","A2YDA5EGPSTMCC","either","3","332","","","","","","","0","0","1","0.2163976064","","0.6","0.8","0.4","0.2","","","","","0.2163976064","0.6489729838","0.500114893","0.1304227184","","","","","","","","","","72","H","0","img/none_selected.jpg","","182","main_expt",""
"","bandit","263","523687","0.0-224.0-0.0","27460262","wem/bandit_party_2","A2YDA5EGPSTMCC","either","3","641","","","","","","","1","0","0","0.4949273894","","0.6","0.8","0.4","0.2","","","","","0.1902524086","0.6956751073","0.4949273894","0.1374638341","","","","","","","","","","75","K","2","","","183","main_expt",""
"","bandit","264","525426","0.0-225.0-0.0","27460262","wem/bandit_party_2","A2YDA5EGPSTMCC","either","3","232","","","","","","","0","0","1","0.6066537109","","0.6","0.8","0.4","0.2","","","","","0.2265805791","0.6066537109","0.4271361476","0.1914365344","","","","","","","","","","74","J","1","","","184","main_expt",""
"","bandit","265","527639","0.0-226.0-0.0","27460262","wem/bandit_party_2","A2YDA5EGPSTMCC","either","3","704","","","","","","","1","0","0","0.1939872458","","0.6","0.8","0.4","0.2","","","","","0.1843452782","0.6337362372","0.4558255176","0.1939872458","","","","","","","","","","76","L","3","","","185","main_expt",""
"","bandit","266","529519","0.0-227.0-0.0","27460262","wem/bandit_party_2","A2YDA5EGPSTMCC","either","3","360","","","","","","","0","0","1","","0.5908962551","0.6","0.8","0.4","0.2","0.1898387663","0.5908962551","0.4031301461","0.2219937035","","","","","","","","","","","","","","74","J","1","","","186","main_expt",""
"","bandit","267","531326","0.0-228.0-0.0","27460262","wem/bandit_party_2","A2YDA5EGPSTMCC","either","3","298","","","","","","","0","0","1","0.3993697366","","0.6","0.8","0.4","0.2","","","","","0.210498268","0.7651761031","0.3993697366","0.2024523472","","","","","","","","","","75","K","2","","","187","main_expt",""
"","bandit","268","533356","0.0-229.0-0.0","27460262","wem/bandit_party_2","A2YDA5EGPSTMCC","either","3","523","","","","","","","0","0","1","","0.2368649008","0.6","0.8","0.4","0.2","0.2368649008","0.7928336054","0.4478687375","0.1930401344","","","","","","","","","","","","","","72","H","0","img/none_selected.jpg","","188","main_expt",""
"","bandit","269","534877","0.0-230.0-0.0","27460262","wem/bandit_party_2","A2YDA5EGPSTMCC","either","3","13","","","","","","","0","1","0","","0.3699601256","0.6","0.8","0.4","0.2","0.291591963","0.8917358491","0.3699601256","0.3255404916","","","","","","","","","","","","","","75","K","2","","","189","main_expt",""
"","bandit","270","537176","0.0-231.0-0.0","27460262","wem/bandit_party_2","A2YDA5EGPSTMCC","either","3","793","","","","","","","1","0","0","0.898448025","","0.6","0.8","0.4","0.2","","","","","0.4411779124","0.898448025","0.3723251068","0.2364063212","","","","","","","","","","74","J","1","","","190","main_expt",""
"","bandit","271","539035","0.0-232.0-0.0","27460262","wem/bandit_party_2","A2YDA5EGPSTMCC","either","3","344","","","","","","","0","1","0","","0.2662767285","0.6","0.8","0.4","0.2","0.3968704403","0.9186708851","0.3309849287","0.2662767285","","","","","","","","","","","","","","76","L","3","","","191","main_expt",""
"","bandit","272","540668","0.0-233.0-0.0","27460262","wem/bandit_party_2","A2YDA5EGPSTMCC","either","3","123","","","","","","","0","0","1","","0.4512817608","0.6","0.8","0.4","0.2","0.4512817608","0.9314477517","0.2865625263","0.2815174114","","","","","","","","","","","","","","72","H","0","img/none_selected.jpg","","192","main_expt",""
"","bandit","273","542358","0.0-234.0-0.0","27460262","wem/bandit_party_2","A2YDA5EGPSTMCC","either","3","178","","","","","","","0","1","0","","0.2862811746","0.6","0.8","0.4","0.2","0.4788006455","0.9090465067","0.2862811746","0.3461293965","","","","","","","","","","","","","","75","K","2","","","193","main_expt",""
"","bandit","274","544087","0.0-235.0-0.0","27460262","wem/bandit_party_2","A2YDA5EGPSTMCC","either","3","222","","","","","","","0","0","1","0.8762249788","","0.6","0.8","0.4","0.2","","","","","0.4651889587","0.8762249788","0.2785288642","0.3303735913","","","","","","","","","","74","J","1","","","194","main_expt",""
"","bandit","275","545838","0.0-236.0-0.0","27460262","wem/bandit_party_2","A2YDA5EGPSTMCC","either","3","242","","","","","","","0","0","1","0.2283941808","","0.6","0.8","0.4","0.2","","","","","0.4718629942","0.8623185747","0.2283941808","0.3194565039","","","","","","","","","","75","K","2","","","195","main_expt",""
"","bandit","276","547699","0.0-237.0-0.0","27460262","wem/bandit_party_2","A2YDA5EGPSTMCC","either","3","331","","","","","","","0","1","0","","0.4103944464","0.6","0.8","0.4","0.2","0.3825708332","0.7745977574","0.214282227","0.4103944464","","","","","","","","","","","","","","76","L","3","","","196","main_expt",""
"","bandit","277","549583","0.0-238.0-0.0","27460262","wem/bandit_party_2","A2YDA5EGPSTMCC","either","3","339","","","","","","","1","0","0","0.4530864699","","0.6","0.8","0.4","0.2","","","","","0.4530864699","0.7723069829","0.1422959513","0.4445726534","","","","","","","","","","72","H","0","img/none_selected.jpg","","197","main_expt",""
"","bandit","278","551216","0.0-239.0-0.0","27460262","wem/bandit_party_2","A2YDA5EGPSTMCC","either","3","124","","","","","","","0","0","1","","0.1126324943","0.6","0.8","0.4","0.2","0.4337652667","0.7084082875","0.1126324943","0.4351718099","","","","","","","","","","","","","","75","K","2","","","198","main_expt",""
"","bandit","279","552917","0.0-240.0-0.0","27460262","wem/bandit_party_2","A2YDA5EGPSTMCC","either","3","194","","","","","","","1","0","0","0.7016883558","","0.6","0.8","0.4","0.2","","","","","0.4138332966","0.7016883558","0.1144166609","0.4641294157","","","","","","","","","","74","J","1","","","199","main_expt",""
"","bandit","280","554760","0.0-241.0-0.0","27460262","wem/bandit_party_2","A2YDA5EGPSTMCC","either","3","334","","","","","","","1","0","0","0.4468687069","","0.6","0.8","0.4","0.2","","","","","0.5005175686","0.6504384346","0.1518003708","0.4468687069","","","","","","","","","","76","L","3","","","200","main_expt",""
"","bandit","281","556547","0.0-242.0-0.0","27460262","wem/bandit_party_2","A2YDA5EGPSTMCC","either","3","276","","","","","","","0","1","0","","0.5122642399","0.6","0.8","0.4","0.2","0.5122642399","0.7904945102","0.1974433607","0.5087435212","","","","","","","","","","","","","","72","H","0","img/none_selected.jpg","","201","main_expt",""
"","bandit","282","558623","0.0-243.0-0.0","27460262","wem/bandit_party_2","A2YDA5EGPSTMCC","either","3","559","","","","","","","0","0","1","0.5414597976","","0.6","0.8","0.4","0.2","","","","","0.5414597976","0.7039472437","0.2000842809","0.4992132835","","","","","","","","","","72","H","0","img/none_selected.jpg","","202","main_expt",""
"","bandit","283","560626","0.0-244.0-0.0","27460262","wem/bandit_party_2","A2YDA5EGPSTMCC","either","3","496","","","","","","","0","1","0","","0.4993649945","0.6","0.8","0.4","0.2","0.4993649945","0.7478807213","0.1715580826","0.4859842053","","","","","","","","","","","","","","72","H","0","img/none_selected.jpg","","203","main_expt",""
"","bandit","284","562737","0.0-245.0-0.0","27460262","wem/bandit_party_2","A2YDA5EGPSTMCC","either","3","602","","","","","","","0","0","1","0.3028604286","","0.6","0.8","0.4","0.2","","","","","0.4056752737","0.7346150791","0.3028604286","0.6162755314","","","","","","","","","","75","K","2","","","204","main_expt",""
"","bandit","285","564572","0.0-246.0-0.0","27460262","wem/bandit_party_2","A2YDA5EGPSTMCC","either","3","322","","","","","","","1","0","0","0.7240623961","","0.6","0.8","0.4","0.2","","","","","0.4174768156","0.7240623961","0.3714949669","0.6204906845","","","","","","","","","","74","J","1","","","205","main_expt",""
"","bandit","286","566597","0.0-247.0-0.0","27460262","wem/bandit_party_2","A2YDA5EGPSTMCC","either","3","517","","","","","","","0","0","1","","0.6390595606","0.6","0.8","0.4","0.2","0.4364097613","0.733657826","0.3034865557","0.6390595606","","","","","","","","","","","","","","76","L","3","","","206","main_expt",""
"","bandit","287","568287","0.0-248.0-0.0","27460262","wem/bandit_party_2","A2YDA5EGPSTMCC","either","3","184","","","","","","","1","0","0","0.6797091947","","0.6","0.8","0.4","0.2","","","","","0.4666062126","0.6797091947","0.2688105372","0.6022157482","","","","","","","","","","74","J","1","","","207","main_expt",""
"","bandit","288","570077","0.0-249.0-0.0","27460262","wem/bandit_party_2","A2YDA5EGPSTMCC","either","3","282","","","","","","","1","0","0","0.4594719295","","0.6","0.8","0.4","0.2","","","","","0.4594719295","0.472157919","0.2240001326","0.6598502583","","","","","","","","","","72","H","0","img/none_selected.jpg","","208","main_expt",""
"","bandit","289","572599","0.0-250.0-0.0","27460262","wem/bandit_party_2","A2YDA5EGPSTMCC","either","3","1010","","","","","","","0","1","0","","0.6329069529","0.6","0.8","0.4","0.2","0.5415101973","0.4993955773","0.3284172364","0.6329069529","","","","","","","","","","","","","","76","L","3","","","209","main_expt",""
"","bandit","290","574358","0.0-251.0-0.0","27460262","wem/bandit_party_2","A2YDA5EGPSTMCC","either","3","249","","","","","","","1","0","0","0.3923888982","","0.6","0.8","0.4","0.2","","","","","0.5627952802","0.3923888982","0.3178667136","0.5418549626","","","","","","","","","","74","J","1","","","210","main_expt",""
"","bandit","291","576267","0.0-252.0-0.0","27460262","wem/bandit_party_2","A2YDA5EGPSTMCC","either","3","401","","","","","","","0","1","0","","0.7265410197","0.6","0.8","0.4","0.2","0.5779033475","0.4183885941","0.278360526","0.7265410197","","","","","","","","","","","","","","76","L","3","","","211","main_expt",""
"","bandit","292","578226","0.0-253.0-0.0","27460262","wem/bandit_party_2","A2YDA5EGPSTMCC","either","3","449","","","","","","","0","0","1","","0.5367383083","0.6","0.8","0.4","0.2","0.6169713091","0.5367383083","0.2720231684","0.6550819281","","","","","","","","","","","","","","74","J","1","","","212","main_expt",""
"","bandit","293","579888","0.0-254.0-0.0","27460262","wem/bandit_party_2","A2YDA5EGPSTMCC","either","3","154","","","","","","","0","0","1","","0.5779451767","0.6","0.8","0.4","0.2","0.5688165975","0.5779451767","0.3445332441","0.5812500281","","","","","","","","","","","","","","74","J","1","","","213","main_expt",""
"","bandit","294","581995","0.0-255.0-0.0","27460262","wem/bandit_party_2","A2YDA5EGPSTMCC","either","3","371","","","","","","","0","0","1","0.5615700258","","0.6","0.8","0.4","0.2","","","","","0.5354690829","0.5615700258","0.331154659","0.6912727382","","","","","","","","","","74","J","1","","","214","main_expt",""
"","bandit","295","584157","0.0-256.0-0.0","27460262","wem/bandit_party_2","A2YDA5EGPSTMCC","either","3","323","","","","","","","0","0","1","0.3168016653","","0.6","0.8","0.4","0.2","","","","","0.4395706401","0.5361399643","0.3168016653","0.695573978","","","","","","","","","","75","K","2","","","215","main_expt",""
"","bandit","296","585901","0.0-257.0-0.0","27460262","wem/bandit_party_2","A2YDA5EGPSTMCC","either","3","232","","","","","","","1","0","0","0.620750855","","0.6","0.8","0.4","0.2","","","","","0.4522294324","0.620750855","0.2870858596","0.6531454011","","","","","","","","","","74","J","1","","","216","main_expt",""
"","bandit","297","587824","0.0-258.0-0.0","27460262","wem/bandit_party_2","A2YDA5EGPSTMCC","either","3","248","","","","","","","0","1","0","","0.6459690495","0.6","0.8","0.4","0.2","0.4141575353","0.4812239037","0.2877345098","0.6459690495","","","","","","","","","","","","","","76","L","3","","","217","main_expt",""
"","bandit","298","589599","0.0-259.0-0.0","27460262","wem/bandit_party_2","A2YDA5EGPSTMCC","either","3","96","","","","","","","0","0","1","","0.3608492067","0.6","0.8","0.4","0.2","0.3009722504","0.4028497994","0.3608492067","0.6679944541","","","","","","","","","","","","","","75","K","2","","","218","main_expt",""
"","bandit","299","591445","0.0-260.0-0.0","27460262","wem/bandit_party_2","A2YDA5EGPSTMCC","either","3","239","","","","","","","1","0","0","0.4441021312","","0.6","0.8","0.4","0.2","","","","","0.2706893249","0.4441021312","0.4380407461","0.7159195147","","","","","","","","","","74","J","1","","","219","main_expt",""
"","bandit","300","593256","0.0-261.0-0.0","27460262","wem/bandit_party_2","A2YDA5EGPSTMCC","either","3","293","","","","","","","0","0","1","0.4769938592","","0.6","0.8","0.4","0.2","","","","","0.3821277721","0.4867825248","0.4769938592","0.6874484601","","","","","","","","","","75","K","2","","","220","main_expt",""
"","bandit","301","594828","0.0-262.0-0.0","27460262","wem/bandit_party_2","A2YDA5EGPSTMCC","either","3","64","","","","","","","0","0","1","","0.4534214389","0.6","0.8","0.4","0.2","0.4534214389","0.5428062785","0.4612627877","0.6528128226","","","","","","","","","","","","","","72","H","0","img/none_selected.jpg","","221","main_expt",""
"","bandit","302","596544","0.0-263.0-0.0","27460262","wem/bandit_party_2","A2YDA5EGPSTMCC","either","3","200","","","","","","","0","1","0","","0.4192901336","0.6","0.8","0.4","0.2","0.6049712458","0.5993321864","0.4192901336","0.6836467719","","","","","","","","","","","","","","75","K","2","","","222","main_expt",""
"","bandit","303","598548","0.0-264.0-0.0","27460262","wem/bandit_party_2","A2YDA5EGPSTMCC","either","3","495","","","","","","","1","0","0","0.4920604154","","0.6","0.8","0.4","0.2","","","","","0.6389506418","0.4920604154","0.5559965486","0.7820879334","","","","","","","","","","74","J","1","","","223","main_expt",""
"","bandit","304","600316","0.0-265.0-0.0","27460262","wem/bandit_party_2","A2YDA5EGPSTMCC","either","3","259","","","","","","","0","0","1","","0.763226653","0.6","0.8","0.4","0.2","0.6677375732","0.5344282052","0.6687933923","0.763226653","","","","","","","","","","","","","","76","L","3","","","224","main_expt",""
"","bandit","305","602148","0.0-266.0-0.0","27460262","wem/bandit_party_2","A2YDA5EGPSTMCC","either","3","324","","","","","","","0","0","1","","0.7706853934","0.6","0.8","0.4","0.2","0.7706853934","0.5583452501","0.5954484576","0.6931961842","","","","","","","","","","","","","","72","H","0","img/none_selected.jpg","","225","main_expt",""
"","bandit","306","603958","0.0-267.0-0.0","27460262","wem/bandit_party_2","A2YDA5EGPSTMCC","either","3","300","","","","","","","1","0","0","0.5126042404","","0.6","0.8","0.4","0.2","","","","","0.7624197083","0.5126042404","0.6152447968","0.6633974694","","","","","","","","","","74","J","1","","","226","main_expt",""
"","bandit","307","605836","0.0-268.0-0.0","27460262","wem/bandit_party_2","A2YDA5EGPSTMCC","either","3","371","","","","","","","0","0","1","","0.6567175756","0.6","0.8","0.4","0.2","0.7287840805","0.5720595628","0.6597553912","0.6567175756","","","","","","","","","","","","","","76","L","3","","","227","main_expt",""
"","bandit","308","607416","0.0-269.0-0.0","27460262","wem/bandit_party_2","A2YDA5EGPSTMCC","either","3","72","","","","","","","0","0","1","","0.594895186","0.6","0.8","0.4","0.2","0.7993891034","0.6134710885","0.594895186","0.6052730858","","","","","","","","","","","","","","75","K","2","","","228","main_expt",""
"","bandit","309","609196","0.0-270.0-0.0","27460262","wem/bandit_party_2","A2YDA5EGPSTMCC","either","3","274","","","","","","","0","1","0","","0.8374027748","0.6","0.8","0.4","0.2","0.8374027748","0.5669106804","0.5722559027","0.5548990383","","","","","","","","","","","","","","72","H","0","img/none_selected.jpg","","229","main_expt",""
"","bandit","310","611057","0.0-271.0-0.0","27460262","wem/bandit_party_2","A2YDA5EGPSTMCC","either","3","353","","","","","","","1","0","0","0.5409090622","","0.6","0.8","0.4","0.2","","","","","0.8414873787","0.6286782819","0.5409090622","0.6017114108","","","","","","","","","","75","K","2","","","230","main_expt",""
"","bandit","311","612890","0.0-272.0-0.0","27460262","wem/bandit_party_2","A2YDA5EGPSTMCC","either","3","323","","","","","","","0","0","1","","0.5594948871","0.6","0.8","0.4","0.2","0.8531648874","0.5594948871","0.518727512","0.5525336349","","","","","","","","","","","","","","74","J","1","","","231","main_expt",""
"","bandit","312","614697","0.0-273.0-0.0","27460262","wem/bandit_party_2","A2YDA5EGPSTMCC","either","3","296","","","","","","","0","1","0","","0.4493361955","0.6","0.8","0.4","0.2","0.8813812612","0.5817998964","0.5200298571","0.4493361955","","","","","","","","","","","","","","76","L","3","","","232","main_expt",""
"","bandit","313","616347","0.0-274.0-0.0","27460262","wem/bandit_party_2","A2YDA5EGPSTMCC","either","3","142","","","","","","","0","1","0","","0.5971875981","0.6","0.8","0.4","0.2","0.8916766345","0.5971875981","0.4564343731","0.5280832246","","","","","","","","","","","","","","74","J","1","","","233","main_expt",""
"","bandit","314","618078","0.0-275.0-0.0","27460262","wem/bandit_party_2","A2YDA5EGPSTMCC","either","3","222","","","","","","","0","0","1","","0.4168065644","0.6","0.8","0.4","0.2","0.842820862","0.5227237997","0.4168065644","0.6814540918","","","","","","","","","","","","","","75","K","2","","","234","main_expt",""
"","bandit","315","619897","0.0-276.0-0.0","27460262","wem/bandit_party_2","A2YDA5EGPSTMCC","either","3","311","","","","","","","1","0","0","0.7856269381","","0.6","0.8","0.4","0.2","","","","","0.7856269381","0.6231997156","0.4340770274","0.5518959403","","","","","","","","","","72","H","0","img/none_selected.jpg","","235","main_expt",""
"","bandit","316","621508","0.0-277.0-0.0","27460262","wem/bandit_party_2","A2YDA5EGPSTMCC","either","3","97","","","","","","","1","0","0","0.4965619817","","0.6","0.8","0.4","0.2","","","","","0.8092971262","0.558272317","0.4489205242","0.4965619817","","","","","","","","","","76","L","3","","","236","main_expt",""
"","bandit","317","623478","0.0-278.0-0.0","27460262","wem/bandit_party_2","A2YDA5EGPSTMCC","either","3","458","","","","","","","0","0","1","0.6118965497","","0.6","0.8","0.4","0.2","","","","","0.8125536838","0.6118965497","0.4838648791","0.4762879104","","","","","","","","","","74","J","1","","","237","main_expt",""
"","bandit","318","625236","0.0-279.0-0.0","27460262","wem/bandit_party_2","A2YDA5EGPSTMCC","either","3","250","","","","","","","0","0","1","","0.7415542647","0.6","0.8","0.4","0.2","0.8684257659","0.7415542647","0.4615645545","0.4991976808","","","","","","","","","","","","","","74","J","1","","","238","main_expt",""
