"consent","trial_type","trial_index","time_elapsed","internal_node_id","subjID","study","MID","cond","drift","rt","responses","button_pressed","key_press","like","value","connected","gems","bombs","no_reward","GemPrChosen","BombPrChosen","GainOverPainPr_0","GainOverPainPr_1","GainOverPainPr_2","GainOverPainPr_3","LosePr_0","LosePr_1","LosePr_2","LosePr_3","WinPr_0","WinPr_1","WinPr_2","WinPr_3","Q0","Q1","Q2","gender","age","ethnicity","label","expt_phase","target","respCharCode","respKey","respChoiceNum","respChoice","practice","trial_counter","trial_label","Q0_index","view_history"
"GDM/GDM_behavioral_consent_30min_online.html","consent","0","8385","0.0-0.0","27966776","wem/bandit_party_2","A2NTK0AJX4YISZ","either","3","","","","","","","","","","","","","","","","","","","","","","","","","","","","","","","","","","","","","","","","","",""
"","survey-text","1","13848","0.0-1.0","27966776","wem/bandit_party_2","A2NTK0AJX4YISZ","either","3","4449","{""Q0"":""A2NTK0AJX4YISZ""}","","","","","","","","","","","","","","","","","","","","","","","","","","","","","","","","","","","","","","","",""
"","button-response","2","16290","0.0-2.0","27966776","wem/bandit_party_2","A2NTK0AJX4YISZ","either","3","1436","","1","","","","","","","","","","","","","","","","","","","","","","","","","","","","","","","","","","","","","","",""
"","text-replacement","3","27701","0.0-3.0","27966776","wem/bandit_party_2","A2NTK0AJX4YISZ","either","3","10406","","","32","","","","","","","","","","","","","","","","","","","","","","","","","","","","","","","","","","","","","",""
"","text-replacement","4","38323","0.0-4.0","27966776","wem/bandit_party_2","A2NTK0AJX4YISZ","either","3","10620","","","32","","","","","","","","","","","","","","","","","","","","","","","","","","","","","","","","","","","","","",""
"","identification","5","50604","0.0-6.0-0.0","27966776","wem/bandit_party_2","A2NTK0AJX4YISZ","either","3","12260","","","","1","4","2","","","","","","","","","","","","","","","","","","","","","","","","pre","identification_pre","the Republican Party","","","","","","","","",""
"","identification","6","55620","0.0-6.0-1.0","27966776","wem/bandit_party_2","A2NTK0AJX4YISZ","either","3","3993","","","","5","4","5","","","","","","","","","","","","","","","","","","","","","","","","pre","identification_pre","the Democratic Party","","","","","","","","",""
"","text-replacement","7","79195","0.0-7.0","27966776","wem/bandit_party_2","A2NTK0AJX4YISZ","either","3","22573","","","32","","","","","","","","","","","","","","","","","","","","","","","","","","","","","","","","","","","","","",""
"","text-replacement","8","84978","0.0-8.0","27966776","wem/bandit_party_2","A2NTK0AJX4YISZ","either","3","5780","","","32","","","","","","","","","","","","","","","","","","","","","","","","","","","","","","","","","","","","","",""
"","text-replacement","9","87779","0.0-9.0","27966776","wem/bandit_party_2","A2NTK0AJX4YISZ","either","3","2798","","","32","","","","","","","","","","","","","","","","","","","","","","","","","","","","","","","","","","","","","",""
"","text-replacement","10","89833","0.0-10.0","27966776","wem/bandit_party_2","A2NTK0AJX4YISZ","either","3","2052","","","32","","","","","","","","","","","","","","","","","","","","","","","","","","","","","","","","","","","","","",""
"","text-replacement","11","95475","0.0-11.0","27966776","wem/bandit_party_2","A2NTK0AJX4YISZ","either","3","5640","","","32","","","","","","","","","","","","","","","","","","","","","","","","","","","","","","","","","","","","","",""
"","bandit","12","99788","0.0-12.0-0.0","27966776","wem/bandit_party_2","A2NTK0AJX4YISZ","either","3","2803","","","","","","","0","0","1","0","0","","","","","0","","","","0","","","","","","","","","","","","","74","J","0","img/none_selected_demo.jpg","true","0","","",""
"","bandit","13","103202","0.0-13.0-0.0","27966776","wem/bandit_party_2","A2NTK0AJX4YISZ","either","3","1908","","","","","","","0","0","1","0","0","","","","","0","","","","0","","","","","","","","","","","","","75","K","0","img/none_selected_demo.jpg","true","0","","",""
"","text-replacement","14","108563","0.0-14.0","27966776","wem/bandit_party_2","A2NTK0AJX4YISZ","either","3","5359","","","32","","","","","","","","","","","","","","","","","","","","","","","","","","","","","","","","","","","","","",""
"","text-replacement","15","111820","0.0-15.0","27966776","wem/bandit_party_2","A2NTK0AJX4YISZ","either","3","3254","","","32","","","","","","","","","","","","","","","","","","","","","","","","","","","","","","","","","","","","","",""
"","text-replacement","16","115705","0.0-16.0","27966776","wem/bandit_party_2","A2NTK0AJX4YISZ","either","3","3884","","","32","","","","","","","","","","","","","","","","","","","","","","","","","","","","","","","","","","","","","",""
"","text-replacement","17","117393","0.0-17.0","27966776","wem/bandit_party_2","A2NTK0AJX4YISZ","either","3","1686","","","32","","","","","","","","","","","","","","","","","","","","","","","","","","","","","","","","","","","","","",""
"","bandit","18","148815","0.0-18.0-0.0","27966776","wem/bandit_party_2","A2NTK0AJX4YISZ","either","3","29908","","","","","","","1","0","0","0.8","","0.5","0.5","","","","","","","0.8","0.2","","","","","","","","","","","","74","J","0","img/none_selected_demo.jpg","true","0","80_20_practice","",""
"","bandit","19","151288","0.0-18.0-1.0","27966776","wem/bandit_party_2","A2NTK0AJX4YISZ","either","3","954","","","","","","","0","0","1","","0.8","0.5","0.5","","","0.8","0.2","","","","","","","","","","","","","","","","74","J","0","img/none_selected_demo.jpg","true","0","80_20_practice","",""
"","bandit","20","153924","0.0-18.0-2.0","27966776","wem/bandit_party_2","A2NTK0AJX4YISZ","either","3","1118","","","","","","","1","0","0","0.8","","0.5","0.5","","","","","","","0.8","0.2","","","","","","","","","","","","74","J","0","img/none_selected_demo.jpg","true","0","80_20_practice","",""
"","bandit","21","156531","0.0-18.0-3.0","27966776","wem/bandit_party_2","A2NTK0AJX4YISZ","either","3","1091","","","","","","","1","0","0","0.8","","0.5","0.5","","","","","","","0.8","0.2","","","","","","","","","","","","74","J","0","img/none_selected_demo.jpg","true","0","80_20_practice","",""
"","bandit","22","159348","0.0-18.0-4.0","27966776","wem/bandit_party_2","A2NTK0AJX4YISZ","either","3","1303","","","","","","","1","0","0","0.8","","0.5","0.5","","","","","","","0.8","0.2","","","","","","","","","","","","74","J","0","img/none_selected_demo.jpg","true","0","80_20_practice","",""
"","bandit","23","162166","0.0-18.0-5.0","27966776","wem/bandit_party_2","A2NTK0AJX4YISZ","either","3","1305","","","","","","","0","0","1","","0.2","0.5","0.5","","","0.8","0.2","","","","","","","","","","","","","","","","75","K","1","","true","0","80_20_practice","",""
"","bandit","24","165441","0.0-18.0-6.0","27966776","wem/bandit_party_2","A2NTK0AJX4YISZ","either","3","1742","","","","","","","0","0","1","","0.2","0.5","0.5","","","0.8","0.2","","","","","","","","","","","","","","","","75","K","1","","true","0","80_20_practice","",""
"","bandit","25","167663","0.0-18.0-7.0","27966776","wem/bandit_party_2","A2NTK0AJX4YISZ","either","3","544","","","","","","","0","0","1","","0.8","0.5","0.5","","","0.8","0.2","","","","","","","","","","","","","","","","74","J","0","img/none_selected_demo.jpg","true","0","80_20_practice","",""
"","bandit","26","171115","0.0-18.0-8.0","27966776","wem/bandit_party_2","A2NTK0AJX4YISZ","either","3","1942","","","","","","","1","0","0","0.8","","0.5","0.5","","","","","","","0.8","0.2","","","","","","","","","","","","74","J","0","img/none_selected_demo.jpg","true","0","80_20_practice","",""
"","bandit","27","174953","0.0-18.0-9.0","27966776","wem/bandit_party_2","A2NTK0AJX4YISZ","either","3","2332","","","","","","","0","0","1","","0.8","0.5","0.5","","","0.8","0.2","","","","","","","","","","","","","","","","74","J","0","img/none_selected_demo.jpg","true","0","80_20_practice","",""
"","bandit","28","176927","0.0-18.0-10.0","27966776","wem/bandit_party_2","A2NTK0AJX4YISZ","either","3","466","","","","","","","1","0","0","0.8","","0.5","0.5","","","","","","","0.8","0.2","","","","","","","","","","","","74","J","0","img/none_selected_demo.jpg","true","0","80_20_practice","",""
"","bandit","29","179143","0.0-18.0-11.0","27966776","wem/bandit_party_2","A2NTK0AJX4YISZ","either","3","708","","","","","","","0","1","0","","0.8","0.5","0.5","","","0.8","0.2","","","","","","","","","","","","","","","","74","J","0","img/none_selected_demo.jpg","true","0","80_20_practice","",""
"","bandit","30","181225","0.0-18.0-12.0","27966776","wem/bandit_party_2","A2NTK0AJX4YISZ","either","3","573","","","","","","","1","0","0","0.8","","0.5","0.5","","","","","","","0.8","0.2","","","","","","","","","","","","74","J","0","img/none_selected_demo.jpg","true","0","80_20_practice","",""
"","bandit","31","183079","0.0-18.0-13.0","27966776","wem/bandit_party_2","A2NTK0AJX4YISZ","either","3","346","","","","","","","1","0","0","0.8","","0.5","0.5","","","","","","","0.8","0.2","","","","","","","","","","","","74","J","0","img/none_selected_demo.jpg","true","0","80_20_practice","",""
"","bandit","32","184848","0.0-18.0-14.0","27966776","wem/bandit_party_2","A2NTK0AJX4YISZ","either","3","260","","","","","","","0","1","0","","0.8","0.5","0.5","","","0.8","0.2","","","","","","","","","","","","","","","","74","J","0","img/none_selected_demo.jpg","true","0","80_20_practice","",""
"","bandit","33","186760","0.0-18.0-15.0","27966776","wem/bandit_party_2","A2NTK0AJX4YISZ","either","3","406","","","","","","","0","0","1","","0.8","0.5","0.5","","","0.8","0.2","","","","","","","","","","","","","","","","74","J","0","img/none_selected_demo.jpg","true","0","80_20_practice","",""
"","bandit","34","188922","0.0-18.0-16.0","27966776","wem/bandit_party_2","A2NTK0AJX4YISZ","either","3","649","","","","","","","0","1","0","","0.8","0.5","0.5","","","0.8","0.2","","","","","","","","","","","","","","","","74","J","0","img/none_selected_demo.jpg","true","0","80_20_practice","",""
"","bandit","35","190718","0.0-18.0-17.0","27966776","wem/bandit_party_2","A2NTK0AJX4YISZ","either","3","285","","","","","","","0","1","0","","0.2","0.5","0.5","","","0.8","0.2","","","","","","","","","","","","","","","","75","K","1","","true","0","80_20_practice","",""
"","bandit","36","192497","0.0-18.0-18.0","27966776","wem/bandit_party_2","A2NTK0AJX4YISZ","either","3","263","","","","","","","0","0","1","","0.2","0.5","0.5","","","0.8","0.2","","","","","","","","","","","","","","","","75","K","1","","true","0","80_20_practice","",""
"","bandit","37","194426","0.0-18.0-19.0","27966776","wem/bandit_party_2","A2NTK0AJX4YISZ","either","3","418","","","","","","","0","0","1","0.2","","0.5","0.5","","","","","","","0.8","0.2","","","","","","","","","","","","75","K","1","","true","0","80_20_practice","",""
"","text-replacement","38","202843","0.0-19.0","27966776","wem/bandit_party_2","A2NTK0AJX4YISZ","either","3","8413","","","32","","","","","","","","","","","","","","","","","","","","","","","","","","","","","","","","","","","","","",""
"","bandit","39","206184","0.0-20.0-0.0","27966776","wem/bandit_party_2","A2NTK0AJX4YISZ","either","3","1834","","","","","","","1","0","0","1","0","","","","","0","1","","","1","0","","","","","","","","","","","","74","J","0","img/none_selected_demo.jpg","true","0","","",""
"","text-replacement","40","212129","0.0-21.0","27966776","wem/bandit_party_2","A2NTK0AJX4YISZ","either","3","5940","","","32","","","","","","","","","","","","","","","","","","","","","","","","","","","","","","","","","","","","","",""
"","text-replacement","41","217011","0.0-22.0","27966776","wem/bandit_party_2","A2NTK0AJX4YISZ","either","3","4879","","","32","","","","","","","","","","","","","","","","","","","","","","","","","","","","","","","","","","","","","",""
"","text-replacement","42","219442","0.0-23.0","27966776","wem/bandit_party_2","A2NTK0AJX4YISZ","either","3","2428","","","32","","","","","","","","","","","","","","","","","","","","","","","","","","","","","","","","","","","","","",""
"","text-replacement","43","221464","0.0-24.0","27966776","wem/bandit_party_2","A2NTK0AJX4YISZ","either","3","2019","","","32","","","","","","","","","","","","","","","","","","","","","","","","","","","","","","","","","","","","","",""
"","text-replacement","44","223442","0.0-25.0","27966776","wem/bandit_party_2","A2NTK0AJX4YISZ","either","3","1975","","","32","","","","","","","","","","","","","","","","","","","","","","","","","","","","","","","","","","","","","",""
"","text-replacement","45","225377","0.0-26.0","27966776","wem/bandit_party_2","A2NTK0AJX4YISZ","either","3","1933","","","32","","","","","","","","","","","","","","","","","","","","","","","","","","","","","","","","","","","","","",""
"","text-replacement","46","226873","0.0-27.0","27966776","wem/bandit_party_2","A2NTK0AJX4YISZ","either","3","1492","","","32","","","","","","","","","","","","","","","","","","","","","","","","","","","","","","","","","","","","","",""
"","text-replacement","47","228419","0.0-28.0","27966776","wem/bandit_party_2","A2NTK0AJX4YISZ","either","3","1543","","","32","","","","","","","","","","","","","","","","","","","","","","","","","","","","","","","","","","","","","",""
"","text-replacement","48","229585","0.0-29.0","27966776","wem/bandit_party_2","A2NTK0AJX4YISZ","either","3","1163","","","32","","","","","","","","","","","","","","","","","","","","","","","","","","","","","","","","","","","","","",""
"","text-replacement","49","230450","0.0-30.0","27966776","wem/bandit_party_2","A2NTK0AJX4YISZ","either","3","862","","","32","","","","","","","","","","","","","","","","","","","","","","","","","","","","","","","","","","","","","",""
"","text-replacement","50","236298","0.0-31.0","27966776","wem/bandit_party_2","A2NTK0AJX4YISZ","either","3","5845","","","32","","","","","","","","","","","","","","","","","","","","","","","","","","","","","","","","","","","","","",""
"","bandit","51","239958","0.0-32.0-0.0","27966776","wem/bandit_party_2","A2NTK0AJX4YISZ","either","3","2151","","","","","","","0","0","1","","0.2","0.5","0.5","0.5","0.5","0.8","0.2","0.6","0.2","","","","","","","","","","","","","","74","J","1","","true","0","full_practice","",""
"","bandit","52","242972","0.0-32.0-1.0","27966776","wem/bandit_party_2","A2NTK0AJX4YISZ","either","3","1499","","","","","","","0","1","0","","0.6","0.5","0.5","0.5","0.5","0.8","0.2","0.6","0.2","","","","","","","","","","","","","","75","K","2","","true","0","full_practice","",""
"","bandit","53","245468","0.0-32.0-2.0","27966776","wem/bandit_party_2","A2NTK0AJX4YISZ","either","3","973","","","","","","","0","0","1","0.2","","0.5","0.5","0.5","0.5","","","","","0.8","0.2","0.6","0.2","","","","","","","","","","76","L","3","","true","0","full_practice","",""
"","bandit","54","247345","0.0-32.0-3.0","27966776","wem/bandit_party_2","A2NTK0AJX4YISZ","either","3","369","","","","","","","1","0","0","0.8","","0.5","0.5","0.5","0.5","","","","","0.8","0.2","0.6","0.2","","","","","","","","","","72","H","0","img/none_selected.jpg","true","0","full_practice","",""
"","bandit","55","249231","0.0-32.0-4.0","27966776","wem/bandit_party_2","A2NTK0AJX4YISZ","either","3","375","","","","","","","0","1","0","","0.8","0.5","0.5","0.5","0.5","0.8","0.2","0.6","0.2","","","","","","","","","","","","","","72","H","0","img/none_selected.jpg","true","0","full_practice","",""
"","bandit","56","251169","0.0-32.0-5.0","27966776","wem/bandit_party_2","A2NTK0AJX4YISZ","either","3","426","","","","","","","0","0","1","0.2","","0.5","0.5","0.5","0.5","","","","","0.8","0.2","0.6","0.2","","","","","","","","","","74","J","1","","true","0","full_practice","",""
"","bandit","57","252711","0.0-32.0-6.0","27966776","wem/bandit_party_2","A2NTK0AJX4YISZ","either","3","33","","","","","","","0","0","1","0.2","","0.5","0.5","0.5","0.5","","","","","0.8","0.2","0.6","0.2","","","","","","","","","","74","J","1","","true","0","full_practice","",""
"","bandit","58","254408","0.0-32.0-7.0","27966776","wem/bandit_party_2","A2NTK0AJX4YISZ","either","3","188","","","","","","","0","0","1","0.2","","0.5","0.5","0.5","0.5","","","","","0.8","0.2","0.6","0.2","","","","","","","","","","74","J","1","","true","0","full_practice","",""
"","bandit","59","256192","0.0-32.0-8.0","27966776","wem/bandit_party_2","A2NTK0AJX4YISZ","either","3","275","","","","","","","1","0","0","0.2","","0.5","0.5","0.5","0.5","","","","","0.8","0.2","0.6","0.2","","","","","","","","","","74","J","1","","true","0","full_practice","",""
"","bandit","60","258096","0.0-32.0-9.0","27966776","wem/bandit_party_2","A2NTK0AJX4YISZ","either","3","394","","","","","","","0","0","1","0.2","","0.5","0.5","0.5","0.5","","","","","0.8","0.2","0.6","0.2","","","","","","","","","","74","J","1","","true","0","full_practice","",""
"","bandit","61","260375","0.0-32.0-10.0","27966776","wem/bandit_party_2","A2NTK0AJX4YISZ","either","3","771","","","","","","","1","0","0","0.6","","0.5","0.5","0.5","0.5","","","","","0.8","0.2","0.6","0.2","","","","","","","","","","75","K","2","","true","0","full_practice","",""
"","bandit","62","262224","0.0-32.0-11.0","27966776","wem/bandit_party_2","A2NTK0AJX4YISZ","either","3","337","","","","","","","1","0","0","0.2","","0.5","0.5","0.5","0.5","","","","","0.8","0.2","0.6","0.2","","","","","","","","","","76","L","3","","true","0","full_practice","",""
"","bandit","63","264030","0.0-32.0-12.0","27966776","wem/bandit_party_2","A2NTK0AJX4YISZ","either","3","295","","","","","","","1","0","0","0.8","","0.5","0.5","0.5","0.5","","","","","0.8","0.2","0.6","0.2","","","","","","","","","","72","H","0","img/none_selected.jpg","true","0","full_practice","",""
"","bandit","64","265839","0.0-32.0-13.0","27966776","wem/bandit_party_2","A2NTK0AJX4YISZ","either","3","300","","","","","","","0","0","1","","0.2","0.5","0.5","0.5","0.5","0.8","0.2","0.6","0.2","","","","","","","","","","","","","","74","J","1","","true","0","full_practice","",""
"","bandit","65","267735","0.0-32.0-14.0","27966776","wem/bandit_party_2","A2NTK0AJX4YISZ","either","3","386","","","","","","","0","0","1","","0.6","0.5","0.5","0.5","0.5","0.8","0.2","0.6","0.2","","","","","","","","","","","","","","75","K","2","","true","0","full_practice","",""
"","bandit","66","269246","0.0-32.0-15.0","27966776","wem/bandit_party_2","A2NTK0AJX4YISZ","either","3","1","","","","","","","0","0","1","0.2","","0.5","0.5","0.5","0.5","","","","","0.8","0.2","0.6","0.2","","","","","","","","","","76","L","3","","true","0","full_practice","",""
"","bandit","67","271024","0.0-32.0-16.0","27966776","wem/bandit_party_2","A2NTK0AJX4YISZ","either","3","267","","","","","","","0","1","0","","0.8","0.5","0.5","0.5","0.5","0.8","0.2","0.6","0.2","","","","","","","","","","","","","","72","H","0","img/none_selected.jpg","true","0","full_practice","",""
"","bandit","68","273050","0.0-32.0-17.0","27966776","wem/bandit_party_2","A2NTK0AJX4YISZ","either","3","514","","","","","","","1","0","0","0.8","","0.5","0.5","0.5","0.5","","","","","0.8","0.2","0.6","0.2","","","","","","","","","","72","H","0","img/none_selected.jpg","true","0","full_practice","",""
"","bandit","69","274863","0.0-32.0-18.0","27966776","wem/bandit_party_2","A2NTK0AJX4YISZ","either","3","304","","","","","","","0","0","1","","0.2","0.5","0.5","0.5","0.5","0.8","0.2","0.6","0.2","","","","","","","","","","","","","","74","J","1","","true","0","full_practice","",""
"","bandit","70","276500","0.0-32.0-19.0","27966776","wem/bandit_party_2","A2NTK0AJX4YISZ","either","3","113","","","","","","","0","0","1","","0.2","0.5","0.5","0.5","0.5","0.8","0.2","0.6","0.2","","","","","","","","","","","","","","74","J","1","","true","0","full_practice","",""
"","text","71","281017","0.0-33.0","27966776","wem/bandit_party_2","A2NTK0AJX4YISZ","either","3","4499","","","32","","","","","","","","","","","","","","","","","","","","","","","","","","","","","","","","","","","","","",""
"","text-replacement","72","290395","0.0-34.0","27966776","wem/bandit_party_2","A2NTK0AJX4YISZ","either","3","8375","","","32","","","","","","","","","","","","","","","","","","","","","","","","","","","","","","","","","","","","","",""
"","text-replacement","73","296801","0.0-35.0","27966776","wem/bandit_party_2","A2NTK0AJX4YISZ","either","3","6402","","","32","","","","","","","","","","","","","","","","","","","","","","","","","","","","","","","","","","","","","",""
"","text-replacement","74","298153","0.0-36.0","27966776","wem/bandit_party_2","A2NTK0AJX4YISZ","either","3","1348","","","32","","","","","","","","","","","","","","","","","","","","","","","","","","","","","","","","","","","","","",""
"","text-replacement","75","299497","0.0-37.0","27966776","wem/bandit_party_2","A2NTK0AJX4YISZ","either","3","1340","","","32","","","","","","","","","","","","","","","","","","","","","","","","","","","","","","","","","","","","","",""
"","text-replacement","76","301523","0.0-38.0","27966776","wem/bandit_party_2","A2NTK0AJX4YISZ","either","3","2022","","","32","","","","","","","","","","","","","","","","","","","","","","","","","","","","","","","","","","","","","",""
"","survey-multi-choice-replacement","77","307099","0.0-39.0-0.0","27966776","wem/bandit_party_2","A2NTK0AJX4YISZ","either","3","5563","","","","","","","","","","","","","","","","","","","","","","","","Money will be added to the pool for <span style='color:blue;'>DEMOCRATS</span>","","","","","","","attn_check","","","","","","","","","0",""
"","survey-multi-choice-replacement","78","319144","0.0-40.0-0.0","27966776","wem/bandit_party_2","A2NTK0AJX4YISZ","either","3","11031","","","","","","","","","","","","","","","","","","","","","","","","No money will be added to either pool","","","","","","","attn_check","","","","","","","","","3",""
"","instructions","79","321760","0.0-40.0-1.0-0.0","27966776","wem/bandit_party_2","A2NTK0AJX4YISZ","either","3","1612","","","","","","","","","","","","","","","","","","","","","","","","","","","","","","","","","","","","","","","","","[{""page_index"":0,""viewing_time"":1611}]"
"","survey-multi-choice-replacement","80","331136","0.0-40.1-0.1","27966776","wem/bandit_party_2","A2NTK0AJX4YISZ","either","3","8364","","","","","","","","","","","","","","","","","","","","","","","","Money will be subtracted from the pool for <span style='color:red;'>REPUBLICANS</span>","","","","","","","attn_check","","","","","","","","","1",""
"","instructions","81","333290","0.0-40.1-1.1-0.1","27966776","wem/bandit_party_2","A2NTK0AJX4YISZ","either","3","1150","","","","","","","","","","","","","","","","","","","","","","","","","","","","","","","","","","","","","","","","","[{""page_index"":0,""viewing_time"":1149}]"
"","survey-multi-choice-replacement","82","338111","0.0-40.2-0.2","27966776","wem/bandit_party_2","A2NTK0AJX4YISZ","either","3","3810","","","","","","","","","","","","","","","","","","","","","","","","Money will be added to the pool for <span style='color:blue;'>DEMOCRATS</span>","","","","","","","attn_check","","","","","","","","","0",""
"","instructions","83","340228","0.0-40.2-1.2-0.2","27966776","wem/bandit_party_2","A2NTK0AJX4YISZ","either","3","1112","","","","","","","","","","","","","","","","","","","","","","","","","","","","","","","","","","","","","","","","","[{""page_index"":0,""viewing_time"":1111}]"
"","survey-multi-choice-replacement","84","343410","0.0-40.3-0.3","27966776","wem/bandit_party_2","A2NTK0AJX4YISZ","either","3","2169","","","","","","","","","","","","","","","","","","","","","","","","Equal amounts of money will be added to the pool for <span style='color:blue;'>DEMOCRATS</span> and subtracted from the pool for <span style='color:red;'>REPUBLICANS</span>","","","","","","","attn_check","","","","","","","","","2",""
"","survey-multi-choice-replacement","85","348873","0.0-41.0-0.0","27966776","wem/bandit_party_2","A2NTK0AJX4YISZ","either","3","4445","","","","","","","","","","","","","","","","","","","","","","","","No money will be added to either pool","","","","","","","attn_check","","","","","","","","","3",""
"","bandit","86","353105","0.0-42.0-0.0","27966776","wem/bandit_party_2","A2NTK0AJX4YISZ","either","3","1720","","","","","","","0","1","0","","0.6494041588","0.8","0.4","0.6","0.2","0.4261870849","0.6494041588","0.1387034319","0.6473934842","","","","","","","","","","","","","","74","J","1","","","1","main_expt","",""
"","bandit","87","355935","0.0-43.0-0.0","27966776","wem/bandit_party_2","A2NTK0AJX4YISZ","either","3","1320","","","","","","","0","0","1","","0.7608835745","0.8","0.4","0.6","0.2","0.3223101542","0.7608835745","0.2166337036","0.5221866694","","","","","","","","","","","","","","74","J","1","","","2","main_expt","",""
"","bandit","88","358041","0.0-44.0-0.0","27966776","wem/bandit_party_2","A2NTK0AJX4YISZ","either","3","594","","","","","","","0","0","1","0.2541217019","","0.8","0.4","0.6","0.2","","","","","0.2541217019","0.7745567172","0.3253899216","0.5356292978","","","","","","","","","","72","H","0","img/none_selected.jpg","","3","main_expt","",""
"","bandit","89","360088","0.0-45.0-0.0","27966776","wem/bandit_party_2","A2NTK0AJX4YISZ","either","3","534","","","","","","","0","0","1","","0.3003293127","0.8","0.4","0.6","0.2","0.2272043942","0.8315703218","0.3003293127","0.5154592071","","","","","","","","","","","","","","75","K","2","","","4","main_expt","",""
"","bandit","90","361608","0.0-46.0-0.0","27966776","wem/bandit_party_2","A2NTK0AJX4YISZ","either","3","9","","","","","","","0","1","0","","0.8380789219","0.8","0.4","0.6","0.2","0.2967729676","0.8380789219","0.3839660868","0.4578896037","","","","","","","","","","","","","","74","J","1","","","5","main_expt","",""
"","bandit","91","363495","0.0-47.0-0.0","27966776","wem/bandit_party_2","A2NTK0AJX4YISZ","either","3","346","","","","","","","0","0","1","","0.4825789634","0.8","0.4","0.6","0.2","0.3211998527","0.8233568153","0.3833463511","0.4825789634","","","","","","","","","","","","","","76","L","3","","","6","main_expt","",""
"","bandit","92","365278","0.0-48.0-0.0","27966776","wem/bandit_party_2","A2NTK0AJX4YISZ","either","3","278","","","","","","","0","0","1","","0.3173395401","0.8","0.4","0.6","0.2","0.4190649117","0.8672840292","0.3173395401","0.4013658759","","","","","","","","","","","","","","75","K","2","","","7","main_expt","",""
"","bandit","93","366995","0.0-49.0-0.0","27966776","wem/bandit_party_2","A2NTK0AJX4YISZ","either","3","206","","","","","","","1","0","0","0.7921451217","","0.8","0.4","0.6","0.2","","","","","0.5253498774","0.7921451217","0.3265190876","0.3721769634","","","","","","","","","","74","J","1","","","8","main_expt","",""
"","bandit","94","368759","0.0-50.0-0.0","27966776","wem/bandit_party_2","A2NTK0AJX4YISZ","either","3","253","","","","","","","1","0","0","0.5552176016","","0.8","0.4","0.6","0.2","","","","","0.5552176016","0.7826569337","0.4229840653","0.3934089605","","","","","","","","","","72","H","0","img/none_selected.jpg","","9","main_expt","",""
"","bandit","95","370550","0.0-51.0-0.0","27966776","wem/bandit_party_2","A2NTK0AJX4YISZ","either","3","280","","","","","","","0","1","0","","0.7150392401","0.8","0.4","0.6","0.2","0.654745146","0.7150392401","0.5107168356","0.3360942297","","","","","","","","","","","","","","74","J","1","","","10","main_expt","",""
"","bandit","96","372319","0.0-52.0-0.0","27966776","wem/bandit_party_2","A2NTK0AJX4YISZ","either","3","257","","","","","","","0","1","0","","0.6089063278","0.8","0.4","0.6","0.2","0.6089063278","0.6906605055","0.4383577931","0.4969537907","","","","","","","","","","","","","","72","H","0","img/none_selected.jpg","","11","main_expt","",""
"","bandit","97","374001","0.0-53.0-0.0","27966776","wem/bandit_party_2","A2NTK0AJX4YISZ","either","3","171","","","","","","","0","0","1","","0.6725575113","0.8","0.4","0.6","0.2","0.559155858","0.6725575113","0.5487148549","0.4760264401","","","","","","","","","","","","","","74","J","1","","","12","main_expt","",""
"","bandit","98","375630","0.0-54.0-0.0","27966776","wem/bandit_party_2","A2NTK0AJX4YISZ","either","3","120","","","","","","","1","0","0","0.7407599438","","0.8","0.4","0.6","0.2","","","","","0.6464491645","0.7404599176","0.7407599438","0.4008761295","","","","","","","","","","75","K","2","","","13","main_expt","",""
"","bandit","99","377427","0.0-55.0-0.0","27966776","wem/bandit_party_2","A2NTK0AJX4YISZ","either","3","283","","","","","","","0","1","0","","0.358486362","0.8","0.4","0.6","0.2","0.6936958995","0.6751607758","0.8307131687","0.358486362","","","","","","","","","","","","","","76","L","3","","","14","main_expt","",""
"","bandit","100","379128","0.0-56.0-0.0","27966776","wem/bandit_party_2","A2NTK0AJX4YISZ","either","3","193","","","","","","","1","0","0","0.8114394421","","0.8","0.4","0.6","0.2","","","","","0.731471075","0.6115440925","0.8114394421","0.395258373","","","","","","","","","","75","K","2","","","15","main_expt","",""
"","bandit","101","380649","0.0-57.0-0.0","27966776","wem/bandit_party_2","A2NTK0AJX4YISZ","either","3","5","","","","","","","0","1","0","","0.7019001419","0.8","0.4","0.6","0.2","0.6487541525","0.7019001419","0.8242397169","0.4197334966","","","","","","","","","","","","","","74","J","1","","","16","main_expt","",""
"","bandit","102","382487","0.0-58.0-0.0","27966776","wem/bandit_party_2","A2NTK0AJX4YISZ","either","3","328","","","","","","","1","0","0","0.7654634758","","0.8","0.4","0.6","0.2","","","","","0.7654634758","0.7017998","0.8317633157","0.2160816064","","","","","","","","","","72","H","0","img/none_selected.jpg","","17","main_expt","",""
"","bandit","103","384534","0.0-59.0-0.0","27966776","wem/bandit_party_2","A2NTK0AJX4YISZ","either","3","534","","","","","","","0","1","0","","0.8158638682","0.8","0.4","0.6","0.2","0.7160830043","0.7672473748","0.8158638682","0.2058632209","","","","","","","","","","","","","","75","K","2","","","18","main_expt","",""
"","bandit","104","386567","0.0-60.0-0.0","27966776","wem/bandit_party_2","A2NTK0AJX4YISZ","either","3","521","","","","","","","0","1","0","","0.2314559036","0.8","0.4","0.6","0.2","0.6856656502","0.7950219121","0.8291878069","0.2314559036","","","","","","","","","","","","","","76","L","3","","","19","main_expt","",""
"","bandit","105","388398","0.0-61.0-0.0","27966776","wem/bandit_party_2","A2NTK0AJX4YISZ","either","3","321","","","","","","","1","0","0","0.8665153398","","0.8","0.4","0.6","0.2","","","","","0.6829400921","0.8460513568","0.8665153398","0.1762066147","","","","","","","","","","75","K","2","","","20","main_expt","",""
"","bandit","106","390286","0.0-62.0-0.0","27966776","wem/bandit_party_2","A2NTK0AJX4YISZ","either","3","376","","","","","","","0","1","0","","0.8181415858","0.8","0.4","0.6","0.2","0.6849203215","0.8571228725","0.8181415858","0.150477598","","","","","","","","","","","","","","75","K","2","","","21","main_expt","",""
"","bandit","107","392743","0.0-63.0-0.0","27966776","wem/bandit_party_2","A2NTK0AJX4YISZ","either","3","946","","","","","","","0","1","0","","0.8498483749","0.8","0.4","0.6","0.2","0.6832197831","0.8498483749","0.7731960963","0.1957635407","","","","","","","","","","","","","","74","J","1","","","22","main_expt","",""
"","bandit","108","395241","0.0-64.0-0.0","27966776","wem/bandit_party_2","A2NTK0AJX4YISZ","either","3","988","","","","","","","0","0","1","0.6103957523","","0.8","0.4","0.6","0.2","","","","","0.6103957523","0.887495535","0.8004626553","0.2193187944","","","","","","","","","","72","H","0","img/none_selected.jpg","","23","main_expt","",""
"","bandit","109","398327","0.0-65.0-0.0","27966776","wem/bandit_party_2","A2NTK0AJX4YISZ","either","3","1575","","","","","","","1","0","0","0.5485819736","","0.8","0.4","0.6","0.2","","","","","0.5485819736","0.918231735","0.7941911222","0.1836328706","","","","","","","","","","72","H","0","img/none_selected.jpg","","24","main_expt","",""
"","bandit","110","400055","0.0-66.0-0.0","27966776","wem/bandit_party_2","A2NTK0AJX4YISZ","either","3","218","","","","","","","0","0","1","0.5852935809","","0.8","0.4","0.6","0.2","","","","","0.5852935809","0.9111146318","0.7100633829","0.1410441375","","","","","","","","","","72","H","0","img/none_selected.jpg","","25","main_expt","",""
"","bandit","111","402367","0.0-67.0-0.0","27966776","wem/bandit_party_2","A2NTK0AJX4YISZ","either","3","799","","","","","","","0","1","0","","0.9190640316","0.8","0.4","0.6","0.2","0.6097892937","0.9190640316","0.6872129375","0.1082593399","","","","","","","","","","","","","","74","J","1","","","26","main_expt","",""
"","bandit","112","405055","0.0-68.0-0.0","27966776","wem/bandit_party_2","A2NTK0AJX4YISZ","either","3","1178","","","","","","","0","1","0","","0.6798864795","0.8","0.4","0.6","0.2","0.6653335402","0.9372614837","0.6798864795","0.1042047793","","","","","","","","","","","","","","75","K","2","","","27","main_expt","",""
"","bandit","113","406945","0.0-69.0-0.0","27966776","wem/bandit_party_2","A2NTK0AJX4YISZ","either","3","379","","","","","","","0","0","1","","0.1153509117","0.8","0.4","0.6","0.2","0.6850825106","0.9269484959","0.6812343762","0.1153509117","","","","","","","","","","","","","","76","L","3","","","28","main_expt","",""
"","bandit","114","410056","0.0-70.0-0.0","27966776","wem/bandit_party_2","A2NTK0AJX4YISZ","either","3","1600","","","","","","","0","0","1","0.7309016742","","0.8","0.4","0.6","0.2","","","","","0.7309016742","0.9376772981","0.5305157647","0.1601566248","","","","","","","","","","72","H","0","img/none_selected.jpg","","29","main_expt","",""
"","bandit","115","412039","0.0-71.0-0.0","27966776","wem/bandit_party_2","A2NTK0AJX4YISZ","either","3","473","","","","","","","1","0","0","0.8795505253","","0.8","0.4","0.6","0.2","","","","","0.8141980113","0.8795505253","0.4713174284","0.09548927903","","","","","","","","","","74","J","1","","","30","main_expt","",""
"","bandit","116","413599","0.0-72.0-0.0","27966776","wem/bandit_party_2","A2NTK0AJX4YISZ","either","3","40","","","","","","","0","0","1","0.2938490869","","0.8","0.4","0.6","0.2","","","","","0.8926711601","0.8605863748","0.2938490869","0.09272353297","","","","","","","","","","75","K","2","","","31","main_expt","",""
"","bandit","117","415512","0.0-73.0-0.0","27966776","wem/bandit_party_2","A2NTK0AJX4YISZ","either","3","402","","","","","","","0","0","1","0.3005160425","","0.8","0.4","0.6","0.2","","","","","0.8397563013","0.757600507","0.3005160425","0.09547929832","","","","","","","","","","75","K","2","","","32","main_expt","",""
"","bandit","118","417239","0.0-74.0-0.0","27966776","wem/bandit_party_2","A2NTK0AJX4YISZ","either","3","217","","","","","","","1","0","0","0.8251988787","","0.8","0.4","0.6","0.2","","","","","0.8251988787","0.7257103923","0.3661211491","0.08683876107","","","","","","","","","","72","H","0","img/none_selected.jpg","","33","main_expt","",""
"","bandit","119","418863","0.0-75.0-0.0","27966776","wem/bandit_party_2","A2NTK0AJX4YISZ","either","3","114","","","","","","","1","0","0","0.7303528712","","0.8","0.4","0.6","0.2","","","","","0.7303528712","0.5786815464","0.4614725573","0.08117088791","","","","","","","","","","72","H","0","img/none_selected.jpg","","34","main_expt","",""
"","bandit","120","420639","0.0-76.0-0.0","27966776","wem/bandit_party_2","A2NTK0AJX4YISZ","either","3","262","","","","","","","0","1","0","","0.4812266686","0.8","0.4","0.6","0.2","0.8093673003","0.4812266686","0.4597324626","0.09593582107","","","","","","","","","","","","","","74","J","1","","","35","main_expt","",""
"","bandit","121","422200","0.0-77.0-0.0","27966776","wem/bandit_party_2","A2NTK0AJX4YISZ","either","3","48","","","","","","","0","1","0","","0.79718131","0.8","0.4","0.6","0.2","0.79718131","0.4459447539","0.4294742096","0.1392988708","","","","","","","","","","","","","","72","H","0","img/none_selected.jpg","","36","main_expt","",""
"","bandit","122","434765","0.0-78.0-0.0","27966776","wem/bandit_party_2","A2NTK0AJX4YISZ","either","3","11034","","","","","","","0","1","0","","0.5737218407","0.8","0.4","0.6","0.2","0.8157762275","0.5737218407","0.5301274199","0.07673209605","","","","","","","","","","","","","","74","J","1","","","37","main_expt","",""
"","bandit","123","436284","0.0-79.0-0.0","27966776","wem/bandit_party_2","A2NTK0AJX4YISZ","either","3","1","","","","","","","0","0","1","0.7941499978","","0.8","0.4","0.6","0.2","","","","","0.7941499978","0.6008421093","0.5746889943","0.1078843958","","","","","","","","","","72","H","0","img/none_selected.jpg","","38","main_expt","",""
"","bandit","124","438177","0.0-80.0-0.0","27966776","wem/bandit_party_2","A2NTK0AJX4YISZ","either","3","361","","","","","","","0","1","0","","0.6621100331","0.8","0.4","0.6","0.2","0.7352357368","0.6076920036","0.6621100331","0.09731722171","","","","","","","","","","","","","","75","K","2","","","39","main_expt","",""
"","bandit","125","439714","0.0-81.0-0.0","27966776","wem/bandit_party_2","A2NTK0AJX4YISZ","either","3","24","","","","","","","0","0","1","","0.2123509389","0.8","0.4","0.6","0.2","0.7920886563","0.6616622706","0.6794361822","0.2123509389","","","","","","","","","","","","","","76","L","3","","","40","main_expt","",""
"","bandit","126","441440","0.0-82.0-0.0","27966776","wem/bandit_party_2","A2NTK0AJX4YISZ","either","3","206","","","","","","","0","1","0","","0.7140523024","0.8","0.4","0.6","0.2","0.8780543775","0.6945341382","0.7140523024","0.1265365425","","","","","","","","","","","","","","75","K","2","","","41","main_expt","",""
"","bandit","127","443179","0.0-83.0-0.0","27966776","wem/bandit_party_2","A2NTK0AJX4YISZ","either","3","166","","","","","","","1","0","0","0.6833149102","","0.8","0.4","0.6","0.2","","","","","0.9167256642","0.6833149102","0.6669732994","0.166138795","","","","","","","","","","74","J","1","","","42","main_expt","",""
"","bandit","128","445123","0.0-84.0-0.0","27966776","wem/bandit_party_2","A2NTK0AJX4YISZ","either","3","398","","","","","","","1","0","0","0.9407985187","","0.8","0.4","0.6","0.2","","","","","0.9407985187","0.7094953576","0.5435093165","0.1782339186","","","","","","","","","","72","H","0","img/none_selected.jpg","","43","main_expt","",""
"","bandit","129","447997","0.0-85.0-0.0","27966776","wem/bandit_party_2","A2NTK0AJX4YISZ","either","3","472","","","","","","","0","1","0","","0.7519468023","0.8","0.4","0.6","0.2","0.9000978766","0.7519468023","0.6002661395","0.1342945815","","","","","","","","","","","","","","74","J","1","","","44","main_expt","",""
"","bandit","130","449672","0.0-86.0-0.0","27966776","wem/bandit_party_2","A2NTK0AJX4YISZ","either","3","164","","","","","","","1","0","0","0.5948203474","","0.8","0.4","0.6","0.2","","","","","0.9190036262","0.7673203249","0.5948203474","0.09086288848","","","","","","","","","","75","K","2","","","45","main_expt","",""
"","bandit","131","451456","0.0-87.0-0.0","27966776","wem/bandit_party_2","A2NTK0AJX4YISZ","either","3","245","","","","","","","1","0","0","0.8865788656","","0.8","0.4","0.6","0.2","","","","","0.8865788656","0.722836051","0.6230250108","0.06420934006","","","","","","","","","","72","H","0","img/none_selected.jpg","","46","main_expt","",""
"","bandit","132","453079","0.0-88.0-0.0","27966776","wem/bandit_party_2","A2NTK0AJX4YISZ","either","3","105","","","","","","","0","1","0","","0.7239235909","0.8","0.4","0.6","0.2","0.8207935484","0.7392487755","0.7239235909","0.02332738683","","","","","","","","","","","","","","75","K","2","","","47","main_expt","",""
"","bandit","133","454729","0.0-89.0-0.0","27966776","wem/bandit_party_2","A2NTK0AJX4YISZ","either","3","138","","","","","","","0","0","1","0.03517565614","","0.8","0.4","0.6","0.2","","","","","0.8170742187","0.7551111279","0.7715310514","0.03517565614","","","","","","","","","","76","L","3","","","48","main_expt","",""
"","bandit","134","456387","0.0-90.0-0.0","27966776","wem/bandit_party_2","A2NTK0AJX4YISZ","either","3","144","","","","","","","0","1","0","","0.822179592","0.8","0.4","0.6","0.2","0.7874830355","0.6917772817","0.822179592","0.04466115719","","","","","","","","","","","","","","75","K","2","","","49","main_expt","",""
"","bandit","135","458121","0.0-91.0-0.0","27966776","wem/bandit_party_2","A2NTK0AJX4YISZ","either","3","216","","","","","","","0","0","1","0.6689959301","","0.8","0.4","0.6","0.2","","","","","0.8279472521","0.6689959301","0.8108951243","0.05053383529","","","","","","","","","","74","J","1","","","50","main_expt","",""
"","bandit","136","460051","0.0-92.0-0.0","27966776","wem/bandit_party_2","A2NTK0AJX4YISZ","either","3","415","","","","","","","1","0","0","0.8426817256","","0.8","0.4","0.6","0.2","","","","","0.8426817256","0.6020608281","0.7649170446","0.04681033125","","","","","","","","","","72","H","0","img/none_selected.jpg","","51","main_expt","",""
"","bandit","137","461667","0.0-93.0-0.0","27966776","wem/bandit_party_2","A2NTK0AJX4YISZ","either","3","73","","","","","","","1","0","0","0.6583182673","","0.8","0.4","0.6","0.2","","","","","0.8377647656","0.6583182673","0.8169848275","0.09308222201","","","","","","","","","","74","J","1","","","52","main_expt","",""
"","bandit","138","463546","0.0-94.0-0.0","27966776","wem/bandit_party_2","A2NTK0AJX4YISZ","either","3","359","","","","","","","1","0","0","0.8843577791","","0.8","0.4","0.6","0.2","","","","","0.8241398149","0.5419436754","0.8843577791","0.1397702629","","","","","","","","","","75","K","2","","","53","main_expt","",""
"","bandit","139","465210","0.0-95.0-0.0","27966776","wem/bandit_party_2","A2NTK0AJX4YISZ","either","3","153","","","","","","","0","0","1","0.110287685","","0.8","0.4","0.6","0.2","","","","","0.7289352116","0.5717614462","0.8854515068","0.110287685","","","","","","","","","","76","L","3","","","54","main_expt","",""
"","bandit","140","466939","0.0-96.0-0.0","27966776","wem/bandit_party_2","A2NTK0AJX4YISZ","either","3","189","","","","","","","1","0","0","0.8884574585","","0.8","0.4","0.6","0.2","","","","","0.5895019519","0.5497935615","0.8884574585","0.1843384007","","","","","","","","","","75","K","2","","","55","main_expt","",""
"","bandit","141","468552","0.0-97.0-0.0","27966776","wem/bandit_party_2","A2NTK0AJX4YISZ","either","3","102","","","","","","","0","1","0","","0.4902645195","0.8","0.4","0.6","0.2","0.4622464331","0.4902645195","0.8840911236","0.2056752237","","","","","","","","","","","","","","74","J","1","","","56","main_expt","",""
"","bandit","142","470207","0.0-98.0-0.0","27966776","wem/bandit_party_2","A2NTK0AJX4YISZ","either","3","144","","","","","","","1","0","0","0.490024734","","0.8","0.4","0.6","0.2","","","","","0.490024734","0.5258365243","0.864283103","0.3410726922","","","","","","","","","","72","H","0","img/none_selected.jpg","","57","main_expt","",""
"","bandit","143","471943","0.0-99.0-0.0","27966776","wem/bandit_party_2","A2NTK0AJX4YISZ","either","3","192","","","","","","","0","1","0","","0.6097664349","0.8","0.4","0.6","0.2","0.6182628796","0.6097664349","0.7377821737","0.3873695161","","","","","","","","","","","","","","74","J","1","","","58","main_expt","",""
"","bandit","144","473472","0.0-100.0-0.0","27966776","wem/bandit_party_2","A2NTK0AJX4YISZ","either","3","12","","","","","","","0","1","0","","0.6016711108","0.8","0.4","0.6","0.2","0.6976829826","0.6016711108","0.7469541206","0.3281321534","","","","","","","","","","","","","","74","J","1","","","59","main_expt","",""
"","bandit","145","475176","0.0-101.0-0.0","27966776","wem/bandit_party_2","A2NTK0AJX4YISZ","either","3","190","","","","","","","0","0","1","0.8019510571","","0.8","0.4","0.6","0.2","","","","","0.675433977","0.5544917648","0.8019510571","0.2380439254","","","","","","","","","","75","K","2","","","60","main_expt","",""
"","bandit","146","476922","0.0-102.0-0.0","27966776","wem/bandit_party_2","A2NTK0AJX4YISZ","either","3","233","","","","","","","0","0","1","0.8943887388","","0.8","0.4","0.6","0.2","","","","","0.7206550838","0.6842720067","0.8943887388","0.2228222105","","","","","","","","","","75","K","2","","","61","main_expt","",""
"","bandit","147","478451","0.0-103.0-0.0","27966776","wem/bandit_party_2","A2NTK0AJX4YISZ","either","3","18","","","","","","","0","0","1","","0.2489253665","0.8","0.4","0.6","0.2","0.7184677658","0.6824345281","0.8942973556","0.2489253665","","","","","","","","","","","","","","76","L","3","","","62","main_expt","",""
"","bandit","148","480143","0.0-104.0-0.0","27966776","wem/bandit_party_2","A2NTK0AJX4YISZ","either","3","173","","","","","","","0","0","1","","0.2298237489","0.8","0.4","0.6","0.2","0.6785259816","0.7321168219","0.8829609874","0.2298237489","","","","","","","","","","","","","","76","L","3","","","63","main_expt","",""
"","bandit","149","481842","0.0-105.0-0.0","27966776","wem/bandit_party_2","A2NTK0AJX4YISZ","either","3","184","","","","","","","0","0","1","0.1849055857","","0.8","0.4","0.6","0.2","","","","","0.6349383059","0.8123013145","0.8175344892","0.1849055857","","","","","","","","","","76","L","3","","","64","main_expt","",""
"","bandit","150","483455","0.0-106.0-0.0","27966776","wem/bandit_party_2","A2NTK0AJX4YISZ","either","3","104","","","","","","","0","1","0","","0.8236121316","0.8","0.4","0.6","0.2","0.629769122","0.8236121316","0.7812905168","0.2285715909","","","","","","","","","","","","","","74","J","1","","","65","main_expt","",""
"","bandit","151","485268","0.0-107.0-0.0","27966776","wem/bandit_party_2","A2NTK0AJX4YISZ","either","3","287","","","","","","","1","0","0","0.7158950816","","0.8","0.4","0.6","0.2","","","","","0.7158950816","0.8270077233","0.7848445355","0.2477643906","","","","","","","","","","72","H","0","img/none_selected.jpg","","66","main_expt","",""
"","bandit","152","486783","0.0-108.0-0.0","27966776","wem/bandit_party_2","A2NTK0AJX4YISZ","either","3","1","","","","","","","1","0","0","0.7601471472","","0.8","0.4","0.6","0.2","","","","","0.6309271871","0.7601471472","0.763143195","0.1801078726","","","","","","","","","","74","J","1","","","67","main_expt","",""
"","bandit","153","488455","0.0-109.0-0.0","27966776","wem/bandit_party_2","A2NTK0AJX4YISZ","either","3","162","","","","","","","1","0","0","0.617221228","","0.8","0.4","0.6","0.2","","","","","0.617221228","0.7567750057","0.7966751536","0.08479184886","","","","","","","","","","72","H","0","img/none_selected.jpg","","68","main_expt","",""
"","bandit","154","489971","0.0-110.0-0.0","27966776","wem/bandit_party_2","A2NTK0AJX4YISZ","either","3","1","","","","","","","0","0","1","","0.6871277649","0.8","0.4","0.6","0.2","0.6235929763","0.6871277649","0.8534335227","0.06982522498","","","","","","","","","","","","","","74","J","1","","","69","main_expt","",""
"","bandit","155","492017","0.0-111.0-0.0","27966776","wem/bandit_party_2","A2NTK0AJX4YISZ","either","3","532","","","","","","","0","0","1","","0.5543620559","0.8","0.4","0.6","0.2","0.5543620559","0.773099018","0.8915498471","0.05029268469","","","","","","","","","","","","","","72","H","0","img/none_selected.jpg","","70","main_expt","",""
"","bandit","156","493726","0.0-112.0-0.0","27966776","wem/bandit_party_2","A2NTK0AJX4YISZ","either","3","197","","","","","","","0","1","0","","0.8736989015","0.8","0.4","0.6","0.2","0.5333999135","0.7412476729","0.8736989015","0.06413839938","","","","","","","","","","","","","","75","K","2","","","71","main_expt","",""
"","bandit","157","495383","0.0-113.0-0.0","27966776","wem/bandit_party_2","A2NTK0AJX4YISZ","either","3","142","","","","","","","0","0","1","","0.05155778705","0.8","0.4","0.6","0.2","0.5905126671","0.8080704968","0.8837551658","0.05155778705","","","","","","","","","","","","","","76","L","3","","","72","main_expt","",""
"","bandit","158","497052","0.0-114.0-0.0","27966776","wem/bandit_party_2","A2NTK0AJX4YISZ","either","3","155","","","","","","","0","1","0","","0.8495494246","0.8","0.4","0.6","0.2","0.6925119087","0.8270016227","0.8495494246","0.0232747386","","","","","","","","","","","","","","75","K","2","","","73","main_expt","",""
"","bandit","159","498599","0.0-115.0-0.0","27966776","wem/bandit_party_2","A2NTK0AJX4YISZ","either","3","36","","","","","","","1","0","0","0.9127472651","","0.8","0.4","0.6","0.2","","","","","0.7134745341","0.7872017979","0.9127472651","0.04751547773","","","","","","","","","","75","K","2","","","74","main_expt","",""
"","bandit","160","500144","0.0-116.0-0.0","27966776","wem/bandit_party_2","A2NTK0AJX4YISZ","either","3","24","","","","","","","1","0","0","0.9199060817","","0.8","0.4","0.6","0.2","","","","","0.8065440948","0.6167225576","0.9199060817","0.05282531612","","","","","","","","","","75","K","2","","","75","main_expt","",""
"","bandit","161","501714","0.0-117.0-0.0","27966776","wem/bandit_party_2","A2NTK0AJX4YISZ","either","3","59","","","","","","","0","1","0","","0.8691294168","0.8","0.4","0.6","0.2","0.7849172319","0.637182095","0.8691294168","0.08738729654","","","","","","","","","","","","","","75","K","2","","","76","main_expt","",""
"","bandit","162","503401","0.0-118.0-0.0","27966776","wem/bandit_party_2","A2NTK0AJX4YISZ","either","3","176","","","","","","","0","0","1","0.7169911294","","0.8","0.4","0.6","0.2","","","","","0.7818962729","0.7169911294","0.9111329321","0.08851312664","","","","","","","","","","74","J","1","","","77","main_expt","",""
"","bandit","163","505671","0.0-119.0-0.0","27966776","wem/bandit_party_2","A2NTK0AJX4YISZ","either","3","760","","","","","","","1","0","0","0.7002933386","","0.8","0.4","0.6","0.2","","","","","0.7002933386","0.7446448061","0.9286966754","0.145228539","","","","","","","","","","72","H","0","img/none_selected.jpg","","78","main_expt","",""
"","bandit","164","507214","0.0-120.0-0.0","27966776","wem/bandit_party_2","A2NTK0AJX4YISZ","either","3","30","","","","","","","1","0","0","0.9616021792","","0.8","0.4","0.6","0.2","","","","","0.6510109529","0.8152221547","0.9616021792","0.1669860915","","","","","","","","","","75","K","2","","","79","main_expt","",""
"","bandit","165","508920","0.0-121.0-0.0","27966776","wem/bandit_party_2","A2NTK0AJX4YISZ","either","3","186","","","","","","","0","0","1","","0.1922913003","0.8","0.4","0.6","0.2","0.6765614865","0.810351938","0.950571795","0.1922913003","","","","","","","","","","","","","","76","L","3","","","80","main_expt","",""
"","bandit","166","510505","0.0-122.0-0.0","27966776","wem/bandit_party_2","A2NTK0AJX4YISZ","either","3","71","","","","","","","1","0","0","0.9331160128","","0.8","0.4","0.6","0.2","","","","","0.5908869344","0.8895110989","0.9331160128","0.2407870914","","","","","","","","","","75","K","2","","","81","main_expt","",""
"","bandit","167","512199","0.0-123.0-0.0","27966776","wem/bandit_party_2","A2NTK0AJX4YISZ","either","3","184","","","","","","","0","1","0","","0.9465986336","0.8","0.4","0.6","0.2","0.5267531711","0.9046816681","0.9465986336","0.3077898034","","","","","","","","","","","","","","75","K","2","","","82","main_expt","",""
"","bandit","168","513783","0.0-124.0-0.0","27966776","wem/bandit_party_2","A2NTK0AJX4YISZ","either","3","64","","","","","","","0","0","1","0.9371159138","","0.8","0.4","0.6","0.2","","","","","0.6168373964","0.8465278631","0.9371159138","0.2337579628","","","","","","","","","","75","K","2","","","83","main_expt","",""
"","bandit","169","515545","0.0-125.0-0.0","27966776","wem/bandit_party_2","A2NTK0AJX4YISZ","either","3","245","","","","","","","0","0","1","0.5733990252","","0.8","0.4","0.6","0.2","","","","","0.5733990252","0.7584930438","0.8998840018","0.2781329454","","","","","","","","","","72","H","0","img/none_selected.jpg","","84","main_expt","",""
"","bandit","170","517096","0.0-126.0-0.0","27966776","wem/bandit_party_2","A2NTK0AJX4YISZ","either","3","37","","","","","","","0","0","1","0.4719695616","","0.8","0.4","0.6","0.2","","","","","0.4719695616","0.7727946294","0.9102188985","0.3013149798","","","","","","","","","","72","H","0","img/none_selected.jpg","","85","main_expt","",""
"","bandit","171","518682","0.0-127.0-0.0","27966776","wem/bandit_party_2","A2NTK0AJX4YISZ","either","3","55","","","","","","","0","1","0","","0.8216594778","0.8","0.4","0.6","0.2","0.6941651786","0.8216594778","0.9000055418","0.3231836659","","","","","","","","","","","","","","74","J","1","","","86","main_expt","",""
"","bandit","172","520321","0.0-128.0-0.0","27966776","wem/bandit_party_2","A2NTK0AJX4YISZ","either","3","122","","","","","","","1","0","0","0.7833884788","","0.8","0.4","0.6","0.2","","","","","0.5408952125","0.7833884788","0.8563468124","0.3986379136","","","","","","","","","","74","J","1","","","87","main_expt","",""
"","bandit","173","521952","0.0-129.0-0.0","27966776","wem/bandit_party_2","A2NTK0AJX4YISZ","either","3","118","","","","","","","0","1","0","","0.7804426693","0.8","0.4","0.6","0.2","0.5438891422","0.7804426693","0.7349543302","0.4230151841","","","","","","","","","","","","","","74","J","1","","","88","main_expt","",""
"","bandit","174","523571","0.0-130.0-0.0","27966776","wem/bandit_party_2","A2NTK0AJX4YISZ","either","3","102","","","","","","","0","1","0","","0.7930928848","0.8","0.4","0.6","0.2","0.4294971294","0.7930928848","0.7907967515","0.3761858397","","","","","","","","","","","","","","74","J","1","","","89","main_expt","",""
"","bandit","175","525160","0.0-131.0-0.0","27966776","wem/bandit_party_2","A2NTK0AJX4YISZ","either","3","79","","","","","","","1","0","0","0.7683039237","","0.8","0.4","0.6","0.2","","","","","0.4928337868","0.7683039237","0.7883246469","0.4799086841","","","","","","","","","","74","J","1","","","90","main_expt","",""
"","bandit","176","526815","0.0-132.0-0.0","27966776","wem/bandit_party_2","A2NTK0AJX4YISZ","either","3","141","","","","","","","0","1","0","","0.8072091422","0.8","0.4","0.6","0.2","0.5655090935","0.8072091422","0.8389096604","0.4558425901","","","","","","","","","","","","","","74","J","1","","","91","main_expt","",""
"","bandit","177","528434","0.0-133.0-0.0","27966776","wem/bandit_party_2","A2NTK0AJX4YISZ","either","3","101","","","","","","","0","1","0","","0.7791444337","0.8","0.4","0.6","0.2","0.6154818033","0.7791444337","0.8064187158","0.3781515597","","","","","","","","","","","","","","74","J","1","","","92","main_expt","",""
"","bandit","178","530050","0.0-134.0-0.0","27966776","wem/bandit_party_2","A2NTK0AJX4YISZ","either","3","104","","","","","","","0","1","0","","0.8498372391","0.8","0.4","0.6","0.2","0.7381217307","0.8498372391","0.7542368763","0.2858753042","","","","","","","","","","","","","","74","J","1","","","93","main_expt","",""
"","bandit","179","531584","0.0-135.0-0.0","27966776","wem/bandit_party_2","A2NTK0AJX4YISZ","either","3","22","","","","","","","1","0","0","0.8440610374","","0.8","0.4","0.6","0.2","","","","","0.7776388333","0.8440610374","0.6932487021","0.3914428564","","","","","","","","","","74","J","1","","","94","main_expt","",""
"","bandit","180","533151","0.0-136.0-0.0","27966776","wem/bandit_party_2","A2NTK0AJX4YISZ","either","3","50","","","","","","","0","1","0","","0.8092418145","0.8","0.4","0.6","0.2","0.8299152283","0.8092418145","0.6706070003","0.3800018616","","","","","","","","","","","","","","74","J","1","","","95","main_expt","",""
"","bandit","181","534761","0.0-137.0-0.0","27966776","wem/bandit_party_2","A2NTK0AJX4YISZ","either","3","95","","","","","","","1","0","0","0.8655172998","","0.8","0.4","0.6","0.2","","","","","0.7697811485","0.8655172998","0.6670251336","0.3078584031","","","","","","","","","","74","J","1","","","96","main_expt","",""
"","bandit","182","536372","0.0-138.0-0.0","27966776","wem/bandit_party_2","A2NTK0AJX4YISZ","either","3","100","","","","","","","1","0","0","0.8735151232","","0.8","0.4","0.6","0.2","","","","","0.7487724405","0.8735151232","0.7023758817","0.218486712","","","","","","","","","","74","J","1","","","97","main_expt","",""
"","bandit","183","538059","0.0-139.0-0.0","27966776","wem/bandit_party_2","A2NTK0AJX4YISZ","either","3","173","","","","","","","1","0","0","0.84409386","","0.8","0.4","0.6","0.2","","","","","0.7450583294","0.84409386","0.7036518389","0.2037628256","","","","","","","","","","74","J","1","","","98","main_expt","",""
"","bandit","184","539570","0.0-140.0-0.0","27966776","wem/bandit_party_2","A2NTK0AJX4YISZ","either","3","0","","","","","","","1","0","0","0.8089648913","","0.8","0.4","0.6","0.2","","","","","0.7227120129","0.8089648913","0.8401346726","0.2400196326","","","","","","","","","","74","J","1","","","99","main_expt","",""
"","bandit","185","541195","0.0-141.0-0.0","27966776","wem/bandit_party_2","A2NTK0AJX4YISZ","either","3","84","","","","","","","0","1","0","","0.7259557377","0.8","0.4","0.6","0.2","0.5872141049","0.7259557377","0.8640782416","0.3298222115","","","","","","","","","","","","","","74","J","1","","","100","main_expt","",""
"","bandit","186","542744","0.0-142.0-0.0","27966776","wem/bandit_party_2","A2NTK0AJX4YISZ","either","3","34","","","","","","","0","1","0","","0.6332869741","0.8","0.4","0.6","0.2","0.6432213136","0.6332869741","0.8232172207","0.3108047587","","","","","","","","","","","","","","74","J","1","","","101","main_expt","",""
"","bandit","187","544362","0.0-143.0-0.0","27966776","wem/bandit_party_2","A2NTK0AJX4YISZ","either","3","65","","","","","","","0","1","0","","0.659443461","0.8","0.4","0.6","0.2","0.6009476408","0.659443461","0.8451901448","0.2869381514","","","","","","","","","","","","","","74","J","1","","","102","main_expt","",""
"","bandit","188","545927","0.0-144.0-0.0","27966776","wem/bandit_party_2","A2NTK0AJX4YISZ","either","3","50","","","","","","","0","0","1","","0.5959971703","0.8","0.4","0.6","0.2","0.6120105745","0.5959971703","0.8792283932","0.246485708","","","","","","","","","","","","","","74","J","1","","","103","main_expt","",""
"","bandit","189","547465","0.0-145.0-0.0","27966776","wem/bandit_party_2","A2NTK0AJX4YISZ","either","3","25","","","","","","","0","0","1","","0.5643630141","0.8","0.4","0.6","0.2","0.6821098495","0.5643630141","0.8887181638","0.2175667678","","","","","","","","","","","","","","74","J","1","","","104","main_expt","",""
"","bandit","190","549106","0.0-146.0-0.0","27966776","wem/bandit_party_2","A2NTK0AJX4YISZ","either","3","114","","","","","","","0","1","0","","0.8013578166","0.8","0.4","0.6","0.2","0.7228510016","0.5489079514","0.8013578166","0.2645808036","","","","","","","","","","","","","","75","K","2","","","105","main_expt","",""
"","bandit","191","555018","0.0-147.0-0.0","27966776","wem/bandit_party_2","A2NTK0AJX4YISZ","either","3","4399","","","","","","","1","0","0","0.4336033326","","0.8","0.4","0.6","0.2","","","","","0.6639212405","0.4336033326","0.7307006529","0.2652424516","","","","","","","","","","74","J","1","","","106","main_expt","",""
"","bandit","192","556592","0.0-148.0-0.0","27966776","wem/bandit_party_2","A2NTK0AJX4YISZ","either","3","37","","","","","","","0","0","1","","0.7519500851","0.8","0.4","0.6","0.2","0.6237034742","0.4779201531","0.7519500851","0.2481661544","","","","","","","","","","","","","","75","K","2","","","107","main_expt","",""
"","bandit","193","558121","0.0-149.0-0.0","27966776","wem/bandit_party_2","A2NTK0AJX4YISZ","either","3","15","","","","","","","1","0","0","0.5075294874","","0.8","0.4","0.6","0.2","","","","","0.5847293191","0.5075294874","0.7457577851","0.2361720859","","","","","","","","","","74","J","1","","","108","main_expt","",""
"","bandit","194","559660","0.0-150.0-0.0","27966776","wem/bandit_party_2","A2NTK0AJX4YISZ","either","3","1","","","","","","","0","0","1","","0.2799679389","0.8","0.4","0.6","0.2","0.6260859175","0.522842385","0.77583868","0.2799679389","","","","","","","","","","","","","","76","L","3","","","109","main_expt","",""
"","bandit","195","561199","0.0-151.0-0.0","27966776","wem/bandit_party_2","A2NTK0AJX4YISZ","either","3","28","","","","","","","1","0","0","0.7520827962","","0.8","0.4","0.6","0.2","","","","","0.4788227383","0.419893696","0.7520827962","0.3333098602","","","","","","","","","","75","K","2","","","110","main_expt","",""
"","bandit","196","562714","0.0-152.0-0.0","27966776","wem/bandit_party_2","A2NTK0AJX4YISZ","either","3","1","","","","","","","1","0","0","0.6512809768","","0.8","0.4","0.6","0.2","","","","","0.6019778282","0.431092028","0.6512809768","0.3669732535","","","","","","","","","","75","K","2","","","111","main_expt","",""
"","bandit","197","564327","0.0-153.0-0.0","27966776","wem/bandit_party_2","A2NTK0AJX4YISZ","either","3","96","","","","","","","0","0","1","","0.5891937939","0.8","0.4","0.6","0.2","0.546445977","0.3590071368","0.5891937939","0.389765336","","","","","","","","","","","","","","75","K","2","","","112","main_expt","",""
"","bandit","198","565983","0.0-154.0-0.0","27966776","wem/bandit_party_2","A2NTK0AJX4YISZ","either","3","143","","","","","","","0","0","1","0.4498419114","","0.8","0.4","0.6","0.2","","","","","0.6256092846","0.4498419114","0.6490525038","0.3191506652","","","","","","","","","","74","J","1","","","113","main_expt","",""
"","bandit","199","567497","0.0-155.0-0.0","27966776","wem/bandit_party_2","A2NTK0AJX4YISZ","either","3","1","","","","","","","0","0","1","","0.4829831469","0.8","0.4","0.6","0.2","0.6577617598","0.4829831469","0.6283680234","0.2090321438","","","","","","","","","","","","","","74","J","1","","","114","main_expt","",""
"","bandit","200","569031","0.0-156.0-0.0","27966776","wem/bandit_party_2","A2NTK0AJX4YISZ","either","3","15","","","","","","","0","0","1","0.2094439124","","0.8","0.4","0.6","0.2","","","","","0.7140476354","0.4846695964","0.6064224059","0.2094439124","","","","","","","","","","76","L","3","","","115","main_expt","",""
"","bandit","201","573743","0.0-157.0-0.0","27966776","wem/bandit_party_2","A2NTK0AJX4YISZ","either","3","3199","","","","","","","0","0","1","0.2695181069","","0.8","0.4","0.6","0.2","","","","","0.6589976567","0.5396909338","0.545813367","0.2695181069","","","","","","","","","","76","L","3","","","116","main_expt","",""
"","bandit","202","575346","0.0-158.0-0.0","27966776","wem/bandit_party_2","A2NTK0AJX4YISZ","either","3","87","","","","","","","1","0","0","0.6937703341","","0.8","0.4","0.6","0.2","","","","","0.6937703341","0.5378282835","0.5179373022","0.3402036285","","","","","","","","","","72","H","0","img/none_selected.jpg","","117","main_expt","",""
"","bandit","203","576901","0.0-159.0-0.0","27966776","wem/bandit_party_2","A2NTK0AJX4YISZ","either","3","30","","","","","","","1","0","0","0.77114399","","0.8","0.4","0.6","0.2","","","","","0.77114399","0.5729988564","0.4014157923","0.3101634078","","","","","","","","","","72","H","0","img/none_selected.jpg","","118","main_expt","",""
"","bandit","204","578575","0.0-160.0-0.0","27966776","wem/bandit_party_2","A2NTK0AJX4YISZ","either","3","153","","","","","","","0","0","1","","0.710000291","0.8","0.4","0.6","0.2","0.710000291","0.5630251564","0.4360264599","0.3242193616","","","","","","","","","","","","","","72","H","0","img/none_selected.jpg","","119","main_expt","",""
"","bandit","205","580105","0.0-161.0-0.0","27966776","wem/bandit_party_2","A2NTK0AJX4YISZ","either","3","14","","","","","","","1","0","0","0.6767982245","","0.8","0.4","0.6","0.2","","","","","0.6767982245","0.6482115929","0.3297853269","0.3334277272","","","","","","","","","","72","H","0","img/none_selected.jpg","","120","main_expt","",""
"","bandit","206","581708","0.0-162.0-0.0","27966776","wem/bandit_party_2","A2NTK0AJX4YISZ","either","3","85","","","","","","","0","1","0","","0.5688505083","0.8","0.4","0.6","0.2","0.7360115258","0.5688505083","0.3767442019","0.4066521311","","","","","","","","","","","","","","74","J","1","","","121","main_expt","",""
"","bandit","207","583407","0.0-163.0-0.0","27966776","wem/bandit_party_2","A2NTK0AJX4YISZ","either","3","184","","","","","","","0","1","0","","0.7258716992","0.8","0.4","0.6","0.2","0.7258716992","0.5349597204","0.3589515546","0.5193034213","","","","","","","","","","","","","","72","H","0","img/none_selected.jpg","","122","main_expt","",""
"","bandit","208","584940","0.0-164.0-0.0","27966776","wem/bandit_party_2","A2NTK0AJX4YISZ","either","3","17","","","","","","","0","0","1","0.412887176","","0.8","0.4","0.6","0.2","","","","","0.7848203729","0.412887176","0.3461890545","0.5594962391","","","","","","","","","","74","J","1","","","123","main_expt","",""
"","bandit","209","586624","0.0-165.0-0.0","27966776","wem/bandit_party_2","A2NTK0AJX4YISZ","either","3","172","","","","","","","0","0","1","","0.2287340519","0.8","0.4","0.6","0.2","0.7673004895","0.4137060999","0.2287340519","0.6876014299","","","","","","","","","","","","","","75","K","2","","","124","main_expt","",""
"","bandit","210","588171","0.0-166.0-0.0","27966776","wem/bandit_party_2","A2NTK0AJX4YISZ","either","3","20","","","","","","","0","0","1","","0.3226696341","0.8","0.4","0.6","0.2","0.8020703208","0.3226696341","0.2900718705","0.7354493796","","","","","","","","","","","","","","74","J","1","","","125","main_expt","",""
"","bandit","211","589791","0.0-167.0-0.0","27966776","wem/bandit_party_2","A2NTK0AJX4YISZ","either","3","109","","","","","","","0","1","0","","0.76840964","0.8","0.4","0.6","0.2","0.8196031782","0.3904211026","0.2880997441","0.76840964","","","","","","","","","","","","","","76","L","3","","","126","main_expt","",""
"","bandit","212","591358","0.0-168.0-0.0","27966776","wem/bandit_party_2","A2NTK0AJX4YISZ","either","3","54","","","","","","","1","0","0","0.7095492128","","0.8","0.4","0.6","0.2","","","","","0.7095492128","0.4227014292","0.3451069126","0.7310750685","","","","","","","","","","72","H","0","img/none_selected.jpg","","127","main_expt","",""
"","bandit","213","592899","0.0-169.0-0.0","27966776","wem/bandit_party_2","A2NTK0AJX4YISZ","either","3","11","","","","","","","0","1","0","","0.6582635175","0.8","0.4","0.6","0.2","0.711577854","0.543317668","0.3129298861","0.6582635175","","","","","","","","","","","","","","76","L","3","","","128","main_expt","",""
"","bandit","214","594502","0.0-170.0-0.0","27966776","wem/bandit_party_2","A2NTK0AJX4YISZ","either","3","91","","","","","","","1","0","0","0.7022761705","","0.8","0.4","0.6","0.2","","","","","0.7022761705","0.5906282681","0.3507055597","0.7529887683","","","","","","","","","","72","H","0","img/none_selected.jpg","","129","main_expt","",""
"","bandit","215","596032","0.0-171.0-0.0","27966776","wem/bandit_party_2","A2NTK0AJX4YISZ","either","3","17","","","","","","","0","1","0","","0.7929301986","0.8","0.4","0.6","0.2","0.7309419319","0.6636268631","0.3753424236","0.7929301986","","","","","","","","","","","","","","76","L","3","","","130","main_expt","",""
"","bandit","216","597600","0.0-172.0-0.0","27966776","wem/bandit_party_2","A2NTK0AJX4YISZ","either","3","51","","","","","","","1","0","0","0.6904825683","","0.8","0.4","0.6","0.2","","","","","0.6904825683","0.5686699027","0.3473486375","0.8149544693","","","","","","","","","","72","H","0","img/none_selected.jpg","","131","main_expt","",""
"","bandit","217","599184","0.0-173.0-0.0","27966776","wem/bandit_party_2","A2NTK0AJX4YISZ","either","3","72","","","","","","","0","0","1","","0.6564012045","0.8","0.4","0.6","0.2","0.7153166113","0.6564012045","0.303679922","0.7626544417","","","","","","","","","","","","","","74","J","1","","","132","main_expt","",""
"","bandit","218","600704","0.0-174.0-0.0","27966776","wem/bandit_party_2","A2NTK0AJX4YISZ","either","3","2","","","","","","","1","0","0","0.8135501627","","0.8","0.4","0.6","0.2","","","","","0.8135501627","0.5876654864","0.3385565331","0.7584501248","","","","","","","","","","72","H","0","img/none_selected.jpg","","133","main_expt","",""
"","bandit","219","602391","0.0-175.0-0.0","27966776","wem/bandit_party_2","A2NTK0AJX4YISZ","either","3","174","","","","","","","1","0","0","0.7905015291","","0.8","0.4","0.6","0.2","","","","","0.7707892239","0.5299368298","0.3686406913","0.7905015291","","","","","","","","","","76","L","3","","","134","main_expt","",""
"","bandit","220","603931","0.0-176.0-0.0","27966776","wem/bandit_party_2","A2NTK0AJX4YISZ","either","3","23","","","","","","","0","1","0","","0.7689088841","0.8","0.4","0.6","0.2","0.7689088841","0.4547966061","0.3672202126","0.7515189777","","","","","","","","","","","","","","72","H","0","img/none_selected.jpg","","135","main_expt","",""
"","bandit","221","605544","0.0-177.0-0.0","27966776","wem/bandit_party_2","A2NTK0AJX4YISZ","either","3","96","","","","","","","1","0","0","0.6641324257","","0.8","0.4","0.6","0.2","","","","","0.6641324257","0.5290841583","0.4064769993","0.7293518859","","","","","","","","","","72","H","0","img/none_selected.jpg","","136","main_expt","",""
"","bandit","222","607072","0.0-178.0-0.0","27966776","wem/bandit_party_2","A2NTK0AJX4YISZ","either","3","15","","","","","","","0","0","1","","0.7286216209","0.8","0.4","0.6","0.2","0.635388201","0.419904672","0.3492503667","0.7286216209","","","","","","","","","","","","","","76","L","3","","","137","main_expt","",""
"","bandit","223","608729","0.0-179.0-0.0","27966776","wem/bandit_party_2","A2NTK0AJX4YISZ","either","3","139","","","","","","","0","1","0","","0.6889508363","0.8","0.4","0.6","0.2","0.6889508363","0.4532768315","0.3315752647","0.7425921641","","","","","","","","","","","","","","72","H","0","img/none_selected.jpg","","138","main_expt","",""
"","bandit","224","610390","0.0-180.0-0.0","27966776","wem/bandit_party_2","A2NTK0AJX4YISZ","either","3","124","","","","","","","0","0","1","0.6481427694","","0.8","0.4","0.6","0.2","","","","","0.6481427694","0.4194835996","0.3080831972","0.7356638012","","","","","","","","","","72","H","0","img/none_selected.jpg","","139","main_expt","",""
"","bandit","225","612033","0.0-181.0-0.0","27966776","wem/bandit_party_2","A2NTK0AJX4YISZ","either","3","123","","","","","","","0","0","1","0.420008375","","0.8","0.4","0.6","0.2","","","","","0.6497449761","0.420008375","0.3254670704","0.7334346803","","","","","","","","","","74","J","1","","","140","main_expt","",""
"","bandit","226","613560","0.0-182.0-0.0","27966776","wem/bandit_party_2","A2NTK0AJX4YISZ","either","3","13","","","","","","","0","0","1","0.3452870884","","0.8","0.4","0.6","0.2","","","","","0.7328205829","0.3908595681","0.3452870884","0.7737071977","","","","","","","","","","75","K","2","","","141","main_expt","",""
"","bandit","227","615104","0.0-183.0-0.0","27966776","wem/bandit_party_2","A2NTK0AJX4YISZ","either","3","27","","","","","","","0","1","0","","0.7912630164","0.8","0.4","0.6","0.2","0.6396752577","0.3994278682","0.2659846132","0.7912630164","","","","","","","","","","","","","","76","L","3","","","142","main_expt","",""
"","bandit","228","616621","0.0-184.0-0.0","27966776","wem/bandit_party_2","A2NTK0AJX4YISZ","either","3","2","","","","","","","1","0","0","0.5974809775","","0.8","0.4","0.6","0.2","","","","","0.5974809775","0.3137486051","0.2549781044","0.7709923268","","","","","","","","","","72","H","0","img/none_selected.jpg","","143","main_expt","",""
"","bandit","229","618136","0.0-185.0-0.0","27966776","wem/bandit_party_2","A2NTK0AJX4YISZ","either","3","1","","","","","","","0","1","0","","0.7492848764","0.8","0.4","0.6","0.2","0.5953980303","0.3961992406","0.3603981418","0.7492848764","","","","","","","","","","","","","","76","L","3","","","144","main_expt","",""
"","bandit","230","619927","0.0-186.0-0.0","27966776","wem/bandit_party_2","A2NTK0AJX4YISZ","either","3","276","","","","","","","0","0","1","","0.3682949958","0.8","0.4","0.6","0.2","0.6215671736","0.3186856111","0.3682949958","0.7343485297","","","","","","","","","","","","","","75","K","2","","","145","main_expt","",""
"","bandit","231","621568","0.0-187.0-0.0","27966776","wem/bandit_party_2","A2NTK0AJX4YISZ","either","3","101","","","","","","","0","0","1","","0.2724247948","0.8","0.4","0.6","0.2","0.5766937592","0.2724247948","0.5028772858","0.7701032705","","","","","","","","","","","","","","74","J","1","","","146","main_expt","",""
"","bandit","232","623092","0.0-188.0-0.0","27966776","wem/bandit_party_2","A2NTK0AJX4YISZ","either","3","1","","","","","","","0","0","1","","0.4600492943","0.8","0.4","0.6","0.2","0.4600492943","0.2844288079","0.4186890645","0.7521601774","","","","","","","","","","","","","","72","H","0","img/none_selected.jpg","","147","main_expt","",""
"","bandit","233","624616","0.0-189.0-0.0","27966776","wem/bandit_party_2","A2NTK0AJX4YISZ","either","3","7","","","","","","","0","1","0","","0.3095389551","0.8","0.4","0.6","0.2","0.4575448178","0.3095389551","0.3928328601","0.7762143641","","","","","","","","","","","","","","74","J","1","","","148","main_expt","",""
"","bandit","234","626289","0.0-190.0-0.0","27966776","wem/bandit_party_2","A2NTK0AJX4YISZ","either","3","158","","","","","","","0","0","1","0.4220063763","","0.8","0.4","0.6","0.2","","","","","0.3840278576","0.2464654743","0.4220063763","0.716016993","","","","","","","","","","75","K","2","","","149","main_expt","",""
"","bandit","235","627864","0.0-191.0-0.0","27966776","wem/bandit_party_2","A2NTK0AJX4YISZ","either","3","56","","","","","","","0","0","1","","0.7182774931","0.8","0.4","0.6","0.2","0.3004406684","0.2088091358","0.3206822378","0.7182774931","","","","","","","","","","","","","","76","L","3","","","150","main_expt","",""
"","bandit","236","629535","0.0-192.0-0.0","27966776","wem/bandit_party_2","A2NTK0AJX4YISZ","either","3","159","","","","","","","0","0","1","0.2769981479","","0.8","0.4","0.6","0.2","","","","","0.2769981479","0.2670014618","0.3380172956","0.8028216805","","","","","","","","","","72","H","0","img/none_selected.jpg","","151","main_expt","",""
"","bandit","237","631205","0.0-193.0-0.0","27966776","wem/bandit_party_2","A2NTK0AJX4YISZ","either","3","150","","","","","","","1","0","0","0.3100930243","","0.8","0.4","0.6","0.2","","","","","0.40565407","0.3100930243","0.2461440624","0.8634692279","","","","","","","","","","74","J","1","","","152","main_expt","",""
"","bandit","238","632738","0.0-194.0-0.0","27966776","wem/bandit_party_2","A2NTK0AJX4YISZ","either","3","19","","","","","","","0","0","1","0.3796096158","","0.8","0.4","0.6","0.2","","","","","0.3829351634","0.3796096158","0.1852716423","0.7719190238","","","","","","","","","","74","J","1","","","153","main_expt","",""
"","bandit","239","634328","0.0-195.0-0.0","27966776","wem/bandit_party_2","A2NTK0AJX4YISZ","either","3","69","","","","","","","1","0","0","0.4912137185","","0.8","0.4","0.6","0.2","","","","","0.4912137185","0.2265028128","0.1660439368","0.8343429945","","","","","","","","","","72","H","0","img/none_selected.jpg","","154","main_expt","",""
"","bandit","240","635935","0.0-196.0-0.0","27966776","wem/bandit_party_2","A2NTK0AJX4YISZ","either","3","91","","","","","","","0","0","1","","0.2135741777","0.8","0.4","0.6","0.2","0.5312535156","0.2135741777","0.2241607793","0.7908731232","","","","","","","","","","","","","","74","J","1","","","155","main_expt","",""
"","bandit","241","637559","0.0-197.0-0.0","27966776","wem/bandit_party_2","A2NTK0AJX4YISZ","either","3","107","","","","","","","0","1","0","","0.7848911391","0.8","0.4","0.6","0.2","0.5747898199","0.1338357519","0.1566338899","0.7848911391","","","","","","","","","","","","","","76","L","3","","","156","main_expt","",""
"","bandit","242","639122","0.0-198.0-0.0","27966776","wem/bandit_party_2","A2NTK0AJX4YISZ","either","3","50","","","","","","","1","0","0","0.1839373886","","0.8","0.4","0.6","0.2","","","","","0.5948125822","0.1344370697","0.1839373886","0.7467155263","","","","","","","","","","75","K","2","","","157","main_expt","",""
"","bandit","243","640728","0.0-199.0-0.0","27966776","wem/bandit_party_2","A2NTK0AJX4YISZ","either","3","78","","","","","","","0","0","1","0.1217930933","","0.8","0.4","0.6","0.2","","","","","0.6533804049","0.1217930933","0.155802242","0.7413618202","","","","","","","","","","74","J","1","","","158","main_expt","",""
"","bandit","244","642282","0.0-200.0-0.0","27966776","wem/bandit_party_2","A2NTK0AJX4YISZ","either","3","37","","","","","","","1","0","0","0.5777198579","","0.8","0.4","0.6","0.2","","","","","0.5777198579","0.08524485746","0.2304237345","0.6882043704","","","","","","","","","","72","H","0","img/none_selected.jpg","","159","main_expt","",""
"","bandit","245","643866","0.0-201.0-0.0","27966776","wem/bandit_party_2","A2NTK0AJX4YISZ","either","3","69","","","","","","","0","0","1","0.6777741118","","0.8","0.4","0.6","0.2","","","","","0.6777741118","0.07332219892","0.2242026456","0.7253096401","","","","","","","","","","72","H","0","img/none_selected.jpg","","160","main_expt","",""
"","bandit","246","646775","0.0-202.0-0.0","27966776","wem/bandit_party_2","A2NTK0AJX4YISZ","either","3","1397","","","","","","","0","0","1","0.2708915048","","0.8","0.4","0.6","0.2","","","","","0.6249074267","0.1063489691","0.2708915048","0.6989182833","","","","","","","","","","75","K","2","","","161","main_expt","",""
"","bandit","247","648305","0.0-203.0-0.0","27966776","wem/bandit_party_2","A2NTK0AJX4YISZ","either","3","15","","","","","","","0","0","1","0.6755041601","","0.8","0.4","0.6","0.2","","","","","0.6755041601","0.09670310095","0.2921592604","0.7679575172","","","","","","","","","","72","H","0","img/none_selected.jpg","","162","main_expt","",""
"","bandit","248","649880","0.0-204.0-0.0","27966776","wem/bandit_party_2","A2NTK0AJX4YISZ","either","3","58","","","","","","","0","0","1","","0.1266359811","0.8","0.4","0.6","0.2","0.6461818487","0.1266359811","0.2050535257","0.6877390752","","","","","","","","","","","","","","74","J","1","","","163","main_expt","",""
"","bandit","249","651513","0.0-205.0-0.0","27966776","wem/bandit_party_2","A2NTK0AJX4YISZ","either","3","110","","","","","","","0","0","1","0.1998759094","","0.8","0.4","0.6","0.2","","","","","0.76368027","0.1212611996","0.1998759094","0.6957575266","","","","","","","","","","75","K","2","","","164","main_expt","",""
"","bandit","250","653701","0.0-206.0-0.0","27966776","wem/bandit_party_2","A2NTK0AJX4YISZ","either","3","640","","","","","","","0","0","1","","0.1821974317","0.8","0.4","0.6","0.2","0.8400099296","0.1917887173","0.1821974317","0.6760148625","","","","","","","","","","","","","","75","K","2","","","165","main_expt","",""
"","bandit","251","655225","0.0-207.0-0.0","27966776","wem/bandit_party_2","A2NTK0AJX4YISZ","either","3","1","","","","","","","0","0","1","0.1560613016","","0.8","0.4","0.6","0.2","","","","","0.8573275969","0.1560613016","0.2916844583","0.6463317238","","","","","","","","","","74","J","1","","","166","main_expt","",""
"","bandit","252","656746","0.0-208.0-0.0","27966776","wem/bandit_party_2","A2NTK0AJX4YISZ","either","3","1","","","","","","","0","0","1","","0.3087465624","0.8","0.4","0.6","0.2","0.7735369509","0.2214887095","0.3087465624","0.5613055562","","","","","","","","","","","","","","75","K","2","","","167","main_expt","",""
"","bandit","253","658296","0.0-209.0-0.0","27966776","wem/bandit_party_2","A2NTK0AJX4YISZ","either","3","34","","","","","","","0","0","1","0.3463453368","","0.8","0.4","0.6","0.2","","","","","0.8091314607","0.3463453368","0.3896626528","0.5586162784","","","","","","","","","","74","J","1","","","168","main_expt","",""
"","bandit","254","659934","0.0-210.0-0.0","27966776","wem/bandit_party_2","A2NTK0AJX4YISZ","either","3","115","","","","","","","0","1","0","","0.8364166478","0.8","0.4","0.6","0.2","0.8364166478","0.3222551453","0.4458805252","0.597448185","","","","","","","","","","","","","","72","H","0","img/none_selected.jpg","","169","main_expt","",""
"","bandit","255","673145","0.0-211.0-0.0","27966776","wem/bandit_party_2","A2NTK0AJX4YISZ","either","3","11689","","","","","","","0","0","1","0.2556410415","","0.8","0.4","0.6","0.2","","","","","0.7867883415","0.2556410415","0.4844269655","0.5351242352","","","","","","","","","","74","J","1","","","170","main_expt","",""
"","bandit","256","675653","0.0-212.0-0.0","27966776","wem/bandit_party_2","A2NTK0AJX4YISZ","either","3","27","","","","","","","1","0","0","0.8728822524","","0.8","0.4","0.6","0.2","","","","","0.8728822524","0.2248109201","0.4858642724","0.4819966971","","","","","","","","","","72","H","0","img/none_selected.jpg","","171","main_expt","",""
"","bandit","257","677225","0.0-213.0-0.0","27966776","wem/bandit_party_2","A2NTK0AJX4YISZ","either","3","2","","","","","","","0","0","1","0.7804912391","","0.8","0.4","0.6","0.2","","","","","0.7804912391","0.3468742366","0.5060245996","0.4038669266","","","","","","","","","","72","H","0","img/none_selected.jpg","","172","main_expt","",""
"","bandit","258","678818","0.0-214.0-0.0","27966776","wem/bandit_party_2","A2NTK0AJX4YISZ","either","3","80","","","","","","","0","0","1","0.234408543","","0.8","0.4","0.6","0.2","","","","","0.7728490534","0.234408543","0.5413528159","0.3102533384","","","","","","","","","","74","J","1","","","173","main_expt","",""
"","bandit","259","680615","0.0-215.0-0.0","27966776","wem/bandit_party_2","A2NTK0AJX4YISZ","either","3","274","","","","","","","0","0","1","0.6505326818","","0.8","0.4","0.6","0.2","","","","","0.814185781","0.1404050277","0.6505326818","0.3818943333","","","","","","","","","","75","K","2","","","174","main_expt","",""
"","bandit","260","682223","0.0-216.0-0.0","27966776","wem/bandit_party_2","A2NTK0AJX4YISZ","either","3","96","","","","","","","1","0","0","0.8010682597","","0.8","0.4","0.6","0.2","","","","","0.8010682597","0.1081611795","0.6470977149","0.2893198216","","","","","","","","","","72","H","0","img/none_selected.jpg","","175","main_expt","",""
"","bandit","261","683911","0.0-217.0-0.0","27966776","wem/bandit_party_2","A2NTK0AJX4YISZ","either","3","172","","","","","","","0","0","1","0.6844229635","","0.8","0.4","0.6","0.2","","","","","0.7083228223","0.0730283124","0.6844229635","0.226416223","","","","","","","","","","75","K","2","","","176","main_expt","",""
"","bandit","262","685503","0.0-218.0-0.0","27966776","wem/bandit_party_2","A2NTK0AJX4YISZ","either","3","76","","","","","","","0","0","1","0.7408938443","","0.8","0.4","0.6","0.2","","","","","0.7408938443","0.07044941978","0.6883244284","0.2786676386","","","","","","","","","","72","H","0","img/none_selected.jpg","","177","main_expt","",""
"","bandit","263","688663","0.0-219.0-0.0","27966776","wem/bandit_party_2","A2NTK0AJX4YISZ","either","3","1642","","","","","","","0","0","1","0.6098590842","","0.8","0.4","0.6","0.2","","","","","0.6621187214","0.06886985111","0.6098590842","0.2279078815","","","","","","","","","","75","K","2","","","178","main_expt","",""
"","bandit","264","690181","0.0-220.0-0.0","27966776","wem/bandit_party_2","A2NTK0AJX4YISZ","either","3","2","","","","","","","0","0","1","0.6765487854","","0.8","0.4","0.6","0.2","","","","","0.6765487854","0.07254371148","0.5924449164","0.1690126781","","","","","","","","","","72","H","0","img/none_selected.jpg","","179","main_expt","",""
"","bandit","265","691783","0.0-221.0-0.0","27966776","wem/bandit_party_2","A2NTK0AJX4YISZ","either","3","88","","","","","","","0","0","1","","0.055057054","0.8","0.4","0.6","0.2","0.7276027883","0.055057054","0.4915111467","0.1356066944","","","","","","","","","","","","","","74","J","1","","","180","main_expt","",""
"","bandit","266","693560","0.0-222.0-0.0","27966776","wem/bandit_party_2","A2NTK0AJX4YISZ","either","3","260","","","","","","","0","1","0","","0.7083410305","0.8","0.4","0.6","0.2","0.7083410305","0.1187845962","0.4713933083","0.1889441784","","","","","","","","","","","","","","72","H","0","img/none_selected.jpg","","181","main_expt","",""
"","bandit","267","695103","0.0-223.0-0.0","27966776","wem/bandit_party_2","A2NTK0AJX4YISZ","either","3","28","","","","","","","1","0","0","0.500114893","","0.8","0.4","0.6","0.2","","","","","0.6489729838","0.1304227184","0.500114893","0.2163976064","","","","","","","","","","75","K","2","","","182","main_expt","",""
"","bandit","268","696994","0.0-224.0-0.0","27966776","wem/bandit_party_2","A2NTK0AJX4YISZ","either","3","373","","","","","","","0","0","1","0.4949273894","","0.8","0.4","0.6","0.2","","","","","0.6956751073","0.1374638341","0.4949273894","0.1902524086","","","","","","","","","","75","K","2","","","183","main_expt","",""
"","bandit","269","698671","0.0-225.0-0.0","27966776","wem/bandit_party_2","A2NTK0AJX4YISZ","either","3","165","","","","","","","0","0","1","","0.6066537109","0.8","0.4","0.6","0.2","0.6066537109","0.1914365344","0.4271361476","0.2265805791","","","","","","","","","","","","","","72","H","0","img/none_selected.jpg","","184","main_expt","",""
"","bandit","270","700271","0.0-226.0-0.0","27966776","wem/bandit_party_2","A2NTK0AJX4YISZ","either","3","83","","","","","","","0","0","1","","0.6337362372","0.8","0.4","0.6","0.2","0.6337362372","0.1939872458","0.4558255176","0.1843452782","","","","","","","","","","","","","","72","H","0","img/none_selected.jpg","","185","main_expt","",""
"","bandit","271","701919","0.0-227.0-0.0","27966776","wem/bandit_party_2","A2NTK0AJX4YISZ","either","3","129","","","","","","","1","0","0","0.5908962551","","0.8","0.4","0.6","0.2","","","","","0.5908962551","0.2219937035","0.4031301461","0.1898387663","","","","","","","","","","72","H","0","img/none_selected.jpg","","186","main_expt","",""
"","bandit","272","703480","0.0-228.0-0.0","27966776","wem/bandit_party_2","A2NTK0AJX4YISZ","either","3","43","","","","","","","1","0","0","0.7651761031","","0.8","0.4","0.6","0.2","","","","","0.7651761031","0.2024523472","0.3993697366","0.210498268","","","","","","","","","","72","H","0","img/none_selected.jpg","","187","main_expt","",""
"","bandit","273","705183","0.0-229.0-0.0","27966776","wem/bandit_party_2","A2NTK0AJX4YISZ","either","3","189","","","","","","","0","1","0","","0.7928336054","0.8","0.4","0.6","0.2","0.7928336054","0.1930401344","0.4478687375","0.2368649008","","","","","","","","","","","","","","72","H","0","img/none_selected.jpg","","188","main_expt","",""
"","bandit","274","706735","0.0-230.0-0.0","27966776","wem/bandit_party_2","A2NTK0AJX4YISZ","either","3","33","","","","","","","1","0","0","0.8917358491","","0.8","0.4","0.6","0.2","","","","","0.8917358491","0.3255404916","0.3699601256","0.291591963","","","","","","","","","","72","H","0","img/none_selected.jpg","","189","main_expt","",""
"","bandit","275","708303","0.0-231.0-0.0","27966776","wem/bandit_party_2","A2NTK0AJX4YISZ","either","3","53","","","","","","","0","0","1","","0.2364063212","0.8","0.4","0.6","0.2","0.898448025","0.2364063212","0.3723251068","0.4411779124","","","","","","","","","","","","","","74","J","1","","","190","main_expt","",""
"","bandit","276","709912","0.0-232.0-0.0","27966776","wem/bandit_party_2","A2NTK0AJX4YISZ","either","3","93","","","","","","","1","0","0","0.9186708851","","0.8","0.4","0.6","0.2","","","","","0.9186708851","0.2662767285","0.3309849287","0.3968704403","","","","","","","","","","72","H","0","img/none_selected.jpg","","191","main_expt","",""
"","bandit","277","711528","0.0-233.0-0.0","27966776","wem/bandit_party_2","A2NTK0AJX4YISZ","either","3","97","","","","","","","1","0","0","0.9314477517","","0.8","0.4","0.6","0.2","","","","","0.9314477517","0.2815174114","0.2865625263","0.4512817608","","","","","","","","","","72","H","0","img/none_selected.jpg","","192","main_expt","",""
"","bandit","278","713136","0.0-234.0-0.0","27966776","wem/bandit_party_2","A2NTK0AJX4YISZ","either","3","92","","","","","","","1","0","0","0.9090465067","","0.8","0.4","0.6","0.2","","","","","0.9090465067","0.3461293965","0.2862811746","0.4788006455","","","","","","","","","","72","H","0","img/none_selected.jpg","","193","main_expt","",""
"","bandit","279","714768","0.0-235.0-0.0","27966776","wem/bandit_party_2","A2NTK0AJX4YISZ","either","3","117","","","","","","","0","0","1","","0.2785288642","0.8","0.4","0.6","0.2","0.8762249788","0.3303735913","0.2785288642","0.4651889587","","","","","","","","","","","","","","75","K","2","","","194","main_expt","",""
"","bandit","280","716286","0.0-236.0-0.0","27966776","wem/bandit_party_2","A2NTK0AJX4YISZ","either","3","1","","","","","","","0","0","1","0.2283941808","","0.8","0.4","0.6","0.2","","","","","0.8623185747","0.3194565039","0.2283941808","0.4718629942","","","","","","","","","","75","K","2","","","195","main_expt","",""
"","bandit","281","717935","0.0-237.0-0.0","27966776","wem/bandit_party_2","A2NTK0AJX4YISZ","either","3","132","","","","","","","0","0","1","0.214282227","","0.8","0.4","0.6","0.2","","","","","0.7745977574","0.4103944464","0.214282227","0.3825708332","","","","","","","","","","75","K","2","","","196","main_expt","",""
"","bandit","282","719583","0.0-238.0-0.0","27966776","wem/bandit_party_2","A2NTK0AJX4YISZ","either","3","132","","","","","","","1","0","0","0.4445726534","","0.8","0.4","0.6","0.2","","","","","0.7723069829","0.4445726534","0.1422959513","0.4530864699","","","","","","","","","","74","J","1","","","197","main_expt","",""
"","bandit","283","721227","0.0-239.0-0.0","27966776","wem/bandit_party_2","A2NTK0AJX4YISZ","either","3","122","","","","","","","0","0","1","0.1126324943","","0.8","0.4","0.6","0.2","","","","","0.7084082875","0.4351718099","0.1126324943","0.4337652667","","","","","","","","","","75","K","2","","","198","main_expt","",""
"","bandit","284","722768","0.0-240.0-0.0","27966776","wem/bandit_party_2","A2NTK0AJX4YISZ","either","3","23","","","","","","","0","0","1","","0.4138332966","0.8","0.4","0.6","0.2","0.7016883558","0.4641294157","0.1144166609","0.4138332966","","","","","","","","","","","","","","76","L","3","","","199","main_expt","",""
"","bandit","285","724423","0.0-241.0-0.0","27966776","wem/bandit_party_2","A2NTK0AJX4YISZ","either","3","138","","","","","","","1","0","0","0.6504384346","","0.8","0.4","0.6","0.2","","","","","0.6504384346","0.4468687069","0.1518003708","0.5005175686","","","","","","","","","","72","H","0","img/none_selected.jpg","","200","main_expt","",""
"","bandit","286","725942","0.0-242.0-0.0","27966776","wem/bandit_party_2","A2NTK0AJX4YISZ","either","3","1","","","","","","","0","1","0","","0.5087435212","0.8","0.4","0.6","0.2","0.7904945102","0.5087435212","0.1974433607","0.5122642399","","","","","","","","","","","","","","74","J","1","","","201","main_expt","",""
"","bandit","287","727544","0.0-243.0-0.0","27966776","wem/bandit_party_2","A2NTK0AJX4YISZ","either","3","85","","","","","","","0","1","0","","0.5414597976","0.8","0.4","0.6","0.2","0.7039472437","0.4992132835","0.2000842809","0.5414597976","","","","","","","","","","","","","","76","L","3","","","202","main_expt","",""
"","bandit","288","729202","0.0-244.0-0.0","27966776","wem/bandit_party_2","A2NTK0AJX4YISZ","either","3","135","","","","","","","0","0","1","0.7478807213","","0.8","0.4","0.6","0.2","","","","","0.7478807213","0.4859842053","0.1715580826","0.4993649945","","","","","","","","","","72","H","0","img/none_selected.jpg","","203","main_expt","",""
"","bandit","289","730768","0.0-245.0-0.0","27966776","wem/bandit_party_2","A2NTK0AJX4YISZ","either","3","49","","","","","","","0","0","1","0.3028604286","","0.8","0.4","0.6","0.2","","","","","0.7346150791","0.6162755314","0.3028604286","0.4056752737","","","","","","","","","","75","K","2","","","204","main_expt","",""
"","bandit","290","732449","0.0-246.0-0.0","27966776","wem/bandit_party_2","A2NTK0AJX4YISZ","either","3","161","","","","","","","1","0","0","0.7240623961","","0.8","0.4","0.6","0.2","","","","","0.7240623961","0.6204906845","0.3714949669","0.4174768156","","","","","","","","","","72","H","0","img/none_selected.jpg","","205","main_expt","",""
"","bandit","291","734143","0.0-247.0-0.0","27966776","wem/bandit_party_2","A2NTK0AJX4YISZ","either","3","178","","","","","","","1","0","0","0.733657826","","0.8","0.4","0.6","0.2","","","","","0.733657826","0.6390595606","0.3034865557","0.4364097613","","","","","","","","","","72","H","0","img/none_selected.jpg","","206","main_expt","",""
"","bandit","292","735775","0.0-248.0-0.0","27966776","wem/bandit_party_2","A2NTK0AJX4YISZ","either","3","112","","","","","","","1","0","0","0.6022157482","","0.8","0.4","0.6","0.2","","","","","0.6797091947","0.6022157482","0.2688105372","0.4666062126","","","","","","","","","","74","J","1","","","207","main_expt","",""
"","bandit","293","737408","0.0-249.0-0.0","27966776","wem/bandit_party_2","A2NTK0AJX4YISZ","either","3","115","","","","","","","1","0","0","0.6598502583","","0.8","0.4","0.6","0.2","","","","","0.472157919","0.6598502583","0.2240001326","0.4594719295","","","","","","","","","","74","J","1","","","208","main_expt","",""
"","bandit","294","739012","0.0-250.0-0.0","27966776","wem/bandit_party_2","A2NTK0AJX4YISZ","either","3","79","","","","","","","0","1","0","","0.6329069529","0.8","0.4","0.6","0.2","0.4993955773","0.6329069529","0.3284172364","0.5415101973","","","","","","","","","","","","","","74","J","1","","","209","main_expt","",""
"","bandit","295","740614","0.0-251.0-0.0","27966776","wem/bandit_party_2","A2NTK0AJX4YISZ","either","3","84","","","","","","","0","0","1","","0.5418549626","0.8","0.4","0.6","0.2","0.3923888982","0.5418549626","0.3178667136","0.5627952802","","","","","","","","","","","","","","74","J","1","","","210","main_expt","",""
"","bandit","296","742132","0.0-252.0-0.0","27966776","wem/bandit_party_2","A2NTK0AJX4YISZ","either","3","2","","","","","","","1","0","0","0.4183885941","","0.8","0.4","0.6","0.2","","","","","0.4183885941","0.7265410197","0.278360526","0.5779033475","","","","","","","","","","72","H","0","img/none_selected.jpg","","211","main_expt","",""
"","bandit","297","743681","0.0-253.0-0.0","27966776","wem/bandit_party_2","A2NTK0AJX4YISZ","either","3","30","","","","","","","0","0","1","0.5367383083","","0.8","0.4","0.6","0.2","","","","","0.5367383083","0.6550819281","0.2720231684","0.6169713091","","","","","","","","","","72","H","0","img/none_selected.jpg","","212","main_expt","",""
"","bandit","298","745231","0.0-254.0-0.0","27966776","wem/bandit_party_2","A2NTK0AJX4YISZ","either","3","32","","","","","","","0","0","1","","0.3445332441","0.8","0.4","0.6","0.2","0.5779451767","0.5812500281","0.3445332441","0.5688165975","","","","","","","","","","","","","","75","K","2","","","213","main_expt","",""
"","bandit","299","746856","0.0-255.0-0.0","27966776","wem/bandit_party_2","A2NTK0AJX4YISZ","either","3","105","","","","","","","0","1","0","","0.5354690829","0.8","0.4","0.6","0.2","0.5615700258","0.6912727382","0.331154659","0.5354690829","","","","","","","","","","","","","","76","L","3","","","214","main_expt","",""
"","bandit","300","748425","0.0-256.0-0.0","27966776","wem/bandit_party_2","A2NTK0AJX4YISZ","either","3","54","","","","","","","0","0","1","0.4395706401","","0.8","0.4","0.6","0.2","","","","","0.5361399643","0.695573978","0.3168016653","0.4395706401","","","","","","","","","","76","L","3","","","215","main_expt","",""
"","bandit","301","749983","0.0-257.0-0.0","27966776","wem/bandit_party_2","A2NTK0AJX4YISZ","either","3","40","","","","","","","1","0","0","0.6531454011","","0.8","0.4","0.6","0.2","","","","","0.620750855","0.6531454011","0.2870858596","0.4522294324","","","","","","","","","","74","J","1","","","216","main_expt","",""
"","bandit","302","751580","0.0-258.0-0.0","27966776","wem/bandit_party_2","A2NTK0AJX4YISZ","either","3","79","","","","","","","0","0","1","","0.6459690495","0.8","0.4","0.6","0.2","0.4812239037","0.6459690495","0.2877345098","0.4141575353","","","","","","","","","","","","","","74","J","1","","","217","main_expt","",""
"","bandit","303","753179","0.0-259.0-0.0","27966776","wem/bandit_party_2","A2NTK0AJX4YISZ","either","3","78","","","","","","","0","0","1","","0.6679944541","0.8","0.4","0.6","0.2","0.4028497994","0.6679944541","0.3608492067","0.3009722504","","","","","","","","","","","","","","74","J","1","","","218","main_expt","",""
"","bandit","304","754793","0.0-260.0-0.0","27966776","wem/bandit_party_2","A2NTK0AJX4YISZ","either","3","96","","","","","","","1","0","0","0.4441021312","","0.8","0.4","0.6","0.2","","","","","0.4441021312","0.7159195147","0.4380407461","0.2706893249","","","","","","","","","","72","H","0","img/none_selected.jpg","","219","main_expt","",""
"","bandit","305","756321","0.0-261.0-0.0","27966776","wem/bandit_party_2","A2NTK0AJX4YISZ","either","3","0","","","","","","","0","1","0","","0.6874484601","0.8","0.4","0.6","0.2","0.4867825248","0.6874484601","0.4769938592","0.3821277721","","","","","","","","","","","","","","74","J","1","","","220","main_expt","",""
"","bandit","306","757922","0.0-262.0-0.0","27966776","wem/bandit_party_2","A2NTK0AJX4YISZ","either","3","68","","","","","","","0","0","1","","0.4612627877","0.8","0.4","0.6","0.2","0.5428062785","0.6528128226","0.4612627877","0.4534214389","","","","","","","","","","","","","","75","K","2","","","221","main_expt","",""
"","bandit","307","759568","0.0-263.0-0.0","27966776","wem/bandit_party_2","A2NTK0AJX4YISZ","either","3","114","","","","","","","0","1","0","","0.6836467719","0.8","0.4","0.6","0.2","0.5993321864","0.6836467719","0.4192901336","0.6049712458","","","","","","","","","","","","","","74","J","1","","","222","main_expt","",""
"","bandit","308","761168","0.0-264.0-0.0","27966776","wem/bandit_party_2","A2NTK0AJX4YISZ","either","3","81","","","","","","","1","0","0","0.4920604154","","0.8","0.4","0.6","0.2","","","","","0.4920604154","0.7820879334","0.5559965486","0.6389506418","","","","","","","","","","72","H","0","img/none_selected.jpg","","223","main_expt","",""
"","bandit","309","762776","0.0-265.0-0.0","27966776","wem/bandit_party_2","A2NTK0AJX4YISZ","either","3","72","","","","","","","0","1","0","","0.763226653","0.8","0.4","0.6","0.2","0.5344282052","0.763226653","0.6687933923","0.6677375732","","","","","","","","","","","","","","74","J","1","","","224","main_expt","",""
"","bandit","310","764359","0.0-266.0-0.0","27966776","wem/bandit_party_2","A2NTK0AJX4YISZ","either","3","67","","","","","","","1","0","0","0.5954484576","","0.8","0.4","0.6","0.2","","","","","0.5583452501","0.6931961842","0.5954484576","0.7706853934","","","","","","","","","","75","K","2","","","225","main_expt","",""
"","bandit","311","766080","0.0-267.0-0.0","27966776","wem/bandit_party_2","A2NTK0AJX4YISZ","either","3","206","","","","","","","0","1","0","","0.6152447968","0.8","0.4","0.6","0.2","0.5126042404","0.6633974694","0.6152447968","0.7624197083","","","","","","","","","","","","","","75","K","2","","","226","main_expt","",""
"","bandit","312","767702","0.0-268.0-0.0","27966776","wem/bandit_party_2","A2NTK0AJX4YISZ","either","3","105","","","","","","","0","1","0","","0.6567175756","0.8","0.4","0.6","0.2","0.5720595628","0.6567175756","0.6597553912","0.7287840805","","","","","","","","","","","","","","74","J","1","","","227","main_expt","",""
"","bandit","313","769294","0.0-269.0-0.0","27966776","wem/bandit_party_2","A2NTK0AJX4YISZ","either","3","76","","","","","","","1","0","0","0.6134710885","","0.8","0.4","0.6","0.2","","","","","0.6134710885","0.6052730858","0.594895186","0.7993891034","","","","","","","","","","72","H","0","img/none_selected.jpg","","228","main_expt","",""
