"consent","trial_type","trial_index","time_elapsed","internal_node_id","subjID","study","MID","cond","drift","rt","responses","button_pressed","key_press","like","value","connected","gems","bombs","no_reward","GemPrChosen","BombPrChosen","GainOverPainPr_0","GainOverPainPr_1","GainOverPainPr_2","GainOverPainPr_3","LosePr_0","LosePr_1","LosePr_2","LosePr_3","WinPr_0","WinPr_1","WinPr_2","WinPr_3","Q0","Q1","Q2","gender","age","ethnicity","label","expt_phase","target","respCharCode","respKey","respChoiceNum","respChoice","practice","trial_counter","trial_label","Q0_index"
"GDM/GDM_behavioral_consent_30min_online.html","consent","0","14834","0.0-0.0","28705153","wem/bandit_party_2","A2E3SM3T01ENIR","either","3","","","","","","","","","","","","","","","","","","","","","","","","","","","","","","","","","","","","","","","","",""
"","survey-text","1","21578","0.0-1.0","28705153","wem/bandit_party_2","A2E3SM3T01ENIR","either","3","5722","{""Q0"":""A2E3SM3T01ENIR""}","","","","","","","","","","","","","","","","","","","","","","","","","","","","","","","","","","","","","","",""
"","button-response","2","24133","0.0-2.0","28705153","wem/bandit_party_2","A2E3SM3T01ENIR","either","3","1544","","1","","","","","","","","","","","","","","","","","","","","","","","","","","","","","","","","","","","","","",""
"","text-replacement","3","39407","0.0-3.0","28705153","wem/bandit_party_2","A2E3SM3T01ENIR","either","3","14269","","","32","","","","","","","","","","","","","","","","","","","","","","","","","","","","","","","","","","","","",""
"","text-replacement","4","77577","0.0-4.0","28705153","wem/bandit_party_2","A2E3SM3T01ENIR","either","3","38166","","","32","","","","","","","","","","","","","","","","","","","","","","","","","","","","","","","","","","","","",""
"","identification","5","84456","0.0-6.0-0.0","28705153","wem/bandit_party_2","A2E3SM3T01ENIR","either","3","6845","","","","0","0","0","","","","","","","","","","","","","","","","","","","","","","","","pre","identification_pre","the Republican Party","","","","","","","",""
"","identification","6","91591","0.0-6.0-1.0","28705153","wem/bandit_party_2","A2E3SM3T01ENIR","either","3","6103","","","","3","4","4","","","","","","","","","","","","","","","","","","","","","","","","pre","identification_pre","the Democratic Party","","","","","","","",""
"","text-replacement","7","97816","0.0-7.0","28705153","wem/bandit_party_2","A2E3SM3T01ENIR","either","3","5222","","","32","","","","","","","","","","","","","","","","","","","","","","","","","","","","","","","","","","","","",""
"","text-replacement","8","103590","0.0-8.0","28705153","wem/bandit_party_2","A2E3SM3T01ENIR","either","3","5771","","","32","","","","","","","","","","","","","","","","","","","","","","","","","","","","","","","","","","","","",""
"","text-replacement","9","115319","0.0-9.0","28705153","wem/bandit_party_2","A2E3SM3T01ENIR","either","3","11724","","","32","","","","","","","","","","","","","","","","","","","","","","","","","","","","","","","","","","","","",""
"","text-replacement","10","118200","0.0-10.0","28705153","wem/bandit_party_2","A2E3SM3T01ENIR","either","3","2878","","","32","","","","","","","","","","","","","","","","","","","","","","","","","","","","","","","","","","","","",""
"","text-replacement","11","122304","0.0-11.0","28705153","wem/bandit_party_2","A2E3SM3T01ENIR","either","3","4102","","","32","","","","","","","","","","","","","","","","","","","","","","","","","","","","","","","","","","","","",""
"","bandit","12","125176","0.0-12.0-0.0","28705153","wem/bandit_party_2","A2E3SM3T01ENIR","either","3","1361","","","","","","","0","0","1","0","0","","","","","0","","","","0","","","","","","","","","","","","","74","J","0","img/none_selected_demo.jpg","true","0","",""
"","bandit","13","127412","0.0-13.0-0.0","28705153","wem/bandit_party_2","A2E3SM3T01ENIR","either","3","727","","","","","","","0","0","1","0","0","","","","","0","","","","0","","","","","","","","","","","","","75","K","0","img/none_selected_demo.jpg","true","0","",""
"","text-replacement","14","131824","0.0-14.0","28705153","wem/bandit_party_2","A2E3SM3T01ENIR","either","3","4407","","","32","","","","","","","","","","","","","","","","","","","","","","","","","","","","","","","","","","","","",""
"","text-replacement","15","134672","0.0-15.0","28705153","wem/bandit_party_2","A2E3SM3T01ENIR","either","3","2845","","","32","","","","","","","","","","","","","","","","","","","","","","","","","","","","","","","","","","","","",""
"","text-replacement","16","139262","0.0-16.0","28705153","wem/bandit_party_2","A2E3SM3T01ENIR","either","3","4587","","","32","","","","","","","","","","","","","","","","","","","","","","","","","","","","","","","","","","","","",""
"","text-replacement","17","143192","0.0-17.0","28705153","wem/bandit_party_2","A2E3SM3T01ENIR","either","3","3927","","","32","","","","","","","","","","","","","","","","","","","","","","","","","","","","","","","","","","","","",""
"","bandit","18","145183","0.0-18.0-0.0","28705153","wem/bandit_party_2","A2E3SM3T01ENIR","either","3","482","","","","","","","1","0","0","0.8","","0.5","0.5","","","","","","","0.8","0.2","","","","","","","","","","","","74","J","0","img/none_selected_demo.jpg","true","0","80_20_practice",""
"","bandit","19","147023","0.0-18.0-1.0","28705153","wem/bandit_party_2","A2E3SM3T01ENIR","either","3","328","","","","","","","0","1","0","","0.8","0.5","0.5","","","0.8","0.2","","","","","","","","","","","","","","","","74","J","0","img/none_selected_demo.jpg","true","0","80_20_practice",""
"","bandit","20","148854","0.0-18.0-2.0","28705153","wem/bandit_party_2","A2E3SM3T01ENIR","either","3","322","","","","","","","1","0","0","0.8","","0.5","0.5","","","","","","","0.8","0.2","","","","","","","","","","","","74","J","0","img/none_selected_demo.jpg","true","0","80_20_practice",""
"","bandit","21","150695","0.0-18.0-3.0","28705153","wem/bandit_party_2","A2E3SM3T01ENIR","either","3","331","","","","","","","0","0","1","","0.2","0.5","0.5","","","0.8","0.2","","","","","","","","","","","","","","","","75","K","1","","true","0","80_20_practice",""
"","bandit","22","152462","0.0-18.0-4.0","28705153","wem/bandit_party_2","A2E3SM3T01ENIR","either","3","256","","","","","","","0","1","0","","0.8","0.5","0.5","","","0.8","0.2","","","","","","","","","","","","","","","","74","J","0","img/none_selected_demo.jpg","true","0","80_20_practice",""
"","bandit","23","154222","0.0-18.0-5.0","28705153","wem/bandit_party_2","A2E3SM3T01ENIR","either","3","251","","","","","","","0","1","0","","0.8","0.5","0.5","","","0.8","0.2","","","","","","","","","","","","","","","","74","J","0","img/none_selected_demo.jpg","true","0","80_20_practice",""
"","bandit","24","155983","0.0-18.0-6.0","28705153","wem/bandit_party_2","A2E3SM3T01ENIR","either","3","248","","","","","","","1","0","0","0.8","","0.5","0.5","","","","","","","0.8","0.2","","","","","","","","","","","","74","J","0","img/none_selected_demo.jpg","true","0","80_20_practice",""
"","bandit","25","157750","0.0-18.0-7.0","28705153","wem/bandit_party_2","A2E3SM3T01ENIR","either","3","258","","","","","","","0","1","0","","0.8","0.5","0.5","","","0.8","0.2","","","","","","","","","","","","","","","","74","J","0","img/none_selected_demo.jpg","true","0","80_20_practice",""
"","bandit","26","159543","0.0-18.0-8.0","28705153","wem/bandit_party_2","A2E3SM3T01ENIR","either","3","282","","","","","","","0","0","1","","0.8","0.5","0.5","","","0.8","0.2","","","","","","","","","","","","","","","","74","J","0","img/none_selected_demo.jpg","true","0","80_20_practice",""
"","bandit","27","161239","0.0-18.0-9.0","28705153","wem/bandit_party_2","A2E3SM3T01ENIR","either","3","185","","","","","","","0","0","1","","0.8","0.5","0.5","","","0.8","0.2","","","","","","","","","","","","","","","","74","J","0","img/none_selected_demo.jpg","true","0","80_20_practice",""
"","bandit","28","162900","0.0-18.0-10.0","28705153","wem/bandit_party_2","A2E3SM3T01ENIR","either","3","152","","","","","","","0","1","0","","0.8","0.5","0.5","","","0.8","0.2","","","","","","","","","","","","","","","","74","J","0","img/none_selected_demo.jpg","true","0","80_20_practice",""
"","bandit","29","164558","0.0-18.0-11.0","28705153","wem/bandit_party_2","A2E3SM3T01ENIR","either","3","149","","","","","","","1","0","0","0.8","","0.5","0.5","","","","","","","0.8","0.2","","","","","","","","","","","","74","J","0","img/none_selected_demo.jpg","true","0","80_20_practice",""
"","bandit","30","166295","0.0-18.0-12.0","28705153","wem/bandit_party_2","A2E3SM3T01ENIR","either","3","226","","","","","","","1","0","0","0.8","","0.5","0.5","","","","","","","0.8","0.2","","","","","","","","","","","","74","J","0","img/none_selected_demo.jpg","true","0","80_20_practice",""
"","bandit","31","168029","0.0-18.0-13.0","28705153","wem/bandit_party_2","A2E3SM3T01ENIR","either","3","226","","","","","","","0","1","0","","0.8","0.5","0.5","","","0.8","0.2","","","","","","","","","","","","","","","","74","J","0","img/none_selected_demo.jpg","true","0","80_20_practice",""
"","bandit","32","169774","0.0-18.0-14.0","28705153","wem/bandit_party_2","A2E3SM3T01ENIR","either","3","239","","","","","","","0","1","0","","0.8","0.5","0.5","","","0.8","0.2","","","","","","","","","","","","","","","","74","J","0","img/none_selected_demo.jpg","true","0","80_20_practice",""
"","bandit","33","171544","0.0-18.0-15.0","28705153","wem/bandit_party_2","A2E3SM3T01ENIR","either","3","259","","","","","","","1","0","0","0.8","","0.5","0.5","","","","","","","0.8","0.2","","","","","","","","","","","","74","J","0","img/none_selected_demo.jpg","true","0","80_20_practice",""
"","bandit","34","173326","0.0-18.0-16.0","28705153","wem/bandit_party_2","A2E3SM3T01ENIR","either","3","272","","","","","","","1","0","0","0.8","","0.5","0.5","","","","","","","0.8","0.2","","","","","","","","","","","","74","J","0","img/none_selected_demo.jpg","true","0","80_20_practice",""
"","bandit","35","175102","0.0-18.0-17.0","28705153","wem/bandit_party_2","A2E3SM3T01ENIR","either","3","266","","","","","","","1","0","0","0.8","","0.5","0.5","","","","","","","0.8","0.2","","","","","","","","","","","","74","J","0","img/none_selected_demo.jpg","true","0","80_20_practice",""
"","bandit","36","176662","0.0-18.0-18.0","28705153","wem/bandit_party_2","A2E3SM3T01ENIR","either","3","44","","","","","","","0","0","1","0.8","","0.5","0.5","","","","","","","0.8","0.2","","","","","","","","","","","","74","J","0","img/none_selected_demo.jpg","true","0","80_20_practice",""
"","bandit","37","178294","0.0-18.0-19.0","28705153","wem/bandit_party_2","A2E3SM3T01ENIR","either","3","123","","","","","","","1","0","0","0.8","","0.5","0.5","","","","","","","0.8","0.2","","","","","","","","","","","","74","J","0","img/none_selected_demo.jpg","true","0","80_20_practice",""
"","text-replacement","38","180648","0.0-19.0","28705153","wem/bandit_party_2","A2E3SM3T01ENIR","either","3","2349","","","32","","","","","","","","","","","","","","","","","","","","","","","","","","","","","","","","","","","","",""
"","bandit","39","183985","0.0-20.0-0.0","28705153","wem/bandit_party_2","A2E3SM3T01ENIR","either","3","1828","","","","","","","1","0","0","1","0","","","","","0","1","","","1","0","","","","","","","","","","","","74","J","0","img/none_selected_demo.jpg","true","0","",""
"","text-replacement","40","193805","0.0-21.0","28705153","wem/bandit_party_2","A2E3SM3T01ENIR","either","3","9815","","","32","","","","","","","","","","","","","","","","","","","","","","","","","","","","","","","","","","","","",""
"","text-replacement","41","197815","0.0-22.0","28705153","wem/bandit_party_2","A2E3SM3T01ENIR","either","3","4006","","","32","","","","","","","","","","","","","","","","","","","","","","","","","","","","","","","","","","","","",""
"","text-replacement","42","202944","0.0-23.0","28705153","wem/bandit_party_2","A2E3SM3T01ENIR","either","3","5125","","","32","","","","","","","","","","","","","","","","","","","","","","","","","","","","","","","","","","","","",""
"","text-replacement","43","206518","0.0-24.0","28705153","wem/bandit_party_2","A2E3SM3T01ENIR","either","3","3570","","","32","","","","","","","","","","","","","","","","","","","","","","","","","","","","","","","","","","","","",""
"","text-replacement","44","215263","0.0-25.0","28705153","wem/bandit_party_2","A2E3SM3T01ENIR","either","3","8742","","","32","","","","","","","","","","","","","","","","","","","","","","","","","","","","","","","","","","","","",""
"","text-replacement","45","217518","0.0-26.0","28705153","wem/bandit_party_2","A2E3SM3T01ENIR","either","3","2251","","","32","","","","","","","","","","","","","","","","","","","","","","","","","","","","","","","","","","","","",""
"","text-replacement","46","221752","0.0-27.0","28705153","wem/bandit_party_2","A2E3SM3T01ENIR","either","3","4230","","","32","","","","","","","","","","","","","","","","","","","","","","","","","","","","","","","","","","","","",""
"","text-replacement","47","224864","0.0-28.0","28705153","wem/bandit_party_2","A2E3SM3T01ENIR","either","3","3109","","","32","","","","","","","","","","","","","","","","","","","","","","","","","","","","","","","","","","","","",""
"","text-replacement","48","231494","0.0-29.0","28705153","wem/bandit_party_2","A2E3SM3T01ENIR","either","3","6625","","","32","","","","","","","","","","","","","","","","","","","","","","","","","","","","","","","","","","","","",""
"","text-replacement","49","232287","0.0-30.0","28705153","wem/bandit_party_2","A2E3SM3T01ENIR","either","3","790","","","32","","","","","","","","","","","","","","","","","","","","","","","","","","","","","","","","","","","","",""
"","text-replacement","50","238056","0.0-31.0","28705153","wem/bandit_party_2","A2E3SM3T01ENIR","either","3","5765","","","32","","","","","","","","","","","","","","","","","","","","","","","","","","","","","","","","","","","","",""
"","bandit","51","240590","0.0-32.0-0.0","28705153","wem/bandit_party_2","A2E3SM3T01ENIR","either","3","1025","","","","","","","0","1","0","","0.8","0.5","0.5","0.5","0.5","0.8","0.2","0.6","0.2","","","","","","","","","","","","","","72","H","0","img/none_selected.jpg","true","0","full_practice",""
"","bandit","52","242383","0.0-32.0-1.0","28705153","wem/bandit_party_2","A2E3SM3T01ENIR","either","3","281","","","","","","","1","0","0","0.2","","0.5","0.5","0.5","0.5","","","","","0.8","0.2","0.6","0.2","","","","","","","","","","74","J","1","","true","0","full_practice",""
"","bandit","53","244076","0.0-32.0-2.0","28705153","wem/bandit_party_2","A2E3SM3T01ENIR","either","3","182","","","","","","","0","1","0","","0.6","0.5","0.5","0.5","0.5","0.8","0.2","0.6","0.2","","","","","","","","","","","","","","75","K","2","","true","0","full_practice",""
"","bandit","54","245735","0.0-32.0-3.0","28705153","wem/bandit_party_2","A2E3SM3T01ENIR","either","3","149","","","","","","","1","0","0","0.2","","0.5","0.5","0.5","0.5","","","","","0.8","0.2","0.6","0.2","","","","","","","","","","76","L","3","","true","0","full_practice",""
"","bandit","55","247319","0.0-32.0-4.0","28705153","wem/bandit_party_2","A2E3SM3T01ENIR","either","3","74","","","","","","","0","0","1","0.2","","0.5","0.5","0.5","0.5","","","","","0.8","0.2","0.6","0.2","","","","","","","","","","74","J","1","","true","0","full_practice",""
"","bandit","56","248831","0.0-32.0-5.0","28705153","wem/bandit_party_2","A2E3SM3T01ENIR","either","3","2","","","","","","","1","0","0","0.8","","0.5","0.5","0.5","0.5","","","","","0.8","0.2","0.6","0.2","","","","","","","","","","72","H","0","img/none_selected.jpg","true","0","full_practice",""
"","bandit","57","250593","0.0-32.0-6.0","28705153","wem/bandit_party_2","A2E3SM3T01ENIR","either","3","247","","","","","","","0","1","0","","0.8","0.5","0.5","0.5","0.5","0.8","0.2","0.6","0.2","","","","","","","","","","","","","","72","H","0","img/none_selected.jpg","true","0","full_practice",""
"","bandit","58","252239","0.0-32.0-7.0","28705153","wem/bandit_party_2","A2E3SM3T01ENIR","either","3","135","","","","","","","0","0","1","0.8","","0.5","0.5","0.5","0.5","","","","","0.8","0.2","0.6","0.2","","","","","","","","","","72","H","0","img/none_selected.jpg","true","0","full_practice",""
"","bandit","59","253829","0.0-32.0-8.0","28705153","wem/bandit_party_2","A2E3SM3T01ENIR","either","3","82","","","","","","","0","1","0","","0.8","0.5","0.5","0.5","0.5","0.8","0.2","0.6","0.2","","","","","","","","","","","","","","72","H","0","img/none_selected.jpg","true","0","full_practice",""
"","bandit","60","255581","0.0-32.0-9.0","28705153","wem/bandit_party_2","A2E3SM3T01ENIR","either","3","244","","","","","","","0","0","1","","0.2","0.5","0.5","0.5","0.5","0.8","0.2","0.6","0.2","","","","","","","","","","","","","","74","J","1","","true","0","full_practice",""
"","bandit","61","258183","0.0-32.0-10.0","28705153","wem/bandit_party_2","A2E3SM3T01ENIR","either","3","1091","","","","","","","0","0","1","0.6","","0.5","0.5","0.5","0.5","","","","","0.8","0.2","0.6","0.2","","","","","","","","","","75","K","2","","true","0","full_practice",""
"","bandit","62","259742","0.0-32.0-11.0","28705153","wem/bandit_party_2","A2E3SM3T01ENIR","either","3","48","","","","","","","0","0","1","","0.2","0.5","0.5","0.5","0.5","0.8","0.2","0.6","0.2","","","","","","","","","","","","","","76","L","3","","true","0","full_practice",""
"","bandit","63","261472","0.0-32.0-12.0","28705153","wem/bandit_party_2","A2E3SM3T01ENIR","either","3","217","","","","","","","0","1","0","","0.8","0.5","0.5","0.5","0.5","0.8","0.2","0.6","0.2","","","","","","","","","","","","","","72","H","0","img/none_selected.jpg","true","0","full_practice",""
"","bandit","64","263078","0.0-32.0-13.0","28705153","wem/bandit_party_2","A2E3SM3T01ENIR","either","3","96","","","","","","","1","0","0","0.8","","0.5","0.5","0.5","0.5","","","","","0.8","0.2","0.6","0.2","","","","","","","","","","72","H","0","img/none_selected.jpg","true","0","full_practice",""
"","bandit","65","264871","0.0-32.0-14.0","28705153","wem/bandit_party_2","A2E3SM3T01ENIR","either","3","281","","","","","","","0","1","0","","0.8","0.5","0.5","0.5","0.5","0.8","0.2","0.6","0.2","","","","","","","","","","","","","","72","H","0","img/none_selected.jpg","true","0","full_practice",""
"","bandit","66","266564","0.0-32.0-15.0","28705153","wem/bandit_party_2","A2E3SM3T01ENIR","either","3","179","","","","","","","0","0","1","0.8","","0.5","0.5","0.5","0.5","","","","","0.8","0.2","0.6","0.2","","","","","","","","","","72","H","0","img/none_selected.jpg","true","0","full_practice",""
"","bandit","67","268230","0.0-32.0-16.0","28705153","wem/bandit_party_2","A2E3SM3T01ENIR","either","3","154","","","","","","","0","1","0","","0.8","0.5","0.5","0.5","0.5","0.8","0.2","0.6","0.2","","","","","","","","","","","","","","72","H","0","img/none_selected.jpg","true","0","full_practice",""
"","bandit","68","270000","0.0-32.0-17.0","28705153","wem/bandit_party_2","A2E3SM3T01ENIR","either","3","259","","","","","","","1","0","0","0.8","","0.5","0.5","0.5","0.5","","","","","0.8","0.2","0.6","0.2","","","","","","","","","","72","H","0","img/none_selected.jpg","true","0","full_practice",""
"","bandit","69","271606","0.0-32.0-18.0","28705153","wem/bandit_party_2","A2E3SM3T01ENIR","either","3","96","","","","","","","0","1","0","","0.8","0.5","0.5","0.5","0.5","0.8","0.2","0.6","0.2","","","","","","","","","","","","","","72","H","0","img/none_selected.jpg","true","0","full_practice",""
"","bandit","70","273391","0.0-32.0-19.0","28705153","wem/bandit_party_2","A2E3SM3T01ENIR","either","3","274","","","","","","","0","1","0","","0.8","0.5","0.5","0.5","0.5","0.8","0.2","0.6","0.2","","","","","","","","","","","","","","72","H","0","img/none_selected.jpg","true","0","full_practice",""
"","text","71","276134","0.0-33.0","28705153","wem/bandit_party_2","A2E3SM3T01ENIR","either","3","2711","","","32","","","","","","","","","","","","","","","","","","","","","","","","","","","","","","","","","","","","",""
"","text-replacement","72","293445","0.0-34.0","28705153","wem/bandit_party_2","A2E3SM3T01ENIR","either","3","16306","","","32","","","","","","","","","","","","","","","","","","","","","","","","","","","","","","","","","","","","",""
"","text-replacement","73","301911","0.0-35.0","28705153","wem/bandit_party_2","A2E3SM3T01ENIR","either","3","8461","","","32","","","","","","","","","","","","","","","","","","","","","","","","","","","","","","","","","","","","",""
"","text-replacement","74","307814","0.0-36.0","28705153","wem/bandit_party_2","A2E3SM3T01ENIR","either","3","5898","","","32","","","","","","","","","","","","","","","","","","","","","","","","","","","","","","","","","","","","",""
"","text-replacement","75","311888","0.0-37.0","28705153","wem/bandit_party_2","A2E3SM3T01ENIR","either","3","4069","","","32","","","","","","","","","","","","","","","","","","","","","","","","","","","","","","","","","","","","",""
"","text-replacement","76","314815","0.0-38.0","28705153","wem/bandit_party_2","A2E3SM3T01ENIR","either","3","2922","","","32","","","","","","","","","","","","","","","","","","","","","","","","","","","","","","","","","","","","",""
"","survey-multi-choice-replacement","77","321920","0.0-39.0-0.0","28705153","wem/bandit_party_2","A2E3SM3T01ENIR","either","3","7085","","","","","","","","","","","","","","","","","","","","","","","","Money will be added to the pool for <span style='color:blue;'>DEMOCRATS</span>","","","","","","","attn_check","","","","","","","","","0"
"","survey-multi-choice-replacement","78","328517","0.0-40.0-0.0","28705153","wem/bandit_party_2","A2E3SM3T01ENIR","either","3","5571","","","","","","","","","","","","","","","","","","","","","","","","Equal amounts of money will be added to the pool for <span style='color:blue;'>DEMOCRATS</span> and subtracted from the pool for <span style='color:red;'>REPUBLICANS</span>","","","","","","","attn_check","","","","","","","","","2"
"","survey-multi-choice-replacement","79","331685","0.0-41.0-0.0","28705153","wem/bandit_party_2","A2E3SM3T01ENIR","either","3","2147","","","","","","","","","","","","","","","","","","","","","","","","No money will be added to either pool","","","","","","","attn_check","","","","","","","","","3"
"","bandit","80","336503","0.0-42.0-0.0","28705153","wem/bandit_party_2","A2E3SM3T01ENIR","either","3","2300","","","","","","","0","0","1","0.1387034319","","0.2","0.6","0.8","0.4","","","","","0.1387034319","0.6494041588","0.6473934842","0.4261870849","","","","","","","","","","72","H","0","img/none_selected.jpg","","1","main_expt",""
"","bandit","81","338398","0.0-43.0-0.0","28705153","wem/bandit_party_2","A2E3SM3T01ENIR","either","3","382","","","","","","","1","0","0","0.7608835745","","0.2","0.6","0.8","0.4","","","","","0.2166337036","0.7608835745","0.5221866694","0.3223101542","","","","","","","","","","74","J","1","","","2","main_expt",""
"","bandit","82","340086","0.0-44.0-0.0","28705153","wem/bandit_party_2","A2E3SM3T01ENIR","either","3","174","","","","","","","0","0","1","","0.7745567172","0.2","0.6","0.8","0.4","0.3253899216","0.7745567172","0.5356292978","0.2541217019","","","","","","","","","","","","","","74","J","1","","","3","main_expt",""
"","bandit","83","341991","0.0-45.0-0.0","28705153","wem/bandit_party_2","A2E3SM3T01ENIR","either","3","393","","","","","","","0","1","0","","0.8315703218","0.2","0.6","0.8","0.4","0.3003293127","0.8315703218","0.5154592071","0.2272043942","","","","","","","","","","","","","","74","J","1","","","4","main_expt",""
"","bandit","84","343767","0.0-46.0-0.0","28705153","wem/bandit_party_2","A2E3SM3T01ENIR","either","3","265","","","","","","","1","0","0","0.8380789219","","0.2","0.6","0.8","0.4","","","","","0.3839660868","0.8380789219","0.4578896037","0.2967729676","","","","","","","","","","74","J","1","","","5","main_expt",""
"","bandit","85","345518","0.0-47.0-0.0","28705153","wem/bandit_party_2","A2E3SM3T01ENIR","either","3","240","","","","","","","1","0","0","0.8233568153","","0.2","0.6","0.8","0.4","","","","","0.3833463511","0.8233568153","0.4825789634","0.3211998527","","","","","","","","","","74","J","1","","","6","main_expt",""
"","bandit","86","347303","0.0-48.0-0.0","28705153","wem/bandit_party_2","A2E3SM3T01ENIR","either","3","271","","","","","","","0","1","0","","0.8672840292","0.2","0.6","0.8","0.4","0.3173395401","0.8672840292","0.4013658759","0.4190649117","","","","","","","","","","","","","","74","J","1","","","7","main_expt",""
"","bandit","87","349047","0.0-49.0-0.0","28705153","wem/bandit_party_2","A2E3SM3T01ENIR","either","3","231","","","","","","","0","0","1","0.7921451217","","0.2","0.6","0.8","0.4","","","","","0.3265190876","0.7921451217","0.3721769634","0.5253498774","","","","","","","","","","74","J","1","","","8","main_expt",""
"","bandit","88","350693","0.0-50.0-0.0","28705153","wem/bandit_party_2","A2E3SM3T01ENIR","either","3","133","","","","","","","0","0","1","0.3934089605","","0.2","0.6","0.8","0.4","","","","","0.4229840653","0.7826569337","0.3934089605","0.5552176016","","","","","","","","","","75","K","2","","","9","main_expt",""
"","bandit","89","352235","0.0-51.0-0.0","28705153","wem/bandit_party_2","A2E3SM3T01ENIR","either","3","31","","","","","","","0","1","0","","0.654745146","0.2","0.6","0.8","0.4","0.5107168356","0.7150392401","0.3360942297","0.654745146","","","","","","","","","","","","","","76","L","3","","","10","main_expt",""
"","bandit","90","353871","0.0-52.0-0.0","28705153","wem/bandit_party_2","A2E3SM3T01ENIR","either","3","122","","","","","","","0","0","1","0.6089063278","","0.2","0.6","0.8","0.4","","","","","0.4383577931","0.6906605055","0.4969537907","0.6089063278","","","","","","","","","","76","L","3","","","11","main_expt",""
"","bandit","91","355542","0.0-53.0-0.0","28705153","wem/bandit_party_2","A2E3SM3T01ENIR","either","3","160","","","","","","","1","0","0","0.559155858","","0.2","0.6","0.8","0.4","","","","","0.5487148549","0.6725575113","0.4760264401","0.559155858","","","","","","","","","","76","L","3","","","12","main_expt",""
"","bandit","92","357215","0.0-54.0-0.0","28705153","wem/bandit_party_2","A2E3SM3T01ENIR","either","3","158","","","","","","","0","0","1","","0.6464491645","0.2","0.6","0.8","0.4","0.7407599438","0.7404599176","0.4008761295","0.6464491645","","","","","","","","","","","","","","76","L","3","","","13","main_expt",""
"","bandit","93","358959","0.0-55.0-0.0","28705153","wem/bandit_party_2","A2E3SM3T01ENIR","either","3","232","","","","","","","0","0","1","","0.8307131687","0.2","0.6","0.8","0.4","0.8307131687","0.6751607758","0.358486362","0.6936958995","","","","","","","","","","","","","","72","H","0","img/none_selected.jpg","","14","main_expt",""
"","bandit","94","360583","0.0-56.0-0.0","28705153","wem/bandit_party_2","A2E3SM3T01ENIR","either","3","113","","","","","","","0","0","1","0.6115440925","","0.2","0.6","0.8","0.4","","","","","0.8114394421","0.6115440925","0.395258373","0.731471075","","","","","","","","","","74","J","1","","","15","main_expt",""
"","bandit","95","362269","0.0-57.0-0.0","28705153","wem/bandit_party_2","A2E3SM3T01ENIR","either","3","175","","","","","","","0","1","0","","0.7019001419","0.2","0.6","0.8","0.4","0.8242397169","0.7019001419","0.4197334966","0.6487541525","","","","","","","","","","","","","","74","J","1","","","16","main_expt",""
"","bandit","96","363911","0.0-58.0-0.0","28705153","wem/bandit_party_2","A2E3SM3T01ENIR","either","3","130","","","","","","","0","0","1","0.7017998","","0.2","0.6","0.8","0.4","","","","","0.8317633157","0.7017998","0.2160816064","0.7654634758","","","","","","","","","","74","J","1","","","17","main_expt",""
"","bandit","97","365566","0.0-59.0-0.0","28705153","wem/bandit_party_2","A2E3SM3T01ENIR","either","3","145","","","","","","","1","0","0","0.7672473748","","0.2","0.6","0.8","0.4","","","","","0.8158638682","0.7672473748","0.2058632209","0.7160830043","","","","","","","","","","74","J","1","","","18","main_expt",""
"","bandit","98","367255","0.0-60.0-0.0","28705153","wem/bandit_party_2","A2E3SM3T01ENIR","either","3","176","","","","","","","1","0","0","0.7950219121","","0.2","0.6","0.8","0.4","","","","","0.8291878069","0.7950219121","0.2314559036","0.6856656502","","","","","","","","","","74","J","1","","","19","main_expt",""
"","bandit","99","368855","0.0-61.0-0.0","28705153","wem/bandit_party_2","A2E3SM3T01ENIR","either","3","87","","","","","","","0","1","0","","0.8460513568","0.2","0.6","0.8","0.4","0.8665153398","0.8460513568","0.1762066147","0.6829400921","","","","","","","","","","","","","","74","J","1","","","20","main_expt",""
"","bandit","100","370775","0.0-62.0-0.0","28705153","wem/bandit_party_2","A2E3SM3T01ENIR","either","3","408","","","","","","","1","0","0","0.8571228725","","0.2","0.6","0.8","0.4","","","","","0.8181415858","0.8571228725","0.150477598","0.6849203215","","","","","","","","","","74","J","1","","","21","main_expt",""
"","bandit","101","372531","0.0-63.0-0.0","28705153","wem/bandit_party_2","A2E3SM3T01ENIR","either","3","246","","","","","","","0","1","0","","0.8498483749","0.2","0.6","0.8","0.4","0.7731960963","0.8498483749","0.1957635407","0.6832197831","","","","","","","","","","","","","","74","J","1","","","22","main_expt",""
"","bandit","102","374424","0.0-64.0-0.0","28705153","wem/bandit_party_2","A2E3SM3T01ENIR","either","3","380","","","","","","","0","0","1","0.2193187944","","0.2","0.6","0.8","0.4","","","","","0.8004626553","0.887495535","0.2193187944","0.6103957523","","","","","","","","","","75","K","2","","","23","main_expt",""
"","bandit","103","375975","0.0-65.0-0.0","28705153","wem/bandit_party_2","A2E3SM3T01ENIR","either","3","36","","","","","","","0","0","1","","0.918231735","0.2","0.6","0.8","0.4","0.7941911222","0.918231735","0.1836328706","0.5485819736","","","","","","","","","","","","","","74","J","1","","","24","main_expt",""
"","bandit","104","377590","0.0-66.0-0.0","28705153","wem/bandit_party_2","A2E3SM3T01ENIR","either","3","103","","","","","","","0","1","0","","0.9111146318","0.2","0.6","0.8","0.4","0.7100633829","0.9111146318","0.1410441375","0.5852935809","","","","","","","","","","","","","","74","J","1","","","25","main_expt",""
"","bandit","105","379352","0.0-67.0-0.0","28705153","wem/bandit_party_2","A2E3SM3T01ENIR","either","3","249","","","","","","","1","0","0","0.9190640316","","0.2","0.6","0.8","0.4","","","","","0.6872129375","0.9190640316","0.1082593399","0.6097892937","","","","","","","","","","74","J","1","","","26","main_expt",""
"","bandit","106","381023","0.0-68.0-0.0","28705153","wem/bandit_party_2","A2E3SM3T01ENIR","either","3","158","","","","","","","0","1","0","","0.9372614837","0.2","0.6","0.8","0.4","0.6798864795","0.9372614837","0.1042047793","0.6653335402","","","","","","","","","","","","","","74","J","1","","","27","main_expt",""
"","bandit","107","382735","0.0-69.0-0.0","28705153","wem/bandit_party_2","A2E3SM3T01ENIR","either","3","199","","","","","","","1","0","0","0.9269484959","","0.2","0.6","0.8","0.4","","","","","0.6812343762","0.9269484959","0.1153509117","0.6850825106","","","","","","","","","","74","J","1","","","28","main_expt",""
"","bandit","108","384349","0.0-70.0-0.0","28705153","wem/bandit_party_2","A2E3SM3T01ENIR","either","3","101","","","","","","","1","0","0","0.9376772981","","0.2","0.6","0.8","0.4","","","","","0.5305157647","0.9376772981","0.1601566248","0.7309016742","","","","","","","","","","74","J","1","","","29","main_expt",""
"","bandit","109","386631","0.0-71.0-0.0","28705153","wem/bandit_party_2","A2E3SM3T01ENIR","either","3","769","","","","","","","0","1","0","","0.8795505253","0.2","0.6","0.8","0.4","0.4713174284","0.8795505253","0.09548927903","0.8141980113","","","","","","","","","","","","","","74","J","1","","","30","main_expt",""
"","bandit","110","388390","0.0-72.0-0.0","28705153","wem/bandit_party_2","A2E3SM3T01ENIR","either","3","246","","","","","","","1","0","0","0.8605863748","","0.2","0.6","0.8","0.4","","","","","0.2938490869","0.8605863748","0.09272353297","0.8926711601","","","","","","","","","","74","J","1","","","31","main_expt",""
"","bandit","111","390024","0.0-73.0-0.0","28705153","wem/bandit_party_2","A2E3SM3T01ENIR","either","3","118","","","","","","","0","0","1","","0.3005160425","0.2","0.6","0.8","0.4","0.3005160425","0.757600507","0.09547929832","0.8397563013","","","","","","","","","","","","","","72","H","0","img/none_selected.jpg","","32","main_expt",""
"","bandit","112","391542","0.0-74.0-0.0","28705153","wem/bandit_party_2","A2E3SM3T01ENIR","either","3","6","","","","","","","1","0","0","0.7257103923","","0.2","0.6","0.8","0.4","","","","","0.3661211491","0.7257103923","0.08683876107","0.8251988787","","","","","","","","","","74","J","1","","","33","main_expt",""
"","bandit","113","393262","0.0-75.0-0.0","28705153","wem/bandit_party_2","A2E3SM3T01ENIR","either","3","206","","","","","","","1","0","0","0.5786815464","","0.2","0.6","0.8","0.4","","","","","0.4614725573","0.5786815464","0.08117088791","0.7303528712","","","","","","","","","","74","J","1","","","34","main_expt",""
"","bandit","114","394904","0.0-76.0-0.0","28705153","wem/bandit_party_2","A2E3SM3T01ENIR","either","3","123","","","","","","","0","0","1","0.4812266686","","0.2","0.6","0.8","0.4","","","","","0.4597324626","0.4812266686","0.09593582107","0.8093673003","","","","","","","","","","74","J","1","","","35","main_expt",""
"","bandit","115","396663","0.0-77.0-0.0","28705153","wem/bandit_party_2","A2E3SM3T01ENIR","either","3","246","","","","","","","1","0","0","0.4459447539","","0.2","0.6","0.8","0.4","","","","","0.4294742096","0.4459447539","0.1392988708","0.79718131","","","","","","","","","","74","J","1","","","36","main_expt",""
"","bandit","116","398520","0.0-78.0-0.0","28705153","wem/bandit_party_2","A2E3SM3T01ENIR","either","3","344","","","","","","","0","1","0","","0.5737218407","0.2","0.6","0.8","0.4","0.5301274199","0.5737218407","0.07673209605","0.8157762275","","","","","","","","","","","","","","74","J","1","","","37","main_expt",""
"","bandit","117","400288","0.0-79.0-0.0","28705153","wem/bandit_party_2","A2E3SM3T01ENIR","either","3","256","","","","","","","1","0","0","0.6008421093","","0.2","0.6","0.8","0.4","","","","","0.5746889943","0.6008421093","0.1078843958","0.7941499978","","","","","","","","","","74","J","1","","","38","main_expt",""
"","bandit","118","401999","0.0-80.0-0.0","28705153","wem/bandit_party_2","A2E3SM3T01ENIR","either","3","198","","","","","","","0","0","1","","0.6076920036","0.2","0.6","0.8","0.4","0.6621100331","0.6076920036","0.09731722171","0.7352357368","","","","","","","","","","","","","","74","J","1","","","39","main_expt",""
"","bandit","119","403796","0.0-81.0-0.0","28705153","wem/bandit_party_2","A2E3SM3T01ENIR","either","3","283","","","","","","","0","1","0","","0.6616622706","0.2","0.6","0.8","0.4","0.6794361822","0.6616622706","0.2123509389","0.7920886563","","","","","","","","","","","","","","74","J","1","","","40","main_expt",""
"","bandit","120","405551","0.0-82.0-0.0","28705153","wem/bandit_party_2","A2E3SM3T01ENIR","either","3","242","","","","","","","1","0","0","0.6945341382","","0.2","0.6","0.8","0.4","","","","","0.7140523024","0.6945341382","0.1265365425","0.8780543775","","","","","","","","","","74","J","1","","","41","main_expt",""
"","bandit","121","407207","0.0-83.0-0.0","28705153","wem/bandit_party_2","A2E3SM3T01ENIR","either","3","141","","","","","","","0","0","1","","0.6833149102","0.2","0.6","0.8","0.4","0.6669732994","0.6833149102","0.166138795","0.9167256642","","","","","","","","","","","","","","74","J","1","","","42","main_expt",""
"","bandit","122","409054","0.0-84.0-0.0","28705153","wem/bandit_party_2","A2E3SM3T01ENIR","either","3","333","","","","","","","0","1","0","","0.7094953576","0.2","0.6","0.8","0.4","0.5435093165","0.7094953576","0.1782339186","0.9407985187","","","","","","","","","","","","","","74","J","1","","","43","main_expt",""
"","bandit","123","410647","0.0-85.0-0.0","28705153","wem/bandit_party_2","A2E3SM3T01ENIR","either","3","80","","","","","","","0","0","1","0.7519468023","","0.2","0.6","0.8","0.4","","","","","0.6002661395","0.7519468023","0.1342945815","0.9000978766","","","","","","","","","","74","J","1","","","44","main_expt",""
"","bandit","124","412375","0.0-86.0-0.0","28705153","wem/bandit_party_2","A2E3SM3T01ENIR","either","3","215","","","","","","","0","0","1","0.09086288848","","0.2","0.6","0.8","0.4","","","","","0.5948203474","0.7673203249","0.09086288848","0.9190036262","","","","","","","","","","75","K","2","","","45","main_expt",""
"","bandit","125","413998","0.0-87.0-0.0","28705153","wem/bandit_party_2","A2E3SM3T01ENIR","either","3","107","","","","","","","0","0","1","0.06420934006","","0.2","0.6","0.8","0.4","","","","","0.6230250108","0.722836051","0.06420934006","0.8865788656","","","","","","","","","","75","K","2","","","46","main_expt",""
"","bandit","126","415671","0.0-88.0-0.0","28705153","wem/bandit_party_2","A2E3SM3T01ENIR","either","3","159","","","","","","","0","0","1","","0.8207935484","0.2","0.6","0.8","0.4","0.7239235909","0.7392487755","0.02332738683","0.8207935484","","","","","","","","","","","","","","76","L","3","","","47","main_expt",""
"","bandit","127","417245","0.0-89.0-0.0","28705153","wem/bandit_party_2","A2E3SM3T01ENIR","either","3","62","","","","","","","0","1","0","","0.7715310514","0.2","0.6","0.8","0.4","0.7715310514","0.7551111279","0.03517565614","0.8170742187","","","","","","","","","","","","","","72","H","0","img/none_selected.jpg","","48","main_expt",""
"","bandit","128","418934","0.0-90.0-0.0","28705153","wem/bandit_party_2","A2E3SM3T01ENIR","either","3","175","","","","","","","0","1","0","","0.822179592","0.2","0.6","0.8","0.4","0.822179592","0.6917772817","0.04466115719","0.7874830355","","","","","","","","","","","","","","72","H","0","img/none_selected.jpg","","49","main_expt",""
"","bandit","129","420614","0.0-91.0-0.0","28705153","wem/bandit_party_2","A2E3SM3T01ENIR","either","3","166","","","","","","","0","1","0","","0.8108951243","0.2","0.6","0.8","0.4","0.8108951243","0.6689959301","0.05053383529","0.8279472521","","","","","","","","","","","","","","72","H","0","img/none_selected.jpg","","50","main_expt",""
"","bandit","130","422414","0.0-92.0-0.0","28705153","wem/bandit_party_2","A2E3SM3T01ENIR","either","3","286","","","","","","","0","1","0","","0.7649170446","0.2","0.6","0.8","0.4","0.7649170446","0.6020608281","0.04681033125","0.8426817256","","","","","","","","","","","","","","72","H","0","img/none_selected.jpg","","51","main_expt",""
"","bandit","131","424148","0.0-93.0-0.0","28705153","wem/bandit_party_2","A2E3SM3T01ENIR","either","3","221","","","","","","","0","1","0","","0.8169848275","0.2","0.6","0.8","0.4","0.8169848275","0.6583182673","0.09308222201","0.8377647656","","","","","","","","","","","","","","72","H","0","img/none_selected.jpg","","52","main_expt",""
"","bandit","132","425896","0.0-94.0-0.0","28705153","wem/bandit_party_2","A2E3SM3T01ENIR","either","3","232","","","","","","","1","0","0","0.8843577791","","0.2","0.6","0.8","0.4","","","","","0.8843577791","0.5419436754","0.1397702629","0.8241398149","","","","","","","","","","72","H","0","img/none_selected.jpg","","53","main_expt",""
"","bandit","133","427599","0.0-95.0-0.0","28705153","wem/bandit_party_2","A2E3SM3T01ENIR","either","3","188","","","","","","","0","1","0","","0.8854515068","0.2","0.6","0.8","0.4","0.8854515068","0.5717614462","0.110287685","0.7289352116","","","","","","","","","","","","","","72","H","0","img/none_selected.jpg","","54","main_expt",""
"","bandit","134","429121","0.0-96.0-0.0","28705153","wem/bandit_party_2","A2E3SM3T01ENIR","either","3","7","","","","","","","0","1","0","","0.8884574585","0.2","0.6","0.8","0.4","0.8884574585","0.5497935615","0.1843384007","0.5895019519","","","","","","","","","","","","","","72","H","0","img/none_selected.jpg","","55","main_expt",""
"","bandit","135","430926","0.0-97.0-0.0","28705153","wem/bandit_party_2","A2E3SM3T01ENIR","either","3","293","","","","","","","0","1","0","","0.8840911236","0.2","0.6","0.8","0.4","0.8840911236","0.4902645195","0.2056752237","0.4622464331","","","","","","","","","","","","","","72","H","0","img/none_selected.jpg","","56","main_expt",""
"","bandit","136","433175","0.0-98.0-0.0","28705153","wem/bandit_party_2","A2E3SM3T01ENIR","either","3","732","","","","","","","1","0","0","0.864283103","","0.2","0.6","0.8","0.4","","","","","0.864283103","0.5258365243","0.3410726922","0.490024734","","","","","","","","","","72","H","0","img/none_selected.jpg","","57","main_expt",""
"","bandit","137","434707","0.0-99.0-0.0","28705153","wem/bandit_party_2","A2E3SM3T01ENIR","either","3","21","","","","","","","1","0","0","0.7377821737","","0.2","0.6","0.8","0.4","","","","","0.7377821737","0.6097664349","0.3873695161","0.6182628796","","","","","","","","","","72","H","0","img/none_selected.jpg","","58","main_expt",""
"","bandit","138","436399","0.0-100.0-0.0","28705153","wem/bandit_party_2","A2E3SM3T01ENIR","either","3","179","","","","","","","0","1","0","","0.7469541206","0.2","0.6","0.8","0.4","0.7469541206","0.6016711108","0.3281321534","0.6976829826","","","","","","","","","","","","","","72","H","0","img/none_selected.jpg","","59","main_expt",""
"","bandit","139","438078","0.0-101.0-0.0","28705153","wem/bandit_party_2","A2E3SM3T01ENIR","either","3","166","","","","","","","0","1","0","","0.8019510571","0.2","0.6","0.8","0.4","0.8019510571","0.5544917648","0.2380439254","0.675433977","","","","","","","","","","","","","","72","H","0","img/none_selected.jpg","","60","main_expt",""
"","bandit","140","439774","0.0-102.0-0.0","28705153","wem/bandit_party_2","A2E3SM3T01ENIR","either","3","182","","","","","","","0","1","0","","0.8943887388","0.2","0.6","0.8","0.4","0.8943887388","0.6842720067","0.2228222105","0.7206550838","","","","","","","","","","","","","","72","H","0","img/none_selected.jpg","","61","main_expt",""
"","bandit","141","443910","0.0-103.0-0.0","28705153","wem/bandit_party_2","A2E3SM3T01ENIR","either","3","2620","","","","","","","0","1","0","","0.8942973556","0.2","0.6","0.8","0.4","0.8942973556","0.6824345281","0.2489253665","0.7184677658","","","","","","","","","","","","","","72","H","0","img/none_selected.jpg","","62","main_expt",""
"","bandit","142","445694","0.0-104.0-0.0","28705153","wem/bandit_party_2","A2E3SM3T01ENIR","either","3","267","","","","","","","0","1","0","","0.8829609874","0.2","0.6","0.8","0.4","0.8829609874","0.7321168219","0.2298237489","0.6785259816","","","","","","","","","","","","","","72","H","0","img/none_selected.jpg","","63","main_expt",""
"","bandit","143","447598","0.0-105.0-0.0","28705153","wem/bandit_party_2","A2E3SM3T01ENIR","either","3","389","","","","","","","1","0","0","0.8175344892","","0.2","0.6","0.8","0.4","","","","","0.8175344892","0.8123013145","0.1849055857","0.6349383059","","","","","","","","","","72","H","0","img/none_selected.jpg","","64","main_expt",""
"","bandit","144","449446","0.0-106.0-0.0","28705153","wem/bandit_party_2","A2E3SM3T01ENIR","either","3","335","","","","","","","0","1","0","","0.7812905168","0.2","0.6","0.8","0.4","0.7812905168","0.8236121316","0.2285715909","0.629769122","","","","","","","","","","","","","","72","H","0","img/none_selected.jpg","","65","main_expt",""
"","bandit","145","451175","0.0-107.0-0.0","28705153","wem/bandit_party_2","A2E3SM3T01ENIR","either","3","214","","","","","","","0","1","0","","0.7848445355","0.2","0.6","0.8","0.4","0.7848445355","0.8270077233","0.2477643906","0.7158950816","","","","","","","","","","","","","","72","H","0","img/none_selected.jpg","","66","main_expt",""
"","bandit","146","452870","0.0-108.0-0.0","28705153","wem/bandit_party_2","A2E3SM3T01ENIR","either","3","174","","","","","","","0","0","1","0.763143195","","0.2","0.6","0.8","0.4","","","","","0.763143195","0.7601471472","0.1801078726","0.6309271871","","","","","","","","","","72","H","0","img/none_selected.jpg","","67","main_expt",""
"","bandit","147","454519","0.0-109.0-0.0","28705153","wem/bandit_party_2","A2E3SM3T01ENIR","either","3","135","","","","","","","0","0","1","","0.7966751536","0.2","0.6","0.8","0.4","0.7966751536","0.7567750057","0.08479184886","0.617221228","","","","","","","","","","","","","","72","H","0","img/none_selected.jpg","","68","main_expt",""
"","bandit","148","456373","0.0-110.0-0.0","28705153","wem/bandit_party_2","A2E3SM3T01ENIR","either","3","338","","","","","","","0","0","1","0.06982522498","","0.2","0.6","0.8","0.4","","","","","0.8534335227","0.6871277649","0.06982522498","0.6235929763","","","","","","","","","","75","K","2","","","69","main_expt",""
"","bandit","149","458094","0.0-111.0-0.0","28705153","wem/bandit_party_2","A2E3SM3T01ENIR","either","3","206","","","","","","","1","0","0","0.5543620559","","0.2","0.6","0.8","0.4","","","","","0.8915498471","0.773099018","0.05029268469","0.5543620559","","","","","","","","","","76","L","3","","","70","main_expt",""
"","bandit","150","459624","0.0-112.0-0.0","28705153","wem/bandit_party_2","A2E3SM3T01ENIR","either","3","14","","","","","","","0","0","1","","0.5333999135","0.2","0.6","0.8","0.4","0.8736989015","0.7412476729","0.06413839938","0.5333999135","","","","","","","","","","","","","","76","L","3","","","71","main_expt",""
"","bandit","151","461255","0.0-113.0-0.0","28705153","wem/bandit_party_2","A2E3SM3T01ENIR","either","3","115","","","","","","","0","0","1","0.5905126671","","0.2","0.6","0.8","0.4","","","","","0.8837551658","0.8080704968","0.05155778705","0.5905126671","","","","","","","","","","76","L","3","","","72","main_expt",""
"","bandit","152","462985","0.0-114.0-0.0","28705153","wem/bandit_party_2","A2E3SM3T01ENIR","either","3","213","","","","","","","0","1","0","","0.6925119087","0.2","0.6","0.8","0.4","0.8495494246","0.8270016227","0.0232747386","0.6925119087","","","","","","","","","","","","","","76","L","3","","","73","main_expt",""
"","bandit","153","464535","0.0-115.0-0.0","28705153","wem/bandit_party_2","A2E3SM3T01ENIR","either","3","36","","","","","","","0","1","0","","0.7134745341","0.2","0.6","0.8","0.4","0.9127472651","0.7872017979","0.04751547773","0.7134745341","","","","","","","","","","","","","","76","L","3","","","74","main_expt",""
"","bandit","154","466367","0.0-116.0-0.0","28705153","wem/bandit_party_2","A2E3SM3T01ENIR","either","3","317","","","","","","","0","1","0","","0.8065440948","0.2","0.6","0.8","0.4","0.9199060817","0.6167225576","0.05282531612","0.8065440948","","","","","","","","","","","","","","76","L","3","","","75","main_expt",""
"","bandit","155","468124","0.0-117.0-0.0","28705153","wem/bandit_party_2","A2E3SM3T01ENIR","either","3","243","","","","","","","0","0","1","0.7849172319","","0.2","0.6","0.8","0.4","","","","","0.8691294168","0.637182095","0.08738729654","0.7849172319","","","","","","","","","","76","L","3","","","76","main_expt",""
"","bandit","156","469838","0.0-118.0-0.0","28705153","wem/bandit_party_2","A2E3SM3T01ENIR","either","3","199","","","","","","","0","1","0","","0.7818962729","0.2","0.6","0.8","0.4","0.9111329321","0.7169911294","0.08851312664","0.7818962729","","","","","","","","","","","","","","76","L","3","","","77","main_expt",""
"","bandit","157","471559","0.0-119.0-0.0","28705153","wem/bandit_party_2","A2E3SM3T01ENIR","either","3","205","","","","","","","0","1","0","","0.7002933386","0.2","0.6","0.8","0.4","0.9286966754","0.7446448061","0.145228539","0.7002933386","","","","","","","","","","","","","","76","L","3","","","78","main_expt",""
"","bandit","158","473262","0.0-120.0-0.0","28705153","wem/bandit_party_2","A2E3SM3T01ENIR","either","3","186","","","","","","","1","0","0","0.6510109529","","0.2","0.6","0.8","0.4","","","","","0.9616021792","0.8152221547","0.1669860915","0.6510109529","","","","","","","","","","76","L","3","","","79","main_expt",""
"","bandit","159","475104","0.0-121.0-0.0","28705153","wem/bandit_party_2","A2E3SM3T01ENIR","either","3","325","","","","","","","1","0","0","0.6765614865","","0.2","0.6","0.8","0.4","","","","","0.950571795","0.810351938","0.1922913003","0.6765614865","","","","","","","","","","76","L","3","","","80","main_expt",""
"","bandit","160","476839","0.0-122.0-0.0","28705153","wem/bandit_party_2","A2E3SM3T01ENIR","either","3","218","","","","","","","0","0","1","0.5908869344","","0.2","0.6","0.8","0.4","","","","","0.9331160128","0.8895110989","0.2407870914","0.5908869344","","","","","","","","","","76","L","3","","","81","main_expt",""
"","bandit","161","478453","0.0-123.0-0.0","28705153","wem/bandit_party_2","A2E3SM3T01ENIR","either","3","96","","","","","","","0","0","1","","0.5267531711","0.2","0.6","0.8","0.4","0.9465986336","0.9046816681","0.3077898034","0.5267531711","","","","","","","","","","","","","","76","L","3","","","82","main_expt",""
"","bandit","162","480209","0.0-124.0-0.0","28705153","wem/bandit_party_2","A2E3SM3T01ENIR","either","3","239","","","","","","","0","0","1","","0.6168373964","0.2","0.6","0.8","0.4","0.9371159138","0.8465278631","0.2337579628","0.6168373964","","","","","","","","","","","","","","76","L","3","","","83","main_expt",""
"","bandit","163","481871","0.0-125.0-0.0","28705153","wem/bandit_party_2","A2E3SM3T01ENIR","either","3","147","","","","","","","0","1","0","","0.7584930438","0.2","0.6","0.8","0.4","0.8998840018","0.7584930438","0.2781329454","0.5733990252","","","","","","","","","","","","","","74","J","1","","","84","main_expt",""
"","bandit","164","483479","0.0-126.0-0.0","28705153","wem/bandit_party_2","A2E3SM3T01ENIR","either","3","91","","","","","","","0","1","0","","0.7727946294","0.2","0.6","0.8","0.4","0.9102188985","0.7727946294","0.3013149798","0.4719695616","","","","","","","","","","","","","","74","J","1","","","85","main_expt",""
"","bandit","165","485239","0.0-127.0-0.0","28705153","wem/bandit_party_2","A2E3SM3T01ENIR","either","3","245","","","","","","","1","0","0","0.8216594778","","0.2","0.6","0.8","0.4","","","","","0.9000055418","0.8216594778","0.3231836659","0.6941651786","","","","","","","","","","74","J","1","","","86","main_expt",""
"","bandit","166","486879","0.0-128.0-0.0","28705153","wem/bandit_party_2","A2E3SM3T01ENIR","either","3","123","","","","","","","1","0","0","0.7833884788","","0.2","0.6","0.8","0.4","","","","","0.8563468124","0.7833884788","0.3986379136","0.5408952125","","","","","","","","","","74","J","1","","","87","main_expt",""
"","bandit","167","488668","0.0-129.0-0.0","28705153","wem/bandit_party_2","A2E3SM3T01ENIR","either","3","273","","","","","","","1","0","0","0.7804426693","","0.2","0.6","0.8","0.4","","","","","0.7349543302","0.7804426693","0.4230151841","0.5438891422","","","","","","","","","","74","J","1","","","88","main_expt",""
"","bandit","168","490463","0.0-130.0-0.0","28705153","wem/bandit_party_2","A2E3SM3T01ENIR","either","3","280","","","","","","","0","0","1","0.7930928848","","0.2","0.6","0.8","0.4","","","","","0.7907967515","0.7930928848","0.3761858397","0.4294971294","","","","","","","","","","74","J","1","","","89","main_expt",""
"","bandit","169","492014","0.0-131.0-0.0","28705153","wem/bandit_party_2","A2E3SM3T01ENIR","either","3","35","","","","","","","1","0","0","0.7683039237","","0.2","0.6","0.8","0.4","","","","","0.7883246469","0.7683039237","0.4799086841","0.4928337868","","","","","","","","","","74","J","1","","","90","main_expt",""
"","bandit","170","493735","0.0-132.0-0.0","28705153","wem/bandit_party_2","A2E3SM3T01ENIR","either","3","204","","","","","","","0","0","1","0.8072091422","","0.2","0.6","0.8","0.4","","","","","0.8389096604","0.8072091422","0.4558425901","0.5655090935","","","","","","","","","","74","J","1","","","91","main_expt",""
"","bandit","171","495287","0.0-133.0-0.0","28705153","wem/bandit_party_2","A2E3SM3T01ENIR","either","3","33","","","","","","","0","0","1","","0.7791444337","0.2","0.6","0.8","0.4","0.8064187158","0.7791444337","0.3781515597","0.6154818033","","","","","","","","","","","","","","74","J","1","","","92","main_expt",""
"","bandit","172","496846","0.0-134.0-0.0","28705153","wem/bandit_party_2","A2E3SM3T01ENIR","either","3","41","","","","","","","1","0","0","0.8498372391","","0.2","0.6","0.8","0.4","","","","","0.7542368763","0.8498372391","0.2858753042","0.7381217307","","","","","","","","","","74","J","1","","","93","main_expt",""
"","bandit","173","498378","0.0-135.0-0.0","28705153","wem/bandit_party_2","A2E3SM3T01ENIR","either","3","10","","","","","","","1","0","0","0.8440610374","","0.2","0.6","0.8","0.4","","","","","0.6932487021","0.8440610374","0.3914428564","0.7776388333","","","","","","","","","","74","J","1","","","94","main_expt",""
"","bandit","174","500181","0.0-136.0-0.0","28705153","wem/bandit_party_2","A2E3SM3T01ENIR","either","3","288","","","","","","","0","1","0","","0.8092418145","0.2","0.6","0.8","0.4","0.6706070003","0.8092418145","0.3800018616","0.8299152283","","","","","","","","","","","","","","74","J","1","","","95","main_expt",""
"","bandit","175","501878","0.0-137.0-0.0","28705153","wem/bandit_party_2","A2E3SM3T01ENIR","either","3","180","","","","","","","0","1","0","","0.8655172998","0.2","0.6","0.8","0.4","0.6670251336","0.8655172998","0.3078584031","0.7697811485","","","","","","","","","","","","","","74","J","1","","","96","main_expt",""
"","bandit","176","503395","0.0-138.0-0.0","28705153","wem/bandit_party_2","A2E3SM3T01ENIR","either","3","2","","","","","","","0","1","0","","0.8735151232","0.2","0.6","0.8","0.4","0.7023758817","0.8735151232","0.218486712","0.7487724405","","","","","","","","","","","","","","74","J","1","","","97","main_expt",""
"","bandit","177","505095","0.0-139.0-0.0","28705153","wem/bandit_party_2","A2E3SM3T01ENIR","either","3","184","","","","","","","1","0","0","0.84409386","","0.2","0.6","0.8","0.4","","","","","0.7036518389","0.84409386","0.2037628256","0.7450583294","","","","","","","","","","74","J","1","","","98","main_expt",""
"","bandit","178","506783","0.0-140.0-0.0","28705153","wem/bandit_party_2","A2E3SM3T01ENIR","either","3","171","","","","","","","1","0","0","0.8089648913","","0.2","0.6","0.8","0.4","","","","","0.8401346726","0.8089648913","0.2400196326","0.7227120129","","","","","","","","","","74","J","1","","","99","main_expt",""
"","bandit","179","508446","0.0-141.0-0.0","28705153","wem/bandit_party_2","A2E3SM3T01ENIR","either","3","148","","","","","","","0","1","0","","0.7259557377","0.2","0.6","0.8","0.4","0.8640782416","0.7259557377","0.3298222115","0.5872141049","","","","","","","","","","","","","","74","J","1","","","100","main_expt",""
"","bandit","180","510094","0.0-142.0-0.0","28705153","wem/bandit_party_2","A2E3SM3T01ENIR","either","3","130","","","","","","","1","0","0","0.6332869741","","0.2","0.6","0.8","0.4","","","","","0.8232172207","0.6332869741","0.3108047587","0.6432213136","","","","","","","","","","74","J","1","","","101","main_expt",""
"","bandit","181","513150","0.0-143.0-0.0","28705153","wem/bandit_party_2","A2E3SM3T01ENIR","either","3","1540","","","","","","","1","0","0","0.659443461","","0.2","0.6","0.8","0.4","","","","","0.8451901448","0.659443461","0.2869381514","0.6009476408","","","","","","","","","","74","J","1","","","102","main_expt",""
"","bandit","182","514943","0.0-144.0-0.0","28705153","wem/bandit_party_2","A2E3SM3T01ENIR","either","3","276","","","","","","","0","0","1","0.5959971703","","0.2","0.6","0.8","0.4","","","","","0.8792283932","0.5959971703","0.246485708","0.6120105745","","","","","","","","","","74","J","1","","","103","main_expt",""
"","bandit","183","516473","0.0-145.0-0.0","28705153","wem/bandit_party_2","A2E3SM3T01ENIR","either","3","11","","","","","","","1","0","0","0.5643630141","","0.2","0.6","0.8","0.4","","","","","0.8887181638","0.5643630141","0.2175667678","0.6821098495","","","","","","","","","","74","J","1","","","104","main_expt",""
"","bandit","184","518326","0.0-146.0-0.0","28705153","wem/bandit_party_2","A2E3SM3T01ENIR","either","3","339","","","","","","","1","0","0","0.5489079514","","0.2","0.6","0.8","0.4","","","","","0.8013578166","0.5489079514","0.2645808036","0.7228510016","","","","","","","","","","74","J","1","","","105","main_expt",""
"","bandit","185","520159","0.0-147.0-0.0","28705153","wem/bandit_party_2","A2E3SM3T01ENIR","either","3","314","","","","","","","1","0","0","0.4336033326","","0.2","0.6","0.8","0.4","","","","","0.7307006529","0.4336033326","0.2652424516","0.6639212405","","","","","","","","","","74","J","1","","","106","main_expt",""
"","bandit","186","521933","0.0-148.0-0.0","28705153","wem/bandit_party_2","A2E3SM3T01ENIR","either","3","258","","","","","","","0","0","1","","0.4779201531","0.2","0.6","0.8","0.4","0.7519500851","0.4779201531","0.2481661544","0.6237034742","","","","","","","","","","","","","","74","J","1","","","107","main_expt",""
"","bandit","187","523655","0.0-149.0-0.0","28705153","wem/bandit_party_2","A2E3SM3T01ENIR","either","3","206","","","","","","","0","0","1","0.5075294874","","0.2","0.6","0.8","0.4","","","","","0.7457577851","0.5075294874","0.2361720859","0.5847293191","","","","","","","","","","74","J","1","","","108","main_expt",""
"","bandit","188","525294","0.0-150.0-0.0","28705153","wem/bandit_party_2","A2E3SM3T01ENIR","either","3","123","","","","","","","0","1","0","","0.522842385","0.2","0.6","0.8","0.4","0.77583868","0.522842385","0.2799679389","0.6260859175","","","","","","","","","","","","","","74","J","1","","","109","main_expt",""
"","bandit","189","526983","0.0-151.0-0.0","28705153","wem/bandit_party_2","A2E3SM3T01ENIR","either","3","171","","","","","","","0","0","1","0.419893696","","0.2","0.6","0.8","0.4","","","","","0.7520827962","0.419893696","0.3333098602","0.4788227383","","","","","","","","","","74","J","1","","","110","main_expt",""
"","bandit","190","528671","0.0-152.0-0.0","28705153","wem/bandit_party_2","A2E3SM3T01ENIR","either","3","171","","","","","","","0","0","1","","0.6512809768","0.2","0.6","0.8","0.4","0.6512809768","0.431092028","0.3669732535","0.6019778282","","","","","","","","","","","","","","72","H","0","img/none_selected.jpg","","111","main_expt",""
"","bandit","191","530370","0.0-153.0-0.0","28705153","wem/bandit_party_2","A2E3SM3T01ENIR","either","3","180","","","","","","","0","0","1","0.389765336","","0.2","0.6","0.8","0.4","","","","","0.5891937939","0.3590071368","0.389765336","0.546445977","","","","","","","","","","75","K","2","","","112","main_expt",""
"","bandit","192","531982","0.0-154.0-0.0","28705153","wem/bandit_party_2","A2E3SM3T01ENIR","either","3","95","","","","","","","0","0","1","0.3191506652","","0.2","0.6","0.8","0.4","","","","","0.6490525038","0.4498419114","0.3191506652","0.6256092846","","","","","","","","","","75","K","2","","","113","main_expt",""
"","bandit","193","533831","0.0-155.0-0.0","28705153","wem/bandit_party_2","A2E3SM3T01ENIR","either","3","333","","","","","","","1","0","0","0.6577617598","","0.2","0.6","0.8","0.4","","","","","0.6283680234","0.4829831469","0.2090321438","0.6577617598","","","","","","","","","","76","L","3","","","114","main_expt",""
"","bandit","194","535440","0.0-156.0-0.0","28705153","wem/bandit_party_2","A2E3SM3T01ENIR","either","3","92","","","","","","","1","0","0","0.7140476354","","0.2","0.6","0.8","0.4","","","","","0.6064224059","0.4846695964","0.2094439124","0.7140476354","","","","","","","","","","76","L","3","","","115","main_expt",""
"","bandit","195","537223","0.0-157.0-0.0","28705153","wem/bandit_party_2","A2E3SM3T01ENIR","either","3","266","","","","","","","1","0","0","0.6589976567","","0.2","0.6","0.8","0.4","","","","","0.545813367","0.5396909338","0.2695181069","0.6589976567","","","","","","","","","","76","L","3","","","116","main_expt",""
"","bandit","196","538894","0.0-158.0-0.0","28705153","wem/bandit_party_2","A2E3SM3T01ENIR","either","3","156","","","","","","","1","0","0","0.6937703341","","0.2","0.6","0.8","0.4","","","","","0.5179373022","0.5378282835","0.3402036285","0.6937703341","","","","","","","","","","76","L","3","","","117","main_expt",""
"","bandit","197","540519","0.0-159.0-0.0","28705153","wem/bandit_party_2","A2E3SM3T01ENIR","either","3","106","","","","","","","0","0","1","0.77114399","","0.2","0.6","0.8","0.4","","","","","0.4014157923","0.5729988564","0.3101634078","0.77114399","","","","","","","","","","76","L","3","","","118","main_expt",""
"","bandit","198","542097","0.0-160.0-0.0","28705153","wem/bandit_party_2","A2E3SM3T01ENIR","either","3","61","","","","","","","0","0","1","0.710000291","","0.2","0.6","0.8","0.4","","","","","0.4360264599","0.5630251564","0.3242193616","0.710000291","","","","","","","","","","76","L","3","","","119","main_expt",""
"","bandit","199","543663","0.0-161.0-0.0","28705153","wem/bandit_party_2","A2E3SM3T01ENIR","either","3","48","","","","","","","0","0","1","","0.6767982245","0.2","0.6","0.8","0.4","0.3297853269","0.6482115929","0.3334277272","0.6767982245","","","","","","","","","","","","","","76","L","3","","","120","main_expt",""
"","bandit","200","545310","0.0-162.0-0.0","28705153","wem/bandit_party_2","A2E3SM3T01ENIR","either","3","130","","","","","","","1","0","0","0.7360115258","","0.2","0.6","0.8","0.4","","","","","0.3767442019","0.5688505083","0.4066521311","0.7360115258","","","","","","","","","","76","L","3","","","121","main_expt",""
"","bandit","201","546967","0.0-163.0-0.0","28705153","wem/bandit_party_2","A2E3SM3T01ENIR","either","3","136","","","","","","","0","1","0","","0.7258716992","0.2","0.6","0.8","0.4","0.3589515546","0.5349597204","0.5193034213","0.7258716992","","","","","","","","","","","","","","76","L","3","","","122","main_expt",""
"","bandit","202","548543","0.0-164.0-0.0","28705153","wem/bandit_party_2","A2E3SM3T01ENIR","either","3","59","","","","","","","0","1","0","","0.7848203729","0.2","0.6","0.8","0.4","0.3461890545","0.412887176","0.5594962391","0.7848203729","","","","","","","","","","","","","","76","L","3","","","123","main_expt",""
"","bandit","203","550127","0.0-165.0-0.0","28705153","wem/bandit_party_2","A2E3SM3T01ENIR","either","3","66","","","","","","","1","0","0","0.7673004895","","0.2","0.6","0.8","0.4","","","","","0.2287340519","0.4137060999","0.6876014299","0.7673004895","","","","","","","","","","76","L","3","","","124","main_expt",""
"","bandit","204","551720","0.0-166.0-0.0","28705153","wem/bandit_party_2","A2E3SM3T01ENIR","either","3","76","","","","","","","0","0","1","","0.8020703208","0.2","0.6","0.8","0.4","0.2900718705","0.3226696341","0.7354493796","0.8020703208","","","","","","","","","","","","","","76","L","3","","","125","main_expt",""
"","bandit","205","553476","0.0-167.0-0.0","28705153","wem/bandit_party_2","A2E3SM3T01ENIR","either","3","238","","","","","","","0","1","0","","0.76840964","0.2","0.6","0.8","0.4","0.2880997441","0.3904211026","0.76840964","0.8196031782","","","","","","","","","","","","","","75","K","2","","","126","main_expt",""
"","bandit","206","555023","0.0-168.0-0.0","28705153","wem/bandit_party_2","A2E3SM3T01ENIR","either","3","30","","","","","","","1","0","0","0.7310750685","","0.2","0.6","0.8","0.4","","","","","0.3451069126","0.4227014292","0.7310750685","0.7095492128","","","","","","","","","","75","K","2","","","127","main_expt",""
"","bandit","207","556614","0.0-169.0-0.0","28705153","wem/bandit_party_2","A2E3SM3T01ENIR","either","3","68","","","","","","","1","0","0","0.6582635175","","0.2","0.6","0.8","0.4","","","","","0.3129298861","0.543317668","0.6582635175","0.711577854","","","","","","","","","","75","K","2","","","128","main_expt",""
"","bandit","208","558279","0.0-170.0-0.0","28705153","wem/bandit_party_2","A2E3SM3T01ENIR","either","3","149","","","","","","","1","0","0","0.7529887683","","0.2","0.6","0.8","0.4","","","","","0.3507055597","0.5906282681","0.7529887683","0.7022761705","","","","","","","","","","75","K","2","","","129","main_expt",""
"","bandit","209","559894","0.0-171.0-0.0","28705153","wem/bandit_party_2","A2E3SM3T01ENIR","either","3","96","","","","","","","1","0","0","0.7929301986","","0.2","0.6","0.8","0.4","","","","","0.3753424236","0.6636268631","0.7929301986","0.7309419319","","","","","","","","","","75","K","2","","","130","main_expt",""
"","bandit","210","561567","0.0-172.0-0.0","28705153","wem/bandit_party_2","A2E3SM3T01ENIR","either","3","154","","","","","","","0","0","1","0.8149544693","","0.2","0.6","0.8","0.4","","","","","0.3473486375","0.5686699027","0.8149544693","0.6904825683","","","","","","","","","","75","K","2","","","131","main_expt",""
"","bandit","211","563141","0.0-173.0-0.0","28705153","wem/bandit_party_2","A2E3SM3T01ENIR","either","3","57","","","","","","","1","0","0","0.7626544417","","0.2","0.6","0.8","0.4","","","","","0.303679922","0.6564012045","0.7626544417","0.7153166113","","","","","","","","","","75","K","2","","","132","main_expt",""
"","bandit","212","564696","0.0-174.0-0.0","28705153","wem/bandit_party_2","A2E3SM3T01ENIR","either","3","37","","","","","","","1","0","0","0.7584501248","","0.2","0.6","0.8","0.4","","","","","0.3385565331","0.5876654864","0.7584501248","0.8135501627","","","","","","","","","","75","K","2","","","133","main_expt",""
"","bandit","213","566406","0.0-175.0-0.0","28705153","wem/bandit_party_2","A2E3SM3T01ENIR","either","3","192","","","","","","","1","0","0","0.7905015291","","0.2","0.6","0.8","0.4","","","","","0.3686406913","0.5299368298","0.7905015291","0.7707892239","","","","","","","","","","75","K","2","","","134","main_expt",""
"","bandit","214","567967","0.0-176.0-0.0","28705153","wem/bandit_party_2","A2E3SM3T01ENIR","either","3","44","","","","","","","1","0","0","0.7515189777","","0.2","0.6","0.8","0.4","","","","","0.3672202126","0.4547966061","0.7515189777","0.7689088841","","","","","","","","","","75","K","2","","","135","main_expt",""
"","bandit","215","569623","0.0-177.0-0.0","28705153","wem/bandit_party_2","A2E3SM3T01ENIR","either","3","138","","","","","","","0","0","1","","0.7293518859","0.2","0.6","0.8","0.4","0.4064769993","0.5290841583","0.7293518859","0.6641324257","","","","","","","","","","","","","","75","K","2","","","136","main_expt",""
"","bandit","216","571248","0.0-178.0-0.0","28705153","wem/bandit_party_2","A2E3SM3T01ENIR","either","3","108","","","","","","","1","0","0","0.7286216209","","0.2","0.6","0.8","0.4","","","","","0.3492503667","0.419904672","0.7286216209","0.635388201","","","","","","","","","","75","K","2","","","137","main_expt",""
"","bandit","217","572942","0.0-179.0-0.0","28705153","wem/bandit_party_2","A2E3SM3T01ENIR","either","3","174","","","","","","","1","0","0","0.7425921641","","0.2","0.6","0.8","0.4","","","","","0.3315752647","0.4532768315","0.7425921641","0.6889508363","","","","","","","","","","75","K","2","","","138","main_expt",""
"","bandit","218","574550","0.0-180.0-0.0","28705153","wem/bandit_party_2","A2E3SM3T01ENIR","either","3","92","","","","","","","0","0","1","0.7356638012","","0.2","0.6","0.8","0.4","","","","","0.3080831972","0.4194835996","0.7356638012","0.6481427694","","","","","","","","","","75","K","2","","","139","main_expt",""
"","bandit","219","576129","0.0-181.0-0.0","28705153","wem/bandit_party_2","A2E3SM3T01ENIR","either","3","59","","","","","","","1","0","0","0.7334346803","","0.2","0.6","0.8","0.4","","","","","0.3254670704","0.420008375","0.7334346803","0.6497449761","","","","","","","","","","75","K","2","","","140","main_expt",""
"","bandit","220","577854","0.0-182.0-0.0","28705153","wem/bandit_party_2","A2E3SM3T01ENIR","either","3","209","","","","","","","0","1","0","","0.7737071977","0.2","0.6","0.8","0.4","0.3452870884","0.3908595681","0.7737071977","0.7328205829","","","","","","","","","","","","","","75","K","2","","","141","main_expt",""
"","bandit","221","579422","0.0-183.0-0.0","28705153","wem/bandit_party_2","A2E3SM3T01ENIR","either","3","47","","","","","","","0","0","1","","0.7912630164","0.2","0.6","0.8","0.4","0.2659846132","0.3994278682","0.7912630164","0.6396752577","","","","","","","","","","","","","","75","K","2","","","142","main_expt",""
"","bandit","222","581919","0.0-184.0-0.0","28705153","wem/bandit_party_2","A2E3SM3T01ENIR","either","3","978","","","","","","","1","0","0","0.7709923268","","0.2","0.6","0.8","0.4","","","","","0.2549781044","0.3137486051","0.7709923268","0.5974809775","","","","","","","","","","75","K","2","","","143","main_expt",""
"","bandit","223","583527","0.0-185.0-0.0","28705153","wem/bandit_party_2","A2E3SM3T01ENIR","either","3","88","","","","","","","0","0","1","0.7492848764","","0.2","0.6","0.8","0.4","","","","","0.3603981418","0.3961992406","0.7492848764","0.5953980303","","","","","","","","","","75","K","2","","","144","main_expt",""
"","bandit","224","586230","0.0-186.0-0.0","28705153","wem/bandit_party_2","A2E3SM3T01ENIR","either","3","1184","","","","","","","1","0","0","0.7343485297","","0.2","0.6","0.8","0.4","","","","","0.3682949958","0.3186856111","0.7343485297","0.6215671736","","","","","","","","","","75","K","2","","","145","main_expt",""
"","bandit","225","588078","0.0-187.0-0.0","28705153","wem/bandit_party_2","A2E3SM3T01ENIR","either","3","328","","","","","","","1","0","0","0.7701032705","","0.2","0.6","0.8","0.4","","","","","0.5028772858","0.2724247948","0.7701032705","0.5766937592","","","","","","","","","","75","K","2","","","146","main_expt",""
"","bandit","226","589646","0.0-188.0-0.0","28705153","wem/bandit_party_2","A2E3SM3T01ENIR","either","3","50","","","","","","","0","1","0","","0.7521601774","0.2","0.6","0.8","0.4","0.4186890645","0.2844288079","0.7521601774","0.4600492943","","","","","","","","","","","","","","75","K","2","","","147","main_expt",""
"","bandit","227","591366","0.0-189.0-0.0","28705153","wem/bandit_party_2","A2E3SM3T01ENIR","either","3","202","","","","","","","1","0","0","0.7762143641","","0.2","0.6","0.8","0.4","","","","","0.3928328601","0.3095389551","0.7762143641","0.4575448178","","","","","","","","","","75","K","2","","","148","main_expt",""
"","bandit","228","593135","0.0-190.0-0.0","28705153","wem/bandit_party_2","A2E3SM3T01ENIR","either","3","251","","","","","","","0","0","1","0.716016993","","0.2","0.6","0.8","0.4","","","","","0.4220063763","0.2464654743","0.716016993","0.3840278576","","","","","","","","","","75","K","2","","","149","main_expt",""
"","bandit","229","594783","0.0-191.0-0.0","28705153","wem/bandit_party_2","A2E3SM3T01ENIR","either","3","128","","","","","","","0","0","1","0.2088091358","","0.2","0.6","0.8","0.4","","","","","0.3206822378","0.2088091358","0.7182774931","0.3004406684","","","","","","","","","","74","J","1","","","150","main_expt",""
"","bandit","230","596452","0.0-192.0-0.0","28705153","wem/bandit_party_2","A2E3SM3T01ENIR","either","3","153","","","","","","","0","1","0","","0.3380172956","0.2","0.6","0.8","0.4","0.3380172956","0.2670014618","0.8028216805","0.2769981479","","","","","","","","","","","","","","72","H","0","img/none_selected.jpg","","151","main_expt",""
"","bandit","231","598005","0.0-193.0-0.0","28705153","wem/bandit_party_2","A2E3SM3T01ENIR","either","3","35","","","","","","","0","0","1","","0.2461440624","0.2","0.6","0.8","0.4","0.2461440624","0.3100930243","0.8634692279","0.40565407","","","","","","","","","","","","","","72","H","0","img/none_selected.jpg","","152","main_expt",""
"","bandit","232","599798","0.0-194.0-0.0","28705153","wem/bandit_party_2","A2E3SM3T01ENIR","either","3","274","","","","","","","0","0","1","","0.1852716423","0.2","0.6","0.8","0.4","0.1852716423","0.3796096158","0.7719190238","0.3829351634","","","","","","","","","","","","","","72","H","0","img/none_selected.jpg","","153","main_expt",""
"","bandit","233","601455","0.0-195.0-0.0","28705153","wem/bandit_party_2","A2E3SM3T01ENIR","either","3","137","","","","","","","0","0","1","","0.1660439368","0.2","0.6","0.8","0.4","0.1660439368","0.2265028128","0.8343429945","0.4912137185","","","","","","","","","","","","","","72","H","0","img/none_selected.jpg","","154","main_expt",""
"","bandit","234","603104","0.0-196.0-0.0","28705153","wem/bandit_party_2","A2E3SM3T01ENIR","either","3","132","","","","","","","0","0","1","0.5312535156","","0.2","0.6","0.8","0.4","","","","","0.2241607793","0.2135741777","0.7908731232","0.5312535156","","","","","","","","","","76","L","3","","","155","main_expt",""
"","bandit","235","605519","0.0-197.0-0.0","28705153","wem/bandit_party_2","A2E3SM3T01ENIR","either","3","895","","","","","","","0","1","0","","0.5747898199","0.2","0.6","0.8","0.4","0.1566338899","0.1338357519","0.7848911391","0.5747898199","","","","","","","","","","","","","","76","L","3","","","156","main_expt",""
"","bandit","236","607066","0.0-198.0-0.0","28705153","wem/bandit_party_2","A2E3SM3T01ENIR","either","3","28","","","","","","","1","0","0","0.5948125822","","0.2","0.6","0.8","0.4","","","","","0.1839373886","0.1344370697","0.7467155263","0.5948125822","","","","","","","","","","76","L","3","","","157","main_expt",""
"","bandit","237","608823","0.0-199.0-0.0","28705153","wem/bandit_party_2","A2E3SM3T01ENIR","either","3","238","","","","","","","0","1","0","","0.6533804049","0.2","0.6","0.8","0.4","0.155802242","0.1217930933","0.7413618202","0.6533804049","","","","","","","","","","","","","","76","L","3","","","158","main_expt",""
"","bandit","238","610654","0.0-200.0-0.0","28705153","wem/bandit_party_2","A2E3SM3T01ENIR","either","3","311","","","","","","","1","0","0","0.5777198579","","0.2","0.6","0.8","0.4","","","","","0.2304237345","0.08524485746","0.6882043704","0.5777198579","","","","","","","","","","76","L","3","","","159","main_expt",""
"","bandit","239","612478","0.0-201.0-0.0","28705153","wem/bandit_party_2","A2E3SM3T01ENIR","either","3","306","","","","","","","0","1","0","","0.6777741118","0.2","0.6","0.8","0.4","0.2242026456","0.07332219892","0.7253096401","0.6777741118","","","","","","","","","","","","","","76","L","3","","","160","main_expt",""
"","bandit","240","614327","0.0-202.0-0.0","28705153","wem/bandit_party_2","A2E3SM3T01ENIR","either","3","327","","","","","","","0","0","1","0.6249074267","","0.2","0.6","0.8","0.4","","","","","0.2708915048","0.1063489691","0.6989182833","0.6249074267","","","","","","","","","","76","L","3","","","161","main_expt",""
"","bandit","241","615885","0.0-203.0-0.0","28705153","wem/bandit_party_2","A2E3SM3T01ENIR","either","3","39","","","","","","","0","1","0","","0.6755041601","0.2","0.6","0.8","0.4","0.2921592604","0.09670310095","0.7679575172","0.6755041601","","","","","","","","","","","","","","76","L","3","","","162","main_expt",""
"","bandit","242","617670","0.0-204.0-0.0","28705153","wem/bandit_party_2","A2E3SM3T01ENIR","either","3","266","","","","","","","0","0","1","","0.6461818487","0.2","0.6","0.8","0.4","0.2050535257","0.1266359811","0.6877390752","0.6461818487","","","","","","","","","","","","","","76","L","3","","","163","main_expt",""
"","bandit","243","619424","0.0-205.0-0.0","28705153","wem/bandit_party_2","A2E3SM3T01ENIR","either","3","233","","","","","","","0","1","0","","0.76368027","0.2","0.6","0.8","0.4","0.1998759094","0.1212611996","0.6957575266","0.76368027","","","","","","","","","","","","","","76","L","3","","","164","main_expt",""
"","bandit","244","621303","0.0-206.0-0.0","28705153","wem/bandit_party_2","A2E3SM3T01ENIR","either","3","361","","","","","","","1","0","0","0.8400099296","","0.2","0.6","0.8","0.4","","","","","0.1821974317","0.1917887173","0.6760148625","0.8400099296","","","","","","","","","","76","L","3","","","165","main_expt",""
"","bandit","245","623351","0.0-207.0-0.0","28705153","wem/bandit_party_2","A2E3SM3T01ENIR","either","3","522","","","","","","","1","0","0","0.8573275969","","0.2","0.6","0.8","0.4","","","","","0.2916844583","0.1560613016","0.6463317238","0.8573275969","","","","","","","","","","76","L","3","","","166","main_expt",""
"","bandit","246","625158","0.0-208.0-0.0","28705153","wem/bandit_party_2","A2E3SM3T01ENIR","either","3","289","","","","","","","0","1","0","","0.7735369509","0.2","0.6","0.8","0.4","0.3087465624","0.2214887095","0.5613055562","0.7735369509","","","","","","","","","","","","","","76","L","3","","","167","main_expt",""
"","bandit","247","626927","0.0-209.0-0.0","28705153","wem/bandit_party_2","A2E3SM3T01ENIR","either","3","249","","","","","","","0","1","0","","0.8091314607","0.2","0.6","0.8","0.4","0.3896626528","0.3463453368","0.5586162784","0.8091314607","","","","","","","","","","","","","","76","L","3","","","168","main_expt",""
"","bandit","248","628981","0.0-210.0-0.0","28705153","wem/bandit_party_2","A2E3SM3T01ENIR","either","3","534","","","","","","","0","1","0","","0.8364166478","0.2","0.6","0.8","0.4","0.4458805252","0.3222551453","0.597448185","0.8364166478","","","","","","","","","","","","","","76","L","3","","","169","main_expt",""
"","bandit","249","630870","0.0-211.0-0.0","28705153","wem/bandit_party_2","A2E3SM3T01ENIR","either","3","371","","","","","","","1","0","0","0.7867883415","","0.2","0.6","0.8","0.4","","","","","0.4844269655","0.2556410415","0.5351242352","0.7867883415","","","","","","","","","","76","L","3","","","170","main_expt",""
"","bandit","250","632670","0.0-212.0-0.0","28705153","wem/bandit_party_2","A2E3SM3T01ENIR","either","3","279","","","","","","","1","0","0","0.8728822524","","0.2","0.6","0.8","0.4","","","","","0.4858642724","0.2248109201","0.4819966971","0.8728822524","","","","","","","","","","76","L","3","","","171","main_expt",""
"","bandit","251","634503","0.0-213.0-0.0","28705153","wem/bandit_party_2","A2E3SM3T01ENIR","either","3","313","","","","","","","0","0","1","0.7804912391","","0.2","0.6","0.8","0.4","","","","","0.5060245996","0.3468742366","0.4038669266","0.7804912391","","","","","","","","","","76","L","3","","","172","main_expt",""
"","bandit","252","636160","0.0-214.0-0.0","28705153","wem/bandit_party_2","A2E3SM3T01ENIR","either","3","135","","","","","","","0","1","0","","0.7728490534","0.2","0.6","0.8","0.4","0.5413528159","0.234408543","0.3102533384","0.7728490534","","","","","","","","","","","","","","76","L","3","","","173","main_expt",""
"","bandit","253","637838","0.0-215.0-0.0","28705153","wem/bandit_party_2","A2E3SM3T01ENIR","either","3","158","","","","","","","0","1","0","","0.814185781","0.2","0.6","0.8","0.4","0.6505326818","0.1404050277","0.3818943333","0.814185781","","","","","","","","","","","","","","76","L","3","","","174","main_expt",""
"","bandit","254","639613","0.0-216.0-0.0","28705153","wem/bandit_party_2","A2E3SM3T01ENIR","either","3","255","","","","","","","1","0","0","0.8010682597","","0.2","0.6","0.8","0.4","","","","","0.6470977149","0.1081611795","0.2893198216","0.8010682597","","","","","","","","","","76","L","3","","","175","main_expt",""
"","bandit","255","641486","0.0-217.0-0.0","28705153","wem/bandit_party_2","A2E3SM3T01ENIR","either","3","352","","","","","","","1","0","0","0.7083228223","","0.2","0.6","0.8","0.4","","","","","0.6844229635","0.0730283124","0.226416223","0.7083228223","","","","","","","","","","76","L","3","","","176","main_expt",""
"","bandit","256","643096","0.0-218.0-0.0","28705153","wem/bandit_party_2","A2E3SM3T01ENIR","either","3","91","","","","","","","0","0","1","","0.7408938443","0.2","0.6","0.8","0.4","0.6883244284","0.07044941978","0.2786676386","0.7408938443","","","","","","","","","","","","","","76","L","3","","","177","main_expt",""
"","bandit","257","644799","0.0-219.0-0.0","28705153","wem/bandit_party_2","A2E3SM3T01ENIR","either","3","179","","","","","","","0","1","0","","0.6621187214","0.2","0.6","0.8","0.4","0.6098590842","0.06886985111","0.2279078815","0.6621187214","","","","","","","","","","","","","","76","L","3","","","178","main_expt",""
"","bandit","258","646654","0.0-220.0-0.0","28705153","wem/bandit_party_2","A2E3SM3T01ENIR","either","3","333","","","","","","","0","0","1","0.6765487854","","0.2","0.6","0.8","0.4","","","","","0.5924449164","0.07254371148","0.1690126781","0.6765487854","","","","","","","","","","76","L","3","","","179","main_expt",""
"","bandit","259","648470","0.0-221.0-0.0","28705153","wem/bandit_party_2","A2E3SM3T01ENIR","either","3","298","","","","","","","0","1","0","","0.7276027883","0.2","0.6","0.8","0.4","0.4915111467","0.055057054","0.1356066944","0.7276027883","","","","","","","","","","","","","","76","L","3","","","180","main_expt",""
"","bandit","260","650391","0.0-222.0-0.0","28705153","wem/bandit_party_2","A2E3SM3T01ENIR","either","3","401","","","","","","","0","0","1","","0.7083410305","0.2","0.6","0.8","0.4","0.4713933083","0.1187845962","0.1889441784","0.7083410305","","","","","","","","","","","","","","76","L","3","","","181","main_expt",""
"","bandit","261","652125","0.0-223.0-0.0","28705153","wem/bandit_party_2","A2E3SM3T01ENIR","either","3","215","","","","","","","0","0","1","0.2163976064","","0.2","0.6","0.8","0.4","","","","","0.500114893","0.1304227184","0.2163976064","0.6489729838","","","","","","","","","","75","K","2","","","182","main_expt",""
"","bandit","262","653751","0.0-224.0-0.0","28705153","wem/bandit_party_2","A2E3SM3T01ENIR","either","3","103","","","","","","","0","1","0","","0.1374638341","0.2","0.6","0.8","0.4","0.4949273894","0.1374638341","0.1902524086","0.6956751073","","","","","","","","","","","","","","74","J","1","","","183","main_expt",""
"","bandit","263","655287","0.0-225.0-0.0","28705153","wem/bandit_party_2","A2E3SM3T01ENIR","either","3","26","","","","","","","0","0","1","0.1914365344","","0.2","0.6","0.8","0.4","","","","","0.4271361476","0.1914365344","0.2265805791","0.6066537109","","","","","","","","","","74","J","1","","","184","main_expt",""
"","bandit","264","656853","0.0-226.0-0.0","28705153","wem/bandit_party_2","A2E3SM3T01ENIR","either","3","48","","","","","","","0","0","1","0.1939872458","","0.2","0.6","0.8","0.4","","","","","0.4558255176","0.1939872458","0.1843452782","0.6337362372","","","","","","","","","","74","J","1","","","185","main_expt",""
"","bandit","265","658950","0.0-227.0-0.0","28705153","wem/bandit_party_2","A2E3SM3T01ENIR","either","3","587","","","","","","","0","0","1","0.4031301461","","0.2","0.6","0.8","0.4","","","","","0.4031301461","0.2219937035","0.1898387663","0.5908962551","","","","","","","","","","72","H","0","img/none_selected.jpg","","186","main_expt",""
"","bandit","266","661382","0.0-228.0-0.0","28705153","wem/bandit_party_2","A2E3SM3T01ENIR","either","3","910","","","","","","","0","0","1","0.7651761031","","0.2","0.6","0.8","0.4","","","","","0.3993697366","0.2024523472","0.210498268","0.7651761031","","","","","","","","","","76","L","3","","","187","main_expt",""
"","bandit","267","664310","0.0-229.0-0.0","28705153","wem/bandit_party_2","A2E3SM3T01ENIR","either","3","1410","","","","","","","0","1","0","","0.7928336054","0.2","0.6","0.8","0.4","0.4478687375","0.1930401344","0.2368649008","0.7928336054","","","","","","","","","","","","","","76","L","3","","","188","main_expt",""
"","bandit","268","665903","0.0-230.0-0.0","28705153","wem/bandit_party_2","A2E3SM3T01ENIR","either","3","71","","","","","","","1","0","0","0.8917358491","","0.2","0.6","0.8","0.4","","","","","0.3699601256","0.3255404916","0.291591963","0.8917358491","","","","","","","","","","76","L","3","","","189","main_expt",""
"","bandit","269","667654","0.0-231.0-0.0","28705153","wem/bandit_party_2","A2E3SM3T01ENIR","either","3","230","","","","","","","0","1","0","","0.898448025","0.2","0.6","0.8","0.4","0.3723251068","0.2364063212","0.4411779124","0.898448025","","","","","","","","","","","","","","76","L","3","","","190","main_expt",""
"","bandit","270","669422","0.0-232.0-0.0","28705153","wem/bandit_party_2","A2E3SM3T01ENIR","either","3","246","","","","","","","1","0","0","0.9186708851","","0.2","0.6","0.8","0.4","","","","","0.3309849287","0.2662767285","0.3968704403","0.9186708851","","","","","","","","","","76","L","3","","","191","main_expt",""
"","bandit","271","671064","0.0-233.0-0.0","28705153","wem/bandit_party_2","A2E3SM3T01ENIR","either","3","120","","","","","","","0","1","0","","0.9314477517","0.2","0.6","0.8","0.4","0.2865625263","0.2815174114","0.4512817608","0.9314477517","","","","","","","","","","","","","","76","L","3","","","192","main_expt",""
"","bandit","272","672668","0.0-234.0-0.0","28705153","wem/bandit_party_2","A2E3SM3T01ENIR","either","3","83","","","","","","","0","1","0","","0.9090465067","0.2","0.6","0.8","0.4","0.2862811746","0.3461293965","0.4788006455","0.9090465067","","","","","","","","","","","","","","76","L","3","","","193","main_expt",""
"","bandit","273","674463","0.0-235.0-0.0","28705153","wem/bandit_party_2","A2E3SM3T01ENIR","either","3","273","","","","","","","0","0","1","","0.8762249788","0.2","0.6","0.8","0.4","0.2785288642","0.3303735913","0.4651889587","0.8762249788","","","","","","","","","","","","","","76","L","3","","","194","main_expt",""
"","bandit","274","675984","0.0-236.0-0.0","28705153","wem/bandit_party_2","A2E3SM3T01ENIR","either","3","2","","","","","","","0","0","1","","0.8623185747","0.2","0.6","0.8","0.4","0.2283941808","0.3194565039","0.4718629942","0.8623185747","","","","","","","","","","","","","","76","L","3","","","195","main_expt",""
"","bandit","275","678703","0.0-237.0-0.0","28705153","wem/bandit_party_2","A2E3SM3T01ENIR","either","3","1195","","","","","","","1","0","0","0.7745977574","","0.2","0.6","0.8","0.4","","","","","0.214282227","0.4103944464","0.3825708332","0.7745977574","","","","","","","","","","76","L","3","","","196","main_expt",""
"","bandit","276","680512","0.0-238.0-0.0","28705153","wem/bandit_party_2","A2E3SM3T01ENIR","either","3","285","","","","","","","0","1","0","","0.7723069829","0.2","0.6","0.8","0.4","0.1422959513","0.4445726534","0.4530864699","0.7723069829","","","","","","","","","","","","","","76","L","3","","","197","main_expt",""
"","bandit","277","682239","0.0-239.0-0.0","28705153","wem/bandit_party_2","A2E3SM3T01ENIR","either","3","206","","","","","","","0","1","0","","0.7084082875","0.2","0.6","0.8","0.4","0.1126324943","0.4351718099","0.4337652667","0.7084082875","","","","","","","","","","","","","","76","L","3","","","198","main_expt",""
"","bandit","278","684028","0.0-240.0-0.0","28705153","wem/bandit_party_2","A2E3SM3T01ENIR","either","3","268","","","","","","","1","0","0","0.7016883558","","0.2","0.6","0.8","0.4","","","","","0.1144166609","0.4641294157","0.4138332966","0.7016883558","","","","","","","","","","76","L","3","","","199","main_expt",""
"","bandit","279","685671","0.0-241.0-0.0","28705153","wem/bandit_party_2","A2E3SM3T01ENIR","either","3","122","","","","","","","1","0","0","0.6504384346","","0.2","0.6","0.8","0.4","","","","","0.1518003708","0.4468687069","0.5005175686","0.6504384346","","","","","","","","","","76","L","3","","","200","main_expt",""
"","bandit","280","687478","0.0-242.0-0.0","28705153","wem/bandit_party_2","A2E3SM3T01ENIR","either","3","287","","","","","","","0","1","0","","0.7904945102","0.2","0.6","0.8","0.4","0.1974433607","0.5087435212","0.5122642399","0.7904945102","","","","","","","","","","","","","","76","L","3","","","201","main_expt",""
"","bandit","281","689215","0.0-243.0-0.0","28705153","wem/bandit_party_2","A2E3SM3T01ENIR","either","3","214","","","","","","","0","1","0","","0.7039472437","0.2","0.6","0.8","0.4","0.2000842809","0.4992132835","0.5414597976","0.7039472437","","","","","","","","","","","","","","76","L","3","","","202","main_expt",""
"","bandit","282","691046","0.0-244.0-0.0","28705153","wem/bandit_party_2","A2E3SM3T01ENIR","either","3","309","","","","","","","0","0","1","","0.7478807213","0.2","0.6","0.8","0.4","0.1715580826","0.4859842053","0.4993649945","0.7478807213","","","","","","","","","","","","","","76","L","3","","","203","main_expt",""
"","bandit","283","693898","0.0-245.0-0.0","28705153","wem/bandit_party_2","A2E3SM3T01ENIR","either","3","1326","","","","","","","0","0","1","0.7346150791","","0.2","0.6","0.8","0.4","","","","","0.3028604286","0.6162755314","0.4056752737","0.7346150791","","","","","","","","","","76","L","3","","","204","main_expt",""
"","bandit","284","695542","0.0-246.0-0.0","28705153","wem/bandit_party_2","A2E3SM3T01ENIR","either","3","128","","","","","","","0","1","0","","0.7240623961","0.2","0.6","0.8","0.4","0.3714949669","0.6204906845","0.4174768156","0.7240623961","","","","","","","","","","","","","","76","L","3","","","205","main_expt",""
"","bandit","285","697238","0.0-247.0-0.0","28705153","wem/bandit_party_2","A2E3SM3T01ENIR","either","3","177","","","","","","","0","1","0","","0.733657826","0.2","0.6","0.8","0.4","0.3034865557","0.6390595606","0.4364097613","0.733657826","","","","","","","","","","","","","","76","L","3","","","206","main_expt",""
"","bandit","286","698870","0.0-248.0-0.0","28705153","wem/bandit_party_2","A2E3SM3T01ENIR","either","3","111","","","","","","","0","1","0","","0.6797091947","0.2","0.6","0.8","0.4","0.2688105372","0.6022157482","0.4666062126","0.6797091947","","","","","","","","","","","","","","76","L","3","","","207","main_expt",""
"","bandit","287","700630","0.0-249.0-0.0","28705153","wem/bandit_party_2","A2E3SM3T01ENIR","either","3","248","","","","","","","0","1","0","","0.472157919","0.2","0.6","0.8","0.4","0.2240001326","0.6598502583","0.4594719295","0.472157919","","","","","","","","","","","","","","76","L","3","","","208","main_expt",""
"","bandit","288","702302","0.0-250.0-0.0","28705153","wem/bandit_party_2","A2E3SM3T01ENIR","either","3","149","","","","","","","1","0","0","0.4993955773","","0.2","0.6","0.8","0.4","","","","","0.3284172364","0.6329069529","0.5415101973","0.4993955773","","","","","","","","","","76","L","3","","","209","main_expt",""
"","bandit","289","704143","0.0-251.0-0.0","28705153","wem/bandit_party_2","A2E3SM3T01ENIR","either","3","311","","","","","","","0","0","1","0.3923888982","","0.2","0.6","0.8","0.4","","","","","0.3178667136","0.5418549626","0.5627952802","0.3923888982","","","","","","","","","","76","L","3","","","210","main_expt",""
"","bandit","290","705732","0.0-252.0-0.0","28705153","wem/bandit_party_2","A2E3SM3T01ENIR","either","3","76","","","","","","","0","1","0","","0.4183885941","0.2","0.6","0.8","0.4","0.278360526","0.7265410197","0.5779033475","0.4183885941","","","","","","","","","","","","","","76","L","3","","","211","main_expt",""
"","bandit","291","707383","0.0-253.0-0.0","28705153","wem/bandit_party_2","A2E3SM3T01ENIR","either","3","127","","","","","","","0","1","0","","0.5367383083","0.2","0.6","0.8","0.4","0.2720231684","0.6550819281","0.6169713091","0.5367383083","","","","","","","","","","","","","","76","L","3","","","212","main_expt",""
"","bandit","292","709167","0.0-254.0-0.0","28705153","wem/bandit_party_2","A2E3SM3T01ENIR","either","3","260","","","","","","","0","0","1","0.5779451767","","0.2","0.6","0.8","0.4","","","","","0.3445332441","0.5812500281","0.5688165975","0.5779451767","","","","","","","","","","76","L","3","","","213","main_expt",""
"","bandit","293","710910","0.0-255.0-0.0","28705153","wem/bandit_party_2","A2E3SM3T01ENIR","either","3","225","","","","","","","1","0","0","0.5354690829","","0.2","0.6","0.8","0.4","","","","","0.331154659","0.6912727382","0.5354690829","0.5615700258","","","","","","","","","","75","K","2","","","214","main_expt",""
"","bandit","294","712519","0.0-256.0-0.0","28705153","wem/bandit_party_2","A2E3SM3T01ENIR","either","3","85","","","","","","","0","0","1","0.4395706401","","0.2","0.6","0.8","0.4","","","","","0.3168016653","0.695573978","0.4395706401","0.5361399643","","","","","","","","","","75","K","2","","","215","main_expt",""
"","bandit","295","714191","0.0-257.0-0.0","28705153","wem/bandit_party_2","A2E3SM3T01ENIR","either","3","150","","","","","","","1","0","0","0.6531454011","","0.2","0.6","0.8","0.4","","","","","0.2870858596","0.6531454011","0.4522294324","0.620750855","","","","","","","","","","74","J","1","","","216","main_expt",""
"","bandit","296","715776","0.0-258.0-0.0","28705153","wem/bandit_party_2","A2E3SM3T01ENIR","either","3","66","","","","","","","1","0","0","0.6459690495","","0.2","0.6","0.8","0.4","","","","","0.2877345098","0.6459690495","0.4141575353","0.4812239037","","","","","","","","","","74","J","1","","","217","main_expt",""
"","bandit","297","717494","0.0-259.0-0.0","28705153","wem/bandit_party_2","A2E3SM3T01ENIR","either","3","198","","","","","","","0","0","1","0.6679944541","","0.2","0.6","0.8","0.4","","","","","0.3608492067","0.6679944541","0.3009722504","0.4028497994","","","","","","","","","","74","J","1","","","218","main_expt",""
"","bandit","298","719102","0.0-260.0-0.0","28705153","wem/bandit_party_2","A2E3SM3T01ENIR","either","3","88","","","","","","","1","0","0","0.7159195147","","0.2","0.6","0.8","0.4","","","","","0.4380407461","0.7159195147","0.2706893249","0.4441021312","","","","","","","","","","74","J","1","","","219","main_expt",""
"","bandit","299","720799","0.0-261.0-0.0","28705153","wem/bandit_party_2","A2E3SM3T01ENIR","either","3","175","","","","","","","0","0","1","0.6874484601","","0.2","0.6","0.8","0.4","","","","","0.4769938592","0.6874484601","0.3821277721","0.4867825248","","","","","","","","","","74","J","1","","","220","main_expt",""
"","bandit","300","722511","0.0-262.0-0.0","28705153","wem/bandit_party_2","A2E3SM3T01ENIR","either","3","187","","","","","","","1","0","0","0.6528128226","","0.2","0.6","0.8","0.4","","","","","0.4612627877","0.6528128226","0.4534214389","0.5428062785","","","","","","","","","","74","J","1","","","221","main_expt",""
"","bandit","301","724042","0.0-263.0-0.0","28705153","wem/bandit_party_2","A2E3SM3T01ENIR","either","3","10","","","","","","","0","0","1","","0.6836467719","0.2","0.6","0.8","0.4","0.4192901336","0.6836467719","0.6049712458","0.5993321864","","","","","","","","","","","","","","74","J","1","","","222","main_expt",""
"","bandit","302","726053","0.0-264.0-0.0","28705153","wem/bandit_party_2","A2E3SM3T01ENIR","either","3","488","","","","","","","0","0","1","0.5559965486","","0.2","0.6","0.8","0.4","","","","","0.5559965486","0.7820879334","0.6389506418","0.4920604154","","","","","","","","","","72","H","0","img/none_selected.jpg","","223","main_expt",""
"","bandit","303","727886","0.0-265.0-0.0","28705153","wem/bandit_party_2","A2E3SM3T01ENIR","either","3","312","","","","","","","0","1","0","","0.6687933923","0.2","0.6","0.8","0.4","0.6687933923","0.763226653","0.6677375732","0.5344282052","","","","","","","","","","","","","","72","H","0","img/none_selected.jpg","","224","main_expt",""
"","bandit","304","729646","0.0-266.0-0.0","28705153","wem/bandit_party_2","A2E3SM3T01ENIR","either","3","248","","","","","","","0","0","1","0.5954484576","","0.2","0.6","0.8","0.4","","","","","0.5954484576","0.6931961842","0.7706853934","0.5583452501","","","","","","","","","","72","H","0","img/none_selected.jpg","","225","main_expt",""
"","bandit","305","731728","0.0-267.0-0.0","28705153","wem/bandit_party_2","A2E3SM3T01ENIR","either","3","558","","","","","","","0","0","1","0.6152447968","","0.2","0.6","0.8","0.4","","","","","0.6152447968","0.6633974694","0.7624197083","0.5126042404","","","","","","","","","","72","H","0","img/none_selected.jpg","","226","main_expt",""
"","bandit","306","733366","0.0-268.0-0.0","28705153","wem/bandit_party_2","A2E3SM3T01ENIR","either","3","118","","","","","","","1","0","0","0.5720595628","","0.2","0.6","0.8","0.4","","","","","0.6597553912","0.6567175756","0.7287840805","0.5720595628","","","","","","","","","","76","L","3","","","227","main_expt",""
"","bandit","307","735007","0.0-269.0-0.0","28705153","wem/bandit_party_2","A2E3SM3T01ENIR","either","3","119","","","","","","","1","0","0","0.6134710885","","0.2","0.6","0.8","0.4","","","","","0.594895186","0.6052730858","0.7993891034","0.6134710885","","","","","","","","","","76","L","3","","","228","main_expt",""
"","bandit","308","736757","0.0-270.0-0.0","28705153","wem/bandit_party_2","A2E3SM3T01ENIR","either","3","233","","","","","","","0","1","0","","0.5669106804","0.2","0.6","0.8","0.4","0.5722559027","0.5548990383","0.8374027748","0.5669106804","","","","","","","","","","","","","","76","L","3","","","229","main_expt",""
"","bandit","309","738566","0.0-271.0-0.0","28705153","wem/bandit_party_2","A2E3SM3T01ENIR","either","3","284","","","","","","","1","0","0","0.6286782819","","0.2","0.6","0.8","0.4","","","","","0.5409090622","0.6017114108","0.8414873787","0.6286782819","","","","","","","","","","76","L","3","","","230","main_expt",""
"","bandit","310","740344","0.0-272.0-0.0","28705153","wem/bandit_party_2","A2E3SM3T01ENIR","either","3","255","","","","","","","0","1","0","","0.5594948871","0.2","0.6","0.8","0.4","0.518727512","0.5525336349","0.8531648874","0.5594948871","","","","","","","","","","","","","","76","L","3","","","231","main_expt",""
"","bandit","311","742008","0.0-273.0-0.0","28705153","wem/bandit_party_2","A2E3SM3T01ENIR","either","3","151","","","","","","","0","1","0","","0.5817998964","0.2","0.6","0.8","0.4","0.5200298571","0.4493361955","0.8813812612","0.5817998964","","","","","","","","","","","","","","76","L","3","","","232","main_expt",""
"","bandit","312","743734","0.0-274.0-0.0","28705153","wem/bandit_party_2","A2E3SM3T01ENIR","either","3","204","","","","","","","1","0","0","0.5971875981","","0.2","0.6","0.8","0.4","","","","","0.4564343731","0.5280832246","0.8916766345","0.5971875981","","","","","","","","","","76","L","3","","","233","main_expt",""
"","bandit","313","745479","0.0-275.0-0.0","28705153","wem/bandit_party_2","A2E3SM3T01ENIR","either","3","221","","","","","","","0","0","1","0.5227237997","","0.2","0.6","0.8","0.4","","","","","0.4168065644","0.6814540918","0.842820862","0.5227237997","","","","","","","","","","76","L","3","","","234","main_expt",""
"","bandit","314","747094","0.0-276.0-0.0","28705153","wem/bandit_party_2","A2E3SM3T01ENIR","either","3","92","","","","","","","0","1","0","","0.6231997156","0.2","0.6","0.8","0.4","0.4340770274","0.5518959403","0.7856269381","0.6231997156","","","","","","","","","","","","","","76","L","3","","","235","main_expt",""
"","bandit","315","748911","0.0-277.0-0.0","28705153","wem/bandit_party_2","A2E3SM3T01ENIR","either","3","294","","","","","","","0","0","1","","0.558272317","0.2","0.6","0.8","0.4","0.4489205242","0.4965619817","0.8092971262","0.558272317","","","","","","","","","","","","","","76","L","3","","","236","main_expt",""
"","bandit","316","750697","0.0-278.0-0.0","28705153","wem/bandit_party_2","A2E3SM3T01ENIR","either","3","261","","","","","","","0","0","1","","0.6118965497","0.2","0.6","0.8","0.4","0.4838648791","0.4762879104","0.8125536838","0.6118965497","","","","","","","","","","","","","","76","L","3","","","237","main_expt",""
"","bandit","317","752271","0.0-279.0-0.0","28705153","wem/bandit_party_2","A2E3SM3T01ENIR","either","3","48","","","","","","","1","0","0","0.8684257659","","0.2","0.6","0.8","0.4","","","","","0.4615645545","0.4991976808","0.8684257659","0.7415542647","","","","","","","","","","75","K","2","","","238","main_expt",""
