"consent","trial_type","trial_index","time_elapsed","internal_node_id","subjID","study","MID","cond","drift","rt","responses","button_pressed","key_press","like","value","connected","gems","bombs","no_reward","GemPrChosen","BombPrChosen","GainOverPainPr_0","GainOverPainPr_1","GainOverPainPr_2","GainOverPainPr_3","LosePr_0","LosePr_1","LosePr_2","LosePr_3","WinPr_0","WinPr_1","WinPr_2","WinPr_3","Q0","Q1","Q2","gender","age","ethnicity","label","expt_phase","target","respCharCode","respKey","respChoiceNum","respChoice","practice","trial_counter","trial_label","Q0_index"
"GDM/GDM_behavioral_consent_30min_online.html","consent","0","22353","0.0-0.0","30870279","wem/bandit_party_2","A3A6O8L15PJO0I","either","3","","","","","","","","","","","","","","","","","","","","","","","","","","","","","","","","","","","","","","","","",""
"","survey-text","1","29189","0.0-1.0","30870279","wem/bandit_party_2","A3A6O8L15PJO0I","either","3","5815","{""Q0"":""A3A6O8L15PJO0I""}","","","","","","","","","","","","","","","","","","","","","","","","","","","","","","","","","","","","","","",""
"","button-response","2","33508","0.0-2.0","30870279","wem/bandit_party_2","A3A6O8L15PJO0I","either","3","3299","","0","","","","","","","","","","","","","","","","","","","","","","","","","","","","","","","","","","","","","",""
"","text-replacement","3","46482","0.0-3.0","30870279","wem/bandit_party_2","A3A6O8L15PJO0I","either","3","11971","","","32","","","","","","","","","","","","","","","","","","","","","","","","","","","","","","","","","","","","",""
"","text-replacement","4","53511","0.0-4.0","30870279","wem/bandit_party_2","A3A6O8L15PJO0I","either","3","7028","","","32","","","","","","","","","","","","","","","","","","","","","","","","","","","","","","","","","","","","",""
"","identification","5","61132","0.0-6.0-0.0","30870279","wem/bandit_party_2","A3A6O8L15PJO0I","either","3","7604","","","","2","2","2","","","","","","","","","","","","","","","","","","","","","","","","pre","identification_pre","the Republican Party","","","","","","","",""
"","identification","6","66977","0.0-6.0-1.0","30870279","wem/bandit_party_2","A3A6O8L15PJO0I","either","3","4821","","","","0","0","0","","","","","","","","","","","","","","","","","","","","","","","","pre","identification_pre","the Democratic Party","","","","","","","",""
"","text-replacement","7","75116","0.0-7.0","30870279","wem/bandit_party_2","A3A6O8L15PJO0I","either","3","7136","","","32","","","","","","","","","","","","","","","","","","","","","","","","","","","","","","","","","","","","",""
"","text-replacement","8","80594","0.0-8.0","30870279","wem/bandit_party_2","A3A6O8L15PJO0I","either","3","5474","","","32","","","","","","","","","","","","","","","","","","","","","","","","","","","","","","","","","","","","",""
"","text-replacement","9","87038","0.0-9.0","30870279","wem/bandit_party_2","A3A6O8L15PJO0I","either","3","6441","","","32","","","","","","","","","","","","","","","","","","","","","","","","","","","","","","","","","","","","",""
"","text-replacement","10","89971","0.0-10.0","30870279","wem/bandit_party_2","A3A6O8L15PJO0I","either","3","2931","","","32","","","","","","","","","","","","","","","","","","","","","","","","","","","","","","","","","","","","",""
"","text-replacement","11","94869","0.0-11.0","30870279","wem/bandit_party_2","A3A6O8L15PJO0I","either","3","4896","","","32","","","","","","","","","","","","","","","","","","","","","","","","","","","","","","","","","","","","",""
"","bandit","12","98777","0.0-12.0-0.0","30870279","wem/bandit_party_2","A3A6O8L15PJO0I","either","3","2394","","","","","","","0","0","1","0","0","","","","","0","","","","0","","","","","","","","","","","","","74","J","0","img/none_selected_demo.jpg","true","0","",""
"","bandit","13","102776","0.0-13.0-0.0","30870279","wem/bandit_party_2","A3A6O8L15PJO0I","either","3","2462","","","","","","","0","0","1","0","0","","","","","0","","","","0","","","","","","","","","","","","","75","K","0","img/none_selected_demo.jpg","true","0","",""
"","text-replacement","14","108784","0.0-14.0","30870279","wem/bandit_party_2","A3A6O8L15PJO0I","either","3","6006","","","32","","","","","","","","","","","","","","","","","","","","","","","","","","","","","","","","","","","","",""
"","text-replacement","15","114891","0.0-15.0","30870279","wem/bandit_party_2","A3A6O8L15PJO0I","either","3","6106","","","32","","","","","","","","","","","","","","","","","","","","","","","","","","","","","","","","","","","","",""
"","text-replacement","16","120535","0.0-16.0","30870279","wem/bandit_party_2","A3A6O8L15PJO0I","either","3","5643","","","32","","","","","","","","","","","","","","","","","","","","","","","","","","","","","","","","","","","","",""
"","text-replacement","17","124798","0.0-17.0","30870279","wem/bandit_party_2","A3A6O8L15PJO0I","either","3","4262","","","32","","","","","","","","","","","","","","","","","","","","","","","","","","","","","","","","","","","","",""
"","bandit","18","128031","0.0-18.0-0.0","30870279","wem/bandit_party_2","A3A6O8L15PJO0I","either","3","1701","","","","","","","1","0","0","0.8","","0.5","0.5","","","","","","","0.8","0.2","","","","","","","","","","","","74","J","0","img/none_selected_demo.jpg","true","0","80_20_practice",""
"","bandit","19","130120","0.0-18.0-1.0","30870279","wem/bandit_party_2","A3A6O8L15PJO0I","either","3","582","","","","","","","0","1","0","","0.8","0.5","0.5","","","0.8","0.2","","","","","","","","","","","","","","","","74","J","0","img/none_selected_demo.jpg","true","0","80_20_practice",""
"","bandit","20","133105","0.0-18.0-2.0","30870279","wem/bandit_party_2","A3A6O8L15PJO0I","either","3","1456","","","","","","","0","1","0","","0.8","0.5","0.5","","","0.8","0.2","","","","","","","","","","","","","","","","74","J","0","img/none_selected_demo.jpg","true","0","80_20_practice",""
"","bandit","21","135653","0.0-18.0-3.0","30870279","wem/bandit_party_2","A3A6O8L15PJO0I","either","3","1037","","","","","","","0","1","0","","0.2","0.5","0.5","","","0.8","0.2","","","","","","","","","","","","","","","","75","K","1","","true","0","80_20_practice",""
"","bandit","22","137774","0.0-18.0-4.0","30870279","wem/bandit_party_2","A3A6O8L15PJO0I","either","3","613","","","","","","","0","1","0","","0.2","0.5","0.5","","","0.8","0.2","","","","","","","","","","","","","","","","75","K","1","","true","0","80_20_practice",""
"","bandit","23","139724","0.0-18.0-5.0","30870279","wem/bandit_party_2","A3A6O8L15PJO0I","either","3","435","","","","","","","0","0","1","0.2","","0.5","0.5","","","","","","","0.8","0.2","","","","","","","","","","","","75","K","1","","true","0","80_20_practice",""
"","bandit","24","141319","0.0-18.0-6.0","30870279","wem/bandit_party_2","A3A6O8L15PJO0I","either","3","81","","","","","","","0","0","1","","0.2","0.5","0.5","","","0.8","0.2","","","","","","","","","","","","","","","","75","K","1","","true","0","80_20_practice",""
"","bandit","25","143137","0.0-18.0-7.0","30870279","wem/bandit_party_2","A3A6O8L15PJO0I","either","3","301","","","","","","","0","0","1","0.2","","0.5","0.5","","","","","","","0.8","0.2","","","","","","","","","","","","75","K","1","","true","0","80_20_practice",""
"","bandit","26","145021","0.0-18.0-8.0","30870279","wem/bandit_party_2","A3A6O8L15PJO0I","either","3","354","","","","","","","1","0","0","0.8","","0.5","0.5","","","","","","","0.8","0.2","","","","","","","","","","","","74","J","0","img/none_selected_demo.jpg","true","0","80_20_practice",""
"","bandit","27","147058","0.0-18.0-9.0","30870279","wem/bandit_party_2","A3A6O8L15PJO0I","either","3","516","","","","","","","1","0","0","0.8","","0.5","0.5","","","","","","","0.8","0.2","","","","","","","","","","","","74","J","0","img/none_selected_demo.jpg","true","0","80_20_practice",""
"","bandit","28","149046","0.0-18.0-10.0","30870279","wem/bandit_party_2","A3A6O8L15PJO0I","either","3","464","","","","","","","0","1","0","","0.8","0.5","0.5","","","0.8","0.2","","","","","","","","","","","","","","","","74","J","0","img/none_selected_demo.jpg","true","0","80_20_practice",""
"","bandit","29","150945","0.0-18.0-11.0","30870279","wem/bandit_party_2","A3A6O8L15PJO0I","either","3","388","","","","","","","0","0","1","0.8","","0.5","0.5","","","","","","","0.8","0.2","","","","","","","","","","","","74","J","0","img/none_selected_demo.jpg","true","0","80_20_practice",""
"","bandit","30","152613","0.0-18.0-12.0","30870279","wem/bandit_party_2","A3A6O8L15PJO0I","either","3","152","","","","","","","1","0","0","0.8","","0.5","0.5","","","","","","","0.8","0.2","","","","","","","","","","","","74","J","0","img/none_selected_demo.jpg","true","0","80_20_practice",""
"","bandit","31","154475","0.0-18.0-13.0","30870279","wem/bandit_party_2","A3A6O8L15PJO0I","either","3","352","","","","","","","0","0","1","","0.8","0.5","0.5","","","0.8","0.2","","","","","","","","","","","","","","","","74","J","0","img/none_selected_demo.jpg","true","0","80_20_practice",""
"","bandit","32","156315","0.0-18.0-14.0","30870279","wem/bandit_party_2","A3A6O8L15PJO0I","either","3","329","","","","","","","0","1","0","","0.8","0.5","0.5","","","0.8","0.2","","","","","","","","","","","","","","","","74","J","0","img/none_selected_demo.jpg","true","0","80_20_practice",""
"","bandit","33","158277","0.0-18.0-15.0","30870279","wem/bandit_party_2","A3A6O8L15PJO0I","either","3","453","","","","","","","1","0","0","0.8","","0.5","0.5","","","","","","","0.8","0.2","","","","","","","","","","","","74","J","0","img/none_selected_demo.jpg","true","0","80_20_practice",""
"","bandit","34","159849","0.0-18.0-16.0","30870279","wem/bandit_party_2","A3A6O8L15PJO0I","either","3","46","","","","","","","0","1","0","","0.8","0.5","0.5","","","0.8","0.2","","","","","","","","","","","","","","","","74","J","0","img/none_selected_demo.jpg","true","0","80_20_practice",""
"","bandit","35","162344","0.0-18.0-17.0","30870279","wem/bandit_party_2","A3A6O8L15PJO0I","either","3","978","","","","","","","0","1","0","","0.8","0.5","0.5","","","0.8","0.2","","","","","","","","","","","","","","","","74","J","0","img/none_selected_demo.jpg","true","0","80_20_practice",""
"","bandit","36","164223","0.0-18.0-18.0","30870279","wem/bandit_party_2","A3A6O8L15PJO0I","either","3","368","","","","","","","0","0","1","0.8","","0.5","0.5","","","","","","","0.8","0.2","","","","","","","","","","","","74","J","0","img/none_selected_demo.jpg","true","0","80_20_practice",""
"","bandit","37","166500","0.0-18.0-19.0","30870279","wem/bandit_party_2","A3A6O8L15PJO0I","either","3","769","","","","","","","0","0","1","","0.8","0.5","0.5","","","0.8","0.2","","","","","","","","","","","","","","","","74","J","0","img/none_selected_demo.jpg","true","0","80_20_practice",""
"","text-replacement","38","169805","0.0-19.0","30870279","wem/bandit_party_2","A3A6O8L15PJO0I","either","3","3303","","","32","","","","","","","","","","","","","","","","","","","","","","","","","","","","","","","","","","","","",""
"","bandit","39","172913","0.0-20.0-0.0","30870279","wem/bandit_party_2","A3A6O8L15PJO0I","either","3","1589","","","","","","","1","0","0","1","0","","","","","0","1","","","1","0","","","","","","","","","","","","74","J","0","img/none_selected_demo.jpg","true","0","",""
"","text-replacement","40","186829","0.0-21.0","30870279","wem/bandit_party_2","A3A6O8L15PJO0I","either","3","13915","","","32","","","","","","","","","","","","","","","","","","","","","","","","","","","","","","","","","","","","",""
"","text-replacement","41","190174","0.0-22.0","30870279","wem/bandit_party_2","A3A6O8L15PJO0I","either","3","3343","","","32","","","","","","","","","","","","","","","","","","","","","","","","","","","","","","","","","","","","",""
"","text-replacement","42","192311","0.0-23.0","30870279","wem/bandit_party_2","A3A6O8L15PJO0I","either","3","2135","","","32","","","","","","","","","","","","","","","","","","","","","","","","","","","","","","","","","","","","",""
"","text-replacement","43","194452","0.0-24.0","30870279","wem/bandit_party_2","A3A6O8L15PJO0I","either","3","2139","","","32","","","","","","","","","","","","","","","","","","","","","","","","","","","","","","","","","","","","",""
"","text-replacement","44","199166","0.0-25.0","30870279","wem/bandit_party_2","A3A6O8L15PJO0I","either","3","4713","","","32","","","","","","","","","","","","","","","","","","","","","","","","","","","","","","","","","","","","",""
"","text-replacement","45","201803","0.0-26.0","30870279","wem/bandit_party_2","A3A6O8L15PJO0I","either","3","2636","","","32","","","","","","","","","","","","","","","","","","","","","","","","","","","","","","","","","","","","",""
"","text-replacement","46","204624","0.0-27.0","30870279","wem/bandit_party_2","A3A6O8L15PJO0I","either","3","2819","","","32","","","","","","","","","","","","","","","","","","","","","","","","","","","","","","","","","","","","",""
"","text-replacement","47","207812","0.0-28.0","30870279","wem/bandit_party_2","A3A6O8L15PJO0I","either","3","3186","","","32","","","","","","","","","","","","","","","","","","","","","","","","","","","","","","","","","","","","",""
"","text-replacement","48","212327","0.0-29.0","30870279","wem/bandit_party_2","A3A6O8L15PJO0I","either","3","4514","","","32","","","","","","","","","","","","","","","","","","","","","","","","","","","","","","","","","","","","",""
"","text-replacement","49","213834","0.0-30.0","30870279","wem/bandit_party_2","A3A6O8L15PJO0I","either","3","1505","","","32","","","","","","","","","","","","","","","","","","","","","","","","","","","","","","","","","","","","",""
"","text-replacement","50","216060","0.0-31.0","30870279","wem/bandit_party_2","A3A6O8L15PJO0I","either","3","2224","","","32","","","","","","","","","","","","","","","","","","","","","","","","","","","","","","","","","","","","",""
"","bandit","51","219132","0.0-32.0-0.0","30870279","wem/bandit_party_2","A3A6O8L15PJO0I","either","3","1557","","","","","","","1","0","0","0.8","","0.5","0.5","0.5","0.5","","","","","0.8","0.2","0.6","0.2","","","","","","","","","","72","H","0","img/none_selected.jpg","true","0","full_practice",""
"","bandit","52","221465","0.0-32.0-1.0","30870279","wem/bandit_party_2","A3A6O8L15PJO0I","either","3","811","","","","","","","1","0","0","0.8","","0.5","0.5","0.5","0.5","","","","","0.8","0.2","0.6","0.2","","","","","","","","","","72","H","0","img/none_selected.jpg","true","0","full_practice",""
"","bandit","53","223858","0.0-32.0-2.0","30870279","wem/bandit_party_2","A3A6O8L15PJO0I","either","3","883","","","","","","","0","0","1","0.8","","0.5","0.5","0.5","0.5","","","","","0.8","0.2","0.6","0.2","","","","","","","","","","72","H","0","img/none_selected.jpg","true","0","full_practice",""
"","bandit","54","226226","0.0-32.0-3.0","30870279","wem/bandit_party_2","A3A6O8L15PJO0I","either","3","861","","","","","","","1","0","0","0.8","","0.5","0.5","0.5","0.5","","","","","0.8","0.2","0.6","0.2","","","","","","","","","","72","H","0","img/none_selected.jpg","true","0","full_practice",""
"","bandit","55","228378","0.0-32.0-4.0","30870279","wem/bandit_party_2","A3A6O8L15PJO0I","either","3","635","","","","","","","0","0","1","0.2","","0.5","0.5","0.5","0.5","","","","","0.8","0.2","0.6","0.2","","","","","","","","","","74","J","1","","true","0","full_practice",""
"","bandit","56","230312","0.0-32.0-5.0","30870279","wem/bandit_party_2","A3A6O8L15PJO0I","either","3","425","","","","","","","0","0","1","","0.2","0.5","0.5","0.5","0.5","0.8","0.2","0.6","0.2","","","","","","","","","","","","","","74","J","1","","true","0","full_practice",""
"","bandit","57","232363","0.0-32.0-6.0","30870279","wem/bandit_party_2","A3A6O8L15PJO0I","either","3","532","","","","","","","0","0","1","0.6","","0.5","0.5","0.5","0.5","","","","","0.8","0.2","0.6","0.2","","","","","","","","","","75","K","2","","true","0","full_practice",""
"","bandit","58","234394","0.0-32.0-7.0","30870279","wem/bandit_party_2","A3A6O8L15PJO0I","either","3","519","","","","","","","0","1","0","","0.6","0.5","0.5","0.5","0.5","0.8","0.2","0.6","0.2","","","","","","","","","","","","","","75","K","2","","true","0","full_practice",""
"","bandit","59","236690","0.0-32.0-8.0","30870279","wem/bandit_party_2","A3A6O8L15PJO0I","either","3","778","","","","","","","0","0","1","0.2","","0.5","0.5","0.5","0.5","","","","","0.8","0.2","0.6","0.2","","","","","","","","","","76","L","3","","true","0","full_practice",""
"","bandit","60","238589","0.0-32.0-9.0","30870279","wem/bandit_party_2","A3A6O8L15PJO0I","either","3","378","","","","","","","0","0","1","0.2","","0.5","0.5","0.5","0.5","","","","","0.8","0.2","0.6","0.2","","","","","","","","","","76","L","3","","true","0","full_practice",""
"","bandit","61","240593","0.0-32.0-10.0","30870279","wem/bandit_party_2","A3A6O8L15PJO0I","either","3","479","","","","","","","0","0","1","","0.6","0.5","0.5","0.5","0.5","0.8","0.2","0.6","0.2","","","","","","","","","","","","","","75","K","2","","true","0","full_practice",""
"","bandit","62","242575","0.0-32.0-11.0","30870279","wem/bandit_party_2","A3A6O8L15PJO0I","either","3","464","","","","","","","0","0","1","","0.8","0.5","0.5","0.5","0.5","0.8","0.2","0.6","0.2","","","","","","","","","","","","","","72","H","0","img/none_selected.jpg","true","0","full_practice",""
"","bandit","63","244420","0.0-32.0-12.0","30870279","wem/bandit_party_2","A3A6O8L15PJO0I","either","3","317","","","","","","","1","0","0","0.8","","0.5","0.5","0.5","0.5","","","","","0.8","0.2","0.6","0.2","","","","","","","","","","72","H","0","img/none_selected.jpg","true","0","full_practice",""
"","bandit","64","246582","0.0-32.0-13.0","30870279","wem/bandit_party_2","A3A6O8L15PJO0I","either","3","624","","","","","","","0","0","1","0.8","","0.5","0.5","0.5","0.5","","","","","0.8","0.2","0.6","0.2","","","","","","","","","","72","H","0","img/none_selected.jpg","true","0","full_practice",""
"","bandit","65","248909","0.0-32.0-14.0","30870279","wem/bandit_party_2","A3A6O8L15PJO0I","either","3","803","","","","","","","0","0","1","0.6","","0.5","0.5","0.5","0.5","","","","","0.8","0.2","0.6","0.2","","","","","","","","","","75","K","2","","true","0","full_practice",""
"","bandit","66","250592","0.0-32.0-15.0","30870279","wem/bandit_party_2","A3A6O8L15PJO0I","either","3","149","","","","","","","0","1","0","","0.6","0.5","0.5","0.5","0.5","0.8","0.2","0.6","0.2","","","","","","","","","","","","","","75","K","2","","true","0","full_practice",""
"","bandit","67","252667","0.0-32.0-16.0","30870279","wem/bandit_party_2","A3A6O8L15PJO0I","either","3","552","","","","","","","0","0","1","","0.6","0.5","0.5","0.5","0.5","0.8","0.2","0.6","0.2","","","","","","","","","","","","","","75","K","2","","true","0","full_practice",""
"","bandit","68","254851","0.0-32.0-17.0","30870279","wem/bandit_party_2","A3A6O8L15PJO0I","either","3","670","","","","","","","0","0","1","0.6","","0.5","0.5","0.5","0.5","","","","","0.8","0.2","0.6","0.2","","","","","","","","","","75","K","2","","true","0","full_practice",""
"","bandit","69","256724","0.0-32.0-18.0","30870279","wem/bandit_party_2","A3A6O8L15PJO0I","either","3","361","","","","","","","0","1","0","","0.6","0.5","0.5","0.5","0.5","0.8","0.2","0.6","0.2","","","","","","","","","","","","","","75","K","2","","true","0","full_practice",""
"","bandit","70","258977","0.0-32.0-19.0","30870279","wem/bandit_party_2","A3A6O8L15PJO0I","either","3","741","","","","","","","0","0","1","","0.6","0.5","0.5","0.5","0.5","0.8","0.2","0.6","0.2","","","","","","","","","","","","","","75","K","2","","true","0","full_practice",""
"","text","71","262359","0.0-33.0","30870279","wem/bandit_party_2","A3A6O8L15PJO0I","either","3","3378","","","32","","","","","","","","","","","","","","","","","","","","","","","","","","","","","","","","","","","","",""
"","text-replacement","72","272963","0.0-34.0","30870279","wem/bandit_party_2","A3A6O8L15PJO0I","either","3","9589","","","32","","","","","","","","","","","","","","","","","","","","","","","","","","","","","","","","","","","","",""
"","text-replacement","73","292349","0.0-35.0","30870279","wem/bandit_party_2","A3A6O8L15PJO0I","either","3","19383","","","32","","","","","","","","","","","","","","","","","","","","","","","","","","","","","","","","","","","","",""
"","text-replacement","74","309902","0.0-36.0","30870279","wem/bandit_party_2","A3A6O8L15PJO0I","either","3","17552","","","32","","","","","","","","","","","","","","","","","","","","","","","","","","","","","","","","","","","","",""
"","text-replacement","75","314664","0.0-37.0","30870279","wem/bandit_party_2","A3A6O8L15PJO0I","either","3","4760","","","32","","","","","","","","","","","","","","","","","","","","","","","","","","","","","","","","","","","","",""
"","text-replacement","76","319005","0.0-38.0","30870279","wem/bandit_party_2","A3A6O8L15PJO0I","either","3","4338","","","32","","","","","","","","","","","","","","","","","","","","","","","","","","","","","","","","","","","","",""
"","survey-multi-choice-replacement","77","326516","0.0-39.0-0.0","30870279","wem/bandit_party_2","A3A6O8L15PJO0I","either","3","7502","","","","","","","","","","","","","","","","","","","","","","","","Money will be added to the pool for <span style='color:red;'>REPUBLICANS</span>","","","","","","","attn_check","","","","","","","","","0"
"","survey-multi-choice-replacement","78","331512","0.0-40.0-0.0","30870279","wem/bandit_party_2","A3A6O8L15PJO0I","either","3","3985","","","","","","","","","","","","","","","","","","","","","","","","Equal amounts of money will be added to the pool for <span style='color:red;'>REPUBLICANS</span> and subtracted from the pool for <span style='color:blue;'>DEMOCRATS</span>","","","","","","","attn_check","","","","","","","","","2"
"","survey-multi-choice-replacement","79","336015","0.0-41.0-0.0","30870279","wem/bandit_party_2","A3A6O8L15PJO0I","either","3","3482","","","","","","","","","","","","","","","","","","","","","","","","No money will be added to either pool","","","","","","","attn_check","","","","","","","","","3"
"","bandit","80","340128","0.0-42.0-0.0","30870279","wem/bandit_party_2","A3A6O8L15PJO0I","either","3","1591","","","","","","","0","0","1","0.4261870849","","0.2","0.4","0.6","0.8","","","","","0.4261870849","0.6473934842","0.6494041588","0.1387034319","","","","","","","","","","72","H","0","img/none_selected.jpg","","1","main_expt",""
"","bandit","81","341878","0.0-43.0-0.0","30870279","wem/bandit_party_2","A3A6O8L15PJO0I","either","3","227","","","","","","","0","0","1","","0.3223101542","0.2","0.4","0.6","0.8","0.3223101542","0.5221866694","0.7608835745","0.2166337036","","","","","","","","","","","","","","72","H","0","img/none_selected.jpg","","2","main_expt",""
"","bandit","82","343651","0.0-44.0-0.0","30870279","wem/bandit_party_2","A3A6O8L15PJO0I","either","3","261","","","","","","","0","0","1","0.2541217019","","0.2","0.4","0.6","0.8","","","","","0.2541217019","0.5356292978","0.7745567172","0.3253899216","","","","","","","","","","72","H","0","img/none_selected.jpg","","3","main_expt",""
"","bandit","83","345759","0.0-45.0-0.0","30870279","wem/bandit_party_2","A3A6O8L15PJO0I","either","3","593","","","","","","","0","0","1","0.5154592071","","0.2","0.4","0.6","0.8","","","","","0.2272043942","0.5154592071","0.8315703218","0.3003293127","","","","","","","","","","74","J","1","","","4","main_expt",""
"","bandit","84","348036","0.0-46.0-0.0","30870279","wem/bandit_party_2","A3A6O8L15PJO0I","either","3","764","","","","","","","0","0","1","","0.4578896037","0.2","0.4","0.6","0.8","0.2967729676","0.4578896037","0.8380789219","0.3839660868","","","","","","","","","","","","","","74","J","1","","","5","main_expt",""
"","bandit","85","350019","0.0-47.0-0.0","30870279","wem/bandit_party_2","A3A6O8L15PJO0I","either","3","476","","","","","","","0","0","1","0.4825789634","","0.2","0.4","0.6","0.8","","","","","0.3211998527","0.4825789634","0.8233568153","0.3833463511","","","","","","","","","","74","J","1","","","6","main_expt",""
"","bandit","86","351928","0.0-48.0-0.0","30870279","wem/bandit_party_2","A3A6O8L15PJO0I","either","3","388","","","","","","","1","0","0","0.8672840292","","0.2","0.4","0.6","0.8","","","","","0.4190649117","0.4013658759","0.8672840292","0.3173395401","","","","","","","","","","75","K","2","","","7","main_expt",""
"","bandit","87","353838","0.0-49.0-0.0","30870279","wem/bandit_party_2","A3A6O8L15PJO0I","either","3","400","","","","","","","1","0","0","0.7921451217","","0.2","0.4","0.6","0.8","","","","","0.5253498774","0.3721769634","0.7921451217","0.3265190876","","","","","","","","","","75","K","2","","","8","main_expt",""
"","bandit","88","356024","0.0-50.0-0.0","30870279","wem/bandit_party_2","A3A6O8L15PJO0I","either","3","665","","","","","","","1","0","0","0.7826569337","","0.2","0.4","0.6","0.8","","","","","0.5552176016","0.3934089605","0.7826569337","0.4229840653","","","","","","","","","","75","K","2","","","9","main_expt",""
"","bandit","89","358042","0.0-51.0-0.0","30870279","wem/bandit_party_2","A3A6O8L15PJO0I","either","3","510","","","","","","","1","0","0","0.7150392401","","0.2","0.4","0.6","0.8","","","","","0.654745146","0.3360942297","0.7150392401","0.5107168356","","","","","","","","","","75","K","2","","","10","main_expt",""
"","bandit","90","360051","0.0-52.0-0.0","30870279","wem/bandit_party_2","A3A6O8L15PJO0I","either","3","489","","","","","","","0","1","0","","0.6906605055","0.2","0.4","0.6","0.8","0.6089063278","0.4969537907","0.6906605055","0.4383577931","","","","","","","","","","","","","","75","K","2","","","11","main_expt",""
"","bandit","91","362036","0.0-53.0-0.0","30870279","wem/bandit_party_2","A3A6O8L15PJO0I","either","3","473","","","","","","","0","0","1","","0.6725575113","0.2","0.4","0.6","0.8","0.559155858","0.4760264401","0.6725575113","0.5487148549","","","","","","","","","","","","","","75","K","2","","","12","main_expt",""
"","bandit","92","364105","0.0-54.0-0.0","30870279","wem/bandit_party_2","A3A6O8L15PJO0I","either","3","550","","","","","","","1","0","0","0.7404599176","","0.2","0.4","0.6","0.8","","","","","0.6464491645","0.4008761295","0.7404599176","0.7407599438","","","","","","","","","","75","K","2","","","13","main_expt",""
"","bandit","93","366207","0.0-55.0-0.0","30870279","wem/bandit_party_2","A3A6O8L15PJO0I","either","3","582","","","","","","","0","1","0","","0.6751607758","0.2","0.4","0.6","0.8","0.6936958995","0.358486362","0.6751607758","0.8307131687","","","","","","","","","","","","","","75","K","2","","","14","main_expt",""
"","bandit","94","367830","0.0-56.0-0.0","30870279","wem/bandit_party_2","A3A6O8L15PJO0I","either","3","99","","","","","","","0","0","1","","0.6115440925","0.2","0.4","0.6","0.8","0.731471075","0.395258373","0.6115440925","0.8114394421","","","","","","","","","","","","","","75","K","2","","","15","main_expt",""
"","bandit","95","1076854","0.0-57.0-0.0","30870279","wem/bandit_party_2","A3A6O8L15PJO0I","either","3","707495","","","","","","","1","0","0","0.7019001419","","0.2","0.4","0.6","0.8","","","","","0.6487541525","0.4197334966","0.7019001419","0.8242397169","","","","","","","","","","75","K","2","","","16","main_expt",""
"","bandit","96","1079018","0.0-58.0-0.0","30870279","wem/bandit_party_2","A3A6O8L15PJO0I","either","3","633","","","","","","","0","0","1","","0.7017998","0.2","0.4","0.6","0.8","0.7654634758","0.2160816064","0.7017998","0.8317633157","","","","","","","","","","","","","","75","K","2","","","17","main_expt",""
"","bandit","97","1081358","0.0-59.0-0.0","30870279","wem/bandit_party_2","A3A6O8L15PJO0I","either","3","811","","","","","","","1","0","0","0.7672473748","","0.2","0.4","0.6","0.8","","","","","0.7160830043","0.2058632209","0.7672473748","0.8158638682","","","","","","","","","","75","K","2","","","18","main_expt",""
"","bandit","98","1083331","0.0-60.0-0.0","30870279","wem/bandit_party_2","A3A6O8L15PJO0I","either","3","464","","","","","","","1","0","0","0.7950219121","","0.2","0.4","0.6","0.8","","","","","0.6856656502","0.2314559036","0.7950219121","0.8291878069","","","","","","","","","","75","K","2","","","19","main_expt",""
"","bandit","99","1085319","0.0-61.0-0.0","30870279","wem/bandit_party_2","A3A6O8L15PJO0I","either","3","477","","","","","","","1","0","0","0.8460513568","","0.2","0.4","0.6","0.8","","","","","0.6829400921","0.1762066147","0.8460513568","0.8665153398","","","","","","","","","","75","K","2","","","20","main_expt",""
"","bandit","100","1087306","0.0-62.0-0.0","30870279","wem/bandit_party_2","A3A6O8L15PJO0I","either","3","464","","","","","","","0","0","1","","0.8571228725","0.2","0.4","0.6","0.8","0.6849203215","0.150477598","0.8571228725","0.8181415858","","","","","","","","","","","","","","75","K","2","","","21","main_expt",""
"","bandit","101","1089454","0.0-63.0-0.0","30870279","wem/bandit_party_2","A3A6O8L15PJO0I","either","3","623","","","","","","","0","1","0","","0.8498483749","0.2","0.4","0.6","0.8","0.6832197831","0.1957635407","0.8498483749","0.7731960963","","","","","","","","","","","","","","75","K","2","","","22","main_expt",""
"","bandit","102","1091505","0.0-64.0-0.0","30870279","wem/bandit_party_2","A3A6O8L15PJO0I","either","3","527","","","","","","","1","0","0","0.887495535","","0.2","0.4","0.6","0.8","","","","","0.6103957523","0.2193187944","0.887495535","0.8004626553","","","","","","","","","","75","K","2","","","23","main_expt",""
"","bandit","103","1093559","0.0-65.0-0.0","30870279","wem/bandit_party_2","A3A6O8L15PJO0I","either","3","531","","","","","","","1","0","0","0.918231735","","0.2","0.4","0.6","0.8","","","","","0.5485819736","0.1836328706","0.918231735","0.7941911222","","","","","","","","","","75","K","2","","","24","main_expt",""
"","bandit","104","1095866","0.0-66.0-0.0","30870279","wem/bandit_party_2","A3A6O8L15PJO0I","either","3","796","","","","","","","0","1","0","","0.9111146318","0.2","0.4","0.6","0.8","0.5852935809","0.1410441375","0.9111146318","0.7100633829","","","","","","","","","","","","","","75","K","2","","","25","main_expt",""
"","bandit","105","1097936","0.0-67.0-0.0","30870279","wem/bandit_party_2","A3A6O8L15PJO0I","either","3","555","","","","","","","0","1","0","","0.9190640316","0.2","0.4","0.6","0.8","0.6097892937","0.1082593399","0.9190640316","0.6872129375","","","","","","","","","","","","","","75","K","2","","","26","main_expt",""
"","bandit","106","1100019","0.0-68.0-0.0","30870279","wem/bandit_party_2","A3A6O8L15PJO0I","either","3","569","","","","","","","0","1","0","","0.9372614837","0.2","0.4","0.6","0.8","0.6653335402","0.1042047793","0.9372614837","0.6798864795","","","","","","","","","","","","","","75","K","2","","","27","main_expt",""
"","bandit","107","1102158","0.0-69.0-0.0","30870279","wem/bandit_party_2","A3A6O8L15PJO0I","either","3","617","","","","","","","1","0","0","0.9269484959","","0.2","0.4","0.6","0.8","","","","","0.6850825106","0.1153509117","0.9269484959","0.6812343762","","","","","","","","","","75","K","2","","","28","main_expt",""
"","bandit","108","1104134","0.0-70.0-0.0","30870279","wem/bandit_party_2","A3A6O8L15PJO0I","either","3","459","","","","","","","1","0","0","0.9376772981","","0.2","0.4","0.6","0.8","","","","","0.7309016742","0.1601566248","0.9376772981","0.5305157647","","","","","","","","","","75","K","2","","","29","main_expt",""
"","bandit","109","1106717","0.0-71.0-0.0","30870279","wem/bandit_party_2","A3A6O8L15PJO0I","either","3","1054","","","","","","","1","0","0","0.8795505253","","0.2","0.4","0.6","0.8","","","","","0.8141980113","0.09548927903","0.8795505253","0.4713174284","","","","","","","","","","75","K","2","","","30","main_expt",""
"","bandit","110","1108757","0.0-72.0-0.0","30870279","wem/bandit_party_2","A3A6O8L15PJO0I","either","3","523","","","","","","","1","0","0","0.8605863748","","0.2","0.4","0.6","0.8","","","","","0.8926711601","0.09272353297","0.8605863748","0.2938490869","","","","","","","","","","75","K","2","","","31","main_expt",""
"","bandit","111","1110708","0.0-73.0-0.0","30870279","wem/bandit_party_2","A3A6O8L15PJO0I","either","3","438","","","","","","","1","0","0","0.757600507","","0.2","0.4","0.6","0.8","","","","","0.8397563013","0.09547929832","0.757600507","0.3005160425","","","","","","","","","","75","K","2","","","32","main_expt",""
"","bandit","112","1112711","0.0-74.0-0.0","30870279","wem/bandit_party_2","A3A6O8L15PJO0I","either","3","493","","","","","","","0","0","1","0.7257103923","","0.2","0.4","0.6","0.8","","","","","0.8251988787","0.08683876107","0.7257103923","0.3661211491","","","","","","","","","","75","K","2","","","33","main_expt",""
"","bandit","113","1114693","0.0-75.0-0.0","30870279","wem/bandit_party_2","A3A6O8L15PJO0I","either","3","472","","","","","","","0","0","1","0.5786815464","","0.2","0.4","0.6","0.8","","","","","0.7303528712","0.08117088791","0.5786815464","0.4614725573","","","","","","","","","","75","K","2","","","34","main_expt",""
"","bandit","114","1116713","0.0-76.0-0.0","30870279","wem/bandit_party_2","A3A6O8L15PJO0I","either","3","496","","","","","","","1","0","0","0.4812266686","","0.2","0.4","0.6","0.8","","","","","0.8093673003","0.09593582107","0.4812266686","0.4597324626","","","","","","","","","","75","K","2","","","35","main_expt",""
"","bandit","115","1118742","0.0-77.0-0.0","30870279","wem/bandit_party_2","A3A6O8L15PJO0I","either","3","518","","","","","","","0","0","1","","0.4459447539","0.2","0.4","0.6","0.8","0.79718131","0.1392988708","0.4459447539","0.4294742096","","","","","","","","","","","","","","75","K","2","","","36","main_expt",""
"","bandit","116","1120837","0.0-78.0-0.0","30870279","wem/bandit_party_2","A3A6O8L15PJO0I","either","3","574","","","","","","","1","0","0","0.5737218407","","0.2","0.4","0.6","0.8","","","","","0.8157762275","0.07673209605","0.5737218407","0.5301274199","","","","","","","","","","75","K","2","","","37","main_expt",""
"","bandit","117","1122909","0.0-79.0-0.0","30870279","wem/bandit_party_2","A3A6O8L15PJO0I","either","3","564","","","","","","","1","0","0","0.6008421093","","0.2","0.4","0.6","0.8","","","","","0.7941499978","0.1078843958","0.6008421093","0.5746889943","","","","","","","","","","75","K","2","","","38","main_expt",""
"","bandit","118","1124892","0.0-80.0-0.0","30870279","wem/bandit_party_2","A3A6O8L15PJO0I","either","3","473","","","","","","","0","1","0","","0.6076920036","0.2","0.4","0.6","0.8","0.7352357368","0.09731722171","0.6076920036","0.6621100331","","","","","","","","","","","","","","75","K","2","","","39","main_expt",""
"","bandit","119","1126855","0.0-81.0-0.0","30870279","wem/bandit_party_2","A3A6O8L15PJO0I","either","3","437","","","","","","","0","1","0","","0.6616622706","0.2","0.4","0.6","0.8","0.7920886563","0.2123509389","0.6616622706","0.6794361822","","","","","","","","","","","","","","75","K","2","","","40","main_expt",""
"","bandit","120","1128759","0.0-82.0-0.0","30870279","wem/bandit_party_2","A3A6O8L15PJO0I","either","3","367","","","","","","","1","0","0","0.6945341382","","0.2","0.4","0.6","0.8","","","","","0.8780543775","0.1265365425","0.6945341382","0.7140523024","","","","","","","","","","75","K","2","","","41","main_expt",""
"","bandit","121","1130753","0.0-83.0-0.0","30870279","wem/bandit_party_2","A3A6O8L15PJO0I","either","3","475","","","","","","","1","0","0","0.6833149102","","0.2","0.4","0.6","0.8","","","","","0.9167256642","0.166138795","0.6833149102","0.6669732994","","","","","","","","","","75","K","2","","","42","main_expt",""
"","bandit","122","1132691","0.0-84.0-0.0","30870279","wem/bandit_party_2","A3A6O8L15PJO0I","either","3","425","","","","","","","1","0","0","0.7094953576","","0.2","0.4","0.6","0.8","","","","","0.9407985187","0.1782339186","0.7094953576","0.5435093165","","","","","","","","","","75","K","2","","","43","main_expt",""
"","bandit","123","1134595","0.0-85.0-0.0","30870279","wem/bandit_party_2","A3A6O8L15PJO0I","either","3","371","","","","","","","0","1","0","","0.7519468023","0.2","0.4","0.6","0.8","0.9000978766","0.1342945815","0.7519468023","0.6002661395","","","","","","","","","","","","","","75","K","2","","","44","main_expt",""
"","bandit","124","1136846","0.0-86.0-0.0","30870279","wem/bandit_party_2","A3A6O8L15PJO0I","either","3","736","","","","","","","0","0","1","0.7673203249","","0.2","0.4","0.6","0.8","","","","","0.9190036262","0.09086288848","0.7673203249","0.5948203474","","","","","","","","","","75","K","2","","","45","main_expt",""
"","bandit","125","1139059","0.0-87.0-0.0","30870279","wem/bandit_party_2","A3A6O8L15PJO0I","either","3","704","","","","","","","1","0","0","0.722836051","","0.2","0.4","0.6","0.8","","","","","0.8865788656","0.06420934006","0.722836051","0.6230250108","","","","","","","","","","75","K","2","","","46","main_expt",""
"","bandit","126","1141473","0.0-88.0-0.0","30870279","wem/bandit_party_2","A3A6O8L15PJO0I","either","3","903","","","","","","","0","1","0","","0.7392487755","0.2","0.4","0.6","0.8","0.8207935484","0.02332738683","0.7392487755","0.7239235909","","","","","","","","","","","","","","75","K","2","","","47","main_expt",""
"","bandit","127","1143748","0.0-89.0-0.0","30870279","wem/bandit_party_2","A3A6O8L15PJO0I","either","3","759","","","","","","","0","0","1","","0.7551111279","0.2","0.4","0.6","0.8","0.8170742187","0.03517565614","0.7551111279","0.7715310514","","","","","","","","","","","","","","75","K","2","","","48","main_expt",""
"","bandit","128","1145641","0.0-90.0-0.0","30870279","wem/bandit_party_2","A3A6O8L15PJO0I","either","3","380","","","","","","","0","0","1","","0.6917772817","0.2","0.4","0.6","0.8","0.7874830355","0.04466115719","0.6917772817","0.822179592","","","","","","","","","","","","","","75","K","2","","","49","main_expt",""
"","bandit","129","1147616","0.0-91.0-0.0","30870279","wem/bandit_party_2","A3A6O8L15PJO0I","either","3","454","","","","","","","0","1","0","","0.6689959301","0.2","0.4","0.6","0.8","0.8279472521","0.05053383529","0.6689959301","0.8108951243","","","","","","","","","","","","","","75","K","2","","","50","main_expt",""
"","bandit","130","1149667","0.0-92.0-0.0","30870279","wem/bandit_party_2","A3A6O8L15PJO0I","either","3","540","","","","","","","1","0","0","0.6020608281","","0.2","0.4","0.6","0.8","","","","","0.8426817256","0.04681033125","0.6020608281","0.7649170446","","","","","","","","","","75","K","2","","","51","main_expt",""
"","bandit","131","1151864","0.0-93.0-0.0","30870279","wem/bandit_party_2","A3A6O8L15PJO0I","either","3","684","","","","","","","0","0","1","0.6583182673","","0.2","0.4","0.6","0.8","","","","","0.8377647656","0.09308222201","0.6583182673","0.8169848275","","","","","","","","","","75","K","2","","","52","main_expt",""
"","bandit","132","1153767","0.0-94.0-0.0","30870279","wem/bandit_party_2","A3A6O8L15PJO0I","either","3","383","","","","","","","0","0","1","","0.5419436754","0.2","0.4","0.6","0.8","0.8241398149","0.1397702629","0.5419436754","0.8843577791","","","","","","","","","","","","","","75","K","2","","","53","main_expt",""
"","bandit","133","1155632","0.0-95.0-0.0","30870279","wem/bandit_party_2","A3A6O8L15PJO0I","either","3","349","","","","","","","0","0","1","","0.5717614462","0.2","0.4","0.6","0.8","0.7289352116","0.110287685","0.5717614462","0.8854515068","","","","","","","","","","","","","","75","K","2","","","54","main_expt",""
"","bandit","134","1157440","0.0-96.0-0.0","30870279","wem/bandit_party_2","A3A6O8L15PJO0I","either","3","287","","","","","","","1","0","0","0.8884574585","","0.2","0.4","0.6","0.8","","","","","0.5895019519","0.1843384007","0.5497935615","0.8884574585","","","","","","","","","","76","L","3","","","55","main_expt",""
"","bandit","135","1159442","0.0-97.0-0.0","30870279","wem/bandit_party_2","A3A6O8L15PJO0I","either","3","480","","","","","","","1","0","0","0.8840911236","","0.2","0.4","0.6","0.8","","","","","0.4622464331","0.2056752237","0.4902645195","0.8840911236","","","","","","","","","","76","L","3","","","56","main_expt",""
"","bandit","136","1161351","0.0-98.0-0.0","30870279","wem/bandit_party_2","A3A6O8L15PJO0I","either","3","399","","","","","","","0","0","1","0.864283103","","0.2","0.4","0.6","0.8","","","","","0.490024734","0.3410726922","0.5258365243","0.864283103","","","","","","","","","","76","L","3","","","57","main_expt",""
"","bandit","137","1163226","0.0-99.0-0.0","30870279","wem/bandit_party_2","A3A6O8L15PJO0I","either","3","359","","","","","","","0","1","0","","0.7377821737","0.2","0.4","0.6","0.8","0.6182628796","0.3873695161","0.6097664349","0.7377821737","","","","","","","","","","","","","","76","L","3","","","58","main_expt",""
"","bandit","138","1165295","0.0-100.0-0.0","30870279","wem/bandit_party_2","A3A6O8L15PJO0I","either","3","552","","","","","","","1","0","0","0.7469541206","","0.2","0.4","0.6","0.8","","","","","0.6976829826","0.3281321534","0.6016711108","0.7469541206","","","","","","","","","","76","L","3","","","59","main_expt",""
"","bandit","139","1167279","0.0-101.0-0.0","30870279","wem/bandit_party_2","A3A6O8L15PJO0I","either","3","461","","","","","","","1","0","0","0.8019510571","","0.2","0.4","0.6","0.8","","","","","0.675433977","0.2380439254","0.5544917648","0.8019510571","","","","","","","","","","76","L","3","","","60","main_expt",""
"","bandit","140","1169242","0.0-102.0-0.0","30870279","wem/bandit_party_2","A3A6O8L15PJO0I","either","3","454","","","","","","","1","0","0","0.8943887388","","0.2","0.4","0.6","0.8","","","","","0.7206550838","0.2228222105","0.6842720067","0.8943887388","","","","","","","","","","76","L","3","","","61","main_expt",""
"","bandit","141","1171159","0.0-103.0-0.0","30870279","wem/bandit_party_2","A3A6O8L15PJO0I","either","3","398","","","","","","","1","0","0","0.8942973556","","0.2","0.4","0.6","0.8","","","","","0.7184677658","0.2489253665","0.6824345281","0.8942973556","","","","","","","","","","76","L","3","","","62","main_expt",""
"","bandit","142","1173133","0.0-104.0-0.0","30870279","wem/bandit_party_2","A3A6O8L15PJO0I","either","3","452","","","","","","","1","0","0","0.8829609874","","0.2","0.4","0.6","0.8","","","","","0.6785259816","0.2298237489","0.7321168219","0.8829609874","","","","","","","","","","76","L","3","","","63","main_expt",""
"","bandit","143","1175076","0.0-105.0-0.0","30870279","wem/bandit_party_2","A3A6O8L15PJO0I","either","3","420","","","","","","","1","0","0","0.8175344892","","0.2","0.4","0.6","0.8","","","","","0.6349383059","0.1849055857","0.8123013145","0.8175344892","","","","","","","","","","76","L","3","","","64","main_expt",""
"","bandit","144","1177576","0.0-106.0-0.0","30870279","wem/bandit_party_2","A3A6O8L15PJO0I","either","3","974","","","","","","","1","0","0","0.7812905168","","0.2","0.4","0.6","0.8","","","","","0.629769122","0.2285715909","0.8236121316","0.7812905168","","","","","","","","","","76","L","3","","","65","main_expt",""
"","bandit","145","1180023","0.0-107.0-0.0","30870279","wem/bandit_party_2","A3A6O8L15PJO0I","either","3","937","","","","","","","1","0","0","0.7848445355","","0.2","0.4","0.6","0.8","","","","","0.7158950816","0.2477643906","0.8270077233","0.7848445355","","","","","","","","","","76","L","3","","","66","main_expt",""
"","bandit","146","1181963","0.0-108.0-0.0","30870279","wem/bandit_party_2","A3A6O8L15PJO0I","either","3","423","","","","","","","0","1","0","","0.763143195","0.2","0.4","0.6","0.8","0.6309271871","0.1801078726","0.7601471472","0.763143195","","","","","","","","","","","","","","76","L","3","","","67","main_expt",""
"","bandit","147","1184024","0.0-109.0-0.0","30870279","wem/bandit_party_2","A3A6O8L15PJO0I","either","3","541","","","","","","","1","0","0","0.7966751536","","0.2","0.4","0.6","0.8","","","","","0.617221228","0.08479184886","0.7567750057","0.7966751536","","","","","","","","","","76","L","3","","","68","main_expt",""
"","bandit","148","1185874","0.0-110.0-0.0","30870279","wem/bandit_party_2","A3A6O8L15PJO0I","either","3","339","","","","","","","1","0","0","0.8534335227","","0.2","0.4","0.6","0.8","","","","","0.6235929763","0.06982522498","0.6871277649","0.8534335227","","","","","","","","","","76","L","3","","","69","main_expt",""
"","bandit","149","1187933","0.0-111.0-0.0","30870279","wem/bandit_party_2","A3A6O8L15PJO0I","either","3","539","","","","","","","1","0","0","0.8915498471","","0.2","0.4","0.6","0.8","","","","","0.5543620559","0.05029268469","0.773099018","0.8915498471","","","","","","","","","","76","L","3","","","70","main_expt",""
"","bandit","150","1189928","0.0-112.0-0.0","30870279","wem/bandit_party_2","A3A6O8L15PJO0I","either","3","481","","","","","","","1","0","0","0.8736989015","","0.2","0.4","0.6","0.8","","","","","0.5333999135","0.06413839938","0.7412476729","0.8736989015","","","","","","","","","","76","L","3","","","71","main_expt",""
"","bandit","151","1191780","0.0-113.0-0.0","30870279","wem/bandit_party_2","A3A6O8L15PJO0I","either","3","329","","","","","","","0","0","1","0.8837551658","","0.2","0.4","0.6","0.8","","","","","0.5905126671","0.05155778705","0.8080704968","0.8837551658","","","","","","","","","","76","L","3","","","72","main_expt",""
"","bandit","152","1193625","0.0-114.0-0.0","30870279","wem/bandit_party_2","A3A6O8L15PJO0I","either","3","325","","","","","","","1","0","0","0.8495494246","","0.2","0.4","0.6","0.8","","","","","0.6925119087","0.0232747386","0.8270016227","0.8495494246","","","","","","","","","","76","L","3","","","73","main_expt",""
"","bandit","153","1195890","0.0-115.0-0.0","30870279","wem/bandit_party_2","A3A6O8L15PJO0I","either","3","742","","","","","","","1","0","0","0.9127472651","","0.2","0.4","0.6","0.8","","","","","0.7134745341","0.04751547773","0.7872017979","0.9127472651","","","","","","","","","","76","L","3","","","74","main_expt",""
"","bandit","154","1197851","0.0-116.0-0.0","30870279","wem/bandit_party_2","A3A6O8L15PJO0I","either","3","440","","","","","","","1","0","0","0.9199060817","","0.2","0.4","0.6","0.8","","","","","0.8065440948","0.05282531612","0.6167225576","0.9199060817","","","","","","","","","","76","L","3","","","75","main_expt",""
"","bandit","155","1199826","0.0-117.0-0.0","30870279","wem/bandit_party_2","A3A6O8L15PJO0I","either","3","456","","","","","","","1","0","0","0.8691294168","","0.2","0.4","0.6","0.8","","","","","0.7849172319","0.08738729654","0.637182095","0.8691294168","","","","","","","","","","76","L","3","","","76","main_expt",""
"","bandit","156","1201810","0.0-118.0-0.0","30870279","wem/bandit_party_2","A3A6O8L15PJO0I","either","3","449","","","","","","","1","0","0","0.9111329321","","0.2","0.4","0.6","0.8","","","","","0.7818962729","0.08851312664","0.7169911294","0.9111329321","","","","","","","","","","76","L","3","","","77","main_expt",""
"","bandit","157","1204151","0.0-119.0-0.0","30870279","wem/bandit_party_2","A3A6O8L15PJO0I","either","3","812","","","","","","","1","0","0","0.9286966754","","0.2","0.4","0.6","0.8","","","","","0.7002933386","0.145228539","0.7446448061","0.9286966754","","","","","","","","","","76","L","3","","","78","main_expt",""
"","bandit","158","1206235","0.0-120.0-0.0","30870279","wem/bandit_party_2","A3A6O8L15PJO0I","either","3","566","","","","","","","0","1","0","","0.9616021792","0.2","0.4","0.6","0.8","0.6510109529","0.1669860915","0.8152221547","0.9616021792","","","","","","","","","","","","","","76","L","3","","","79","main_expt",""
"","bandit","159","1208016","0.0-121.0-0.0","30870279","wem/bandit_party_2","A3A6O8L15PJO0I","either","3","260","","","","","","","1","0","0","0.950571795","","0.2","0.4","0.6","0.8","","","","","0.6765614865","0.1922913003","0.810351938","0.950571795","","","","","","","","","","76","L","3","","","80","main_expt",""
"","bandit","160","1210074","0.0-122.0-0.0","30870279","wem/bandit_party_2","A3A6O8L15PJO0I","either","3","523","","","","","","","1","0","0","0.9331160128","","0.2","0.4","0.6","0.8","","","","","0.5908869344","0.2407870914","0.8895110989","0.9331160128","","","","","","","","","","76","L","3","","","81","main_expt",""
"","bandit","161","1212359","0.0-123.0-0.0","30870279","wem/bandit_party_2","A3A6O8L15PJO0I","either","3","766","","","","","","","0","1","0","","0.9465986336","0.2","0.4","0.6","0.8","0.5267531711","0.3077898034","0.9046816681","0.9465986336","","","","","","","","","","","","","","76","L","3","","","82","main_expt",""
"","bandit","162","1214496","0.0-124.0-0.0","30870279","wem/bandit_party_2","A3A6O8L15PJO0I","either","3","622","","","","","","","0","1","0","","0.9371159138","0.2","0.4","0.6","0.8","0.6168373964","0.2337579628","0.8465278631","0.9371159138","","","","","","","","","","","","","","76","L","3","","","83","main_expt",""
"","bandit","163","1217358","0.0-125.0-0.0","30870279","wem/bandit_party_2","A3A6O8L15PJO0I","either","3","1348","","","","","","","1","0","0","0.8998840018","","0.2","0.4","0.6","0.8","","","","","0.5733990252","0.2781329454","0.7584930438","0.8998840018","","","","","","","","","","76","L","3","","","84","main_expt",""
"","bandit","164","1219341","0.0-126.0-0.0","30870279","wem/bandit_party_2","A3A6O8L15PJO0I","either","3","472","","","","","","","1","0","0","0.9102188985","","0.2","0.4","0.6","0.8","","","","","0.4719695616","0.3013149798","0.7727946294","0.9102188985","","","","","","","","","","76","L","3","","","85","main_expt",""
"","bandit","165","1221361","0.0-127.0-0.0","30870279","wem/bandit_party_2","A3A6O8L15PJO0I","either","3","494","","","","","","","1","0","0","0.9000055418","","0.2","0.4","0.6","0.8","","","","","0.6941651786","0.3231836659","0.8216594778","0.9000055418","","","","","","","","","","76","L","3","","","86","main_expt",""
"","bandit","166","1223622","0.0-128.0-0.0","30870279","wem/bandit_party_2","A3A6O8L15PJO0I","either","3","739","","","","","","","1","0","0","0.8563468124","","0.2","0.4","0.6","0.8","","","","","0.5408952125","0.3986379136","0.7833884788","0.8563468124","","","","","","","","","","76","L","3","","","87","main_expt",""
"","bandit","167","1226031","0.0-129.0-0.0","30870279","wem/bandit_party_2","A3A6O8L15PJO0I","either","3","894","","","","","","","0","1","0","","0.7349543302","0.2","0.4","0.6","0.8","0.5438891422","0.4230151841","0.7804426693","0.7349543302","","","","","","","","","","","","","","76","L","3","","","88","main_expt",""
"","bandit","168","1228692","0.0-130.0-0.0","30870279","wem/bandit_party_2","A3A6O8L15PJO0I","either","3","1137","","","","","","","1","0","0","0.7907967515","","0.2","0.4","0.6","0.8","","","","","0.4294971294","0.3761858397","0.7930928848","0.7907967515","","","","","","","","","","76","L","3","","","89","main_expt",""
"","bandit","169","1230466","0.0-131.0-0.0","30870279","wem/bandit_party_2","A3A6O8L15PJO0I","either","3","250","","","","","","","1","0","0","0.7883246469","","0.2","0.4","0.6","0.8","","","","","0.4928337868","0.4799086841","0.7683039237","0.7883246469","","","","","","","","","","76","L","3","","","90","main_expt",""
"","bandit","170","1232575","0.0-132.0-0.0","30870279","wem/bandit_party_2","A3A6O8L15PJO0I","either","3","585","","","","","","","1","0","0","0.8389096604","","0.2","0.4","0.6","0.8","","","","","0.5655090935","0.4558425901","0.8072091422","0.8389096604","","","","","","","","","","76","L","3","","","91","main_expt",""
"","bandit","171","1234447","0.0-133.0-0.0","30870279","wem/bandit_party_2","A3A6O8L15PJO0I","either","3","358","","","","","","","1","0","0","0.8064187158","","0.2","0.4","0.6","0.8","","","","","0.6154818033","0.3781515597","0.7791444337","0.8064187158","","","","","","","","","","76","L","3","","","92","main_expt",""
"","bandit","172","1236530","0.0-134.0-0.0","30870279","wem/bandit_party_2","A3A6O8L15PJO0I","either","3","572","","","","","","","1","0","0","0.7542368763","","0.2","0.4","0.6","0.8","","","","","0.7381217307","0.2858753042","0.8498372391","0.7542368763","","","","","","","","","","76","L","3","","","93","main_expt",""
"","bandit","173","1238406","0.0-135.0-0.0","30870279","wem/bandit_party_2","A3A6O8L15PJO0I","either","3","357","","","","","","","0","1","0","","0.6932487021","0.2","0.4","0.6","0.8","0.7776388333","0.3914428564","0.8440610374","0.6932487021","","","","","","","","","","","","","","76","L","3","","","94","main_expt",""
"","bandit","174","1240279","0.0-136.0-0.0","30870279","wem/bandit_party_2","A3A6O8L15PJO0I","either","3","358","","","","","","","1","0","0","0.6706070003","","0.2","0.4","0.6","0.8","","","","","0.8299152283","0.3800018616","0.8092418145","0.6706070003","","","","","","","","","","76","L","3","","","95","main_expt",""
"","bandit","175","1242377","0.0-137.0-0.0","30870279","wem/bandit_party_2","A3A6O8L15PJO0I","either","3","571","","","","","","","1","0","0","0.6670251336","","0.2","0.4","0.6","0.8","","","","","0.7697811485","0.3078584031","0.8655172998","0.6670251336","","","","","","","","","","76","L","3","","","96","main_expt",""
"","bandit","176","1244325","0.0-138.0-0.0","30870279","wem/bandit_party_2","A3A6O8L15PJO0I","either","3","440","","","","","","","1","0","0","0.7023758817","","0.2","0.4","0.6","0.8","","","","","0.7487724405","0.218486712","0.8735151232","0.7023758817","","","","","","","","","","76","L","3","","","97","main_expt",""
"","bandit","177","1246288","0.0-139.0-0.0","30870279","wem/bandit_party_2","A3A6O8L15PJO0I","either","3","433","","","","","","","1","0","0","0.7036518389","","0.2","0.4","0.6","0.8","","","","","0.7450583294","0.2037628256","0.84409386","0.7036518389","","","","","","","","","","76","L","3","","","98","main_expt",""
"","bandit","178","1248191","0.0-140.0-0.0","30870279","wem/bandit_party_2","A3A6O8L15PJO0I","either","3","383","","","","","","","1","0","0","0.8401346726","","0.2","0.4","0.6","0.8","","","","","0.7227120129","0.2400196326","0.8089648913","0.8401346726","","","","","","","","","","76","L","3","","","99","main_expt",""
"","bandit","179","1250316","0.0-141.0-0.0","30870279","wem/bandit_party_2","A3A6O8L15PJO0I","either","3","616","","","","","","","1","0","0","0.8640782416","","0.2","0.4","0.6","0.8","","","","","0.5872141049","0.3298222115","0.7259557377","0.8640782416","","","","","","","","","","76","L","3","","","100","main_expt",""
"","bandit","180","1253423","0.0-142.0-0.0","30870279","wem/bandit_party_2","A3A6O8L15PJO0I","either","3","1596","","","","","","","1","0","0","0.8232172207","","0.2","0.4","0.6","0.8","","","","","0.6432213136","0.3108047587","0.6332869741","0.8232172207","","","","","","","","","","76","L","3","","","101","main_expt",""
"","bandit","181","1255777","0.0-143.0-0.0","30870279","wem/bandit_party_2","A3A6O8L15PJO0I","either","3","832","","","","","","","1","0","0","0.8451901448","","0.2","0.4","0.6","0.8","","","","","0.6009476408","0.2869381514","0.659443461","0.8451901448","","","","","","","","","","76","L","3","","","102","main_expt",""
"","bandit","182","1258600","0.0-144.0-0.0","30870279","wem/bandit_party_2","A3A6O8L15PJO0I","either","3","1316","","","","","","","1","0","0","0.8792283932","","0.2","0.4","0.6","0.8","","","","","0.6120105745","0.246485708","0.5959971703","0.8792283932","","","","","","","","","","76","L","3","","","103","main_expt",""
"","bandit","183","1261017","0.0-145.0-0.0","30870279","wem/bandit_party_2","A3A6O8L15PJO0I","either","3","891","","","","","","","1","0","0","0.8887181638","","0.2","0.4","0.6","0.8","","","","","0.6821098495","0.2175667678","0.5643630141","0.8887181638","","","","","","","","","","76","L","3","","","104","main_expt",""
"","bandit","184","1263590","0.0-146.0-0.0","30870279","wem/bandit_party_2","A3A6O8L15PJO0I","either","3","1059","","","","","","","1","0","0","0.8013578166","","0.2","0.4","0.6","0.8","","","","","0.7228510016","0.2645808036","0.5489079514","0.8013578166","","","","","","","","","","76","L","3","","","105","main_expt",""
"","bandit","185","1265690","0.0-147.0-0.0","30870279","wem/bandit_party_2","A3A6O8L15PJO0I","either","3","576","","","","","","","1","0","0","0.7307006529","","0.2","0.4","0.6","0.8","","","","","0.6639212405","0.2652424516","0.4336033326","0.7307006529","","","","","","","","","","76","L","3","","","106","main_expt",""
"","bandit","186","1268403","0.0-148.0-0.0","30870279","wem/bandit_party_2","A3A6O8L15PJO0I","either","3","1196","","","","","","","1","0","0","0.7519500851","","0.2","0.4","0.6","0.8","","","","","0.6237034742","0.2481661544","0.4779201531","0.7519500851","","","","","","","","","","76","L","3","","","107","main_expt",""
"","bandit","187","1271828","0.0-149.0-0.0","30870279","wem/bandit_party_2","A3A6O8L15PJO0I","either","3","1907","","","","","","","1","0","0","0.7457577851","","0.2","0.4","0.6","0.8","","","","","0.5847293191","0.2361720859","0.5075294874","0.7457577851","","","","","","","","","","76","L","3","","","108","main_expt",""
"","bandit","188","1273811","0.0-150.0-0.0","30870279","wem/bandit_party_2","A3A6O8L15PJO0I","either","3","462","","","","","","","1","0","0","0.77583868","","0.2","0.4","0.6","0.8","","","","","0.6260859175","0.2799679389","0.522842385","0.77583868","","","","","","","","","","76","L","3","","","109","main_expt",""
"","bandit","189","1275689","0.0-151.0-0.0","30870279","wem/bandit_party_2","A3A6O8L15PJO0I","either","3","363","","","","","","","1","0","0","0.7520827962","","0.2","0.4","0.6","0.8","","","","","0.4788227383","0.3333098602","0.419893696","0.7520827962","","","","","","","","","","76","L","3","","","110","main_expt",""
"","bandit","190","1278838","0.0-152.0-0.0","30870279","wem/bandit_party_2","A3A6O8L15PJO0I","either","3","1625","","","","","","","0","0","1","0.6512809768","","0.2","0.4","0.6","0.8","","","","","0.6019778282","0.3669732535","0.431092028","0.6512809768","","","","","","","","","","76","L","3","","","111","main_expt",""
"","bandit","191","1280833","0.0-153.0-0.0","30870279","wem/bandit_party_2","A3A6O8L15PJO0I","either","3","467","","","","","","","0","0","1","0.5891937939","","0.2","0.4","0.6","0.8","","","","","0.546445977","0.389765336","0.3590071368","0.5891937939","","","","","","","","","","76","L","3","","","112","main_expt",""
"","bandit","192","1282778","0.0-154.0-0.0","30870279","wem/bandit_party_2","A3A6O8L15PJO0I","either","3","425","","","","","","","0","1","0","","0.6490525038","0.2","0.4","0.6","0.8","0.6256092846","0.3191506652","0.4498419114","0.6490525038","","","","","","","","","","","","","","76","L","3","","","113","main_expt",""
"","bandit","193","1284682","0.0-155.0-0.0","30870279","wem/bandit_party_2","A3A6O8L15PJO0I","either","3","377","","","","","","","0","0","1","0.6283680234","","0.2","0.4","0.6","0.8","","","","","0.6577617598","0.2090321438","0.4829831469","0.6283680234","","","","","","","","","","76","L","3","","","114","main_expt",""
"","bandit","194","1286519","0.0-156.0-0.0","30870279","wem/bandit_party_2","A3A6O8L15PJO0I","either","3","315","","","","","","","0","0","1","0.6064224059","","0.2","0.4","0.6","0.8","","","","","0.7140476354","0.2094439124","0.4846695964","0.6064224059","","","","","","","","","","76","L","3","","","115","main_expt",""
"","bandit","195","1288414","0.0-157.0-0.0","30870279","wem/bandit_party_2","A3A6O8L15PJO0I","either","3","386","","","","","","","0","0","1","0.545813367","","0.2","0.4","0.6","0.8","","","","","0.6589976567","0.2695181069","0.5396909338","0.545813367","","","","","","","","","","76","L","3","","","116","main_expt",""
"","bandit","196","1290478","0.0-158.0-0.0","30870279","wem/bandit_party_2","A3A6O8L15PJO0I","either","3","552","","","","","","","0","0","1","","0.3402036285","0.2","0.4","0.6","0.8","0.6937703341","0.3402036285","0.5378282835","0.5179373022","","","","","","","","","","","","","","74","J","1","","","117","main_expt",""
"","bandit","197","1292257","0.0-159.0-0.0","30870279","wem/bandit_party_2","A3A6O8L15PJO0I","either","3","256","","","","","","","0","1","0","","0.3101634078","0.2","0.4","0.6","0.8","0.77114399","0.3101634078","0.5729988564","0.4014157923","","","","","","","","","","","","","","74","J","1","","","118","main_expt",""
"","bandit","198","1294378","0.0-160.0-0.0","30870279","wem/bandit_party_2","A3A6O8L15PJO0I","either","3","612","","","","","","","0","0","1","","0.3242193616","0.2","0.4","0.6","0.8","0.710000291","0.3242193616","0.5630251564","0.4360264599","","","","","","","","","","","","","","74","J","1","","","119","main_expt",""
"","bandit","199","1296346","0.0-161.0-0.0","30870279","wem/bandit_party_2","A3A6O8L15PJO0I","either","3","448","","","","","","","0","0","1","","0.3334277272","0.2","0.4","0.6","0.8","0.6767982245","0.3334277272","0.6482115929","0.3297853269","","","","","","","","","","","","","","74","J","1","","","120","main_expt",""
"","bandit","200","1298342","0.0-162.0-0.0","30870279","wem/bandit_party_2","A3A6O8L15PJO0I","either","3","486","","","","","","","0","0","1","","0.4066521311","0.2","0.4","0.6","0.8","0.7360115258","0.4066521311","0.5688505083","0.3767442019","","","","","","","","","","","","","","74","J","1","","","121","main_expt",""
"","bandit","201","1300103","0.0-163.0-0.0","30870279","wem/bandit_party_2","A3A6O8L15PJO0I","either","3","243","","","","","","","0","1","0","","0.7258716992","0.2","0.4","0.6","0.8","0.7258716992","0.5193034213","0.5349597204","0.3589515546","","","","","","","","","","","","","","72","H","0","img/none_selected.jpg","","122","main_expt",""
"","bandit","202","1304315","0.0-164.0-0.0","30870279","wem/bandit_party_2","A3A6O8L15PJO0I","either","3","2698","","","","","","","0","1","0","","0.7848203729","0.2","0.4","0.6","0.8","0.7848203729","0.5594962391","0.412887176","0.3461890545","","","","","","","","","","","","","","72","H","0","img/none_selected.jpg","","123","main_expt",""
"","bandit","203","1307304","0.0-165.0-0.0","30870279","wem/bandit_party_2","A3A6O8L15PJO0I","either","3","1479","","","","","","","0","1","0","","0.7673004895","0.2","0.4","0.6","0.8","0.7673004895","0.6876014299","0.4137060999","0.2287340519","","","","","","","","","","","","","","72","H","0","img/none_selected.jpg","","124","main_expt",""
"","bandit","204","1309445","0.0-166.0-0.0","30870279","wem/bandit_party_2","A3A6O8L15PJO0I","either","3","628","","","","","","","0","0","1","","0.8020703208","0.2","0.4","0.6","0.8","0.8020703208","0.7354493796","0.3226696341","0.2900718705","","","","","","","","","","","","","","72","H","0","img/none_selected.jpg","","125","main_expt",""
"","bandit","205","1311354","0.0-167.0-0.0","30870279","wem/bandit_party_2","A3A6O8L15PJO0I","either","3","396","","","","","","","1","0","0","0.8196031782","","0.2","0.4","0.6","0.8","","","","","0.8196031782","0.76840964","0.3904211026","0.2880997441","","","","","","","","","","72","H","0","img/none_selected.jpg","","126","main_expt",""
"","bandit","206","1313389","0.0-168.0-0.0","30870279","wem/bandit_party_2","A3A6O8L15PJO0I","either","3","502","","","","","","","0","1","0","","0.7095492128","0.2","0.4","0.6","0.8","0.7095492128","0.7310750685","0.4227014292","0.3451069126","","","","","","","","","","","","","","72","H","0","img/none_selected.jpg","","127","main_expt",""
"","bandit","207","1315723","0.0-169.0-0.0","30870279","wem/bandit_party_2","A3A6O8L15PJO0I","either","3","815","","","","","","","1","0","0","0.711577854","","0.2","0.4","0.6","0.8","","","","","0.711577854","0.6582635175","0.543317668","0.3129298861","","","","","","","","","","72","H","0","img/none_selected.jpg","","128","main_expt",""
"","bandit","208","1317746","0.0-170.0-0.0","30870279","wem/bandit_party_2","A3A6O8L15PJO0I","either","3","505","","","","","","","1","0","0","0.7022761705","","0.2","0.4","0.6","0.8","","","","","0.7022761705","0.7529887683","0.5906282681","0.3507055597","","","","","","","","","","72","H","0","img/none_selected.jpg","","129","main_expt",""
"","bandit","209","1319909","0.0-171.0-0.0","30870279","wem/bandit_party_2","A3A6O8L15PJO0I","either","3","645","","","","","","","0","1","0","","0.7309419319","0.2","0.4","0.6","0.8","0.7309419319","0.7929301986","0.6636268631","0.3753424236","","","","","","","","","","","","","","72","H","0","img/none_selected.jpg","","130","main_expt",""
"","bandit","210","1321835","0.0-172.0-0.0","30870279","wem/bandit_party_2","A3A6O8L15PJO0I","either","3","414","","","","","","","0","1","0","","0.6904825683","0.2","0.4","0.6","0.8","0.6904825683","0.8149544693","0.5686699027","0.3473486375","","","","","","","","","","","","","","72","H","0","img/none_selected.jpg","","131","main_expt",""
"","bandit","211","1323960","0.0-173.0-0.0","30870279","wem/bandit_party_2","A3A6O8L15PJO0I","either","3","616","","","","","","","0","1","0","","0.7153166113","0.2","0.4","0.6","0.8","0.7153166113","0.7626544417","0.6564012045","0.303679922","","","","","","","","","","","","","","72","H","0","img/none_selected.jpg","","132","main_expt",""
"","bandit","212","1326158","0.0-174.0-0.0","30870279","wem/bandit_party_2","A3A6O8L15PJO0I","either","3","686","","","","","","","0","1","0","","0.8135501627","0.2","0.4","0.6","0.8","0.8135501627","0.7584501248","0.5876654864","0.3385565331","","","","","","","","","","","","","","72","H","0","img/none_selected.jpg","","133","main_expt",""
"","bandit","213","1328230","0.0-175.0-0.0","30870279","wem/bandit_party_2","A3A6O8L15PJO0I","either","3","536","","","","","","","0","1","0","","0.7707892239","0.2","0.4","0.6","0.8","0.7707892239","0.7905015291","0.5299368298","0.3686406913","","","","","","","","","","","","","","72","H","0","img/none_selected.jpg","","134","main_expt",""
"","bandit","214","1330393","0.0-176.0-0.0","30870279","wem/bandit_party_2","A3A6O8L15PJO0I","either","3","650","","","","","","","0","0","1","","0.7689088841","0.2","0.4","0.6","0.8","0.7689088841","0.7515189777","0.4547966061","0.3672202126","","","","","","","","","","","","","","72","H","0","img/none_selected.jpg","","135","main_expt",""
"","bandit","215","1332016","0.0-177.0-0.0","30870279","wem/bandit_party_2","A3A6O8L15PJO0I","either","3","112","","","","","","","0","1","0","","0.6641324257","0.2","0.4","0.6","0.8","0.6641324257","0.7293518859","0.5290841583","0.4064769993","","","","","","","","","","","","","","72","H","0","img/none_selected.jpg","","136","main_expt",""
"","bandit","216","1334610","0.0-178.0-0.0","30870279","wem/bandit_party_2","A3A6O8L15PJO0I","either","3","1086","","","","","","","0","1","0","","0.635388201","0.2","0.4","0.6","0.8","0.635388201","0.7286216209","0.419904672","0.3492503667","","","","","","","","","","","","","","72","H","0","img/none_selected.jpg","","137","main_expt",""
"","bandit","217","1337517","0.0-179.0-0.0","30870279","wem/bandit_party_2","A3A6O8L15PJO0I","either","3","1392","","","","","","","0","1","0","","0.6889508363","0.2","0.4","0.6","0.8","0.6889508363","0.7425921641","0.4532768315","0.3315752647","","","","","","","","","","","","","","72","H","0","img/none_selected.jpg","","138","main_expt",""
"","bandit","218","1340392","0.0-180.0-0.0","30870279","wem/bandit_party_2","A3A6O8L15PJO0I","either","3","1351","","","","","","","0","0","1","","0.6481427694","0.2","0.4","0.6","0.8","0.6481427694","0.7356638012","0.4194835996","0.3080831972","","","","","","","","","","","","","","72","H","0","img/none_selected.jpg","","139","main_expt",""
"","bandit","219","1342583","0.0-181.0-0.0","30870279","wem/bandit_party_2","A3A6O8L15PJO0I","either","3","680","","","","","","","0","1","0","","0.6497449761","0.2","0.4","0.6","0.8","0.6497449761","0.7334346803","0.420008375","0.3254670704","","","","","","","","","","","","","","72","H","0","img/none_selected.jpg","","140","main_expt",""
"","bandit","220","1345766","0.0-182.0-0.0","30870279","wem/bandit_party_2","A3A6O8L15PJO0I","either","3","1672","","","","","","","0","1","0","","0.7328205829","0.2","0.4","0.6","0.8","0.7328205829","0.7737071977","0.3908595681","0.3452870884","","","","","","","","","","","","","","72","H","0","img/none_selected.jpg","","141","main_expt",""
"","bandit","221","1349167","0.0-183.0-0.0","30870279","wem/bandit_party_2","A3A6O8L15PJO0I","either","3","1881","","","","","","","0","0","1","","0.6396752577","0.2","0.4","0.6","0.8","0.6396752577","0.7912630164","0.3994278682","0.2659846132","","","","","","","","","","","","","","72","H","0","img/none_selected.jpg","","142","main_expt",""
"","bandit","222","1351031","0.0-184.0-0.0","30870279","wem/bandit_party_2","A3A6O8L15PJO0I","either","3","343","","","","","","","0","0","1","","0.5974809775","0.2","0.4","0.6","0.8","0.5974809775","0.7709923268","0.3137486051","0.2549781044","","","","","","","","","","","","","","72","H","0","img/none_selected.jpg","","143","main_expt",""
"","bandit","223","1353034","0.0-185.0-0.0","30870279","wem/bandit_party_2","A3A6O8L15PJO0I","either","3","492","","","","","","","0","1","0","","0.5953980303","0.2","0.4","0.6","0.8","0.5953980303","0.7492848764","0.3961992406","0.3603981418","","","","","","","","","","","","","","72","H","0","img/none_selected.jpg","","144","main_expt",""
"","bandit","224","1355476","0.0-186.0-0.0","30870279","wem/bandit_party_2","A3A6O8L15PJO0I","either","3","933","","","","","","","0","1","0","","0.6215671736","0.2","0.4","0.6","0.8","0.6215671736","0.7343485297","0.3186856111","0.3682949958","","","","","","","","","","","","","","72","H","0","img/none_selected.jpg","","145","main_expt",""
"","bandit","225","1358074","0.0-187.0-0.0","30870279","wem/bandit_party_2","A3A6O8L15PJO0I","either","3","1077","","","","","","","0","0","1","","0.5766937592","0.2","0.4","0.6","0.8","0.5766937592","0.7701032705","0.2724247948","0.5028772858","","","","","","","","","","","","","","72","H","0","img/none_selected.jpg","","146","main_expt",""
"","bandit","226","1360040","0.0-188.0-0.0","30870279","wem/bandit_party_2","A3A6O8L15PJO0I","either","3","450","","","","","","","0","0","1","","0.4600492943","0.2","0.4","0.6","0.8","0.4600492943","0.7521601774","0.2844288079","0.4186890645","","","","","","","","","","","","","","72","H","0","img/none_selected.jpg","","147","main_expt",""
"","bandit","227","1361909","0.0-189.0-0.0","30870279","wem/bandit_party_2","A3A6O8L15PJO0I","either","3","355","","","","","","","0","0","1","","0.4575448178","0.2","0.4","0.6","0.8","0.4575448178","0.7762143641","0.3095389551","0.3928328601","","","","","","","","","","","","","","72","H","0","img/none_selected.jpg","","148","main_expt",""
"","bandit","228","1363451","0.0-190.0-0.0","30870279","wem/bandit_party_2","A3A6O8L15PJO0I","either","3","8","","","","","","","1","0","0","0.716016993","","0.2","0.4","0.6","0.8","","","","","0.3840278576","0.716016993","0.2464654743","0.4220063763","","","","","","","","","","74","J","1","","","149","main_expt",""
"","bandit","229","1365612","0.0-191.0-0.0","30870279","wem/bandit_party_2","A3A6O8L15PJO0I","either","3","624","","","","","","","0","1","0","","0.7182774931","0.2","0.4","0.6","0.8","0.3004406684","0.7182774931","0.2088091358","0.3206822378","","","","","","","","","","","","","","74","J","1","","","150","main_expt",""
"","bandit","230","1367671","0.0-192.0-0.0","30870279","wem/bandit_party_2","A3A6O8L15PJO0I","either","3","540","","","","","","","0","1","0","","0.8028216805","0.2","0.4","0.6","0.8","0.2769981479","0.8028216805","0.2670014618","0.3380172956","","","","","","","","","","","","","","74","J","1","","","151","main_expt",""
"","bandit","231","1369917","0.0-193.0-0.0","30870279","wem/bandit_party_2","A3A6O8L15PJO0I","either","3","736","","","","","","","0","1","0","","0.8634692279","0.2","0.4","0.6","0.8","0.40565407","0.8634692279","0.3100930243","0.2461440624","","","","","","","","","","","","","","74","J","1","","","152","main_expt",""
"","bandit","232","1371983","0.0-194.0-0.0","30870279","wem/bandit_party_2","A3A6O8L15PJO0I","either","3","536","","","","","","","0","1","0","","0.7719190238","0.2","0.4","0.6","0.8","0.3829351634","0.7719190238","0.3796096158","0.1852716423","","","","","","","","","","","","","","74","J","1","","","153","main_expt",""
"","bandit","233","1374121","0.0-195.0-0.0","30870279","wem/bandit_party_2","A3A6O8L15PJO0I","either","3","626","","","","","","","0","0","1","","0.8343429945","0.2","0.4","0.6","0.8","0.4912137185","0.8343429945","0.2265028128","0.1660439368","","","","","","","","","","","","","","74","J","1","","","154","main_expt",""
"","bandit","234","1375993","0.0-196.0-0.0","30870279","wem/bandit_party_2","A3A6O8L15PJO0I","either","3","347","","","","","","","1","0","0","0.7908731232","","0.2","0.4","0.6","0.8","","","","","0.5312535156","0.7908731232","0.2135741777","0.2241607793","","","","","","","","","","74","J","1","","","155","main_expt",""
"","bandit","235","1378174","0.0-197.0-0.0","30870279","wem/bandit_party_2","A3A6O8L15PJO0I","either","3","649","","","","","","","1","0","0","0.7848911391","","0.2","0.4","0.6","0.8","","","","","0.5747898199","0.7848911391","0.1338357519","0.1566338899","","","","","","","","","","74","J","1","","","156","main_expt",""
"","bandit","236","1380507","0.0-198.0-0.0","30870279","wem/bandit_party_2","A3A6O8L15PJO0I","either","3","812","","","","","","","0","1","0","","0.7467155263","0.2","0.4","0.6","0.8","0.5948125822","0.7467155263","0.1344370697","0.1839373886","","","","","","","","","","","","","","74","J","1","","","157","main_expt",""
"","bandit","237","1382559","0.0-199.0-0.0","30870279","wem/bandit_party_2","A3A6O8L15PJO0I","either","3","532","","","","","","","0","1","0","","0.7413618202","0.2","0.4","0.6","0.8","0.6533804049","0.7413618202","0.1217930933","0.155802242","","","","","","","","","","","","","","74","J","1","","","158","main_expt",""
"","bandit","238","1384675","0.0-200.0-0.0","30870279","wem/bandit_party_2","A3A6O8L15PJO0I","either","3","595","","","","","","","0","0","1","","0.6882043704","0.2","0.4","0.6","0.8","0.5777198579","0.6882043704","0.08524485746","0.2304237345","","","","","","","","","","","","","","74","J","1","","","159","main_expt",""
"","bandit","239","1386663","0.0-201.0-0.0","30870279","wem/bandit_party_2","A3A6O8L15PJO0I","either","3","451","","","","","","","1","0","0","0.7253096401","","0.2","0.4","0.6","0.8","","","","","0.6777741118","0.7253096401","0.07332219892","0.2242026456","","","","","","","","","","74","J","1","","","160","main_expt",""
"","bandit","240","1388809","0.0-202.0-0.0","30870279","wem/bandit_party_2","A3A6O8L15PJO0I","either","3","635","","","","","","","1","0","0","0.6989182833","","0.2","0.4","0.6","0.8","","","","","0.6249074267","0.6989182833","0.1063489691","0.2708915048","","","","","","","","","","74","J","1","","","161","main_expt",""
"","bandit","241","1390921","0.0-203.0-0.0","30870279","wem/bandit_party_2","A3A6O8L15PJO0I","either","3","597","","","","","","","0","1","0","","0.7679575172","0.2","0.4","0.6","0.8","0.6755041601","0.7679575172","0.09670310095","0.2921592604","","","","","","","","","","","","","","74","J","1","","","162","main_expt",""
"","bandit","242","1392869","0.0-204.0-0.0","30870279","wem/bandit_party_2","A3A6O8L15PJO0I","either","3","432","","","","","","","1","0","0","0.6877390752","","0.2","0.4","0.6","0.8","","","","","0.6461818487","0.6877390752","0.1266359811","0.2050535257","","","","","","","","","","74","J","1","","","163","main_expt",""
"","bandit","243","1395372","0.0-205.0-0.0","30870279","wem/bandit_party_2","A3A6O8L15PJO0I","either","3","977","","","","","","","0","1","0","","0.6957575266","0.2","0.4","0.6","0.8","0.76368027","0.6957575266","0.1212611996","0.1998759094","","","","","","","","","","","","","","74","J","1","","","164","main_expt",""
"","bandit","244","1398594","0.0-206.0-0.0","30870279","wem/bandit_party_2","A3A6O8L15PJO0I","either","3","1706","","","","","","","1","0","0","0.6760148625","","0.2","0.4","0.6","0.8","","","","","0.8400099296","0.6760148625","0.1917887173","0.1821974317","","","","","","","","","","74","J","1","","","165","main_expt",""
"","bandit","245","1402314","0.0-207.0-0.0","30870279","wem/bandit_party_2","A3A6O8L15PJO0I","either","3","2202","","","","","","","0","0","1","0.6463317238","","0.2","0.4","0.6","0.8","","","","","0.8573275969","0.6463317238","0.1560613016","0.2916844583","","","","","","","","","","74","J","1","","","166","main_expt",""
"","bandit","246","1404505","0.0-208.0-0.0","30870279","wem/bandit_party_2","A3A6O8L15PJO0I","either","3","659","","","","","","","0","0","1","0.5613055562","","0.2","0.4","0.6","0.8","","","","","0.7735369509","0.5613055562","0.2214887095","0.3087465624","","","","","","","","","","74","J","1","","","167","main_expt",""
"","bandit","247","1406426","0.0-209.0-0.0","30870279","wem/bandit_party_2","A3A6O8L15PJO0I","either","3","391","","","","","","","0","0","1","","0.5586162784","0.2","0.4","0.6","0.8","0.8091314607","0.5586162784","0.3463453368","0.3896626528","","","","","","","","","","","","","","74","J","1","","","168","main_expt",""
"","bandit","248","1408176","0.0-210.0-0.0","30870279","wem/bandit_party_2","A3A6O8L15PJO0I","either","3","240","","","","","","","1","0","0","0.3222551453","","0.2","0.4","0.6","0.8","","","","","0.8364166478","0.597448185","0.3222551453","0.4458805252","","","","","","","","","","75","K","2","","","169","main_expt",""
"","bandit","249","1410532","0.0-211.0-0.0","30870279","wem/bandit_party_2","A3A6O8L15PJO0I","either","3","844","","","","","","","0","0","1","0.2556410415","","0.2","0.4","0.6","0.8","","","","","0.7867883415","0.5351242352","0.2556410415","0.4844269655","","","","","","","","","","75","K","2","","","170","main_expt",""
"","bandit","250","1412706","0.0-212.0-0.0","30870279","wem/bandit_party_2","A3A6O8L15PJO0I","either","3","661","","","","","","","0","0","1","","0.2248109201","0.2","0.4","0.6","0.8","0.8728822524","0.4819966971","0.2248109201","0.4858642724","","","","","","","","","","","","","","75","K","2","","","171","main_expt",""
"","bandit","251","1414763","0.0-213.0-0.0","30870279","wem/bandit_party_2","A3A6O8L15PJO0I","either","3","547","","","","","","","0","0","1","","0.3468742366","0.2","0.4","0.6","0.8","0.7804912391","0.4038669266","0.3468742366","0.5060245996","","","","","","","","","","","","","","75","K","2","","","172","main_expt",""
"","bandit","252","1416571","0.0-214.0-0.0","30870279","wem/bandit_party_2","A3A6O8L15PJO0I","either","3","296","","","","","","","0","0","1","0.5413528159","","0.2","0.4","0.6","0.8","","","","","0.7728490534","0.3102533384","0.234408543","0.5413528159","","","","","","","","","","76","L","3","","","173","main_expt",""
"","bandit","253","1418703","0.0-215.0-0.0","30870279","wem/bandit_party_2","A3A6O8L15PJO0I","either","3","608","","","","","","","0","1","0","","0.6505326818","0.2","0.4","0.6","0.8","0.814185781","0.3818943333","0.1404050277","0.6505326818","","","","","","","","","","","","","","76","L","3","","","174","main_expt",""
"","bandit","254","1420902","0.0-216.0-0.0","30870279","wem/bandit_party_2","A3A6O8L15PJO0I","either","3","669","","","","","","","1","0","0","0.6470977149","","0.2","0.4","0.6","0.8","","","","","0.8010682597","0.2893198216","0.1081611795","0.6470977149","","","","","","","","","","76","L","3","","","175","main_expt",""
"","bandit","255","1423637","0.0-217.0-0.0","30870279","wem/bandit_party_2","A3A6O8L15PJO0I","either","3","1226","","","","","","","0","0","1","0.6844229635","","0.2","0.4","0.6","0.8","","","","","0.7083228223","0.226416223","0.0730283124","0.6844229635","","","","","","","","","","76","L","3","","","176","main_expt",""
"","bandit","256","1425960","0.0-218.0-0.0","30870279","wem/bandit_party_2","A3A6O8L15PJO0I","either","3","806","","","","","","","1","0","0","0.6883244284","","0.2","0.4","0.6","0.8","","","","","0.7408938443","0.2786676386","0.07044941978","0.6883244284","","","","","","","","","","76","L","3","","","177","main_expt",""
"","bandit","257","1428752","0.0-219.0-0.0","30870279","wem/bandit_party_2","A3A6O8L15PJO0I","either","3","1269","","","","","","","1","0","0","0.6098590842","","0.2","0.4","0.6","0.8","","","","","0.6621187214","0.2279078815","0.06886985111","0.6098590842","","","","","","","","","","76","L","3","","","178","main_expt",""
"","bandit","258","1432773","0.0-220.0-0.0","30870279","wem/bandit_party_2","A3A6O8L15PJO0I","either","3","2501","","","","","","","0","0","1","0.5924449164","","0.2","0.4","0.6","0.8","","","","","0.6765487854","0.1690126781","0.07254371148","0.5924449164","","","","","","","","","","76","L","3","","","179","main_expt",""
"","bandit","259","1434678","0.0-221.0-0.0","30870279","wem/bandit_party_2","A3A6O8L15PJO0I","either","3","395","","","","","","","0","1","0","","0.4915111467","0.2","0.4","0.6","0.8","0.7276027883","0.1356066944","0.055057054","0.4915111467","","","","","","","","","","","","","","76","L","3","","","180","main_expt",""
"","bandit","260","1436739","0.0-222.0-0.0","30870279","wem/bandit_party_2","A3A6O8L15PJO0I","either","3","537","","","","","","","1","0","0","0.4713933083","","0.2","0.4","0.6","0.8","","","","","0.7083410305","0.1889441784","0.1187845962","0.4713933083","","","","","","","","","","76","L","3","","","181","main_expt",""
"","bandit","261","1438621","0.0-223.0-0.0","30870279","wem/bandit_party_2","A3A6O8L15PJO0I","either","3","370","","","","","","","0","0","1","0.500114893","","0.2","0.4","0.6","0.8","","","","","0.6489729838","0.2163976064","0.1304227184","0.500114893","","","","","","","","","","76","L","3","","","182","main_expt",""
"","bandit","262","1440419","0.0-224.0-0.0","30870279","wem/bandit_party_2","A3A6O8L15PJO0I","either","3","269","","","","","","","0","0","1","","0.4949273894","0.2","0.4","0.6","0.8","0.6956751073","0.1902524086","0.1374638341","0.4949273894","","","","","","","","","","","","","","76","L","3","","","183","main_expt",""
"","bandit","263","1442424","0.0-225.0-0.0","30870279","wem/bandit_party_2","A3A6O8L15PJO0I","either","3","493","","","","","","","0","0","1","","0.4271361476","0.2","0.4","0.6","0.8","0.6066537109","0.2265805791","0.1914365344","0.4271361476","","","","","","","","","","","","","","76","L","3","","","184","main_expt",""
"","bandit","264","1444688","0.0-226.0-0.0","30870279","wem/bandit_party_2","A3A6O8L15PJO0I","either","3","732","","","","","","","0","0","1","","0.1939872458","0.2","0.4","0.6","0.8","0.6337362372","0.1843452782","0.1939872458","0.4558255176","","","","","","","","","","","","","","75","K","2","","","185","main_expt",""
"","bandit","265","1446639","0.0-227.0-0.0","30870279","wem/bandit_party_2","A3A6O8L15PJO0I","either","3","437","","","","","","","0","0","1","0.2219937035","","0.2","0.4","0.6","0.8","","","","","0.5908962551","0.1898387663","0.2219937035","0.4031301461","","","","","","","","","","75","K","2","","","186","main_expt",""
"","bandit","266","1448770","0.0-228.0-0.0","30870279","wem/bandit_party_2","A3A6O8L15PJO0I","either","3","618","","","","","","","0","0","1","","0.2024523472","0.2","0.4","0.6","0.8","0.7651761031","0.210498268","0.2024523472","0.3993697366","","","","","","","","","","","","","","75","K","2","","","187","main_expt",""
"","bandit","267","1450767","0.0-229.0-0.0","30870279","wem/bandit_party_2","A3A6O8L15PJO0I","either","3","460","","","","","","","0","0","1","","0.2368649008","0.2","0.4","0.6","0.8","0.7928336054","0.2368649008","0.1930401344","0.4478687375","","","","","","","","","","","","","","74","J","1","","","188","main_expt",""
"","bandit","268","1452892","0.0-230.0-0.0","30870279","wem/bandit_party_2","A3A6O8L15PJO0I","either","3","605","","","","","","","0","1","0","","0.291591963","0.2","0.4","0.6","0.8","0.8917358491","0.291591963","0.3255404916","0.3699601256","","","","","","","","","","","","","","74","J","1","","","189","main_expt",""
"","bandit","269","1454913","0.0-231.0-0.0","30870279","wem/bandit_party_2","A3A6O8L15PJO0I","either","3","503","","","","","","","0","0","1","","0.4411779124","0.2","0.4","0.6","0.8","0.898448025","0.4411779124","0.2364063212","0.3723251068","","","","","","","","","","","","","","74","J","1","","","190","main_expt",""
"","bandit","270","1456791","0.0-232.0-0.0","30870279","wem/bandit_party_2","A3A6O8L15PJO0I","either","3","361","","","","","","","0","0","1","","0.3968704403","0.2","0.4","0.6","0.8","0.9186708851","0.3968704403","0.2662767285","0.3309849287","","","","","","","","","","","","","","74","J","1","","","191","main_expt",""
"","bandit","271","1458736","0.0-233.0-0.0","30870279","wem/bandit_party_2","A3A6O8L15PJO0I","either","3","427","","","","","","","0","0","1","","0.4512817608","0.2","0.4","0.6","0.8","0.9314477517","0.4512817608","0.2815174114","0.2865625263","","","","","","","","","","","","","","74","J","1","","","192","main_expt",""
"","bandit","272","1460593","0.0-234.0-0.0","30870279","wem/bandit_party_2","A3A6O8L15PJO0I","either","3","340","","","","","","","0","1","0","","0.4788006455","0.2","0.4","0.6","0.8","0.9090465067","0.4788006455","0.3461293965","0.2862811746","","","","","","","","","","","","","","74","J","1","","","193","main_expt",""
"","bandit","273","1462606","0.0-235.0-0.0","30870279","wem/bandit_party_2","A3A6O8L15PJO0I","either","3","500","","","","","","","1","0","0","0.4651889587","","0.2","0.4","0.6","0.8","","","","","0.8762249788","0.4651889587","0.3303735913","0.2785288642","","","","","","","","","","74","J","1","","","194","main_expt",""
"","bandit","274","1464522","0.0-236.0-0.0","30870279","wem/bandit_party_2","A3A6O8L15PJO0I","either","3","397","","","","","","","1","0","0","0.4718629942","","0.2","0.4","0.6","0.8","","","","","0.8623185747","0.4718629942","0.3194565039","0.2283941808","","","","","","","","","","74","J","1","","","195","main_expt",""
"","bandit","275","1466279","0.0-237.0-0.0","30870279","wem/bandit_party_2","A3A6O8L15PJO0I","either","3","235","","","","","","","0","0","1","0.3825708332","","0.2","0.4","0.6","0.8","","","","","0.7745977574","0.3825708332","0.4103944464","0.214282227","","","","","","","","","","74","J","1","","","196","main_expt",""
"","bandit","276","1469107","0.0-238.0-0.0","30870279","wem/bandit_party_2","A3A6O8L15PJO0I","either","3","1313","","","","","","","0","0","1","","0.4530864699","0.2","0.4","0.6","0.8","0.7723069829","0.4530864699","0.4445726534","0.1422959513","","","","","","","","","","","","","","74","J","1","","","197","main_expt",""
"","bandit","277","1472875","0.0-239.0-0.0","30870279","wem/bandit_party_2","A3A6O8L15PJO0I","either","3","2248","","","","","","","0","0","1","","0.4337652667","0.2","0.4","0.6","0.8","0.7084082875","0.4337652667","0.4351718099","0.1126324943","","","","","","","","","","","","","","74","J","1","","","198","main_expt",""
"","bandit","278","1475966","0.0-240.0-0.0","30870279","wem/bandit_party_2","A3A6O8L15PJO0I","either","3","1569","","","","","","","0","0","1","0.4138332966","","0.2","0.4","0.6","0.8","","","","","0.7016883558","0.4138332966","0.4641294157","0.1144166609","","","","","","","","","","74","J","1","","","199","main_expt",""
"","bandit","279","1478222","0.0-241.0-0.0","30870279","wem/bandit_party_2","A3A6O8L15PJO0I","either","3","739","","","","","","","0","1","0","","0.5005175686","0.2","0.4","0.6","0.8","0.6504384346","0.5005175686","0.4468687069","0.1518003708","","","","","","","","","","","","","","74","J","1","","","200","main_expt",""
"","bandit","280","1480864","0.0-242.0-0.0","30870279","wem/bandit_party_2","A3A6O8L15PJO0I","either","3","1120","","","","","","","0","1","0","","0.5122642399","0.2","0.4","0.6","0.8","0.7904945102","0.5122642399","0.5087435212","0.1974433607","","","","","","","","","","","","","","74","J","1","","","201","main_expt",""
"","bandit","281","1482937","0.0-243.0-0.0","30870279","wem/bandit_party_2","A3A6O8L15PJO0I","either","3","535","","","","","","","0","0","1","0.5414597976","","0.2","0.4","0.6","0.8","","","","","0.7039472437","0.5414597976","0.4992132835","0.2000842809","","","","","","","","","","74","J","1","","","202","main_expt",""
"","bandit","282","1485361","0.0-244.0-0.0","30870279","wem/bandit_party_2","A3A6O8L15PJO0I","either","3","891","","","","","","","0","1","0","","0.4993649945","0.2","0.4","0.6","0.8","0.7478807213","0.4993649945","0.4859842053","0.1715580826","","","","","","","","","","","","","","74","J","1","","","203","main_expt",""
"","bandit","283","1488501","0.0-245.0-0.0","30870279","wem/bandit_party_2","A3A6O8L15PJO0I","either","3","1615","","","","","","","0","0","1","0.4056752737","","0.2","0.4","0.6","0.8","","","","","0.7346150791","0.4056752737","0.6162755314","0.3028604286","","","","","","","","","","74","J","1","","","204","main_expt",""
"","bandit","284","1490490","0.0-246.0-0.0","30870279","wem/bandit_party_2","A3A6O8L15PJO0I","either","3","460","","","","","","","0","0","1","0.4174768156","","0.2","0.4","0.6","0.8","","","","","0.7240623961","0.4174768156","0.6204906845","0.3714949669","","","","","","","","","","74","J","1","","","205","main_expt",""
"","bandit","285","1493190","0.0-247.0-0.0","30870279","wem/bandit_party_2","A3A6O8L15PJO0I","either","3","1162","","","","","","","0","0","1","0.4364097613","","0.2","0.4","0.6","0.8","","","","","0.733657826","0.4364097613","0.6390595606","0.3034865557","","","","","","","","","","74","J","1","","","206","main_expt",""
"","bandit","286","1495961","0.0-248.0-0.0","30870279","wem/bandit_party_2","A3A6O8L15PJO0I","either","3","1262","","","","","","","0","0","1","","0.4666062126","0.2","0.4","0.6","0.8","0.6797091947","0.4666062126","0.6022157482","0.2688105372","","","","","","","","","","","","","","74","J","1","","","207","main_expt",""
"","bandit","287","1499024","0.0-249.0-0.0","30870279","wem/bandit_party_2","A3A6O8L15PJO0I","either","3","1550","","","","","","","1","0","0","0.4594719295","","0.2","0.4","0.6","0.8","","","","","0.472157919","0.4594719295","0.6598502583","0.2240001326","","","","","","","","","","74","J","1","","","208","main_expt",""
"","bandit","288","1502072","0.0-250.0-0.0","30870279","wem/bandit_party_2","A3A6O8L15PJO0I","either","3","1530","","","","","","","0","1","0","","0.5415101973","0.2","0.4","0.6","0.8","0.4993955773","0.5415101973","0.6329069529","0.3284172364","","","","","","","","","","","","","","74","J","1","","","209","main_expt",""
"","bandit","289","1504984","0.0-251.0-0.0","30870279","wem/bandit_party_2","A3A6O8L15PJO0I","either","3","1397","","","","","","","1","0","0","0.5627952802","","0.2","0.4","0.6","0.8","","","","","0.3923888982","0.5627952802","0.5418549626","0.3178667136","","","","","","","","","","74","J","1","","","210","main_expt",""
"","bandit","290","1506886","0.0-252.0-0.0","30870279","wem/bandit_party_2","A3A6O8L15PJO0I","either","3","385","","","","","","","0","0","1","0.5779033475","","0.2","0.4","0.6","0.8","","","","","0.4183885941","0.5779033475","0.7265410197","0.278360526","","","","","","","","","","74","J","1","","","211","main_expt",""
"","bandit","291","1508956","0.0-253.0-0.0","30870279","wem/bandit_party_2","A3A6O8L15PJO0I","either","3","554","","","","","","","0","0","1","","0.6169713091","0.2","0.4","0.6","0.8","0.5367383083","0.6169713091","0.6550819281","0.2720231684","","","","","","","","","","","","","","74","J","1","","","212","main_expt",""
"","bandit","292","1511206","0.0-254.0-0.0","30870279","wem/bandit_party_2","A3A6O8L15PJO0I","either","3","726","","","","","","","0","1","0","","0.5688165975","0.2","0.4","0.6","0.8","0.5779451767","0.5688165975","0.5812500281","0.3445332441","","","","","","","","","","","","","","74","J","1","","","213","main_expt",""
"","bandit","293","1513336","0.0-255.0-0.0","30870279","wem/bandit_party_2","A3A6O8L15PJO0I","either","3","606","","","","","","","0","0","1","","0.5354690829","0.2","0.4","0.6","0.8","0.5615700258","0.5354690829","0.6912727382","0.331154659","","","","","","","","","","","","","","74","J","1","","","214","main_expt",""
"","bandit","294","1515287","0.0-256.0-0.0","30870279","wem/bandit_party_2","A3A6O8L15PJO0I","either","3","425","","","","","","","0","1","0","","0.4395706401","0.2","0.4","0.6","0.8","0.5361399643","0.4395706401","0.695573978","0.3168016653","","","","","","","","","","","","","","74","J","1","","","215","main_expt",""
"","bandit","295","1517870","0.0-257.0-0.0","30870279","wem/bandit_party_2","A3A6O8L15PJO0I","either","3","1065","","","","","","","0","0","1","","0.4522294324","0.2","0.4","0.6","0.8","0.620750855","0.4522294324","0.6531454011","0.2870858596","","","","","","","","","","","","","","74","J","1","","","216","main_expt",""
"","bandit","296","1520358","0.0-258.0-0.0","30870279","wem/bandit_party_2","A3A6O8L15PJO0I","either","3","962","","","","","","","0","1","0","","0.4141575353","0.2","0.4","0.6","0.8","0.4812239037","0.4141575353","0.6459690495","0.2877345098","","","","","","","","","","","","","","74","J","1","","","217","main_expt",""
"","bandit","297","1523436","0.0-259.0-0.0","30870279","wem/bandit_party_2","A3A6O8L15PJO0I","either","3","1547","","","","","","","0","0","1","","0.3009722504","0.2","0.4","0.6","0.8","0.4028497994","0.3009722504","0.6679944541","0.3608492067","","","","","","","","","","","","","","74","J","1","","","218","main_expt",""
"","bandit","298","1525567","0.0-260.0-0.0","30870279","wem/bandit_party_2","A3A6O8L15PJO0I","either","3","600","","","","","","","0","0","1","","0.2706893249","0.2","0.4","0.6","0.8","0.4441021312","0.2706893249","0.7159195147","0.4380407461","","","","","","","","","","","","","","74","J","1","","","219","main_expt",""
"","bandit","299","1528004","0.0-261.0-0.0","30870279","wem/bandit_party_2","A3A6O8L15PJO0I","either","3","913","","","","","","","0","0","1","0.3821277721","","0.2","0.4","0.6","0.8","","","","","0.4867825248","0.3821277721","0.6874484601","0.4769938592","","","","","","","","","","74","J","1","","","220","main_expt",""
"","bandit","300","1530023","0.0-262.0-0.0","30870279","wem/bandit_party_2","A3A6O8L15PJO0I","either","3","509","","","","","","","0","1","0","","0.4534214389","0.2","0.4","0.6","0.8","0.5428062785","0.4534214389","0.6528128226","0.4612627877","","","","","","","","","","","","","","74","J","1","","","221","main_expt",""
"","bandit","301","1532367","0.0-263.0-0.0","30870279","wem/bandit_party_2","A3A6O8L15PJO0I","either","3","829","","","","","","","0","1","0","","0.6049712458","0.2","0.4","0.6","0.8","0.5993321864","0.6049712458","0.6836467719","0.4192901336","","","","","","","","","","","","","","74","J","1","","","222","main_expt",""
"","bandit","302","1534601","0.0-264.0-0.0","30870279","wem/bandit_party_2","A3A6O8L15PJO0I","either","3","696","","","","","","","0","1","0","","0.6389506418","0.2","0.4","0.6","0.8","0.4920604154","0.6389506418","0.7820879334","0.5559965486","","","","","","","","","","","","","","74","J","1","","","223","main_expt",""
"","bandit","303","1537178","0.0-265.0-0.0","30870279","wem/bandit_party_2","A3A6O8L15PJO0I","either","3","1056","","","","","","","1","0","0","0.6677375732","","0.2","0.4","0.6","0.8","","","","","0.5344282052","0.6677375732","0.763226653","0.6687933923","","","","","","","","","","74","J","1","","","224","main_expt",""
"","bandit","304","1539674","0.0-266.0-0.0","30870279","wem/bandit_party_2","A3A6O8L15PJO0I","either","3","987","","","","","","","0","0","1","","0.7706853934","0.2","0.4","0.6","0.8","0.5583452501","0.7706853934","0.6931961842","0.5954484576","","","","","","","","","","","","","","74","J","1","","","225","main_expt",""
"","bandit","305","1541782","0.0-267.0-0.0","30870279","wem/bandit_party_2","A3A6O8L15PJO0I","either","3","592","","","","","","","0","1","0","","0.7624197083","0.2","0.4","0.6","0.8","0.5126042404","0.7624197083","0.6633974694","0.6152447968","","","","","","","","","","","","","","74","J","1","","","226","main_expt",""
"","bandit","306","1544170","0.0-268.0-0.0","30870279","wem/bandit_party_2","A3A6O8L15PJO0I","either","3","874","","","","","","","1","0","0","0.7287840805","","0.2","0.4","0.6","0.8","","","","","0.5720595628","0.7287840805","0.6567175756","0.6597553912","","","","","","","","","","74","J","1","","","227","main_expt",""
"","bandit","307","1546196","0.0-269.0-0.0","30870279","wem/bandit_party_2","A3A6O8L15PJO0I","either","3","498","","","","","","","1","0","0","0.7993891034","","0.2","0.4","0.6","0.8","","","","","0.6134710885","0.7993891034","0.6052730858","0.594895186","","","","","","","","","","74","J","1","","","228","main_expt",""
"","bandit","308","1548078","0.0-270.0-0.0","30870279","wem/bandit_party_2","A3A6O8L15PJO0I","either","3","366","","","","","","","1","0","0","0.8374027748","","0.2","0.4","0.6","0.8","","","","","0.5669106804","0.8374027748","0.5548990383","0.5722559027","","","","","","","","","","74","J","1","","","229","main_expt",""
"","bandit","309","1549943","0.0-271.0-0.0","30870279","wem/bandit_party_2","A3A6O8L15PJO0I","either","3","338","","","","","","","0","1","0","","0.8414873787","0.2","0.4","0.6","0.8","0.6286782819","0.8414873787","0.6017114108","0.5409090622","","","","","","","","","","","","","","74","J","1","","","230","main_expt",""
"","bandit","310","1551833","0.0-272.0-0.0","30870279","wem/bandit_party_2","A3A6O8L15PJO0I","either","3","372","","","","","","","0","1","0","","0.8531648874","0.2","0.4","0.6","0.8","0.5594948871","0.8531648874","0.5525336349","0.518727512","","","","","","","","","","","","","","74","J","1","","","231","main_expt",""
"","bandit","311","1553793","0.0-273.0-0.0","30870279","wem/bandit_party_2","A3A6O8L15PJO0I","either","3","436","","","","","","","1","0","0","0.8813812612","","0.2","0.4","0.6","0.8","","","","","0.5817998964","0.8813812612","0.4493361955","0.5200298571","","","","","","","","","","74","J","1","","","232","main_expt",""
"","bandit","312","1555955","0.0-274.0-0.0","30870279","wem/bandit_party_2","A3A6O8L15PJO0I","either","3","641","","","","","","","0","1","0","","0.8916766345","0.2","0.4","0.6","0.8","0.5971875981","0.8916766345","0.5280832246","0.4564343731","","","","","","","","","","","","","","74","J","1","","","233","main_expt",""
"","bandit","313","1558046","0.0-275.0-0.0","30870279","wem/bandit_party_2","A3A6O8L15PJO0I","either","3","570","","","","","","","0","0","1","","0.842820862","0.2","0.4","0.6","0.8","0.5227237997","0.842820862","0.6814540918","0.4168065644","","","","","","","","","","","","","","74","J","1","","","234","main_expt",""
"","bandit","314","1560262","0.0-276.0-0.0","30870279","wem/bandit_party_2","A3A6O8L15PJO0I","either","3","691","","","","","","","0","1","0","","0.7856269381","0.2","0.4","0.6","0.8","0.6231997156","0.7856269381","0.5518959403","0.4340770274","","","","","","","","","","","","","","74","J","1","","","235","main_expt",""
"","bandit","315","1562998","0.0-277.0-0.0","30870279","wem/bandit_party_2","A3A6O8L15PJO0I","either","3","1211","","","","","","","0","1","0","","0.8092971262","0.2","0.4","0.6","0.8","0.558272317","0.8092971262","0.4965619817","0.4489205242","","","","","","","","","","","","","","74","J","1","","","236","main_expt",""
"","bandit","316","1565152","0.0-278.0-0.0","30870279","wem/bandit_party_2","A3A6O8L15PJO0I","either","3","618","","","","","","","0","0","1","","0.8125536838","0.2","0.4","0.6","0.8","0.6118965497","0.8125536838","0.4762879104","0.4838648791","","","","","","","","","","","","","","74","J","1","","","237","main_expt",""
"","bandit","317","1567090","0.0-279.0-0.0","30870279","wem/bandit_party_2","A3A6O8L15PJO0I","either","3","412","","","","","","","0","1","0","","0.8684257659","0.2","0.4","0.6","0.8","0.7415542647","0.8684257659","0.4991976808","0.4615645545","","","","","","","","","","","","","","74","J","1","","","238","main_expt",""
