"consent","trial_type","trial_index","time_elapsed","internal_node_id","subjID","study","MID","cond","drift","rt","responses","button_pressed","key_press","like","value","connected","gems","bombs","no_reward","GemPrChosen","BombPrChosen","GainOverPainPr_0","GainOverPainPr_1","GainOverPainPr_2","GainOverPainPr_3","LosePr_0","LosePr_1","LosePr_2","LosePr_3","WinPr_0","WinPr_1","WinPr_2","WinPr_3","Q0","Q1","Q2","gender","age","ethnicity","label","expt_phase","target","respCharCode","respKey","respChoiceNum","respChoice","practice","trial_counter","trial_label","Q0_index"
"GDM/GDM_behavioral_consent_30min_online.html","consent","0","10927","0.0-0.0","31384174","wem/bandit_party_2","A3QSK8VCB8TYTH","either","4","","","","","","","","","","","","","","","","","","","","","","","","","","","","","","","","","","","","","","","","",""
"","survey-text","1","17554","0.0-1.0","31384174","wem/bandit_party_2","A3QSK8VCB8TYTH","either","4","5616","{""Q0"":""A3QSK8VCB8TYTH""}","","","","","","","","","","","","","","","","","","","","","","","","","","","","","","","","","","","","","","",""
"","button-response","2","20316","0.0-2.0","31384174","wem/bandit_party_2","A3QSK8VCB8TYTH","either","4","1755","","0","","","","","","","","","","","","","","","","","","","","","","","","","","","","","","","","","","","","","",""
"","text-replacement","3","36196","0.0-3.0","31384174","wem/bandit_party_2","A3QSK8VCB8TYTH","either","4","14874","","","32","","","","","","","","","","","","","","","","","","","","","","","","","","","","","","","","","","","","",""
"","text-replacement","4","46711","0.0-4.0","31384174","wem/bandit_party_2","A3QSK8VCB8TYTH","either","4","10513","","","32","","","","","","","","","","","","","","","","","","","","","","","","","","","","","","","","","","","","",""
"","identification","5","55634","0.0-6.0-0.0","31384174","wem/bandit_party_2","A3QSK8VCB8TYTH","either","4","8910","","","","3","3","2","","","","","","","","","","","","","","","","","","","","","","","","pre","identification_pre","the Democratic Party","","","","","","","",""
"","identification","6","62970","0.0-6.0-1.0","31384174","wem/bandit_party_2","A3QSK8VCB8TYTH","either","4","6325","","","","4","4","4","","","","","","","","","","","","","","","","","","","","","","","","pre","identification_pre","the Republican Party","","","","","","","",""
"","text-replacement","7","72447","0.0-7.0","31384174","wem/bandit_party_2","A3QSK8VCB8TYTH","either","4","8473","","","32","","","","","","","","","","","","","","","","","","","","","","","","","","","","","","","","","","","","",""
"","text-replacement","8","81188","0.0-8.0","31384174","wem/bandit_party_2","A3QSK8VCB8TYTH","either","4","8739","","","32","","","","","","","","","","","","","","","","","","","","","","","","","","","","","","","","","","","","",""
"","text-replacement","9","93609","0.0-9.0","31384174","wem/bandit_party_2","A3QSK8VCB8TYTH","either","4","12420","","","32","","","","","","","","","","","","","","","","","","","","","","","","","","","","","","","","","","","","",""
"","text-replacement","10","99312","0.0-10.0","31384174","wem/bandit_party_2","A3QSK8VCB8TYTH","either","4","5702","","","32","","","","","","","","","","","","","","","","","","","","","","","","","","","","","","","","","","","","",""
"","text-replacement","11","104744","0.0-11.0","31384174","wem/bandit_party_2","A3QSK8VCB8TYTH","either","4","5431","","","32","","","","","","","","","","","","","","","","","","","","","","","","","","","","","","","","","","","","",""
"","bandit","12","112086","0.0-12.0-0.0","31384174","wem/bandit_party_2","A3QSK8VCB8TYTH","either","4","5828","","","","","","","0","0","1","0","0","","","","","0","","","","0","","","","","","","","","","","","","74","J","0","img/none_selected_demo.jpg","true","0","",""
"","bandit","13","115430","0.0-13.0-0.0","31384174","wem/bandit_party_2","A3QSK8VCB8TYTH","either","4","1833","","","","","","","0","0","1","0","0","","","","","0","","","","0","","","","","","","","","","","","","75","K","0","img/none_selected_demo.jpg","true","0","",""
"","text-replacement","14","125034","0.0-14.0","31384174","wem/bandit_party_2","A3QSK8VCB8TYTH","either","4","9602","","","32","","","","","","","","","","","","","","","","","","","","","","","","","","","","","","","","","","","","",""
"","text-replacement","15","139125","0.0-15.0","31384174","wem/bandit_party_2","A3QSK8VCB8TYTH","either","4","14089","","","32","","","","","","","","","","","","","","","","","","","","","","","","","","","","","","","","","","","","",""
"","text-replacement","16","148718","0.0-16.0","31384174","wem/bandit_party_2","A3QSK8VCB8TYTH","either","4","9590","","","32","","","","","","","","","","","","","","","","","","","","","","","","","","","","","","","","","","","","",""
"","text-replacement","17","151046","0.0-17.0","31384174","wem/bandit_party_2","A3QSK8VCB8TYTH","either","4","2327","","","32","","","","","","","","","","","","","","","","","","","","","","","","","","","","","","","","","","","","",""
"","bandit","18","155797","0.0-18.0-0.0","31384174","wem/bandit_party_2","A3QSK8VCB8TYTH","either","4","3245","","","","","","","0","1","0","","0.8","0.5","0.5","","","0.8","0.2","","","","","","","","","","","","","","","","74","J","0","img/none_selected_demo.jpg","true","0","80_20_practice",""
"","bandit","19","158209","0.0-18.0-1.0","31384174","wem/bandit_party_2","A3QSK8VCB8TYTH","either","4","902","","","","","","","0","1","0","","0.8","0.5","0.5","","","0.8","0.2","","","","","","","","","","","","","","","","74","J","0","img/none_selected_demo.jpg","true","0","80_20_practice",""
"","bandit","20","160531","0.0-18.0-2.0","31384174","wem/bandit_party_2","A3QSK8VCB8TYTH","either","4","810","","","","","","","0","0","1","0.8","","0.5","0.5","","","","","","","0.8","0.2","","","","","","","","","","","","74","J","0","img/none_selected_demo.jpg","true","0","80_20_practice",""
"","bandit","21","162692","0.0-18.0-3.0","31384174","wem/bandit_party_2","A3QSK8VCB8TYTH","either","4","648","","","","","","","0","0","1","","0.2","0.5","0.5","","","0.8","0.2","","","","","","","","","","","","","","","","75","K","1","","true","0","80_20_practice",""
"","bandit","22","164773","0.0-18.0-4.0","31384174","wem/bandit_party_2","A3QSK8VCB8TYTH","either","4","575","","","","","","","0","0","1","","0.2","0.5","0.5","","","0.8","0.2","","","","","","","","","","","","","","","","75","K","1","","true","0","80_20_practice",""
"","bandit","23","166769","0.0-18.0-5.0","31384174","wem/bandit_party_2","A3QSK8VCB8TYTH","either","4","487","","","","","","","0","0","1","0.2","","0.5","0.5","","","","","","","0.8","0.2","","","","","","","","","","","","75","K","1","","true","0","80_20_practice",""
"","bandit","24","170375","0.0-18.0-6.0","31384174","wem/bandit_party_2","A3QSK8VCB8TYTH","either","4","2098","","","","","","","0","0","1","0.8","","0.5","0.5","","","","","","","0.8","0.2","","","","","","","","","","","","74","J","0","img/none_selected_demo.jpg","true","0","80_20_practice",""
"","bandit","25","172513","0.0-18.0-7.0","31384174","wem/bandit_party_2","A3QSK8VCB8TYTH","either","4","628","","","","","","","0","0","1","","0.2","0.5","0.5","","","0.8","0.2","","","","","","","","","","","","","","","","75","K","1","","true","0","80_20_practice",""
"","bandit","26","174497","0.0-18.0-8.0","31384174","wem/bandit_party_2","A3QSK8VCB8TYTH","either","4","475","","","","","","","1","0","0","0.8","","0.5","0.5","","","","","","","0.8","0.2","","","","","","","","","","","","74","J","0","img/none_selected_demo.jpg","true","0","80_20_practice",""
"","bandit","27","176524","0.0-18.0-9.0","31384174","wem/bandit_party_2","A3QSK8VCB8TYTH","either","4","514","","","","","","","0","1","0","","0.8","0.5","0.5","","","0.8","0.2","","","","","","","","","","","","","","","","74","J","0","img/none_selected_demo.jpg","true","0","80_20_practice",""
"","bandit","28","178431","0.0-18.0-10.0","31384174","wem/bandit_party_2","A3QSK8VCB8TYTH","either","4","399","","","","","","","0","0","1","0.2","","0.5","0.5","","","","","","","0.8","0.2","","","","","","","","","","","","75","K","1","","true","0","80_20_practice",""
"","bandit","29","180347","0.0-18.0-11.0","31384174","wem/bandit_party_2","A3QSK8VCB8TYTH","either","4","404","","","","","","","0","0","1","0.2","","0.5","0.5","","","","","","","0.8","0.2","","","","","","","","","","","","75","K","1","","true","0","80_20_practice",""
"","bandit","30","182263","0.0-18.0-12.0","31384174","wem/bandit_party_2","A3QSK8VCB8TYTH","either","4","408","","","","","","","0","0","1","0.8","","0.5","0.5","","","","","","","0.8","0.2","","","","","","","","","","","","74","J","0","img/none_selected_demo.jpg","true","0","80_20_practice",""
"","bandit","31","184178","0.0-18.0-13.0","31384174","wem/bandit_party_2","A3QSK8VCB8TYTH","either","4","402","","","","","","","0","0","1","0.8","","0.5","0.5","","","","","","","0.8","0.2","","","","","","","","","","","","74","J","0","img/none_selected_demo.jpg","true","0","80_20_practice",""
"","bandit","32","186561","0.0-18.0-14.0","31384174","wem/bandit_party_2","A3QSK8VCB8TYTH","either","4","873","","","","","","","1","0","0","0.8","","0.5","0.5","","","","","","","0.8","0.2","","","","","","","","","","","","74","J","0","img/none_selected_demo.jpg","true","0","80_20_practice",""
"","bandit","33","188512","0.0-18.0-15.0","31384174","wem/bandit_party_2","A3QSK8VCB8TYTH","either","4","442","","","","","","","1","0","0","0.8","","0.5","0.5","","","","","","","0.8","0.2","","","","","","","","","","","","74","J","0","img/none_selected_demo.jpg","true","0","80_20_practice",""
"","bandit","34","190361","0.0-18.0-16.0","31384174","wem/bandit_party_2","A3QSK8VCB8TYTH","either","4","340","","","","","","","0","0","1","0.2","","0.5","0.5","","","","","","","0.8","0.2","","","","","","","","","","","","75","K","1","","true","0","80_20_practice",""
"","bandit","35","192201","0.0-18.0-17.0","31384174","wem/bandit_party_2","A3QSK8VCB8TYTH","either","4","331","","","","","","","0","0","1","","0.2","0.5","0.5","","","0.8","0.2","","","","","","","","","","","","","","","","75","K","1","","true","0","80_20_practice",""
"","bandit","36","194015","0.0-18.0-18.0","31384174","wem/bandit_party_2","A3QSK8VCB8TYTH","either","4","242","","","","","","","1","0","0","0.2","","0.5","0.5","","","","","","","0.8","0.2","","","","","","","","","","","","75","K","1","","true","0","80_20_practice",""
"","bandit","37","195879","0.0-18.0-19.0","31384174","wem/bandit_party_2","A3QSK8VCB8TYTH","either","4","324","","","","","","","0","0","1","0.2","","0.5","0.5","","","","","","","0.8","0.2","","","","","","","","","","","","75","K","1","","true","0","80_20_practice",""
"","text-replacement","38","205234","0.0-19.0","31384174","wem/bandit_party_2","A3QSK8VCB8TYTH","either","4","9353","","","32","","","","","","","","","","","","","","","","","","","","","","","","","","","","","","","","","","","","",""
"","bandit","39","209525","0.0-20.0-0.0","31384174","wem/bandit_party_2","A3QSK8VCB8TYTH","either","4","2782","","","","","","","1","0","0","1","0","","","","","0","1","","","1","0","","","","","","","","","","","","74","J","0","img/none_selected_demo.jpg","true","0","",""
"","text-replacement","40","217705","0.0-21.0","31384174","wem/bandit_party_2","A3QSK8VCB8TYTH","either","4","8179","","","32","","","","","","","","","","","","","","","","","","","","","","","","","","","","","","","","","","","","",""
"","text-replacement","41","223462","0.0-22.0","31384174","wem/bandit_party_2","A3QSK8VCB8TYTH","either","4","5755","","","32","","","","","","","","","","","","","","","","","","","","","","","","","","","","","","","","","","","","",""
"","text-replacement","42","227107","0.0-23.0","31384174","wem/bandit_party_2","A3QSK8VCB8TYTH","either","4","3644","","","32","","","","","","","","","","","","","","","","","","","","","","","","","","","","","","","","","","","","",""
"","text-replacement","43","231648","0.0-24.0","31384174","wem/bandit_party_2","A3QSK8VCB8TYTH","either","4","4537","","","32","","","","","","","","","","","","","","","","","","","","","","","","","","","","","","","","","","","","",""
"","text-replacement","44","240107","0.0-25.0","31384174","wem/bandit_party_2","A3QSK8VCB8TYTH","either","4","8458","","","32","","","","","","","","","","","","","","","","","","","","","","","","","","","","","","","","","","","","",""
"","text-replacement","45","243568","0.0-26.0","31384174","wem/bandit_party_2","A3QSK8VCB8TYTH","either","4","3459","","","32","","","","","","","","","","","","","","","","","","","","","","","","","","","","","","","","","","","","",""
"","text-replacement","46","249995","0.0-27.0","31384174","wem/bandit_party_2","A3QSK8VCB8TYTH","either","4","6425","","","32","","","","","","","","","","","","","","","","","","","","","","","","","","","","","","","","","","","","",""
"","text-replacement","47","254032","0.0-28.0","31384174","wem/bandit_party_2","A3QSK8VCB8TYTH","either","4","4034","","","32","","","","","","","","","","","","","","","","","","","","","","","","","","","","","","","","","","","","",""
"","text-replacement","48","262651","0.0-29.0","31384174","wem/bandit_party_2","A3QSK8VCB8TYTH","either","4","8617","","","32","","","","","","","","","","","","","","","","","","","","","","","","","","","","","","","","","","","","",""
"","text-replacement","49","264323","0.0-30.0","31384174","wem/bandit_party_2","A3QSK8VCB8TYTH","either","4","1670","","","32","","","","","","","","","","","","","","","","","","","","","","","","","","","","","","","","","","","","",""
"","text-replacement","50","267970","0.0-31.0","31384174","wem/bandit_party_2","A3QSK8VCB8TYTH","either","4","3645","","","32","","","","","","","","","","","","","","","","","","","","","","","","","","","","","","","","","","","","",""
"","bandit","51","270910","0.0-32.0-0.0","31384174","wem/bandit_party_2","A3QSK8VCB8TYTH","either","4","1428","","","","","","","1","0","0","0.8","","0.5","0.5","0.5","0.5","","","","","0.8","0.2","0.6","0.2","","","","","","","","","","72","H","0","img/none_selected.jpg","true","0","full_practice",""
"","bandit","52","272770","0.0-32.0-1.0","31384174","wem/bandit_party_2","A3QSK8VCB8TYTH","either","4","353","","","","","","","1","0","0","0.8","","0.5","0.5","0.5","0.5","","","","","0.8","0.2","0.6","0.2","","","","","","","","","","72","H","0","img/none_selected.jpg","true","0","full_practice",""
"","bandit","53","274611","0.0-32.0-2.0","31384174","wem/bandit_party_2","A3QSK8VCB8TYTH","either","4","331","","","","","","","1","0","0","0.8","","0.5","0.5","0.5","0.5","","","","","0.8","0.2","0.6","0.2","","","","","","","","","","72","H","0","img/none_selected.jpg","true","0","full_practice",""
"","bandit","54","276254","0.0-32.0-3.0","31384174","wem/bandit_party_2","A3QSK8VCB8TYTH","either","4","133","","","","","","","1","0","0","0.8","","0.5","0.5","0.5","0.5","","","","","0.8","0.2","0.6","0.2","","","","","","","","","","72","H","0","img/none_selected.jpg","true","0","full_practice",""
"","bandit","55","278072","0.0-32.0-4.0","31384174","wem/bandit_party_2","A3QSK8VCB8TYTH","either","4","305","","","","","","","0","0","1","0.2","","0.5","0.5","0.5","0.5","","","","","0.8","0.2","0.6","0.2","","","","","","","","","","74","J","1","","true","0","full_practice",""
"","bandit","56","279684","0.0-32.0-5.0","31384174","wem/bandit_party_2","A3QSK8VCB8TYTH","either","4","104","","","","","","","0","0","1","","0.2","0.5","0.5","0.5","0.5","0.8","0.2","0.6","0.2","","","","","","","","","","","","","","74","J","1","","true","0","full_practice",""
"","bandit","57","281548","0.0-32.0-6.0","31384174","wem/bandit_party_2","A3QSK8VCB8TYTH","either","4","354","","","","","","","0","0","1","0.2","","0.5","0.5","0.5","0.5","","","","","0.8","0.2","0.6","0.2","","","","","","","","","","74","J","1","","true","0","full_practice",""
"","bandit","58","283369","0.0-32.0-7.0","31384174","wem/bandit_party_2","A3QSK8VCB8TYTH","either","4","316","","","","","","","0","0","1","0.2","","0.5","0.5","0.5","0.5","","","","","0.8","0.2","0.6","0.2","","","","","","","","","","74","J","1","","true","0","full_practice",""
"","bandit","59","285135","0.0-32.0-8.0","31384174","wem/bandit_party_2","A3QSK8VCB8TYTH","either","4","255","","","","","","","0","0","1","","0.6","0.5","0.5","0.5","0.5","0.8","0.2","0.6","0.2","","","","","","","","","","","","","","75","K","2","","true","0","full_practice",""
"","bandit","60","286924","0.0-32.0-9.0","31384174","wem/bandit_party_2","A3QSK8VCB8TYTH","either","4","281","","","","","","","0","1","0","","0.6","0.5","0.5","0.5","0.5","0.8","0.2","0.6","0.2","","","","","","","","","","","","","","75","K","2","","true","0","full_practice",""
"","bandit","61","288764","0.0-32.0-10.0","31384174","wem/bandit_party_2","A3QSK8VCB8TYTH","either","4","329","","","","","","","1","0","0","0.6","","0.5","0.5","0.5","0.5","","","","","0.8","0.2","0.6","0.2","","","","","","","","","","75","K","2","","true","0","full_practice",""
"","bandit","62","290603","0.0-32.0-11.0","31384174","wem/bandit_party_2","A3QSK8VCB8TYTH","either","4","331","","","","","","","0","1","0","","0.6","0.5","0.5","0.5","0.5","0.8","0.2","0.6","0.2","","","","","","","","","","","","","","75","K","2","","true","0","full_practice",""
"","bandit","63","292979","0.0-32.0-12.0","31384174","wem/bandit_party_2","A3QSK8VCB8TYTH","either","4","869","","","","","","","0","0","1","","0.2","0.5","0.5","0.5","0.5","0.8","0.2","0.6","0.2","","","","","","","","","","","","","","76","L","3","","true","0","full_practice",""
"","bandit","64","294846","0.0-32.0-13.0","31384174","wem/bandit_party_2","A3QSK8VCB8TYTH","either","4","357","","","","","","","0","0","1","0.2","","0.5","0.5","0.5","0.5","","","","","0.8","0.2","0.6","0.2","","","","","","","","","","76","L","3","","true","0","full_practice",""
"","bandit","65","297513","0.0-32.0-14.0","31384174","wem/bandit_party_2","A3QSK8VCB8TYTH","either","4","1154","","","","","","","0","0","1","","0.2","0.5","0.5","0.5","0.5","0.8","0.2","0.6","0.2","","","","","","","","","","","","","","76","L","3","","true","0","full_practice",""
"","bandit","66","299503","0.0-32.0-15.0","31384174","wem/bandit_party_2","A3QSK8VCB8TYTH","either","4","477","","","","","","","1","0","0","0.8","","0.5","0.5","0.5","0.5","","","","","0.8","0.2","0.6","0.2","","","","","","","","","","72","H","0","img/none_selected.jpg","true","0","full_practice",""
"","bandit","67","301444","0.0-32.0-16.0","31384174","wem/bandit_party_2","A3QSK8VCB8TYTH","either","4","430","","","","","","","0","0","1","","0.6","0.5","0.5","0.5","0.5","0.8","0.2","0.6","0.2","","","","","","","","","","","","","","75","K","2","","true","0","full_practice",""
"","bandit","68","303230","0.0-32.0-17.0","31384174","wem/bandit_party_2","A3QSK8VCB8TYTH","either","4","275","","","","","","","0","0","1","","0.2","0.5","0.5","0.5","0.5","0.8","0.2","0.6","0.2","","","","","","","","","","","","","","74","J","1","","true","0","full_practice",""
"","bandit","69","304787","0.0-32.0-18.0","31384174","wem/bandit_party_2","A3QSK8VCB8TYTH","either","4","50","","","","","","","0","0","1","0.2","","0.5","0.5","0.5","0.5","","","","","0.8","0.2","0.6","0.2","","","","","","","","","","76","L","3","","true","0","full_practice",""
"","bandit","70","306602","0.0-32.0-19.0","31384174","wem/bandit_party_2","A3QSK8VCB8TYTH","either","4","309","","","","","","","0","1","0","","0.8","0.5","0.5","0.5","0.5","0.8","0.2","0.6","0.2","","","","","","","","","","","","","","72","H","0","img/none_selected.jpg","true","0","full_practice",""
"","text","71","310924","0.0-33.0","31384174","wem/bandit_party_2","A3QSK8VCB8TYTH","either","4","4316","","","32","","","","","","","","","","","","","","","","","","","","","","","","","","","","","","","","","","","","",""
"","text-replacement","72","327860","0.0-34.0","31384174","wem/bandit_party_2","A3QSK8VCB8TYTH","either","4","15931","","","32","","","","","","","","","","","","","","","","","","","","","","","","","","","","","","","","","","","","",""
"","text-replacement","73","348428","0.0-35.0","31384174","wem/bandit_party_2","A3QSK8VCB8TYTH","either","4","20566","","","32","","","","","","","","","","","","","","","","","","","","","","","","","","","","","","","","","","","","",""
"","text-replacement","74","356564","0.0-36.0","31384174","wem/bandit_party_2","A3QSK8VCB8TYTH","either","4","8132","","","32","","","","","","","","","","","","","","","","","","","","","","","","","","","","","","","","","","","","",""
"","text-replacement","75","367533","0.0-37.0","31384174","wem/bandit_party_2","A3QSK8VCB8TYTH","either","4","10965","","","32","","","","","","","","","","","","","","","","","","","","","","","","","","","","","","","","","","","","",""
"","text-replacement","76","377733","0.0-38.0","31384174","wem/bandit_party_2","A3QSK8VCB8TYTH","either","4","10198","","","32","","","","","","","","","","","","","","","","","","","","","","","","","","","","","","","","","","","","",""
"","survey-multi-choice-replacement","77","386221","0.0-39.0-0.0","31384174","wem/bandit_party_2","A3QSK8VCB8TYTH","either","4","8473","","","","","","","","","","","","","","","","","","","","","","","","Money will be added to the pool for <span style='color:red;'>REPUBLICANS</span>","","","","","","","attn_check","","","","","","","","","0"
"","survey-multi-choice-replacement","78","394302","0.0-40.0-0.0","31384174","wem/bandit_party_2","A3QSK8VCB8TYTH","either","4","7070","","","","","","","","","","","","","","","","","","","","","","","","Equal amounts of money will be added to the pool for <span style='color:red;'>REPUBLICANS</span> and subtracted from the pool for <span style='color:blue;'>DEMOCRATS</span>","","","","","","","attn_check","","","","","","","","","2"
"","survey-multi-choice-replacement","79","399286","0.0-41.0-0.0","31384174","wem/bandit_party_2","A3QSK8VCB8TYTH","either","4","3974","","","","","","","","","","","","","","","","","","","","","","","","No money will be added to either pool","","","","","","","attn_check","","","","","","","","","3"
"","bandit","80","403432","0.0-42.0-0.0","31384174","wem/bandit_party_2","A3QSK8VCB8TYTH","either","4","1630","","","","","","","0","0","1","","0.2887693562","0.4","0.8","0.2","0.6","0.2887693562","0.8209843215","0.9858900825","0.7267404998","","","","","","","","","","","","","","72","H","0","img/none_selected.jpg","","1","main_expt",""
"","bandit","81","405464","0.0-43.0-0.0","31384174","wem/bandit_party_2","A3QSK8VCB8TYTH","either","4","520","","","","","","","1","0","0","0.8179122382","","0.4","0.8","0.2","0.6","","","","","0.2986217167","0.8179122382","0.9854924354","0.7034907646","","","","","","","","","","74","J","1","","","2","main_expt",""
"","bandit","82","408209","0.0-44.0-0.0","31384174","wem/bandit_party_2","A3QSK8VCB8TYTH","either","4","1206","","","","","","","0","1","0","","0.9789624529","0.4","0.8","0.2","0.6","0.261346942","0.8301291561","0.9789624529","0.6574847675","","","","","","","","","","","","","","75","K","2","","","3","main_expt",""
"","bandit","83","410091","0.0-45.0-0.0","31384174","wem/bandit_party_2","A3QSK8VCB8TYTH","either","4","374","","","","","","","0","1","0","","0.5092805277","0.4","0.8","0.2","0.6","0.2757740293","0.8219157537","0.9565345184","0.5092805277","","","","","","","","","","","","","","76","L","3","","","4","main_expt",""
"","bandit","84","411981","0.0-46.0-0.0","31384174","wem/bandit_party_2","A3QSK8VCB8TYTH","either","4","348","","","","","","","0","0","1","0.7759220463","","0.4","0.8","0.2","0.6","","","","","0.3329857669","0.7759220463","0.941194936","0.5952926025","","","","","","","","","","74","J","1","","","5","main_expt",""
"","bandit","85","414045","0.0-47.0-0.0","31384174","wem/bandit_party_2","A3QSK8VCB8TYTH","either","4","554","","","","","","","1","0","0","0.7495930044","","0.4","0.8","0.2","0.6","","","","","0.331878758","0.7495930044","0.9305219143","0.6160758637","","","","","","","","","","74","J","1","","","6","main_expt",""
"","bandit","86","416068","0.0-48.0-0.0","31384174","wem/bandit_party_2","A3QSK8VCB8TYTH","either","4","514","","","","","","","0","1","0","","0.937738562","0.4","0.8","0.2","0.6","0.3863389794","0.7078030286","0.937738562","0.6381806331","","","","","","","","","","","","","","75","K","2","","","7","main_expt",""
"","bandit","87","418213","0.0-49.0-0.0","31384174","wem/bandit_party_2","A3QSK8VCB8TYTH","either","4","636","","","","","","","0","0","1","","0.7047831713","0.4","0.8","0.2","0.6","0.4242016385","0.689407674","0.8269671957","0.7047831713","","","","","","","","","","","","","","76","L","3","","","8","main_expt",""
"","bandit","88","419972","0.0-50.0-0.0","31384174","wem/bandit_party_2","A3QSK8VCB8TYTH","either","4","252","","","","","","","1","0","0","0.7848236408","","0.4","0.8","0.2","0.6","","","","","0.379169242","0.7848236408","0.7696709776","0.6222923336","","","","","","","","","","74","J","1","","","9","main_expt",""
"","bandit","89","421773","0.0-51.0-0.0","31384174","wem/bandit_party_2","A3QSK8VCB8TYTH","either","4","292","","","","","","","1","0","0","0.791363481","","0.4","0.8","0.2","0.6","","","","","0.40569916","0.791363481","0.7313552403","0.5629201009","","","","","","","","","","74","J","1","","","10","main_expt",""
"","bandit","90","423576","0.0-52.0-0.0","31384174","wem/bandit_party_2","A3QSK8VCB8TYTH","either","4","292","","","","","","","0","1","0","","0.8129169819","0.4","0.8","0.2","0.6","0.4188021694","0.7800632456","0.8129169819","0.644159789","","","","","","","","","","","","","","75","K","2","","","11","main_expt",""
"","bandit","91","425231","0.0-53.0-0.0","31384174","wem/bandit_party_2","A3QSK8VCB8TYTH","either","4","145","","","","","","","1","0","0","0.7559884596","","0.4","0.8","0.2","0.6","","","","","0.3689559917","0.7559884596","0.7611571711","0.6840372722","","","","","","","","","","74","J","1","","","12","main_expt",""
"","bandit","92","427079","0.0-54.0-0.0","31384174","wem/bandit_party_2","A3QSK8VCB8TYTH","either","4","337","","","","","","","0","0","1","0.7695577991","","0.4","0.8","0.2","0.6","","","","","0.4584943612","0.7695577991","0.7628417147","0.6236151953","","","","","","","","","","74","J","1","","","13","main_expt",""
"","bandit","93","428731","0.0-55.0-0.0","31384174","wem/bandit_party_2","A3QSK8VCB8TYTH","either","4","143","","","","","","","1","0","0","0.7436451733","","0.4","0.8","0.2","0.6","","","","","0.455083938","0.8509931145","0.7436451733","0.5388331182","","","","","","","","","","75","K","2","","","14","main_expt",""
"","bandit","94","430630","0.0-56.0-0.0","31384174","wem/bandit_party_2","A3QSK8VCB8TYTH","either","4","389","","","","","","","1","0","0","0.5360112786","","0.4","0.8","0.2","0.6","","","","","0.5360112786","0.7745856811","0.8256008488","0.4802769188","","","","","","","","","","72","H","0","img/none_selected.jpg","","15","main_expt",""
"","bandit","95","432466","0.0-57.0-0.0","31384174","wem/bandit_party_2","A3QSK8VCB8TYTH","either","4","324","","","","","","","0","1","0","","0.4791571541","0.4","0.8","0.2","0.6","0.4791571541","0.7576521113","0.7683027423","0.4688000192","","","","","","","","","","","","","","72","H","0","img/none_selected.jpg","","16","main_expt",""
"","bandit","96","434328","0.0-58.0-0.0","31384174","wem/bandit_party_2","A3QSK8VCB8TYTH","either","4","351","","","","","","","0","1","0","","0.7857675768","0.4","0.8","0.2","0.6","0.5263630166","0.8099558365","0.7857675768","0.6000602573","","","","","","","","","","","","","","75","K","2","","","17","main_expt",""
"","bandit","97","436158","0.0-59.0-0.0","31384174","wem/bandit_party_2","A3QSK8VCB8TYTH","either","4","319","","","","","","","0","0","1","0.6046592687","","0.4","0.8","0.2","0.6","","","","","0.543945959","0.7535280451","0.7303419725","0.6046592687","","","","","","","","","","76","L","3","","","18","main_expt",""
"","bandit","98","438287","0.0-60.0-0.0","31384174","wem/bandit_party_2","A3QSK8VCB8TYTH","either","4","506","","","","","","","0","0","1","0.4579801682","","0.4","0.8","0.2","0.6","","","","","0.4579801682","0.7206444799","0.7243255268","0.6177236116","","","","","","","","","","72","H","0","img/none_selected.jpg","","19","main_expt",""
"","bandit","99","440433","0.0-61.0-0.0","31384174","wem/bandit_party_2","A3QSK8VCB8TYTH","either","4","633","","","","","","","0","1","0","","0.7691283854","0.4","0.8","0.2","0.6","0.5439896582","0.6388551968","0.7691283854","0.5484637992","","","","","","","","","","","","","","75","K","2","","","20","main_expt",""
"","bandit","100","442472","0.0-62.0-0.0","31384174","wem/bandit_party_2","A3QSK8VCB8TYTH","either","4","528","","","","","","","0","1","0","","0.7068464658","0.4","0.8","0.2","0.6","0.5796019833","0.4956822649","0.7068464658","0.6646151354","","","","","","","","","","","","","","75","K","2","","","21","main_expt",""
"","bandit","101","444284","0.0-63.0-0.0","31384174","wem/bandit_party_2","A3QSK8VCB8TYTH","either","4","304","","","","","","","0","0","1","0.4316307404","","0.4","0.8","0.2","0.6","","","","","0.5885929095","0.4316307404","0.7407239748","0.7223938077","","","","","","","","","","74","J","1","","","22","main_expt",""
"","bandit","102","446519","0.0-64.0-0.0","31384174","wem/bandit_party_2","A3QSK8VCB8TYTH","either","4","723","","","","","","","0","0","1","0.4899642796","","0.4","0.8","0.2","0.6","","","","","0.4899642796","0.4158022912","0.7300920021","0.7548690184","","","","","","","","","","72","H","0","img/none_selected.jpg","","23","main_expt",""
"","bandit","103","448305","0.0-65.0-0.0","31384174","wem/bandit_party_2","A3QSK8VCB8TYTH","either","4","274","","","","","","","0","0","1","","0.7794954679","0.4","0.8","0.2","0.6","0.4984159311","0.4099928258","0.7074307303","0.7794954679","","","","","","","","","","","","","","76","L","3","","","24","main_expt",""
"","bandit","104","450066","0.0-66.0-0.0","31384174","wem/bandit_party_2","A3QSK8VCB8TYTH","either","4","248","","","","","","","0","0","1","","0.6228099684","0.4","0.8","0.2","0.6","0.5885503773","0.4303724308","0.6228099684","0.8029664172","","","","","","","","","","","","","","75","K","2","","","25","main_expt",""
"","bandit","105","451845","0.0-67.0-0.0","31384174","wem/bandit_party_2","A3QSK8VCB8TYTH","either","4","270","","","","","","","0","0","1","","0.5588879168","0.4","0.8","0.2","0.6","0.6978100054","0.3291624114","0.5588879168","0.6980766755","","","","","","","","","","","","","","75","K","2","","","26","main_expt",""
"","bandit","106","453693","0.0-68.0-0.0","31384174","wem/bandit_party_2","A3QSK8VCB8TYTH","either","4","339","","","","","","","1","0","0","0.6442468271","","0.4","0.8","0.2","0.6","","","","","0.6442468271","0.3795789415","0.5033257713","0.7021498626","","","","","","","","","","72","H","0","img/none_selected.jpg","","27","main_expt",""
"","bandit","107","455511","0.0-69.0-0.0","31384174","wem/bandit_party_2","A3QSK8VCB8TYTH","either","4","307","","","","","","","0","0","1","","0.7802436781","0.4","0.8","0.2","0.6","0.7399213538","0.3208573938","0.4915102133","0.7802436781","","","","","","","","","","","","","","76","L","3","","","28","main_expt",""
"","bandit","108","457348","0.0-70.0-0.0","31384174","wem/bandit_party_2","A3QSK8VCB8TYTH","either","4","330","","","","","","","0","1","0","","0.6907923131","0.4","0.8","0.2","0.6","0.7520253205","0.3352919619","0.4291187576","0.6907923131","","","","","","","","","","","","","","76","L","3","","","29","main_expt",""
"","bandit","109","459214","0.0-71.0-0.0","31384174","wem/bandit_party_2","A3QSK8VCB8TYTH","either","4","357","","","","","","","1","0","0","0.7528469829","","0.4","0.8","0.2","0.6","","","","","0.7528469829","0.3452717309","0.5379907803","0.6771306444","","","","","","","","","","72","H","0","img/none_selected.jpg","","30","main_expt",""
"","bandit","110","461040","0.0-72.0-0.0","31384174","wem/bandit_party_2","A3QSK8VCB8TYTH","either","4","313","","","","","","","0","1","0","","0.7571908429","0.4","0.8","0.2","0.6","0.7571908429","0.2967094522","0.646046857","0.7130915948","","","","","","","","","","","","","","72","H","0","img/none_selected.jpg","","31","main_expt",""
"","bandit","111","462877","0.0-73.0-0.0","31384174","wem/bandit_party_2","A3QSK8VCB8TYTH","either","4","329","","","","","","","0","1","0","","0.7530934884","0.4","0.8","0.2","0.6","0.7530934884","0.255781972","0.5608885347","0.6849190202","","","","","","","","","","","","","","72","H","0","img/none_selected.jpg","","32","main_expt",""
"","bandit","112","464884","0.0-74.0-0.0","31384174","wem/bandit_party_2","A3QSK8VCB8TYTH","either","4","499","","","","","","","0","1","0","","0.7163673585","0.4","0.8","0.2","0.6","0.7163673585","0.2703771925","0.5952322697","0.7392612035","","","","","","","","","","","","","","72","H","0","img/none_selected.jpg","","33","main_expt",""
"","bandit","113","466656","0.0-75.0-0.0","31384174","wem/bandit_party_2","A3QSK8VCB8TYTH","either","4","261","","","","","","","0","1","0","","0.6817248107","0.4","0.8","0.2","0.6","0.6817248107","0.3572673824","0.6206609301","0.7026009082","","","","","","","","","","","","","","72","H","0","img/none_selected.jpg","","34","main_expt",""
"","bandit","114","468525","0.0-76.0-0.0","31384174","wem/bandit_party_2","A3QSK8VCB8TYTH","either","4","359","","","","","","","0","0","1","0.6903641832","","0.4","0.8","0.2","0.6","","","","","0.6903641832","0.3237575066","0.6223058769","0.632003728","","","","","","","","","","72","H","0","img/none_selected.jpg","","35","main_expt",""
"","bandit","115","470668","0.0-77.0-0.0","31384174","wem/bandit_party_2","A3QSK8VCB8TYTH","either","4","589","","","","","","","0","0","1","","0.7266912659","0.4","0.8","0.2","0.6","0.6953747248","0.3724209237","0.7304722347","0.7266912659","","","","","","","","","","","","","","76","L","3","","","36","main_expt",""
"","bandit","116","472436","0.0-78.0-0.0","31384174","wem/bandit_party_2","A3QSK8VCB8TYTH","either","4","221","","","","","","","1","0","0","0.5512211225","","0.4","0.8","0.2","0.6","","","","","0.7552078918","0.3848591071","0.6789706255","0.5512211225","","","","","","","","","","76","L","3","","","37","main_expt",""
"","bandit","117","474299","0.0-79.0-0.0","31384174","wem/bandit_party_2","A3QSK8VCB8TYTH","either","4","349","","","","","","","0","1","0","","0.5888446875","0.4","0.8","0.2","0.6","0.7095976639","0.4026628424","0.6758320082","0.5888446875","","","","","","","","","","","","","","76","L","3","","","38","main_expt",""
"","bandit","118","476158","0.0-80.0-0.0","31384174","wem/bandit_party_2","A3QSK8VCB8TYTH","either","4","350","","","","","","","1","0","0","0.7349010221","","0.4","0.8","0.2","0.6","","","","","0.7813817897","0.460229008","0.753286291","0.7349010221","","","","","","","","","","76","L","3","","","39","main_expt",""
"","bandit","119","477994","0.0-81.0-0.0","31384174","wem/bandit_party_2","A3QSK8VCB8TYTH","either","4","331","","","","","","","0","1","0","","0.6715391024","0.4","0.8","0.2","0.6","0.7604460558","0.3392787789","0.7527041006","0.6715391024","","","","","","","","","","","","","","76","L","3","","","40","main_expt",""
"","bandit","120","479758","0.0-82.0-0.0","31384174","wem/bandit_party_2","A3QSK8VCB8TYTH","either","4","255","","","","","","","0","1","0","","0.688235262","0.4","0.8","0.2","0.6","0.7588214983","0.2983701942","0.7900808451","0.688235262","","","","","","","","","","","","","","76","L","3","","","41","main_expt",""
"","bandit","121","481511","0.0-83.0-0.0","31384174","wem/bandit_party_2","A3QSK8VCB8TYTH","either","4","244","","","","","","","0","1","0","","0.750516412","0.4","0.8","0.2","0.6","0.8204813903","0.2390858253","0.7261157662","0.750516412","","","","","","","","","","","","","","76","L","3","","","42","main_expt",""
"","bandit","122","483240","0.0-84.0-0.0","31384174","wem/bandit_party_2","A3QSK8VCB8TYTH","either","4","143","","","","","","","1","0","0","0.775378891","","0.4","0.8","0.2","0.6","","","","","0.8310219988","0.1877526289","0.772887471","0.775378891","","","","","","","","","","76","L","3","","","43","main_expt",""
"","bandit","123","485093","0.0-85.0-0.0","31384174","wem/bandit_party_2","A3QSK8VCB8TYTH","either","4","345","","","","","","","1","0","0","0.5983035632","","0.4","0.8","0.2","0.6","","","","","0.8165903167","0.2713877418","0.7359848823","0.5983035632","","","","","","","","","","76","L","3","","","44","main_expt",""
"","bandit","124","486936","0.0-86.0-0.0","31384174","wem/bandit_party_2","A3QSK8VCB8TYTH","either","4","332","","","","","","","0","1","0","","0.6453890447","0.4","0.8","0.2","0.6","0.6765015189","0.2600408605","0.6223954065","0.6453890447","","","","","","","","","","","","","","76","L","3","","","45","main_expt",""
"","bandit","125","488828","0.0-87.0-0.0","31384174","wem/bandit_party_2","A3QSK8VCB8TYTH","either","4","321","","","","","","","1","0","0","0.4979639723","","0.4","0.8","0.2","0.6","","","","","0.6613510417","0.2435580982","0.5963379238","0.4979639723","","","","","","","","","","76","L","3","","","46","main_expt",""
"","bandit","126","490730","0.0-88.0-0.0","31384174","wem/bandit_party_2","A3QSK8VCB8TYTH","either","4","389","","","","","","","0","0","1","","0.4475739324","0.4","0.8","0.2","0.6","0.7373034573","0.3258971046","0.6161308884","0.4475739324","","","","","","","","","","","","","","76","L","3","","","47","main_expt",""
"","bandit","127","492559","0.0-89.0-0.0","31384174","wem/bandit_party_2","A3QSK8VCB8TYTH","either","4","319","","","","","","","0","1","0","","0.6354722558","0.4","0.8","0.2","0.6","0.6580913366","0.2934977076","0.6354722558","0.570942939","","","","","","","","","","","","","","75","K","2","","","48","main_expt",""
"","bandit","128","494625","0.0-90.0-0.0","31384174","wem/bandit_party_2","A3QSK8VCB8TYTH","either","4","554","","","","","","","0","1","0","","0.6518545324","0.4","0.8","0.2","0.6","0.6518545324","0.3381222087","0.5941747261","0.5943858444","","","","","","","","","","","","","","72","H","0","img/none_selected.jpg","","49","main_expt",""
"","bandit","129","496701","0.0-91.0-0.0","31384174","wem/bandit_party_2","A3QSK8VCB8TYTH","either","4","567","","","","","","","0","0","1","0.4149653651","","0.4","0.8","0.2","0.6","","","","","0.6362385309","0.4149653651","0.5510631732","0.72156704","","","","","","","","","","74","J","1","","","50","main_expt",""
"","bandit","130","498503","0.0-92.0-0.0","31384174","wem/bandit_party_2","A3QSK8VCB8TYTH","either","4","291","","","","","","","1","0","0","0.315936401","","0.4","0.8","0.2","0.6","","","","","0.6673370403","0.315936401","0.5580995271","0.6453884322","","","","","","","","","","74","J","1","","","51","main_expt",""
"","bandit","131","500898","0.0-93.0-0.0","31384174","wem/bandit_party_2","A3QSK8VCB8TYTH","either","4","882","","","","","","","0","0","1","","0.34776451","0.4","0.8","0.2","0.6","0.6614759556","0.34776451","0.4492126091","0.635653338","","","","","","","","","","","","","","74","J","1","","","52","main_expt",""
"","bandit","132","502682","0.0-94.0-0.0","31384174","wem/bandit_party_2","A3QSK8VCB8TYTH","either","4","271","","","","","","","0","1","0","","0.4600129001","0.4","0.8","0.2","0.6","0.5099009019","0.2946288454","0.4600129001","0.5700640027","","","","","","","","","","","","","","75","K","2","","","53","main_expt",""
"","bandit","133","504425","0.0-95.0-0.0","31384174","wem/bandit_party_2","A3QSK8VCB8TYTH","either","4","231","","","","","","","0","0","1","","0.4005354829","0.4","0.8","0.2","0.6","0.5323874036","0.3757560715","0.4005354829","0.4535518587","","","","","","","","","","","","","","75","K","2","","","54","main_expt",""
"","bandit","134","506192","0.0-96.0-0.0","31384174","wem/bandit_party_2","A3QSK8VCB8TYTH","either","4","257","","","","","","","0","1","0","","0.5410243768","0.4","0.8","0.2","0.6","0.5410243768","0.3258455482","0.3305694417","0.4271895083","","","","","","","","","","","","","","72","H","0","img/none_selected.jpg","","55","main_expt",""
"","bandit","135","508014","0.0-97.0-0.0","31384174","wem/bandit_party_2","A3QSK8VCB8TYTH","either","4","298","","","","","","","0","1","0","","0.5594159285","0.4","0.8","0.2","0.6","0.5594159285","0.4350401219","0.3443449075","0.3506641683","","","","","","","","","","","","","","72","H","0","img/none_selected.jpg","","56","main_expt",""
"","bandit","136","509886","0.0-98.0-0.0","31384174","wem/bandit_party_2","A3QSK8VCB8TYTH","either","4","364","","","","","","","0","0","1","","0.5057935102","0.4","0.8","0.2","0.6","0.5057935102","0.3707313189","0.3719720486","0.3266461122","","","","","","","","","","","","","","72","H","0","img/none_selected.jpg","","57","main_expt",""
"","bandit","137","511763","0.0-99.0-0.0","31384174","wem/bandit_party_2","A3QSK8VCB8TYTH","either","4","364","","","","","","","0","0","1","","0.4921421838","0.4","0.8","0.2","0.6","0.4921421838","0.5588799977","0.2230753252","0.3024401834","","","","","","","","","","","","","","72","H","0","img/none_selected.jpg","","58","main_expt",""
"","bandit","138","513841","0.0-100.0-0.0","31384174","wem/bandit_party_2","A3QSK8VCB8TYTH","either","4","568","","","","","","","0","0","1","","0.2255195526","0.4","0.8","0.2","0.6","0.4740341295","0.6863198467","0.2255195526","0.4306619987","","","","","","","","","","","","","","75","K","2","","","59","main_expt",""
"","bandit","139","515615","0.0-101.0-0.0","31384174","wem/bandit_party_2","A3QSK8VCB8TYTH","either","4","265","","","","","","","0","1","0","","0.4710521126","0.4","0.8","0.2","0.6","0.4853159436","0.6998437478","0.2150487889","0.4710521126","","","","","","","","","","","","","","76","L","3","","","60","main_expt",""
"","bandit","140","517416","0.0-102.0-0.0","31384174","wem/bandit_party_2","A3QSK8VCB8TYTH","either","4","290","","","","","","","0","0","1","0.7027468204","","0.4","0.8","0.2","0.6","","","","","0.4843563089","0.7027468204","0.2670703017","0.4797168847","","","","","","","","","","74","J","1","","","61","main_expt",""
"","bandit","141","519317","0.0-103.0-0.0","31384174","wem/bandit_party_2","A3QSK8VCB8TYTH","either","4","338","","","","","","","1","0","0","0.7461433662","","0.4","0.8","0.2","0.6","","","","","0.4970562682","0.7461433662","0.1622034337","0.441351191","","","","","","","","","","74","J","1","","","62","main_expt",""
"","bandit","142","521177","0.0-104.0-0.0","31384174","wem/bandit_party_2","A3QSK8VCB8TYTH","either","4","349","","","","","","","0","0","1","0.7956877632","","0.4","0.8","0.2","0.6","","","","","0.4870743105","0.7956877632","0.1872430185","0.6405696824","","","","","","","","","","74","J","1","","","63","main_expt",""
"","bandit","143","522841","0.0-105.0-0.0","31384174","wem/bandit_party_2","A3QSK8VCB8TYTH","either","4","150","","","","","","","1","0","0","0.5093225209","","0.4","0.8","0.2","0.6","","","","","0.5297884171","0.7533911137","0.1921602407","0.5093225209","","","","","","","","","","76","L","3","","","64","main_expt",""
"","bandit","144","524655","0.0-106.0-0.0","31384174","wem/bandit_party_2","A3QSK8VCB8TYTH","either","4","304","","","","","","","0","0","1","","0.5190422554","0.4","0.8","0.2","0.6","0.5510281753","0.8407665504","0.1747679693","0.5190422554","","","","","","","","","","","","","","76","L","3","","","65","main_expt",""
"","bandit","145","526431","0.0-107.0-0.0","31384174","wem/bandit_party_2","A3QSK8VCB8TYTH","either","4","268","","","","","","","1","0","0","0.4367989657","","0.4","0.8","0.2","0.6","","","","","0.6548378986","0.8392190168","0.149475979","0.4367989657","","","","","","","","","","76","L","3","","","66","main_expt",""
"","bandit","146","528306","0.0-108.0-0.0","31384174","wem/bandit_party_2","A3QSK8VCB8TYTH","either","4","362","","","","","","","0","0","1","","0.4515976155","0.4","0.8","0.2","0.6","0.7873643744","0.7998105719","0.1340316754","0.4515976155","","","","","","","","","","","","","","76","L","3","","","67","main_expt",""
"","bandit","147","530082","0.0-109.0-0.0","31384174","wem/bandit_party_2","A3QSK8VCB8TYTH","either","4","264","","","","","","","1","0","0","0.8374830125","","0.4","0.8","0.2","0.6","","","","","0.8374830125","0.8055175736","0.1635100664","0.4605235732","","","","","","","","","","72","H","0","img/none_selected.jpg","","68","main_expt",""
"","bandit","148","531904","0.0-110.0-0.0","31384174","wem/bandit_party_2","A3QSK8VCB8TYTH","either","4","311","","","","","","","0","1","0","","0.7948054761","0.4","0.8","0.2","0.6","0.7948054761","0.9157616325","0.1227365859","0.3799115548","","","","","","","","","","","","","","72","H","0","img/none_selected.jpg","","69","main_expt",""
"","bandit","149","533744","0.0-111.0-0.0","31384174","wem/bandit_party_2","A3QSK8VCB8TYTH","either","4","329","","","","","","","0","1","0","","0.8257183208","0.4","0.8","0.2","0.6","0.8257183208","0.9575411193","0.1248437045","0.4215965018","","","","","","","","","","","","","","72","H","0","img/none_selected.jpg","","70","main_expt",""
"","bandit","150","535540","0.0-112.0-0.0","31384174","wem/bandit_party_2","A3QSK8VCB8TYTH","either","4","282","","","","","","","1","0","0","0.7378076352","","0.4","0.8","0.2","0.6","","","","","0.7378076352","0.9604429572","0.1153860856","0.4069040491","","","","","","","","","","72","H","0","img/none_selected.jpg","","71","main_expt",""
"","bandit","151","537403","0.0-113.0-0.0","31384174","wem/bandit_party_2","A3QSK8VCB8TYTH","either","4","351","","","","","","","0","1","0","","0.7402058239","0.4","0.8","0.2","0.6","0.7402058239","0.9598545795","0.1355011504","0.4396577013","","","","","","","","","","","","","","72","H","0","img/none_selected.jpg","","72","main_expt",""
"","bandit","152","539511","0.0-114.0-0.0","31384174","wem/bandit_party_2","A3QSK8VCB8TYTH","either","4","495","","","","","","","0","0","1","0.6976791507","","0.4","0.8","0.2","0.6","","","","","0.6976791507","0.944667289","0.05996807606","0.6562772762","","","","","","","","","","72","H","0","img/none_selected.jpg","","73","main_expt",""
"","bandit","153","541388","0.0-115.0-0.0","31384174","wem/bandit_party_2","A3QSK8VCB8TYTH","either","4","363","","","","","","","0","1","0","","0.6973429816","0.4","0.8","0.2","0.6","0.7918365236","0.9226304804","0.05405538329","0.6973429816","","","","","","","","","","","","","","76","L","3","","","74","main_expt",""
"","bandit","154","543528","0.0-116.0-0.0","31384174","wem/bandit_party_2","A3QSK8VCB8TYTH","either","4","630","","","","","","","0","0","1","","0.9398646798","0.4","0.8","0.2","0.6","0.7822783488","0.9398646798","0.02989929625","0.7736122178","","","","","","","","","","","","","","74","J","1","","","75","main_expt",""
"","bandit","155","545450","0.0-117.0-0.0","31384174","wem/bandit_party_2","A3QSK8VCB8TYTH","either","4","409","","","","","","","1","0","0","0.8130420724","","0.4","0.8","0.2","0.6","","","","","0.7290889389","0.9344412274","0.0563551135","0.8130420724","","","","","","","","","","76","L","3","","","76","main_expt",""
"","bandit","156","547306","0.0-118.0-0.0","31384174","wem/bandit_party_2","A3QSK8VCB8TYTH","either","4","345","","","","","","","0","0","1","","0.0510075381","0.4","0.8","0.2","0.6","0.7903383215","0.9512527415","0.0510075381","0.8182773084","","","","","","","","","","","","","","75","K","2","","","77","main_expt",""
"","bandit","157","549143","0.0-119.0-0.0","31384174","wem/bandit_party_2","A3QSK8VCB8TYTH","either","4","271","","","","","","","0","1","0","","0.910984946","0.4","0.8","0.2","0.6","0.8093770606","0.945324638","0.07280641377","0.910984946","","","","","","","","","","","","","","76","L","3","","","78","main_expt",""
"","bandit","158","550970","0.0-120.0-0.0","31384174","wem/bandit_party_2","A3QSK8VCB8TYTH","either","4","316","","","","","","","0","1","0","","0.7310189459","0.4","0.8","0.2","0.6","0.7310189459","0.9313693401","0.06591604593","0.9303795674","","","","","","","","","","","","","","72","H","0","img/none_selected.jpg","","79","main_expt",""
"","bandit","159","552746","0.0-121.0-0.0","31384174","wem/bandit_party_2","A3QSK8VCB8TYTH","either","4","264","","","","","","","0","1","0","","0.9581515868","0.4","0.8","0.2","0.6","0.7915113188","0.9272018461","0.02790121052","0.9581515868","","","","","","","","","","","","","","76","L","3","","","80","main_expt",""
"","bandit","160","554494","0.0-122.0-0.0","31384174","wem/bandit_party_2","A3QSK8VCB8TYTH","either","4","241","","","","","","","0","1","0","","0.8463201033","0.4","0.8","0.2","0.6","0.8463201033","0.9340165544","0.03997429631","0.9107397581","","","","","","","","","","","","","","72","H","0","img/none_selected.jpg","","81","main_expt",""
"","bandit","161","556275","0.0-123.0-0.0","31384174","wem/bandit_party_2","A3QSK8VCB8TYTH","either","4","269","","","","","","","0","1","0","","0.9531247327","0.4","0.8","0.2","0.6","0.9043915002","0.9778602254","0.03692483048","0.9531247327","","","","","","","","","","","","","","76","L","3","","","82","main_expt",""
"","bandit","162","558080","0.0-124.0-0.0","31384174","wem/bandit_party_2","A3QSK8VCB8TYTH","either","4","296","","","","","","","0","1","0","","0.922294541","0.4","0.8","0.2","0.6","0.922294541","0.9593015187","0.04167024954","0.91574064","","","","","","","","","","","","","","72","H","0","img/none_selected.jpg","","83","main_expt",""
"","bandit","163","559991","0.0-125.0-0.0","31384174","wem/bandit_party_2","A3QSK8VCB8TYTH","either","4","402","","","","","","","0","1","0","","0.9287460716","0.4","0.8","0.2","0.6","0.9079954767","0.9398758864","0.03449326924","0.9287460716","","","","","","","","","","","","","","76","L","3","","","84","main_expt",""
"","bandit","164","561818","0.0-126.0-0.0","31384174","wem/bandit_party_2","A3QSK8VCB8TYTH","either","4","316","","","","","","","1","0","0","0.92293493","","0.4","0.8","0.2","0.6","","","","","0.92293493","0.9256746213","0.07382848834","0.9817994773","","","","","","","","","","72","H","0","img/none_selected.jpg","","85","main_expt",""
"","bandit","165","563459","0.0-127.0-0.0","31384174","wem/bandit_party_2","A3QSK8VCB8TYTH","either","4","127","","","","","","","0","1","0","","0.9651028603","0.4","0.8","0.2","0.6","0.8831043051","0.8910640916","0.08839198485","0.9651028603","","","","","","","","","","","","","","76","L","3","","","86","main_expt",""
"","bandit","166","565314","0.0-128.0-0.0","31384174","wem/bandit_party_2","A3QSK8VCB8TYTH","either","4","344","","","","","","","1","0","0","0.876749115","","0.4","0.8","0.2","0.6","","","","","0.876749115","0.8729480744","0.08767612821","0.9364705545","","","","","","","","","","72","H","0","img/none_selected.jpg","","87","main_expt",""
"","bandit","167","567062","0.0-129.0-0.0","31384174","wem/bandit_party_2","A3QSK8VCB8TYTH","either","4","241","","","","","","","1","0","0","0.9235767634","","0.4","0.8","0.2","0.6","","","","","0.9189432589","0.8780151739","0.1606359608","0.9235767634","","","","","","","","","","76","L","3","","","88","main_expt",""
"","bandit","168","568889","0.0-130.0-0.0","31384174","wem/bandit_party_2","A3QSK8VCB8TYTH","either","4","316","","","","","","","0","1","0","","0.8770582065","0.4","0.8","0.2","0.6","0.8770582065","0.8856980863","0.2051996915","0.9375107972","","","","","","","","","","","","","","72","H","0","img/none_selected.jpg","","89","main_expt",""
"","bandit","169","570683","0.0-131.0-0.0","31384174","wem/bandit_party_2","A3QSK8VCB8TYTH","either","4","281","","","","","","","1","0","0","0.9201099193","","0.4","0.8","0.2","0.6","","","","","0.9303780437","0.8828292745","0.1757431166","0.9201099193","","","","","","","","","","76","L","3","","","90","main_expt",""
"","bandit","170","572680","0.0-132.0-0.0","31384174","wem/bandit_party_2","A3QSK8VCB8TYTH","either","4","487","","","","","","","1","0","0","0.8870296602","","0.4","0.8","0.2","0.6","","","","","0.8870296602","0.9016480115","0.3470073597","0.9416722714","","","","","","","","","","72","H","0","img/none_selected.jpg","","91","main_expt",""
"","bandit","171","574503","0.0-133.0-0.0","31384174","wem/bandit_party_2","A3QSK8VCB8TYTH","either","4","314","","","","","","","0","1","0","","0.8466670433","0.4","0.8","0.2","0.6","0.8466670433","0.9077272713","0.4969118024","0.943817784","","","","","","","","","","","","","","72","H","0","img/none_selected.jpg","","92","main_expt",""
"","bandit","172","576355","0.0-134.0-0.0","31384174","wem/bandit_party_2","A3QSK8VCB8TYTH","either","4","339","","","","","","","0","1","0","","0.850017275","0.4","0.8","0.2","0.6","0.850017275","0.875936713","0.5773598144","0.9078517942","","","","","","","","","","","","","","72","H","0","img/none_selected.jpg","","93","main_expt",""
"","bandit","173","577951","0.0-135.0-0.0","31384174","wem/bandit_party_2","A3QSK8VCB8TYTH","either","4","88","","","","","","","0","0","1","","0.6893652978","0.4","0.8","0.2","0.6","0.6893652978","0.8089346838","0.5513550223","0.8983200186","","","","","","","","","","","","","","72","H","0","img/none_selected.jpg","","94","main_expt",""
"","bandit","174","579484","0.0-136.0-0.0","31384174","wem/bandit_party_2","A3QSK8VCB8TYTH","either","4","21","","","","","","","0","0","1","","0.8744309931","0.4","0.8","0.2","0.6","0.6025630118","0.7472177953","0.5461825447","0.8744309931","","","","","","","","","","","","","","76","L","3","","","95","main_expt",""
"","bandit","175","581400","0.0-137.0-0.0","31384174","wem/bandit_party_2","A3QSK8VCB8TYTH","either","4","406","","","","","","","1","0","0","0.8894212924","","0.4","0.8","0.2","0.6","","","","","0.5565182624","0.631257407","0.5564841108","0.8894212924","","","","","","","","","","76","L","3","","","96","main_expt",""
"","bandit","176","583232","0.0-138.0-0.0","31384174","wem/bandit_party_2","A3QSK8VCB8TYTH","either","4","323","","","","","","","1","0","0","0.7474787878","","0.4","0.8","0.2","0.6","","","","","0.4820287155","0.7474787878","0.6513715187","0.891162681","","","","","","","","","","74","J","1","","","97","main_expt",""
"","bandit","177","585144","0.0-139.0-0.0","31384174","wem/bandit_party_2","A3QSK8VCB8TYTH","either","4","402","","","","","","","0","1","0","","0.7753317291","0.4","0.8","0.2","0.6","0.4599621431","0.7753317291","0.7004254565","0.8495400438","","","","","","","","","","","","","","74","J","1","","","98","main_expt",""
"","bandit","178","587010","0.0-140.0-0.0","31384174","wem/bandit_party_2","A3QSK8VCB8TYTH","either","4","336","","","","","","","0","1","0","","0.8671572546","0.4","0.8","0.2","0.6","0.4109144258","0.7088399779","0.6473310623","0.8671572546","","","","","","","","","","","","","","76","L","3","","","99","main_expt",""
"","bandit","179","588880","0.0-141.0-0.0","31384174","wem/bandit_party_2","A3QSK8VCB8TYTH","either","4","336","","","","","","","1","0","0","0.8312294914","","0.4","0.8","0.2","0.6","","","","","0.3466085394","0.7328055719","0.6160818326","0.8312294914","","","","","","","","","","76","L","3","","","100","main_expt",""
"","bandit","180","590560","0.0-142.0-0.0","31384174","wem/bandit_party_2","A3QSK8VCB8TYTH","either","4","171","","","","","","","0","1","0","","0.8135240708","0.4","0.8","0.2","0.6","0.3712289037","0.8183789849","0.6963675268","0.8135240708","","","","","","","","","","","","","","76","L","3","","","101","main_expt",""
"","bandit","181","592371","0.0-143.0-0.0","31384174","wem/bandit_party_2","A3QSK8VCB8TYTH","either","4","299","","","","","","","1","0","0","0.8556055773","","0.4","0.8","0.2","0.6","","","","","0.3626324234","0.7854635714","0.6339579424","0.8556055773","","","","","","","","","","76","L","3","","","102","main_expt",""
"","bandit","182","594171","0.0-144.0-0.0","31384174","wem/bandit_party_2","A3QSK8VCB8TYTH","either","4","287","","","","","","","1","0","0","0.8481411385","","0.4","0.8","0.2","0.6","","","","","0.2748825764","0.8481411385","0.6908430899","0.7632006143","","","","","","","","","","74","J","1","","","103","main_expt",""
"","bandit","183","595881","0.0-145.0-0.0","31384174","wem/bandit_party_2","A3QSK8VCB8TYTH","either","4","199","","","","","","","0","1","0","","0.8129446485","0.4","0.8","0.2","0.6","0.2381725209","0.8129446485","0.6866318891","0.8273213265","","","","","","","","","","","","","","74","J","1","","","104","main_expt",""
"","bandit","184","597681","0.0-146.0-0.0","31384174","wem/bandit_party_2","A3QSK8VCB8TYTH","either","4","240","","","","","","","1","0","0","0.7898688037","","0.4","0.8","0.2","0.6","","","","","0.1939551764","0.7898688037","0.6749941214","0.7930501456","","","","","","","","","","74","J","1","","","105","main_expt",""
"","bandit","185","599401","0.0-147.0-0.0","31384174","wem/bandit_party_2","A3QSK8VCB8TYTH","either","4","210","","","","","","","0","0","1","0.7810744832","","0.4","0.8","0.2","0.6","","","","","0.1884153881","0.7810744832","0.7300347885","0.7186603115","","","","","","","","","","74","J","1","","","106","main_expt",""
"","bandit","186","601236","0.0-148.0-0.0","31384174","wem/bandit_party_2","A3QSK8VCB8TYTH","either","4","320","","","","","","","0","1","0","","0.7837395221","0.4","0.8","0.2","0.6","0.1011451677","0.7837395221","0.8133516847","0.7155595947","","","","","","","","","","","","","","74","J","1","","","107","main_expt",""
"","bandit","187","603048","0.0-149.0-0.0","31384174","wem/bandit_party_2","A3QSK8VCB8TYTH","either","4","303","","","","","","","1","0","0","0.787971135","","0.4","0.8","0.2","0.6","","","","","0.1500242655","0.787971135","0.8009432675","0.7654707556","","","","","","","","","","74","J","1","","","108","main_expt",""
"","bandit","188","604846","0.0-150.0-0.0","31384174","wem/bandit_party_2","A3QSK8VCB8TYTH","either","4","289","","","","","","","1","0","0","0.6866525704","","0.4","0.8","0.2","0.6","","","","","0.1285750889","0.6866525704","0.7379370491","0.6288612937","","","","","","","","","","74","J","1","","","109","main_expt",""
"","bandit","189","606746","0.0-151.0-0.0","31384174","wem/bandit_party_2","A3QSK8VCB8TYTH","either","4","389","","","","","","","0","0","1","0.5824748378","","0.4","0.8","0.2","0.6","","","","","0.06279291231","0.5824748378","0.7379992527","0.6309058105","","","","","","","","","","74","J","1","","","110","main_expt",""
"","bandit","190","608515","0.0-152.0-0.0","31384174","wem/bandit_party_2","A3QSK8VCB8TYTH","either","4","258","","","","","","","1","0","0","0.659702805","","0.4","0.8","0.2","0.6","","","","","0.07144278273","0.659702805","0.7464430213","0.6218965746","","","","","","","","","","74","J","1","","","111","main_expt",""
"","bandit","191","610332","0.0-153.0-0.0","31384174","wem/bandit_party_2","A3QSK8VCB8TYTH","either","4","304","","","","","","","1","0","0","0.5111205641","","0.4","0.8","0.2","0.6","","","","","0.06013221683","0.5111205641","0.7736339118","0.6741482942","","","","","","","","","","74","J","1","","","112","main_expt",""
"","bandit","192","612028","0.0-154.0-0.0","31384174","wem/bandit_party_2","A3QSK8VCB8TYTH","either","4","181","","","","","","","0","1","0","","0.4852392648","0.4","0.8","0.2","0.6","0.1442356489","0.4852392648","0.8480767854","0.7405202534","","","","","","","","","","","","","","74","J","1","","","113","main_expt",""
"","bandit","193","614751","0.0-155.0-0.0","31384174","wem/bandit_party_2","A3QSK8VCB8TYTH","either","4","1215","","","","","","","0","0","1","0.3531287621","","0.4","0.8","0.2","0.6","","","","","0.1733870882","0.3531287621","0.8016933152","0.743157628","","","","","","","","","","74","J","1","","","114","main_expt",""
"","bandit","194","616593","0.0-156.0-0.0","31384174","wem/bandit_party_2","A3QSK8VCB8TYTH","either","4","330","","","","","","","0","0","1","0.4090792957","","0.4","0.8","0.2","0.6","","","","","0.2198725907","0.4090792957","0.8200260584","0.7732583829","","","","","","","","","","74","J","1","","","115","main_expt",""
"","bandit","195","618315","0.0-157.0-0.0","31384174","wem/bandit_party_2","A3QSK8VCB8TYTH","either","4","211","","","","","","","1","0","0","0.6224016225","","0.4","0.8","0.2","0.6","","","","","0.2116870815","0.4927933112","0.7761954976","0.6224016225","","","","","","","","","","76","L","3","","","116","main_expt",""
"","bandit","196","620357","0.0-158.0-0.0","31384174","wem/bandit_party_2","A3QSK8VCB8TYTH","either","4","527","","","","","","","0","1","0","","0.7722233998","0.4","0.8","0.2","0.6","0.1293815938","0.4255499736","0.7722233998","0.6784399158","","","","","","","","","","","","","","75","K","2","","","117","main_expt",""
"","bandit","197","622122","0.0-159.0-0.0","31384174","wem/bandit_party_2","A3QSK8VCB8TYTH","either","4","254","","","","","","","0","0","1","","0.7499631032","0.4","0.8","0.2","0.6","0.1442073762","0.4073726931","0.8049831996","0.7499631032","","","","","","","","","","","","","","76","L","3","","","118","main_expt",""
"","bandit","198","623909","0.0-160.0-0.0","31384174","wem/bandit_party_2","A3QSK8VCB8TYTH","either","4","272","","","","","","","1","0","0","0.6258432538","","0.4","0.8","0.2","0.6","","","","","0.2098334931","0.5447318884","0.8469405197","0.6258432538","","","","","","","","","","76","L","3","","","119","main_expt",""
"","bandit","199","625808","0.0-161.0-0.0","31384174","wem/bandit_party_2","A3QSK8VCB8TYTH","either","4","389","","","","","","","1","0","0","0.5602994123","","0.4","0.8","0.2","0.6","","","","","0.243218138","0.5336717705","0.783925966","0.5602994123","","","","","","","","","","76","L","3","","","120","main_expt",""
"","bandit","200","627608","0.0-162.0-0.0","31384174","wem/bandit_party_2","A3QSK8VCB8TYTH","either","4","290","","","","","","","0","1","0","","0.5850644561","0.4","0.8","0.2","0.6","0.1595445902","0.5621279662","0.8031476983","0.5850644561","","","","","","","","","","","","","","76","L","3","","","121","main_expt",""
"","bandit","201","629461","0.0-163.0-0.0","31384174","wem/bandit_party_2","A3QSK8VCB8TYTH","either","4","339","","","","","","","0","1","0","","0.6205732407","0.4","0.8","0.2","0.6","0.1939767007","0.5664238538","0.776878313","0.6205732407","","","","","","","","","","","","","","76","L","3","","","122","main_expt",""
"","bandit","202","631225","0.0-164.0-0.0","31384174","wem/bandit_party_2","A3QSK8VCB8TYTH","either","4","253","","","","","","","1","0","0","0.7954206102","","0.4","0.8","0.2","0.6","","","","","0.2265728871","0.6501842916","0.7695343448","0.7954206102","","","","","","","","","","76","L","3","","","123","main_expt",""
"","bandit","203","633083","0.0-165.0-0.0","31384174","wem/bandit_party_2","A3QSK8VCB8TYTH","either","4","348","","","","","","","1","0","0","0.881213352","","0.4","0.8","0.2","0.6","","","","","0.2027469411","0.5413703051","0.6154230174","0.881213352","","","","","","","","","","76","L","3","","","124","main_expt",""
"","bandit","204","634900","0.0-166.0-0.0","31384174","wem/bandit_party_2","A3QSK8VCB8TYTH","either","4","306","","","","","","","0","1","0","","0.8598562332","0.4","0.8","0.2","0.6","0.1506135949","0.5191338098","0.4710930195","0.8598562332","","","","","","","","","","","","","","76","L","3","","","125","main_expt",""
"","bandit","205","636705","0.0-167.0-0.0","31384174","wem/bandit_party_2","A3QSK8VCB8TYTH","either","4","294","","","","","","","1","0","0","0.867144728","","0.4","0.8","0.2","0.6","","","","","0.1875851228","0.6232591378","0.5258886302","0.867144728","","","","","","","","","","76","L","3","","","126","main_expt",""
"","bandit","206","638539","0.0-168.0-0.0","31384174","wem/bandit_party_2","A3QSK8VCB8TYTH","either","4","322","","","","","","","1","0","0","0.8677917819","","0.4","0.8","0.2","0.6","","","","","0.2106184636","0.601333273","0.3996486754","0.8677917819","","","","","","","","","","76","L","3","","","127","main_expt",""
"","bandit","207","640459","0.0-169.0-0.0","31384174","wem/bandit_party_2","A3QSK8VCB8TYTH","either","4","407","","","","","","","1","0","0","0.8194058857","","0.4","0.8","0.2","0.6","","","","","0.1276240755","0.6312294041","0.3557241191","0.8194058857","","","","","","","","","","76","L","3","","","128","main_expt",""
"","bandit","208","642411","0.0-170.0-0.0","31384174","wem/bandit_party_2","A3QSK8VCB8TYTH","either","4","442","","","","","","","0","0","1","","0.813940224","0.4","0.8","0.2","0.6","0.2163335705","0.6655034733","0.2432070908","0.813940224","","","","","","","","","","","","","","76","L","3","","","129","main_expt",""
"","bandit","209","644154","0.0-171.0-0.0","31384174","wem/bandit_party_2","A3QSK8VCB8TYTH","either","4","233","","","","","","","0","0","1","","0.2448863899","0.4","0.8","0.2","0.6","0.2448863899","0.6882303755","0.1722843937","0.7296764962","","","","","","","","","","","","","","72","H","0","img/none_selected.jpg","","130","main_expt",""
"","bandit","210","645825","0.0-172.0-0.0","31384174","wem/bandit_party_2","A3QSK8VCB8TYTH","either","4","160","","","","","","","0","0","1","","0.1336027919","0.4","0.8","0.2","0.6","0.3447645787","0.6772884453","0.1336027919","0.614258276","","","","","","","","","","","","","","75","K","2","","","131","main_expt",""
"","bandit","211","647875","0.0-173.0-0.0","31384174","wem/bandit_party_2","A3QSK8VCB8TYTH","either","4","538","","","","","","","0","0","1","","0.5349540706","0.4","0.8","0.2","0.6","0.3622527956","0.6773684555","0.1351629047","0.5349540706","","","","","","","","","","","","","","76","L","3","","","132","main_expt",""
"","bandit","212","649808","0.0-174.0-0.0","31384174","wem/bandit_party_2","A3QSK8VCB8TYTH","either","4","423","","","","","","","0","0","1","","0.2961885878","0.4","0.8","0.2","0.6","0.2961885878","0.7437755928","0.2495029","0.5449090787","","","","","","","","","","","","","","72","H","0","img/none_selected.jpg","","133","main_expt",""
"","bandit","213","651627","0.0-175.0-0.0","31384174","wem/bandit_party_2","A3QSK8VCB8TYTH","either","4","307","","","","","","","1","0","0","0.7423545867","","0.4","0.8","0.2","0.6","","","","","0.2932126781","0.7423545867","0.2118512663","0.5037108559","","","","","","","","","","74","J","1","","","134","main_expt",""
"","bandit","214","653336","0.0-176.0-0.0","31384174","wem/bandit_party_2","A3QSK8VCB8TYTH","either","4","202","","","","","","","0","0","1","","0.7462440124","0.4","0.8","0.2","0.6","0.2836439675","0.7462440124","0.2474577379","0.5131336393","","","","","","","","","","","","","","74","J","1","","","135","main_expt",""
"","bandit","215","655108","0.0-177.0-0.0","31384174","wem/bandit_party_2","A3QSK8VCB8TYTH","either","4","260","","","","","","","0","0","1","","0.1496333288","0.4","0.8","0.2","0.6","0.1985775905","0.6372772774","0.1496333288","0.5847952324","","","","","","","","","","","","","","75","K","2","","","136","main_expt",""
"","bandit","216","656809","0.0-178.0-0.0","31384174","wem/bandit_party_2","A3QSK8VCB8TYTH","either","4","192","","","","","","","0","0","1","","0.164835495","0.4","0.8","0.2","0.6","0.2655975","0.6587707878","0.164835495","0.5191620222","","","","","","","","","","","","","","75","K","2","","","137","main_expt",""
"","bandit","217","658452","0.0-179.0-0.0","31384174","wem/bandit_party_2","A3QSK8VCB8TYTH","either","4","131","","","","","","","0","1","0","","0.4066298912","0.4","0.8","0.2","0.6","0.4066298912","0.6545472314","0.1629561883","0.3830682141","","","","","","","","","","","","","","72","H","0","img/none_selected.jpg","","138","main_expt",""
"","bandit","218","660262","0.0-180.0-0.0","31384174","wem/bandit_party_2","A3QSK8VCB8TYTH","either","4","295","","","","","","","0","0","1","","0.3036015776","0.4","0.8","0.2","0.6","0.4537429859","0.5773899651","0.1162724323","0.3036015776","","","","","","","","","","","","","","76","L","3","","","139","main_expt",""
"","bandit","219","662037","0.0-181.0-0.0","31384174","wem/bandit_party_2","A3QSK8VCB8TYTH","either","4","262","","","","","","","0","1","0","","0.2541790234","0.4","0.8","0.2","0.6","0.410026376","0.5786924042","0.1262651596","0.2541790234","","","","","","","","","","","","","","76","L","3","","","140","main_expt",""
"","bandit","220","663936","0.0-182.0-0.0","31384174","wem/bandit_party_2","A3QSK8VCB8TYTH","either","4","391","","","","","","","0","0","1","","0.3978668086","0.4","0.8","0.2","0.6","0.3978668086","0.4589731036","0.1258799353","0.1899663758","","","","","","","","","","","","","","72","H","0","img/none_selected.jpg","","141","main_expt",""
"","bandit","221","665725","0.0-183.0-0.0","31384174","wem/bandit_party_2","A3QSK8VCB8TYTH","either","4","277","","","","","","","0","1","0","","0.3667804619","0.4","0.8","0.2","0.6","0.4096738096","0.3667804619","0.1220135665","0.214868544","","","","","","","","","","","","","","74","J","1","","","142","main_expt",""
"","bandit","222","667507","0.0-184.0-0.0","31384174","wem/bandit_party_2","A3QSK8VCB8TYTH","either","4","271","","","","","","","0","0","1","0.1549416237","","0.4","0.8","0.2","0.6","","","","","0.5422751762","0.3563831379","0.1600355681","0.1549416237","","","","","","","","","","76","L","3","","","143","main_expt",""
"","bandit","223","669157","0.0-185.0-0.0","31384174","wem/bandit_party_2","A3QSK8VCB8TYTH","either","4","137","","","","","","","0","1","0","","0.6045197677","0.4","0.8","0.2","0.6","0.6045197677","0.3675361202","0.103653669","0.2142728447","","","","","","","","","","","","","","72","H","0","img/none_selected.jpg","","144","main_expt",""
"","bandit","224","671101","0.0-186.0-0.0","31384174","wem/bandit_party_2","A3QSK8VCB8TYTH","either","4","342","","","","","","","0","1","0","","0.6140727406","0.4","0.8","0.2","0.6","0.6140727406","0.3266856562","0.1417267119","0.2166472609","","","","","","","","","","","","","","72","H","0","img/none_selected.jpg","","145","main_expt",""
"","bandit","225","672923","0.0-187.0-0.0","31384174","wem/bandit_party_2","A3QSK8VCB8TYTH","either","4","310","","","","","","","1","0","0","0.1508894681","","0.4","0.8","0.2","0.6","","","","","0.5553742365","0.2815179259","0.1508894681","0.2446047688","","","","","","","","","","75","K","2","","","146","main_expt",""
"","bandit","226","675031","0.0-188.0-0.0","31384174","wem/bandit_party_2","A3QSK8VCB8TYTH","either","4","592","","","","","","","1","0","0","0.3560244833","","0.4","0.8","0.2","0.6","","","","","0.52787167","0.3560244833","0.1207147728","0.3011136322","","","","","","","","","","74","J","1","","","147","main_expt",""
"","bandit","227","676852","0.0-189.0-0.0","31384174","wem/bandit_party_2","A3QSK8VCB8TYTH","either","4","311","","","","","","","1","0","0","0.1362234148","","0.4","0.8","0.2","0.6","","","","","0.5053851794","0.3585854149","0.1362234148","0.2519777133","","","","","","","","","","75","K","2","","","148","main_expt",""
"","bandit","228","678682","0.0-190.0-0.0","31384174","wem/bandit_party_2","A3QSK8VCB8TYTH","either","4","321","","","","","","","0","0","1","","0.5431256022","0.4","0.8","0.2","0.6","0.5431256022","0.284478414","0.1244444975","0.2996109941","","","","","","","","","","","","","","72","H","0","img/none_selected.jpg","","149","main_expt",""
"","bandit","229","680366","0.0-191.0-0.0","31384174","wem/bandit_party_2","A3QSK8VCB8TYTH","either","4","171","","","","","","","0","1","0","","0.2963563975","0.4","0.8","0.2","0.6","0.422574086","0.2617238314","0.1109305632","0.2963563975","","","","","","","","","","","","","","76","L","3","","","150","main_expt",""
"","bandit","230","682245","0.0-192.0-0.0","31384174","wem/bandit_party_2","A3QSK8VCB8TYTH","either","4","364","","","","","","","0","0","1","","0.2709462114","0.4","0.8","0.2","0.6","0.3907227364","0.2709462114","0.11412436","0.4327396174","","","","","","","","","","","","","","74","J","1","","","151","main_expt",""
"","bandit","231","683988","0.0-193.0-0.0","31384174","wem/bandit_party_2","A3QSK8VCB8TYTH","either","4","232","","","","","","","1","0","0","0.5580814469","","0.4","0.8","0.2","0.6","","","","","0.5580814469","0.2993716907","0.1469045903","0.4303068123","","","","","","","","","","72","H","0","img/none_selected.jpg","","152","main_expt",""
"","bandit","232","686200","0.0-194.0-0.0","31384174","wem/bandit_party_2","A3QSK8VCB8TYTH","either","4","693","","","","","","","0","0","1","","0.1633028487","0.4","0.8","0.2","0.6","0.51223936","0.2733354782","0.1633028487","0.455197397","","","","","","","","","","","","","","75","K","2","","","153","main_expt",""
"","bandit","233","688109","0.0-195.0-0.0","31384174","wem/bandit_party_2","A3QSK8VCB8TYTH","either","4","397","","","","","","","0","0","1","","0.1340882311","0.4","0.8","0.2","0.6","0.4811601507","0.3264007987","0.1340882311","0.6184454144","","","","","","","","","","","","","","75","K","2","","","154","main_expt",""
"","bandit","234","690131","0.0-196.0-0.0","31384174","wem/bandit_party_2","A3QSK8VCB8TYTH","either","4","509","","","","","","","1","0","0","0.204433578","","0.4","0.8","0.2","0.6","","","","","0.575425417","0.204433578","0.1041462846","0.5833601464","","","","","","","","","","74","J","1","","","155","main_expt",""
"","bandit","235","691996","0.0-197.0-0.0","31384174","wem/bandit_party_2","A3QSK8VCB8TYTH","either","4","353","","","","","","","0","0","1","0.07451572188","","0.4","0.8","0.2","0.6","","","","","0.6109018817","0.07451572188","0.08564190031","0.646897734","","","","","","","","","","74","J","1","","","156","main_expt",""
"","bandit","236","693769","0.0-198.0-0.0","31384174","wem/bandit_party_2","A3QSK8VCB8TYTH","either","4","264","","","","","","","0","1","0","","0.6912470103","0.4","0.8","0.2","0.6","0.6812883852","0.1251686374","0.06977116317","0.6912470103","","","","","","","","","","","","","","76","L","3","","","157","main_expt",""
"","bandit","237","695407","0.0-199.0-0.0","31384174","wem/bandit_party_2","A3QSK8VCB8TYTH","either","4","124","","","","","","","1","0","0","0.7865398282","","0.4","0.8","0.2","0.6","","","","","0.73777041","0.1292052795","0.1504927074","0.7865398282","","","","","","","","","","76","L","3","","","158","main_expt",""
"","bandit","238","697277","0.0-200.0-0.0","31384174","wem/bandit_party_2","A3QSK8VCB8TYTH","either","4","357","","","","","","","0","1","0","","0.7220910122","0.4","0.8","0.2","0.6","0.8388849062","0.1200050714","0.1429264201","0.7220910122","","","","","","","","","","","","","","76","L","3","","","159","main_expt",""
"","bandit","239","699074","0.0-201.0-0.0","31384174","wem/bandit_party_2","A3QSK8VCB8TYTH","either","4","287","","","","","","","0","0","1","","0.710563805","0.4","0.8","0.2","0.6","0.8006667519","0.1156014834","0.1832893837","0.710563805","","","","","","","","","","","","","","76","L","3","","","160","main_expt",""
"","bandit","240","700946","0.0-202.0-0.0","31384174","wem/bandit_party_2","A3QSK8VCB8TYTH","either","4","362","","","","","","","0","0","1","","0.6205281072","0.4","0.8","0.2","0.6","0.7406956812","0.1425751263","0.2337310763","0.6205281072","","","","","","","","","","","","","","76","L","3","","","161","main_expt",""
"","bandit","241","702740","0.0-203.0-0.0","31384174","wem/bandit_party_2","A3QSK8VCB8TYTH","either","4","281","","","","","","","0","0","1","","0.5246840185","0.4","0.8","0.2","0.6","0.775259894","0.2108345254","0.2326198937","0.5246840185","","","","","","","","","","","","","","76","L","3","","","162","main_expt",""
"","bandit","242","704404","0.0-204.0-0.0","31384174","wem/bandit_party_2","A3QSK8VCB8TYTH","either","4","151","","","","","","","0","0","1","0.6539471222","","0.4","0.8","0.2","0.6","","","","","0.6539471222","0.1664621688","0.1584290897","0.569340372","","","","","","","","","","72","H","0","img/none_selected.jpg","","163","main_expt",""
"","bandit","243","706170","0.0-205.0-0.0","31384174","wem/bandit_party_2","A3QSK8VCB8TYTH","either","4","255","","","","","","","0","0","1","","0.7914062868","0.4","0.8","0.2","0.6","0.7914062868","0.1741279052","0.1417900361","0.5688323765","","","","","","","","","","","","","","72","H","0","img/none_selected.jpg","","164","main_expt",""
"","bandit","244","707870","0.0-206.0-0.0","31384174","wem/bandit_party_2","A3QSK8VCB8TYTH","either","4","187","","","","","","","0","0","1","0.1891196979","","0.4","0.8","0.2","0.6","","","","","0.8415061218","0.1891196979","0.08849486786","0.5195648955","","","","","","","","","","74","J","1","","","165","main_expt",""
"","bandit","245","709704","0.0-207.0-0.0","31384174","wem/bandit_party_2","A3QSK8VCB8TYTH","either","4","320","","","","","","","0","0","1","","0.1010416226","0.4","0.8","0.2","0.6","0.9084068317","0.3016440744","0.1010416226","0.536500984","","","","","","","","","","","","","","75","K","2","","","166","main_expt",""
"","bandit","246","711772","0.0-208.0-0.0","31384174","wem/bandit_party_2","A3QSK8VCB8TYTH","either","4","554","","","","","","","1","0","0","0.4243381616","","0.4","0.8","0.2","0.6","","","","","0.8857506799","0.3427468607","0.1506776516","0.4243381616","","","","","","","","","","76","L","3","","","167","main_expt",""
"","bandit","247","713532","0.0-209.0-0.0","31384174","wem/bandit_party_2","A3QSK8VCB8TYTH","either","4","247","","","","","","","0","1","0","","0.4877327119","0.4","0.8","0.2","0.6","0.9247721234","0.3759001064","0.2532220847","0.4877327119","","","","","","","","","","","","","","76","L","3","","","168","main_expt",""
"","bandit","248","715324","0.0-210.0-0.0","31384174","wem/bandit_party_2","A3QSK8VCB8TYTH","either","4","280","","","","","","","0","0","1","0.5096331713","","0.4","0.8","0.2","0.6","","","","","0.8870410368","0.3824832387","0.2223654062","0.5096331713","","","","","","","","","","76","L","3","","","169","main_expt",""
"","bandit","249","717083","0.0-211.0-0.0","31384174","wem/bandit_party_2","A3QSK8VCB8TYTH","either","4","250","","","","","","","0","0","1","0.3257043992","","0.4","0.8","0.2","0.6","","","","","0.8782412079","0.3257043992","0.2161840498","0.6111595203","","","","","","","","","","74","J","1","","","170","main_expt",""
"","bandit","250","718868","0.0-212.0-0.0","31384174","wem/bandit_party_2","A3QSK8VCB8TYTH","either","4","274","","","","","","","0","1","0","","0.7978982074","0.4","0.8","0.2","0.6","0.7978982074","0.2943589708","0.1996440145","0.5888321224","","","","","","","","","","","","","","72","H","0","img/none_selected.jpg","","171","main_expt",""
"","bandit","251","720493","0.0-213.0-0.0","31384174","wem/bandit_party_2","A3QSK8VCB8TYTH","either","4","114","","","","","","","1","0","0","0.7896885826","","0.4","0.8","0.2","0.6","","","","","0.7896885826","0.4298537702","0.275753823","0.6295404033","","","","","","","","","","72","H","0","img/none_selected.jpg","","172","main_expt",""
"","bandit","252","722243","0.0-214.0-0.0","31384174","wem/bandit_party_2","A3QSK8VCB8TYTH","either","4","240","","","","","","","0","0","1","","0.7771385218","0.4","0.8","0.2","0.6","0.7771385218","0.4196262671","0.2850946521","0.5976712981","","","","","","","","","","","","","","72","H","0","img/none_selected.jpg","","173","main_expt",""
"","bandit","253","723845","0.0-215.0-0.0","31384174","wem/bandit_party_2","A3QSK8VCB8TYTH","either","4","90","","","","","","","1","0","0","0.4056978145","","0.4","0.8","0.2","0.6","","","","","0.8412209493","0.4056978145","0.2836726952","0.5936331925","","","","","","","","","","74","J","1","","","174","main_expt",""
"","bandit","254","725977","0.0-216.0-0.0","31384174","wem/bandit_party_2","A3QSK8VCB8TYTH","either","4","615","","","","","","","0","0","1","","0.544145328","0.4","0.8","0.2","0.6","0.8433491626","0.3323311207","0.27413619","0.544145328","","","","","","","","","","","","","","76","L","3","","","175","main_expt",""
"","bandit","255","727608","0.0-217.0-0.0","31384174","wem/bandit_party_2","A3QSK8VCB8TYTH","either","4","124","","","","","","","0","0","1","","0.2369491767","0.4","0.8","0.2","0.6","0.778586436","0.3087900888","0.2369491767","0.3584947592","","","","","","","","","","","","","","75","K","2","","","176","main_expt",""
"","bandit","256","729259","0.0-218.0-0.0","31384174","wem/bandit_party_2","A3QSK8VCB8TYTH","either","4","68","","","","","","","0","1","0","","0.3440943848","0.4","0.8","0.2","0.6","0.7488794252","0.3898613412","0.3440943848","0.436171931","","","","","","","","","","","","","","75","K","2","","","177","main_expt",""
"","bandit","257","731003","0.0-219.0-0.0","31384174","wem/bandit_party_2","A3QSK8VCB8TYTH","either","4","235","","","","","","","0","0","1","","0.3529135521","0.4","0.8","0.2","0.6","0.7738581751","0.5236321052","0.3529135521","0.5193680035","","","","","","","","","","","","","","75","K","2","","","178","main_expt",""
"","bandit","258","732683","0.0-220.0-0.0","31384174","wem/bandit_party_2","A3QSK8VCB8TYTH","either","4","169","","","","","","","1","0","0","0.7527820287","","0.4","0.8","0.2","0.6","","","","","0.7527820287","0.2955080601","0.3787243664","0.3957798075","","","","","","","","","","72","H","0","img/none_selected.jpg","","179","main_expt",""
"","bandit","259","734307","0.0-221.0-0.0","31384174","wem/bandit_party_2","A3QSK8VCB8TYTH","either","4","114","","","","","","","0","0","1","0.4249873197","","0.4","0.8","0.2","0.6","","","","","0.8022950929","0.3174151272","0.3092677326","0.4249873197","","","","","","","","","","76","L","3","","","180","main_expt",""
"","bandit","260","736148","0.0-222.0-0.0","31384174","wem/bandit_party_2","A3QSK8VCB8TYTH","either","4","331","","","","","","","0","1","0","","0.7505347306","0.4","0.8","0.2","0.6","0.7505347306","0.3560995969","0.3701559146","0.4260342439","","","","","","","","","","","","","","72","H","0","img/none_selected.jpg","","181","main_expt",""
"","bandit","261","737973","0.0-223.0-0.0","31384174","wem/bandit_party_2","A3QSK8VCB8TYTH","either","4","274","","","","","","","0","0","1","0.4649908644","","0.4","0.8","0.2","0.6","","","","","0.603349844","0.4649908644","0.2672844749","0.4305619521","","","","","","","","","","74","J","1","","","182","main_expt",""
"","bandit","262","739620","0.0-224.0-0.0","31384174","wem/bandit_party_2","A3QSK8VCB8TYTH","either","4","137","","","","","","","0","0","1","","0.6464544124","0.4","0.8","0.2","0.6","0.6464544124","0.4588174784","0.3046315644","0.4638513582","","","","","","","","","","","","","","72","H","0","img/none_selected.jpg","","183","main_expt",""
"","bandit","263","741493","0.0-225.0-0.0","31384174","wem/bandit_party_2","A3QSK8VCB8TYTH","either","4","361","","","","","","","0","0","1","","0.6606024443","0.4","0.8","0.2","0.6","0.6606024443","0.509799977","0.3507685813","0.5084330557","","","","","","","","","","","","","","72","H","0","img/none_selected.jpg","","184","main_expt",""
"","bandit","264","743343","0.0-226.0-0.0","31384174","wem/bandit_party_2","A3QSK8VCB8TYTH","either","4","336","","","","","","","0","0","1","0.3250269766","","0.4","0.8","0.2","0.6","","","","","0.7034535028","0.4557178443","0.3250269766","0.5853778332","","","","","","","","","","75","K","2","","","185","main_expt",""
"","bandit","265","745115","0.0-227.0-0.0","31384174","wem/bandit_party_2","A3QSK8VCB8TYTH","either","4","263","","","","","","","1","0","0","0.5009207633","","0.4","0.8","0.2","0.6","","","","","0.7672503758","0.3250172706","0.3636669497","0.5009207633","","","","","","","","","","76","L","3","","","186","main_expt",""
"","bandit","266","746956","0.0-228.0-0.0","31384174","wem/bandit_party_2","A3QSK8VCB8TYTH","either","4","329","","","","","","","0","0","1","","0.4376492532","0.4","0.8","0.2","0.6","0.7505037824","0.2982192525","0.4095027401","0.4376492532","","","","","","","","","","","","","","76","L","3","","","187","main_expt",""
"","bandit","267","748645","0.0-229.0-0.0","31384174","wem/bandit_party_2","A3QSK8VCB8TYTH","either","4","178","","","","","","","0","0","1","0.317868257","","0.4","0.8","0.2","0.6","","","","","0.7458261356","0.2647713636","0.3356624093","0.317868257","","","","","","","","","","76","L","3","","","188","main_expt",""
"","bandit","268","750392","0.0-230.0-0.0","31384174","wem/bandit_party_2","A3QSK8VCB8TYTH","either","4","231","","","","","","","0","0","1","0.2798663258","","0.4","0.8","0.2","0.6","","","","","0.747965221","0.2798663258","0.3717951419","0.3700786551","","","","","","","","","","74","J","1","","","189","main_expt",""
"","bandit","269","751996","0.0-231.0-0.0","31384174","wem/bandit_party_2","A3QSK8VCB8TYTH","either","4","92","","","","","","","0","0","1","0.2146362806","","0.4","0.8","0.2","0.6","","","","","0.7459095382","0.2146362806","0.3266606931","0.3423477616","","","","","","","","","","74","J","1","","","190","main_expt",""
"","bandit","270","753579","0.0-232.0-0.0","31384174","wem/bandit_party_2","A3QSK8VCB8TYTH","either","4","74","","","","","","","0","1","0","","0.6299055833","0.4","0.8","0.2","0.6","0.6299055833","0.3132783624","0.4206899072","0.2488230813","","","","","","","","","","","","","","72","H","0","img/none_selected.jpg","","191","main_expt",""
"","bandit","271","755311","0.0-233.0-0.0","31384174","wem/bandit_party_2","A3QSK8VCB8TYTH","either","4","217","","","","","","","0","0","1","0.688533977","","0.4","0.8","0.2","0.6","","","","","0.688533977","0.2488083766","0.4982817076","0.2193108308","","","","","","","","","","72","H","0","img/none_selected.jpg","","192","main_expt",""
"","bandit","272","757038","0.0-234.0-0.0","31384174","wem/bandit_party_2","A3QSK8VCB8TYTH","either","4","215","","","","","","","0","1","0","","0.7176496952","0.4","0.8","0.2","0.6","0.7176496952","0.225611763","0.4820211017","0.4057276106","","","","","","","","","","","","","","72","H","0","img/none_selected.jpg","","193","main_expt",""
"","bandit","273","758838","0.0-235.0-0.0","31384174","wem/bandit_party_2","A3QSK8VCB8TYTH","either","4","287","","","","","","","1","0","0","0.746212457","","0.4","0.8","0.2","0.6","","","","","0.746212457","0.2159393038","0.5373891537","0.3826056333","","","","","","","","","","72","H","0","img/none_selected.jpg","","194","main_expt",""
"","bandit","274","760632","0.0-236.0-0.0","31384174","wem/bandit_party_2","A3QSK8VCB8TYTH","either","4","279","","","","","","","0","0","1","","0.6800784202","0.4","0.8","0.2","0.6","0.6800784202","0.3112228701","0.3890275207","0.4922935908","","","","","","","","","","","","","","72","H","0","img/none_selected.jpg","","195","main_expt",""
"","bandit","275","762287","0.0-237.0-0.0","31384174","wem/bandit_party_2","A3QSK8VCB8TYTH","either","4","143","","","","","","","1","0","0","0.5986295964","","0.4","0.8","0.2","0.6","","","","","0.5986295964","0.3249051539","0.4329462643","0.5475793877","","","","","","","","","","72","H","0","img/none_selected.jpg","","196","main_expt",""
"","bandit","276","763918","0.0-238.0-0.0","31384174","wem/bandit_party_2","A3QSK8VCB8TYTH","either","4","118","","","","","","","0","1","0","","0.416825946","0.4","0.8","0.2","0.6","0.5323622673","0.2985018541","0.416825946","0.6069385875","","","","","","","","","","","","","","75","K","2","","","197","main_expt",""
"","bandit","277","765526","0.0-239.0-0.0","31384174","wem/bandit_party_2","A3QSK8VCB8TYTH","either","4","95","","","","","","","0","0","1","","0.4063336836","0.4","0.8","0.2","0.6","0.5348043844","0.3109366799","0.4063336836","0.4946816555","","","","","","","","","","","","","","75","K","2","","","198","main_expt",""
"","bandit","278","767192","0.0-240.0-0.0","31384174","wem/bandit_party_2","A3QSK8VCB8TYTH","either","4","151","","","","","","","0","1","0","","0.361264989","0.4","0.8","0.2","0.6","0.4534403339","0.3143364341","0.361264989","0.479635203","","","","","","","","","","","","","","75","K","2","","","199","main_expt",""
"","bandit","279","769079","0.0-241.0-0.0","31384174","wem/bandit_party_2","A3QSK8VCB8TYTH","either","4","373","","","","","","","0","1","0","","0.4700223374","0.4","0.8","0.2","0.6","0.4185876589","0.3176919365","0.4700223374","0.4969837249","","","","","","","","","","","","","","75","K","2","","","200","main_expt",""
"","bandit","280","770700","0.0-242.0-0.0","31384174","wem/bandit_party_2","A3QSK8VCB8TYTH","either","4","110","","","","","","","0","0","1","","0.4751543938","0.4","0.8","0.2","0.6","0.3812211227","0.2848283651","0.4751543938","0.4548125401","","","","","","","","","","","","","","75","K","2","","","201","main_expt",""
"","bandit","281","772493","0.0-243.0-0.0","31384174","wem/bandit_party_2","A3QSK8VCB8TYTH","either","4","282","","","","","","","0","1","0","","0.4044794657","0.4","0.8","0.2","0.6","0.4414728031","0.2439676923","0.4044794657","0.5767771981","","","","","","","","","","","","","","75","K","2","","","202","main_expt",""
"","bandit","282","774292","0.0-244.0-0.0","31384174","wem/bandit_party_2","A3QSK8VCB8TYTH","either","4","288","","","","","","","0","0","1","","0.3321077444","0.4","0.8","0.2","0.6","0.3698030662","0.2582922662","0.3321077444","0.6118171827","","","","","","","","","","","","","","75","K","2","","","203","main_expt",""
"","bandit","283","775982","0.0-245.0-0.0","31384174","wem/bandit_party_2","A3QSK8VCB8TYTH","either","4","177","","","","","","","0","0","1","0.3697340749","","0.4","0.8","0.2","0.6","","","","","0.4899087748","0.3799793739","0.3697340749","0.5373194108","","","","","","","","","","75","K","2","","","204","main_expt",""
"","bandit","284","777792","0.0-246.0-0.0","31384174","wem/bandit_party_2","A3QSK8VCB8TYTH","either","4","296","","","","","","","0","0","1","","0.5501461309","0.4","0.8","0.2","0.6","0.4310108402","0.4441528059","0.3998168993","0.5501461309","","","","","","","","","","","","","","76","L","3","","","205","main_expt",""
"","bandit","285","779413","0.0-247.0-0.0","31384174","wem/bandit_party_2","A3QSK8VCB8TYTH","either","4","108","","","","","","","0","0","1","","0.4468516792","0.4","0.8","0.2","0.6","0.3912115078","0.4468516792","0.4929909192","0.5094027242","","","","","","","","","","","","","","74","J","1","","","206","main_expt",""
"","bandit","286","781020","0.0-248.0-0.0","31384174","wem/bandit_party_2","A3QSK8VCB8TYTH","either","4","96","","","","","","","1","0","0","0.399366085","","0.4","0.8","0.2","0.6","","","","","0.3195818707","0.399366085","0.4960693894","0.6449696869","","","","","","","","","","74","J","1","","","207","main_expt",""
"","bandit","287","782678","0.0-249.0-0.0","31384174","wem/bandit_party_2","A3QSK8VCB8TYTH","either","4","142","","","","","","","0","0","1","","0.4206610772","0.4","0.8","0.2","0.6","0.2378171997","0.4206610772","0.3912862986","0.549996868","","","","","","","","","","","","","","74","J","1","","","208","main_expt",""
"","bandit","288","784509","0.0-250.0-0.0","31384174","wem/bandit_party_2","A3QSK8VCB8TYTH","either","4","315","","","","","","","0","0","1","","0.2339104391","0.4","0.8","0.2","0.6","0.2339104391","0.5145499259","0.4218938049","0.5258833792","","","","","","","","","","","","","","72","H","0","img/none_selected.jpg","","209","main_expt",""
"","bandit","289","786205","0.0-251.0-0.0","31384174","wem/bandit_party_2","A3QSK8VCB8TYTH","either","4","184","","","","","","","0","0","1","","0.2506558306","0.4","0.8","0.2","0.6","0.2506558306","0.3497539355","0.6003160005","0.5453980868","","","","","","","","","","","","","","72","H","0","img/none_selected.jpg","","210","main_expt",""
"","bandit","290","787864","0.0-252.0-0.0","31384174","wem/bandit_party_2","A3QSK8VCB8TYTH","either","4","146","","","","","","","1","0","0","0.5481562991","","0.4","0.8","0.2","0.6","","","","","0.3466578502","0.3335821388","0.5481562991","0.5370950561","","","","","","","","","","75","K","2","","","211","main_expt",""
"","bandit","291","789774","0.0-253.0-0.0","31384174","wem/bandit_party_2","A3QSK8VCB8TYTH","either","4","397","","","","","","","0","0","1","0.2778022227","","0.4","0.8","0.2","0.6","","","","","0.4162959965","0.2778022227","0.6210595125","0.5774996514","","","","","","","","","","74","J","1","","","212","main_expt",""
"","bandit","292","791551","0.0-254.0-0.0","31384174","wem/bandit_party_2","A3QSK8VCB8TYTH","either","4","265","","","","","","","0","0","1","0.7732161257","","0.4","0.8","0.2","0.6","","","","","0.545788555","0.2949104287","0.7732161257","0.4826056363","","","","","","","","","","75","K","2","","","213","main_expt",""
"","bandit","293","793948","0.0-255.0-0.0","31384174","wem/bandit_party_2","A3QSK8VCB8TYTH","either","4","888","","","","","","","0","0","1","0.2443343027","","0.4","0.8","0.2","0.6","","","","","0.6077749924","0.2443343027","0.7689771773","0.4913277851","","","","","","","","","","74","J","1","","","214","main_expt",""
"","bandit","294","795526","0.0-256.0-0.0","31384174","wem/bandit_party_2","A3QSK8VCB8TYTH","either","4","65","","","","","","","0","1","0","","0.2232989174","0.4","0.8","0.2","0.6","0.4883429648","0.2232989174","0.6841712945","0.5415006571","","","","","","","","","","","","","","74","J","1","","","215","main_expt",""
"","bandit","295","797227","0.0-257.0-0.0","31384174","wem/bandit_party_2","A3QSK8VCB8TYTH","either","4","192","","","","","","","0","0","1","0.2918619336","","0.4","0.8","0.2","0.6","","","","","0.3309854328","0.2918619336","0.7019934296","0.5198015267","","","","","","","","","","74","J","1","","","216","main_expt",""
"","bandit","296","798917","0.0-258.0-0.0","31384174","wem/bandit_party_2","A3QSK8VCB8TYTH","either","4","179","","","","","","","0","1","0","","0.3310528633","0.4","0.8","0.2","0.6","0.3310528633","0.3571058798","0.7537099884","0.545097872","","","","","","","","","","","","","","72","H","0","img/none_selected.jpg","","217","main_expt",""
"","bandit","297","800561","0.0-259.0-0.0","31384174","wem/bandit_party_2","A3QSK8VCB8TYTH","either","4","129","","","","","","","0","0","1","","0.4147218791","0.4","0.8","0.2","0.6","0.4147218791","0.3738303097","0.8428980993","0.5776025334","","","","","","","","","","","","","","72","H","0","img/none_selected.jpg","","218","main_expt",""
"","bandit","298","802229","0.0-260.0-0.0","31384174","wem/bandit_party_2","A3QSK8VCB8TYTH","either","4","157","","","","","","","0","1","0","","0.5616346574","0.4","0.8","0.2","0.6","0.3402104323","0.4832874948","0.8007326434","0.5616346574","","","","","","","","","","","","","","76","L","3","","","219","main_expt",""
"","bandit","299","804020","0.0-261.0-0.0","31384174","wem/bandit_party_2","A3QSK8VCB8TYTH","either","4","282","","","","","","","1","0","0","0.6261942659","","0.4","0.8","0.2","0.6","","","","","0.3448871422","0.475455537","0.8518850648","0.6261942659","","","","","","","","","","76","L","3","","","220","main_expt",""
"","bandit","300","805766","0.0-262.0-0.0","31384174","wem/bandit_party_2","A3QSK8VCB8TYTH","either","4","234","","","","","","","1","0","0","0.6533416475","","0.4","0.8","0.2","0.6","","","","","0.4438284365","0.3849790123","0.8488451861","0.6533416475","","","","","","","","","","76","L","3","","","221","main_expt",""
"","bandit","301","807376","0.0-263.0-0.0","31384174","wem/bandit_party_2","A3QSK8VCB8TYTH","either","4","95","","","","","","","0","0","1","0.6780524799","","0.4","0.8","0.2","0.6","","","","","0.3768672835","0.2708628555","0.8202185963","0.6780524799","","","","","","","","","","76","L","3","","","222","main_expt",""
"","bandit","302","809176","0.0-264.0-0.0","31384174","wem/bandit_party_2","A3QSK8VCB8TYTH","either","4","286","","","","","","","0","0","1","0.3886191555","","0.4","0.8","0.2","0.6","","","","","0.4599748191","0.3886191555","0.839196386","0.638470603","","","","","","","","","","74","J","1","","","223","main_expt",""
"","bandit","303","810765","0.0-265.0-0.0","31384174","wem/bandit_party_2","A3QSK8VCB8TYTH","either","4","72","","","","","","","0","0","1","0.5868274652","","0.4","0.8","0.2","0.6","","","","","0.5868274652","0.3352763987","0.8340435664","0.560582988","","","","","","","","","","72","H","0","img/none_selected.jpg","","224","main_expt",""
"","bandit","304","812605","0.0-266.0-0.0","31384174","wem/bandit_party_2","A3QSK8VCB8TYTH","either","4","326","","","","","","","0","0","1","0.5004803289","","0.4","0.8","0.2","0.6","","","","","0.510759767","0.3948846532","0.8229669419","0.5004803289","","","","","","","","","","76","L","3","","","225","main_expt",""
"","bandit","305","814400","0.0-267.0-0.0","31384174","wem/bandit_party_2","A3QSK8VCB8TYTH","either","4","283","","","","","","","1","0","0","0.8326575293","","0.4","0.8","0.2","0.6","","","","","0.6026028704","0.385279681","0.8326575293","0.5109709899","","","","","","","","","","75","K","2","","","226","main_expt",""
"","bandit","306","816141","0.0-268.0-0.0","31384174","wem/bandit_party_2","A3QSK8VCB8TYTH","either","4","230","","","","","","","0","1","0","","0.8904476858","0.4","0.8","0.2","0.6","0.588132951","0.3296530349","0.8904476858","0.4271661703","","","","","","","","","","","","","","75","K","2","","","227","main_expt",""
"","bandit","307","817782","0.0-269.0-0.0","31384174","wem/bandit_party_2","A3QSK8VCB8TYTH","either","4","130","","","","","","","0","1","0","","0.8877596604","0.4","0.8","0.2","0.6","0.5754590721","0.4227788413","0.8877596604","0.374673526","","","","","","","","","","","","","","75","K","2","","","228","main_expt",""
"","bandit","308","819357","0.0-270.0-0.0","31384174","wem/bandit_party_2","A3QSK8VCB8TYTH","either","4","64","","","","","","","0","1","0","","0.8647697669","0.4","0.8","0.2","0.6","0.6311951266","0.4470353227","0.8647697669","0.393435759","","","","","","","","","","","","","","75","K","2","","","229","main_expt",""
"","bandit","309","820953","0.0-271.0-0.0","31384174","wem/bandit_party_2","A3QSK8VCB8TYTH","either","4","70","","","","","","","0","1","0","","0.8704214291","0.4","0.8","0.2","0.6","0.6164228117","0.2986819632","0.8704214291","0.3299431778","","","","","","","","","","","","","","75","K","2","","","230","main_expt",""
"","bandit","310","822701","0.0-272.0-0.0","31384174","wem/bandit_party_2","A3QSK8VCB8TYTH","either","4","237","","","","","","","0","0","1","","0.5943568022","0.4","0.8","0.2","0.6","0.5943568022","0.4508866759","0.8598686354","0.3477061432","","","","","","","","","","","","","","72","H","0","img/none_selected.jpg","","231","main_expt",""
"","bandit","311","824431","0.0-273.0-0.0","31384174","wem/bandit_party_2","A3QSK8VCB8TYTH","either","4","216","","","","","","","0","0","1","","0.6032910051","0.4","0.8","0.2","0.6","0.6032910051","0.5125968159","0.7939027672","0.3430234075","","","","","","","","","","","","","","72","H","0","img/none_selected.jpg","","232","main_expt",""
"","bandit","312","825947","0.0-274.0-0.0","31384174","wem/bandit_party_2","A3QSK8VCB8TYTH","either","4","1","","","","","","","0","0","1","","0.2812772396","0.4","0.8","0.2","0.6","0.7225660168","0.6020802482","0.7930400566","0.2812772396","","","","","","","","","","","","","","76","L","3","","","233","main_expt",""
"","bandit","313","827613","0.0-275.0-0.0","31384174","wem/bandit_party_2","A3QSK8VCB8TYTH","either","4","155","","","","","","","0","0","1","","0.2049555934","0.4","0.8","0.2","0.6","0.6718439238","0.5927943616","0.7549101179","0.2049555934","","","","","","","","","","","","","","76","L","3","","","234","main_expt",""
"","bandit","314","829159","0.0-276.0-0.0","31384174","wem/bandit_party_2","A3QSK8VCB8TYTH","either","4","34","","","","","","","0","0","1","0.7654291135","","0.4","0.8","0.2","0.6","","","","","0.6025803433","0.5814417759","0.7654291135","0.144612338","","","","","","","","","","75","K","2","","","235","main_expt",""
"","bandit","315","830886","0.0-277.0-0.0","31384174","wem/bandit_party_2","A3QSK8VCB8TYTH","either","4","215","","","","","","","0","0","1","0.6965918162","","0.4","0.8","0.2","0.6","","","","","0.6170166349","0.6530024001","0.6965918162","0.1509581517","","","","","","","","","","75","K","2","","","236","main_expt",""
"","bandit","316","832645","0.0-278.0-0.0","31384174","wem/bandit_party_2","A3QSK8VCB8TYTH","either","4","249","","","","","","","0","0","1","0.5861490443","","0.4","0.8","0.2","0.6","","","","","0.6426153702","0.5861490443","0.8151927982","0.2267465707","","","","","","","","","","74","J","1","","","237","main_expt",""
