"consent","trial_type","trial_index","time_elapsed","internal_node_id","subjID","study","MID","cond","drift","rt","responses","button_pressed","key_press","like","value","connected","gems","bombs","no_reward","GemPrChosen","BombPrChosen","GainOverPainPr_0","GainOverPainPr_1","GainOverPainPr_2","GainOverPainPr_3","LosePr_0","LosePr_1","LosePr_2","LosePr_3","WinPr_0","WinPr_1","WinPr_2","WinPr_3","Q0","Q1","Q2","gender","age","ethnicity","label","expt_phase","target","respCharCode","respKey","respChoiceNum","respChoice","practice","trial_counter","trial_label","Q0_index"
"GDM/GDM_behavioral_consent_30min_online.html","consent","0","6143","0.0-0.0","32069706","wem/bandit_party_2","AZJEDXAMBQDK0","either","5","","","","","","","","","","","","","","","","","","","","","","","","","","","","","","","","","","","","","","","","",""
"","survey-text","1","11763","0.0-1.0","32069706","wem/bandit_party_2","AZJEDXAMBQDK0","either","5","4607","{""Q0"":""AZJEDXAMBQDK0""}","","","","","","","","","","","","","","","","","","","","","","","","","","","","","","","","","","","","","","",""
"","button-response","2","13992","0.0-2.0","32069706","wem/bandit_party_2","AZJEDXAMBQDK0","either","5","1221","","1","","","","","","","","","","","","","","","","","","","","","","","","","","","","","","","","","","","","","",""
"","text-replacement","3","24525","0.0-3.0","32069706","wem/bandit_party_2","AZJEDXAMBQDK0","either","5","9527","","","32","","","","","","","","","","","","","","","","","","","","","","","","","","","","","","","","","","","","",""
"","text-replacement","4","35286","0.0-4.0","32069706","wem/bandit_party_2","AZJEDXAMBQDK0","either","5","10758","","","32","","","","","","","","","","","","","","","","","","","","","","","","","","","","","","","","","","","","",""
"","identification","5","49574","0.0-6.0-0.0","32069706","wem/bandit_party_2","AZJEDXAMBQDK0","either","5","14260","","","","2","2","1","","","","","","","","","","","","","","","","","","","","","","","","pre","identification_pre","the Democratic Party","","","","","","","",""
"","identification","6","53573","0.0-6.0-1.0","32069706","wem/bandit_party_2","AZJEDXAMBQDK0","either","5","2976","","","","0","0","0","","","","","","","","","","","","","","","","","","","","","","","","pre","identification_pre","the Republican Party","","","","","","","",""
"","text-replacement","7","59841","0.0-7.0","32069706","wem/bandit_party_2","AZJEDXAMBQDK0","either","5","5265","","","32","","","","","","","","","","","","","","","","","","","","","","","","","","","","","","","","","","","","",""
"","text-replacement","8","62962","0.0-8.0","32069706","wem/bandit_party_2","AZJEDXAMBQDK0","either","5","3117","","","32","","","","","","","","","","","","","","","","","","","","","","","","","","","","","","","","","","","","",""
"","text-replacement","9","75019","0.0-9.0","32069706","wem/bandit_party_2","AZJEDXAMBQDK0","either","5","12052","","","32","","","","","","","","","","","","","","","","","","","","","","","","","","","","","","","","","","","","",""
"","text-replacement","10","76681","0.0-10.0","32069706","wem/bandit_party_2","AZJEDXAMBQDK0","either","5","1659","","","32","","","","","","","","","","","","","","","","","","","","","","","","","","","","","","","","","","","","",""
"","text-replacement","11","80599","0.0-11.0","32069706","wem/bandit_party_2","AZJEDXAMBQDK0","either","5","3917","","","32","","","","","","","","","","","","","","","","","","","","","","","","","","","","","","","","","","","","",""
"","bandit","12","85497","0.0-12.0-0.0","32069706","wem/bandit_party_2","AZJEDXAMBQDK0","either","5","3388","","","","","","","0","0","1","0","0","","","","","0","","","","0","","","","","","","","","","","","","74","J","0","img/none_selected_demo.jpg","true","0","",""
"","bandit","13","89305","0.0-13.0-0.0","32069706","wem/bandit_party_2","AZJEDXAMBQDK0","either","5","2301","","","","","","","0","0","1","0","0","","","","","0","","","","0","","","","","","","","","","","","","75","K","0","img/none_selected_demo.jpg","true","0","",""
"","text-replacement","14","93335","0.0-14.0","32069706","wem/bandit_party_2","AZJEDXAMBQDK0","either","5","4023","","","32","","","","","","","","","","","","","","","","","","","","","","","","","","","","","","","","","","","","",""
"","text-replacement","15","96984","0.0-15.0","32069706","wem/bandit_party_2","AZJEDXAMBQDK0","either","5","3646","","","32","","","","","","","","","","","","","","","","","","","","","","","","","","","","","","","","","","","","",""
"","text-replacement","16","104930","0.0-16.0","32069706","wem/bandit_party_2","AZJEDXAMBQDK0","either","5","7943","","","32","","","","","","","","","","","","","","","","","","","","","","","","","","","","","","","","","","","","",""
"","text-replacement","17","108102","0.0-17.0","32069706","wem/bandit_party_2","AZJEDXAMBQDK0","either","5","3168","","","32","","","","","","","","","","","","","","","","","","","","","","","","","","","","","","","","","","","","",""
"","bandit","18","110506","0.0-18.0-0.0","32069706","wem/bandit_party_2","AZJEDXAMBQDK0","either","5","898","","","","","","","1","0","0","0.8","","0.5","0.5","","","","","","","0.8","0.2","","","","","","","","","","","","74","J","0","img/none_selected_demo.jpg","true","0","80_20_practice",""
"","bandit","19","112461","0.0-18.0-1.0","32069706","wem/bandit_party_2","AZJEDXAMBQDK0","either","5","448","","","","","","","0","0","1","0.8","","0.5","0.5","","","","","","","0.8","0.2","","","","","","","","","","","","74","J","0","img/none_selected_demo.jpg","true","0","80_20_practice",""
"","bandit","20","114276","0.0-18.0-2.0","32069706","wem/bandit_party_2","AZJEDXAMBQDK0","either","5","308","","","","","","","1","0","0","0.8","","0.5","0.5","","","","","","","0.8","0.2","","","","","","","","","","","","74","J","0","img/none_selected_demo.jpg","true","0","80_20_practice",""
"","bandit","21","115884","0.0-18.0-3.0","32069706","wem/bandit_party_2","AZJEDXAMBQDK0","either","5","102","","","","","","","0","1","0","","0.8","0.5","0.5","","","0.8","0.2","","","","","","","","","","","","","","","","74","J","0","img/none_selected_demo.jpg","true","0","80_20_practice",""
"","bandit","22","117814","0.0-18.0-4.0","32069706","wem/bandit_party_2","AZJEDXAMBQDK0","either","5","424","","","","","","","0","0","1","","0.8","0.5","0.5","","","0.8","0.2","","","","","","","","","","","","","","","","74","J","0","img/none_selected_demo.jpg","true","0","80_20_practice",""
"","bandit","23","119693","0.0-18.0-5.0","32069706","wem/bandit_party_2","AZJEDXAMBQDK0","either","5","373","","","","","","","0","1","0","","0.8","0.5","0.5","","","0.8","0.2","","","","","","","","","","","","","","","","74","J","0","img/none_selected_demo.jpg","true","0","80_20_practice",""
"","bandit","24","121586","0.0-18.0-6.0","32069706","wem/bandit_party_2","AZJEDXAMBQDK0","either","5","387","","","","","","","0","1","0","","0.8","0.5","0.5","","","0.8","0.2","","","","","","","","","","","","","","","","74","J","0","img/none_selected_demo.jpg","true","0","80_20_practice",""
"","bandit","25","123481","0.0-18.0-7.0","32069706","wem/bandit_party_2","AZJEDXAMBQDK0","either","5","390","","","","","","","0","0","1","","0.2","0.5","0.5","","","0.8","0.2","","","","","","","","","","","","","","","","75","K","1","","true","0","80_20_practice",""
"","bandit","26","125325","0.0-18.0-8.0","32069706","wem/bandit_party_2","AZJEDXAMBQDK0","either","5","339","","","","","","","1","0","0","0.2","","0.5","0.5","","","","","","","0.8","0.2","","","","","","","","","","","","75","K","1","","true","0","80_20_practice",""
"","bandit","27","127260","0.0-18.0-9.0","32069706","wem/bandit_party_2","AZJEDXAMBQDK0","either","5","430","","","","","","","0","0","1","0.2","","0.5","0.5","","","","","","","0.8","0.2","","","","","","","","","","","","75","K","1","","true","0","80_20_practice",""
"","bandit","28","129252","0.0-18.0-10.0","32069706","wem/bandit_party_2","AZJEDXAMBQDK0","either","5","487","","","","","","","0","0","1","","0.2","0.5","0.5","","","0.8","0.2","","","","","","","","","","","","","","","","75","K","1","","true","0","80_20_practice",""
"","bandit","29","131430","0.0-18.0-11.0","32069706","wem/bandit_party_2","AZJEDXAMBQDK0","either","5","673","","","","","","","1","0","0","0.2","","0.5","0.5","","","","","","","0.8","0.2","","","","","","","","","","","","75","K","1","","true","0","80_20_practice",""
"","bandit","30","134327","0.0-18.0-12.0","32069706","wem/bandit_party_2","AZJEDXAMBQDK0","either","5","1391","","","","","","","0","0","1","0.8","","0.5","0.5","","","","","","","0.8","0.2","","","","","","","","","","","","74","J","0","img/none_selected_demo.jpg","true","0","80_20_practice",""
"","bandit","31","136291","0.0-18.0-13.0","32069706","wem/bandit_party_2","AZJEDXAMBQDK0","either","5","460","","","","","","","1","0","0","0.8","","0.5","0.5","","","","","","","0.8","0.2","","","","","","","","","","","","74","J","0","img/none_selected_demo.jpg","true","0","80_20_practice",""
"","bandit","32","138182","0.0-18.0-14.0","32069706","wem/bandit_party_2","AZJEDXAMBQDK0","either","5","385","","","","","","","1","0","0","0.8","","0.5","0.5","","","","","","","0.8","0.2","","","","","","","","","","","","74","J","0","img/none_selected_demo.jpg","true","0","80_20_practice",""
"","bandit","33","140012","0.0-18.0-15.0","32069706","wem/bandit_party_2","AZJEDXAMBQDK0","either","5","324","","","","","","","1","0","0","0.8","","0.5","0.5","","","","","","","0.8","0.2","","","","","","","","","","","","74","J","0","img/none_selected_demo.jpg","true","0","80_20_practice",""
"","bandit","34","141901","0.0-18.0-16.0","32069706","wem/bandit_party_2","AZJEDXAMBQDK0","either","5","383","","","","","","","0","1","0","","0.8","0.5","0.5","","","0.8","0.2","","","","","","","","","","","","","","","","74","J","0","img/none_selected_demo.jpg","true","0","80_20_practice",""
"","bandit","35","143670","0.0-18.0-17.0","32069706","wem/bandit_party_2","AZJEDXAMBQDK0","either","5","262","","","","","","","0","0","1","","0.2","0.5","0.5","","","0.8","0.2","","","","","","","","","","","","","","","","75","K","1","","true","0","80_20_practice",""
"","bandit","36","145434","0.0-18.0-18.0","32069706","wem/bandit_party_2","AZJEDXAMBQDK0","either","5","258","","","","","","","0","0","1","0.2","","0.5","0.5","","","","","","","0.8","0.2","","","","","","","","","","","","75","K","1","","true","0","80_20_practice",""
"","bandit","37","147324","0.0-18.0-19.0","32069706","wem/bandit_party_2","AZJEDXAMBQDK0","either","5","384","","","","","","","1","0","0","0.8","","0.5","0.5","","","","","","","0.8","0.2","","","","","","","","","","","","74","J","0","img/none_selected_demo.jpg","true","0","80_20_practice",""
"","text-replacement","38","148870","0.0-19.0","32069706","wem/bandit_party_2","AZJEDXAMBQDK0","either","5","1544","","","32","","","","","","","","","","","","","","","","","","","","","","","","","","","","","","","","","","","","",""
"","bandit","39","150967","0.0-20.0-0.0","32069706","wem/bandit_party_2","AZJEDXAMBQDK0","either","5","591","","","","","","","1","0","0","1","0","","","","","0","1","","","1","0","","","","","","","","","","","","74","J","0","img/none_selected_demo.jpg","true","0","",""
"","text-replacement","40","153310","0.0-21.0","32069706","wem/bandit_party_2","AZJEDXAMBQDK0","either","5","2339","","","32","","","","","","","","","","","","","","","","","","","","","","","","","","","","","","","","","","","","",""
"","text-replacement","41","154734","0.0-22.0","32069706","wem/bandit_party_2","AZJEDXAMBQDK0","either","5","1421","","","32","","","","","","","","","","","","","","","","","","","","","","","","","","","","","","","","","","","","",""
"","text-replacement","42","156047","0.0-23.0","32069706","wem/bandit_party_2","AZJEDXAMBQDK0","either","5","1311","","","32","","","","","","","","","","","","","","","","","","","","","","","","","","","","","","","","","","","","",""
"","text-replacement","43","158612","0.0-24.0","32069706","wem/bandit_party_2","AZJEDXAMBQDK0","either","5","2563","","","32","","","","","","","","","","","","","","","","","","","","","","","","","","","","","","","","","","","","",""
"","text-replacement","44","162268","0.0-25.0","32069706","wem/bandit_party_2","AZJEDXAMBQDK0","either","5","3652","","","32","","","","","","","","","","","","","","","","","","","","","","","","","","","","","","","","","","","","",""
"","text-replacement","45","164145","0.0-26.0","32069706","wem/bandit_party_2","AZJEDXAMBQDK0","either","5","1875","","","32","","","","","","","","","","","","","","","","","","","","","","","","","","","","","","","","","","","","",""
"","text-replacement","46","167263","0.0-27.0","32069706","wem/bandit_party_2","AZJEDXAMBQDK0","either","5","3115","","","32","","","","","","","","","","","","","","","","","","","","","","","","","","","","","","","","","","","","",""
"","text-replacement","47","169147","0.0-28.0","32069706","wem/bandit_party_2","AZJEDXAMBQDK0","either","5","1881","","","32","","","","","","","","","","","","","","","","","","","","","","","","","","","","","","","","","","","","",""
"","text-replacement","48","172125","0.0-29.0","32069706","wem/bandit_party_2","AZJEDXAMBQDK0","either","5","2975","","","32","","","","","","","","","","","","","","","","","","","","","","","","","","","","","","","","","","","","",""
"","text-replacement","49","173245","0.0-30.0","32069706","wem/bandit_party_2","AZJEDXAMBQDK0","either","5","1117","","","32","","","","","","","","","","","","","","","","","","","","","","","","","","","","","","","","","","","","",""
"","text-replacement","50","174431","0.0-31.0","32069706","wem/bandit_party_2","AZJEDXAMBQDK0","either","5","1184","","","32","","","","","","","","","","","","","","","","","","","","","","","","","","","","","","","","","","","","",""
"","bandit","51","176730","0.0-32.0-0.0","32069706","wem/bandit_party_2","AZJEDXAMBQDK0","either","5","793","","","","","","","0","0","1","0.8","","0.5","0.5","0.5","0.5","","","","","0.8","0.2","0.6","0.2","","","","","","","","","","72","H","0","img/none_selected.jpg","true","0","full_practice",""
"","bandit","52","178634","0.0-32.0-1.0","32069706","wem/bandit_party_2","AZJEDXAMBQDK0","either","5","396","","","","","","","1","0","0","0.8","","0.5","0.5","0.5","0.5","","","","","0.8","0.2","0.6","0.2","","","","","","","","","","72","H","0","img/none_selected.jpg","true","0","full_practice",""
"","bandit","53","180505","0.0-32.0-2.0","32069706","wem/bandit_party_2","AZJEDXAMBQDK0","either","5","365","","","","","","","1","0","0","0.8","","0.5","0.5","0.5","0.5","","","","","0.8","0.2","0.6","0.2","","","","","","","","","","72","H","0","img/none_selected.jpg","true","0","full_practice",""
"","bandit","54","182329","0.0-32.0-3.0","32069706","wem/bandit_party_2","AZJEDXAMBQDK0","either","5","317","","","","","","","0","1","0","","0.8","0.5","0.5","0.5","0.5","0.8","0.2","0.6","0.2","","","","","","","","","","","","","","72","H","0","img/none_selected.jpg","true","0","full_practice",""
"","bandit","55","184179","0.0-32.0-4.0","32069706","wem/bandit_party_2","AZJEDXAMBQDK0","either","5","345","","","","","","","0","0","1","","0.2","0.5","0.5","0.5","0.5","0.8","0.2","0.6","0.2","","","","","","","","","","","","","","74","J","1","","true","0","full_practice",""
"","bandit","56","186055","0.0-32.0-5.0","32069706","wem/bandit_party_2","AZJEDXAMBQDK0","either","5","369","","","","","","","0","0","1","","0.2","0.5","0.5","0.5","0.5","0.8","0.2","0.6","0.2","","","","","","","","","","","","","","74","J","1","","true","0","full_practice",""
"","bandit","57","187968","0.0-32.0-6.0","32069706","wem/bandit_party_2","AZJEDXAMBQDK0","either","5","406","","","","","","","0","0","1","0.2","","0.5","0.5","0.5","0.5","","","","","0.8","0.2","0.6","0.2","","","","","","","","","","74","J","1","","true","0","full_practice",""
"","bandit","58","189748","0.0-32.0-7.0","32069706","wem/bandit_party_2","AZJEDXAMBQDK0","either","5","272","","","","","","","1","0","0","0.2","","0.5","0.5","0.5","0.5","","","","","0.8","0.2","0.6","0.2","","","","","","","","","","74","J","1","","true","0","full_practice",""
"","bandit","59","191497","0.0-32.0-8.0","32069706","wem/bandit_party_2","AZJEDXAMBQDK0","either","5","244","","","","","","","0","0","1","0.6","","0.5","0.5","0.5","0.5","","","","","0.8","0.2","0.6","0.2","","","","","","","","","","75","K","2","","true","0","full_practice",""
"","bandit","60","193276","0.0-32.0-9.0","32069706","wem/bandit_party_2","AZJEDXAMBQDK0","either","5","271","","","","","","","0","1","0","","0.6","0.5","0.5","0.5","0.5","0.8","0.2","0.6","0.2","","","","","","","","","","","","","","75","K","2","","true","0","full_practice",""
"","bandit","61","195076","0.0-32.0-10.0","32069706","wem/bandit_party_2","AZJEDXAMBQDK0","either","5","293","","","","","","","1","0","0","0.6","","0.5","0.5","0.5","0.5","","","","","0.8","0.2","0.6","0.2","","","","","","","","","","75","K","2","","true","0","full_practice",""
"","bandit","62","196861","0.0-32.0-11.0","32069706","wem/bandit_party_2","AZJEDXAMBQDK0","either","5","278","","","","","","","0","1","0","","0.6","0.5","0.5","0.5","0.5","0.8","0.2","0.6","0.2","","","","","","","","","","","","","","75","K","2","","true","0","full_practice",""
"","bandit","63","198728","0.0-32.0-12.0","32069706","wem/bandit_party_2","AZJEDXAMBQDK0","either","5","361","","","","","","","0","0","1","","0.2","0.5","0.5","0.5","0.5","0.8","0.2","0.6","0.2","","","","","","","","","","","","","","76","L","3","","true","0","full_practice",""
"","bandit","64","200548","0.0-32.0-13.0","32069706","wem/bandit_party_2","AZJEDXAMBQDK0","either","5","315","","","","","","","0","0","1","","0.2","0.5","0.5","0.5","0.5","0.8","0.2","0.6","0.2","","","","","","","","","","","","","","76","L","3","","true","0","full_practice",""
"","bandit","65","202472","0.0-32.0-14.0","32069706","wem/bandit_party_2","AZJEDXAMBQDK0","either","5","418","","","","","","","0","0","1","0.2","","0.5","0.5","0.5","0.5","","","","","0.8","0.2","0.6","0.2","","","","","","","","","","76","L","3","","true","0","full_practice",""
"","bandit","66","204367","0.0-32.0-15.0","32069706","wem/bandit_party_2","AZJEDXAMBQDK0","either","5","389","","","","","","","1","0","0","0.2","","0.5","0.5","0.5","0.5","","","","","0.8","0.2","0.6","0.2","","","","","","","","","","76","L","3","","true","0","full_practice",""
"","bandit","67","206216","0.0-32.0-16.0","32069706","wem/bandit_party_2","AZJEDXAMBQDK0","either","5","344","","","","","","","0","0","1","","0.6","0.5","0.5","0.5","0.5","0.8","0.2","0.6","0.2","","","","","","","","","","","","","","75","K","2","","true","0","full_practice",""
"","bandit","68","207967","0.0-32.0-17.0","32069706","wem/bandit_party_2","AZJEDXAMBQDK0","either","5","244","","","","","","","0","1","0","","0.6","0.5","0.5","0.5","0.5","0.8","0.2","0.6","0.2","","","","","","","","","","","","","","75","K","2","","true","0","full_practice",""
"","bandit","69","209715","0.0-32.0-18.0","32069706","wem/bandit_party_2","AZJEDXAMBQDK0","either","5","242","","","","","","","0","1","0","","0.6","0.5","0.5","0.5","0.5","0.8","0.2","0.6","0.2","","","","","","","","","","","","","","75","K","2","","true","0","full_practice",""
"","bandit","70","211249","0.0-32.0-19.0","32069706","wem/bandit_party_2","AZJEDXAMBQDK0","either","5","28","","","","","","","0","0","1","","0.6","0.5","0.5","0.5","0.5","0.8","0.2","0.6","0.2","","","","","","","","","","","","","","75","K","2","","true","0","full_practice",""
"","text","71","213061","0.0-33.0","32069706","wem/bandit_party_2","AZJEDXAMBQDK0","either","5","1800","","","32","","","","","","","","","","","","","","","","","","","","","","","","","","","","","","","","","","","","",""
"","text-replacement","72","220519","0.0-34.0","32069706","wem/bandit_party_2","AZJEDXAMBQDK0","either","5","6452","","","32","","","","","","","","","","","","","","","","","","","","","","","","","","","","","","","","","","","","",""
"","text-replacement","73","226694","0.0-35.0","32069706","wem/bandit_party_2","AZJEDXAMBQDK0","either","5","6169","","","32","","","","","","","","","","","","","","","","","","","","","","","","","","","","","","","","","","","","",""
"","text-replacement","74","230182","0.0-36.0","32069706","wem/bandit_party_2","AZJEDXAMBQDK0","either","5","3484","","","32","","","","","","","","","","","","","","","","","","","","","","","","","","","","","","","","","","","","",""
"","text-replacement","75","234112","0.0-37.0","32069706","wem/bandit_party_2","AZJEDXAMBQDK0","either","5","3926","","","32","","","","","","","","","","","","","","","","","","","","","","","","","","","","","","","","","","","","",""
"","text-replacement","76","237835","0.0-38.0","32069706","wem/bandit_party_2","AZJEDXAMBQDK0","either","5","3719","","","32","","","","","","","","","","","","","","","","","","","","","","","","","","","","","","","","","","","","",""
"","survey-multi-choice-replacement","77","242700","0.0-39.0-0.0","32069706","wem/bandit_party_2","AZJEDXAMBQDK0","either","5","4851","","","","","","","","","","","","","","","","","","","","","","","","Money will be added to the pool for <span style='color:blue;'>DEMOCRATS</span>","","","","","","","attn_check","","","","","","","","","0"
"","survey-multi-choice-replacement","78","246685","0.0-40.0-0.0","32069706","wem/bandit_party_2","AZJEDXAMBQDK0","either","5","2969","","","","","","","","","","","","","","","","","","","","","","","","Equal amounts of money will be added to the pool for <span style='color:blue;'>DEMOCRATS</span> and subtracted from the pool for <span style='color:red;'>REPUBLICANS</span>","","","","","","","attn_check","","","","","","","","","2"
"","survey-multi-choice-replacement","79","249370","0.0-41.0-0.0","32069706","wem/bandit_party_2","AZJEDXAMBQDK0","either","5","1669","","","","","","","","","","","","","","","","","","","","","","","","No money will be added to either pool","","","","","","","attn_check","","","","","","","","","3"
"","bandit","80","255054","0.0-42.0-0.0","32069706","wem/bandit_party_2","AZJEDXAMBQDK0","either","5","3174","","","","","","","0","0","1","","0.4253928501","0.4","0.6","0.2","0.8","0.4253928501","0.4909711759","0.6131215568","0.32692793","","","","","","","","","","","","","","72","H","0","img/none_selected.jpg","","1","main_expt",""
"","bandit","81","256919","0.0-43.0-0.0","32069706","wem/bandit_party_2","AZJEDXAMBQDK0","either","5","358","","","","","","","0","0","1","","0.5447097682","0.4","0.6","0.2","0.8","0.5447097682","0.5514346198","0.6783759564","0.3068321923","","","","","","","","","","","","","","72","H","0","img/none_selected.jpg","","2","main_expt",""
"","bandit","82","258908","0.0-44.0-0.0","32069706","wem/bandit_party_2","AZJEDXAMBQDK0","either","5","481","","","","","","","0","1","0","","0.5631376832","0.4","0.6","0.2","0.8","0.5631376832","0.5966913043","0.6535049038","0.2871808385","","","","","","","","","","","","","","72","H","0","img/none_selected.jpg","","3","main_expt",""
"","bandit","83","260813","0.0-45.0-0.0","32069706","wem/bandit_party_2","AZJEDXAMBQDK0","either","5","401","","","","","","","0","1","0","","0.5889355808","0.4","0.6","0.2","0.8","0.5889355808","0.6236804691","0.5433476707","0.3062311279","","","","","","","","","","","","","","72","H","0","img/none_selected.jpg","","4","main_expt",""
"","bandit","84","262603","0.0-46.0-0.0","32069706","wem/bandit_party_2","AZJEDXAMBQDK0","either","5","283","","","","","","","0","1","0","","0.5844938386","0.4","0.6","0.2","0.8","0.6125363118","0.5844938386","0.4256320799","0.2453374439","","","","","","","","","","","","","","74","J","1","","","5","main_expt",""
"","bandit","85","264417","0.0-47.0-0.0","32069706","wem/bandit_party_2","AZJEDXAMBQDK0","either","5","308","","","","","","","0","1","0","","0.4929788692","0.4","0.6","0.2","0.8","0.5204159956","0.4929788692","0.4097031487","0.2258644136","","","","","","","","","","","","","","74","J","1","","","6","main_expt",""
"","bandit","86","266221","0.0-48.0-0.0","32069706","wem/bandit_party_2","AZJEDXAMBQDK0","either","5","299","","","","","","","1","0","0","0.3978044106","","0.4","0.6","0.2","0.8","","","","","0.5949894572","0.3978044106","0.4614862243","0.2251512132","","","","","","","","","","74","J","1","","","7","main_expt",""
"","bandit","87","268016","0.0-49.0-0.0","32069706","wem/bandit_party_2","AZJEDXAMBQDK0","either","5","288","","","","","","","1","0","0","0.5080346622","","0.4","0.6","0.2","0.8","","","","","0.7043393759","0.5080346622","0.4305419438","0.1597376121","","","","","","","","","","74","J","1","","","8","main_expt",""
"","bandit","88","269745","0.0-50.0-0.0","32069706","wem/bandit_party_2","AZJEDXAMBQDK0","either","5","221","","","","","","","0","1","0","","0.6000641755","0.4","0.6","0.2","0.8","0.6866437556","0.440708512","0.6000641755","0.1395884133","","","","","","","","","","","","","","75","K","2","","","9","main_expt",""
"","bandit","89","271549","0.0-51.0-0.0","32069706","wem/bandit_party_2","AZJEDXAMBQDK0","either","5","293","","","","","","","0","1","0","","0.66675231","0.4","0.6","0.2","0.8","0.6743415364","0.4862198985","0.66675231","0.1529628815","","","","","","","","","","","","","","75","K","2","","","10","main_expt",""
"","bandit","90","273383","0.0-52.0-0.0","32069706","wem/bandit_party_2","AZJEDXAMBQDK0","either","5","329","","","","","","","0","1","0","","0.538431352","0.4","0.6","0.2","0.8","0.6907290289","0.4942886423","0.538431352","0.1918890603","","","","","","","","","","","","","","75","K","2","","","11","main_expt",""
"","bandit","91","275193","0.0-53.0-0.0","32069706","wem/bandit_party_2","AZJEDXAMBQDK0","either","5","304","","","","","","","1","0","0","0.5683478731","","0.4","0.6","0.2","0.8","","","","","0.7254617755","0.4999864232","0.5683478731","0.1412308375","","","","","","","","","","75","K","2","","","12","main_expt",""
"","bandit","92","276893","0.0-54.0-0.0","32069706","wem/bandit_party_2","AZJEDXAMBQDK0","either","5","191","","","","","","","0","0","1","","0.5870071372","0.4","0.6","0.2","0.8","0.7533793381","0.3945724157","0.5870071372","0.1854965676","","","","","","","","","","","","","","75","K","2","","","13","main_expt",""
"","bandit","93","278668","0.0-55.0-0.0","32069706","wem/bandit_party_2","AZJEDXAMBQDK0","either","5","267","","","","","","","0","0","1","0.2200151947","","0.4","0.6","0.2","0.8","","","","","0.6909187676","0.458684297","0.3389967741","0.2200151947","","","","","","","","","","76","L","3","","","14","main_expt",""
"","bandit","94","280465","0.0-56.0-0.0","32069706","wem/bandit_party_2","AZJEDXAMBQDK0","either","5","293","","","","","","","0","0","1","","0.1497743902","0.4","0.6","0.2","0.8","0.7916820586","0.5338449271","0.2927381815","0.1497743902","","","","","","","","","","","","","","76","L","3","","","15","main_expt",""
"","bandit","95","282229","0.0-57.0-0.0","32069706","wem/bandit_party_2","AZJEDXAMBQDK0","either","5","257","","","","","","","0","0","1","0.1767244745","","0.4","0.6","0.2","0.8","","","","","0.7991661796","0.6821016448","0.2268478953","0.1767244745","","","","","","","","","","76","L","3","","","16","main_expt",""
"","bandit","96","284004","0.0-58.0-0.0","32069706","wem/bandit_party_2","AZJEDXAMBQDK0","either","5","267","","","","","","","0","0","1","0.1953364786","","0.4","0.6","0.2","0.8","","","","","0.7352739439","0.6963612506","0.2364877179","0.1953364786","","","","","","","","","","76","L","3","","","17","main_expt",""
"","bandit","97","285753","0.0-59.0-0.0","32069706","wem/bandit_party_2","AZJEDXAMBQDK0","either","5","242","","","","","","","0","0","1","","0.280777314","0.4","0.6","0.2","0.8","0.6911569498","0.7035779666","0.280777314","0.139355503","","","","","","","","","","","","","","75","K","2","","","18","main_expt",""
"","bandit","98","287627","0.0-60.0-0.0","32069706","wem/bandit_party_2","AZJEDXAMBQDK0","either","5","367","","","","","","","0","0","1","0.677086514","","0.4","0.6","0.2","0.8","","","","","0.6372159304","0.677086514","0.3280428268","0.129677489","","","","","","","","","","74","J","1","","","19","main_expt",""
"","bandit","99","289474","0.0-61.0-0.0","32069706","wem/bandit_party_2","AZJEDXAMBQDK0","either","5","339","","","","","","","0","0","1","","0.213865824","0.4","0.6","0.2","0.8","0.5917564331","0.5211019236","0.213865824","0.1584506979","","","","","","","","","","","","","","75","K","2","","","20","main_expt",""
"","bandit","100","291291","0.0-62.0-0.0","32069706","wem/bandit_party_2","AZJEDXAMBQDK0","either","5","310","","","","","","","0","0","1","","0.2755747612","0.4","0.6","0.2","0.8","0.6351733259","0.6040081297","0.2755747612","0.1934985877","","","","","","","","","","","","","","75","K","2","","","21","main_expt",""
"","bandit","101","293115","0.0-63.0-0.0","32069706","wem/bandit_party_2","AZJEDXAMBQDK0","either","5","316","","","","","","","1","0","0","0.57448168","","0.4","0.6","0.2","0.8","","","","","0.57448168","0.5276460007","0.3096891892","0.1184813826","","","","","","","","","","72","H","0","img/none_selected.jpg","","22","main_expt",""
"","bandit","102","294876","0.0-64.0-0.0","32069706","wem/bandit_party_2","AZJEDXAMBQDK0","either","5","253","","","","","","","1","0","0","0.532235281","","0.4","0.6","0.2","0.8","","","","","0.532235281","0.4373756081","0.1855444332","0.1387482349","","","","","","","","","","72","H","0","img/none_selected.jpg","","23","main_expt",""
"","bandit","103","296690","0.0-65.0-0.0","32069706","wem/bandit_party_2","AZJEDXAMBQDK0","either","5","307","","","","","","","1","0","0","0.4695599312","","0.4","0.6","0.2","0.8","","","","","0.4695599312","0.4051577966","0.2026045625","0.1275075135","","","","","","","","","","72","H","0","img/none_selected.jpg","","24","main_expt",""
"","bandit","104","298459","0.0-66.0-0.0","32069706","wem/bandit_party_2","AZJEDXAMBQDK0","either","5","261","","","","","","","0","0","1","","0.3710761786","0.4","0.6","0.2","0.8","0.3710761786","0.3583026632","0.2610081957","0.1324238285","","","","","","","","","","","","","","72","H","0","img/none_selected.jpg","","25","main_expt",""
"","bandit","105","300214","0.0-67.0-0.0","32069706","wem/bandit_party_2","AZJEDXAMBQDK0","either","5","248","","","","","","","0","1","0","","0.4070676783","0.4","0.6","0.2","0.8","0.3104834237","0.4070676783","0.2068764453","0.2222282692","","","","","","","","","","","","","","74","J","1","","","26","main_expt",""
"","bandit","106","301967","0.0-68.0-0.0","32069706","wem/bandit_party_2","AZJEDXAMBQDK0","either","5","244","","","","","","","1","0","0","0.3962805628","","0.4","0.6","0.2","0.8","","","","","0.4250638914","0.3962805628","0.1387354037","0.2367528544","","","","","","","","","","74","J","1","","","27","main_expt",""
"","bandit","107","303669","0.0-69.0-0.0","32069706","wem/bandit_party_2","AZJEDXAMBQDK0","either","5","192","","","","","","","0","0","1","0.3381264529","","0.4","0.6","0.2","0.8","","","","","0.3738912408","0.3381264529","0.2065421522","0.1581712713","","","","","","","","","","74","J","1","","","28","main_expt",""
"","bandit","108","305352","0.0-70.0-0.0","32069706","wem/bandit_party_2","AZJEDXAMBQDK0","either","5","174","","","","","","","0","0","1","","0.3405446746","0.4","0.6","0.2","0.8","0.411092256","0.3405446746","0.2452437498","0.2361440946","","","","","","","","","","","","","","74","J","1","","","29","main_expt",""
"","bandit","109","307086","0.0-71.0-0.0","32069706","wem/bandit_party_2","AZJEDXAMBQDK0","either","5","226","","","","","","","1","0","0","0.3536414415","","0.4","0.6","0.2","0.8","","","","","0.306262239","0.3536414415","0.3076129501","0.3051502752","","","","","","","","","","74","J","1","","","30","main_expt",""
"","bandit","110","308885","0.0-72.0-0.0","32069706","wem/bandit_party_2","AZJEDXAMBQDK0","either","5","290","","","","","","","0","1","0","","0.275744379","0.4","0.6","0.2","0.8","0.2846857217","0.3201297868","0.275744379","0.3588845582","","","","","","","","","","","","","","75","K","2","","","31","main_expt",""
"","bandit","111","310650","0.0-73.0-0.0","32069706","wem/bandit_party_2","AZJEDXAMBQDK0","either","5","256","","","","","","","0","0","1","","0.1582224348","0.4","0.6","0.2","0.8","0.260797537","0.414050106","0.1582224348","0.3351264969","","","","","","","","","","","","","","75","K","2","","","32","main_expt",""
"","bandit","112","312615","0.0-74.0-0.0","32069706","wem/bandit_party_2","AZJEDXAMBQDK0","either","5","456","","","","","","","1","0","0","0.3369799553","","0.4","0.6","0.2","0.8","","","","","0.3108282978","0.4846208784","0.07234251762","0.3369799553","","","","","","","","","","76","L","3","","","33","main_expt",""
"","bandit","113","314389","0.0-75.0-0.0","32069706","wem/bandit_party_2","AZJEDXAMBQDK0","either","5","265","","","","","","","0","0","1","","0.3040676539","0.4","0.6","0.2","0.8","0.3996464291","0.4250330595","0.07244310326","0.3040676539","","","","","","","","","","","","","","76","L","3","","","34","main_expt",""
"","bandit","114","316233","0.0-76.0-0.0","32069706","wem/bandit_party_2","AZJEDXAMBQDK0","either","5","332","","","","","","","1","0","0","0.4368131495","","0.4","0.6","0.2","0.8","","","","","0.4368131495","0.499329675","0.07140094546","0.2974236485","","","","","","","","","","72","H","0","img/none_selected.jpg","","35","main_expt",""
"","bandit","115","318033","0.0-77.0-0.0","32069706","wem/bandit_party_2","AZJEDXAMBQDK0","either","5","291","","","","","","","0","1","0","","0.3396719642","0.4","0.6","0.2","0.8","0.3396719642","0.3892953339","0.08624361683","0.310238309","","","","","","","","","","","","","","72","H","0","img/none_selected.jpg","","36","main_expt",""
"","bandit","116","319866","0.0-78.0-0.0","32069706","wem/bandit_party_2","AZJEDXAMBQDK0","either","5","326","","","","","","","0","1","0","","0.4409026667","0.4","0.6","0.2","0.8","0.4409026667","0.3680424748","0.07543251018","0.2818719109","","","","","","","","","","","","","","72","H","0","img/none_selected.jpg","","37","main_expt",""
"","bandit","117","321647","0.0-79.0-0.0","32069706","wem/bandit_party_2","AZJEDXAMBQDK0","either","5","272","","","","","","","0","1","0","","0.489392614","0.4","0.6","0.2","0.8","0.489392614","0.4909804269","0.1324785543","0.2925765749","","","","","","","","","","","","","","72","H","0","img/none_selected.jpg","","38","main_expt",""
"","bandit","118","323385","0.0-80.0-0.0","32069706","wem/bandit_party_2","AZJEDXAMBQDK0","either","5","231","","","","","","","0","0","1","0.4403114744","","0.4","0.6","0.2","0.8","","","","","0.4403114744","0.5165168671","0.1824024676","0.3033582507","","","","","","","","","","72","H","0","img/none_selected.jpg","","39","main_expt",""
"","bandit","119","325194","0.0-81.0-0.0","32069706","wem/bandit_party_2","AZJEDXAMBQDK0","either","5","301","","","","","","","0","0","1","","0.343221944","0.4","0.6","0.2","0.8","0.343221944","0.6036007873","0.09861269436","0.2371445562","","","","","","","","","","","","","","72","H","0","img/none_selected.jpg","","40","main_expt",""
"","bandit","120","326988","0.0-82.0-0.0","32069706","wem/bandit_party_2","AZJEDXAMBQDK0","either","5","287","","","","","","","0","1","0","","0.450343793","0.4","0.6","0.2","0.8","0.450343793","0.6078828369","0.1028082326","0.2072661203","","","","","","","","","","","","","","72","H","0","img/none_selected.jpg","","41","main_expt",""
"","bandit","121","328767","0.0-83.0-0.0","32069706","wem/bandit_party_2","AZJEDXAMBQDK0","either","5","271","","","","","","","0","0","1","","0.4422822993","0.4","0.6","0.2","0.8","0.4422822993","0.5757077757","0.1326350751","0.1850700716","","","","","","","","","","","","","","72","H","0","img/none_selected.jpg","","42","main_expt",""
"","bandit","122","330523","0.0-84.0-0.0","32069706","wem/bandit_party_2","AZJEDXAMBQDK0","either","5","249","","","","","","","1","0","0","0.504524575","","0.4","0.6","0.2","0.8","","","","","0.4755437476","0.504524575","0.1591685393","0.1700345657","","","","","","","","","","74","J","1","","","43","main_expt",""
"","bandit","123","332217","0.0-85.0-0.0","32069706","wem/bandit_party_2","AZJEDXAMBQDK0","either","5","188","","","","","","","1","0","0","0.3354744533","","0.4","0.6","0.2","0.8","","","","","0.6211160782","0.3354744533","0.1558361793","0.150922449","","","","","","","","","","74","J","1","","","44","main_expt",""
"","bandit","124","334037","0.0-86.0-0.0","32069706","wem/bandit_party_2","AZJEDXAMBQDK0","either","5","310","","","","","","","1","0","0","0.2259933845","","0.4","0.6","0.2","0.8","","","","","0.5950963145","0.2259933845","0.08224127908","0.08792573626","","","","","","","","","","74","J","1","","","45","main_expt",""
"","bandit","125","335815","0.0-87.0-0.0","32069706","wem/bandit_party_2","AZJEDXAMBQDK0","either","5","270","","","","","","","0","0","1","","0.1991815266","0.4","0.6","0.2","0.8","0.600883672","0.1991815266","0.05681632526","0.05210962111","","","","","","","","","","","","","","74","J","1","","","46","main_expt",""
"","bandit","126","337584","0.0-88.0-0.0","32069706","wem/bandit_party_2","AZJEDXAMBQDK0","either","5","263","","","","","","","0","0","1","","0.02046531905","0.4","0.6","0.2","0.8","0.6018426621","0.1821259253","0.02046531905","0.1658512007","","","","","","","","","","","","","","75","K","2","","","47","main_expt",""
"","bandit","127","339384","0.0-89.0-0.0","32069706","wem/bandit_party_2","AZJEDXAMBQDK0","either","5","291","","","","","","","0","0","1","","0.02793369594","0.4","0.6","0.2","0.8","0.6719149388","0.1850219792","0.02793369594","0.2171730843","","","","","","","","","","","","","","75","K","2","","","48","main_expt",""
"","bandit","128","341298","0.0-90.0-0.0","32069706","wem/bandit_party_2","AZJEDXAMBQDK0","either","5","405","","","","","","","0","1","0","","0.5824093935","0.4","0.6","0.2","0.8","0.5824093935","0.2843491098","0.01520235592","0.2545874694","","","","","","","","","","","","","","72","H","0","img/none_selected.jpg","","49","main_expt",""
"","bandit","129","343073","0.0-91.0-0.0","32069706","wem/bandit_party_2","AZJEDXAMBQDK0","either","5","267","","","","","","","0","1","0","","0.5697547833","0.4","0.6","0.2","0.8","0.5697547833","0.2385085868","0.008868670712","0.1971443839","","","","","","","","","","","","","","72","H","0","img/none_selected.jpg","","50","main_expt",""
"","bandit","130","344827","0.0-92.0-0.0","32069706","wem/bandit_party_2","AZJEDXAMBQDK0","either","5","245","","","","","","","0","1","0","","0.5875551098","0.4","0.6","0.2","0.8","0.5875551098","0.2762119933","0.004668439046","0.1743954459","","","","","","","","","","","","","","72","H","0","img/none_selected.jpg","","51","main_expt",""
"","bandit","131","346426","0.0-93.0-0.0","32069706","wem/bandit_party_2","AZJEDXAMBQDK0","either","5","89","","","","","","","0","0","1","","0.691822337","0.4","0.6","0.2","0.8","0.691822337","0.2350807626","0.003090075005","0.1007451992","","","","","","","","","","","","","","72","H","0","img/none_selected.jpg","","52","main_expt",""
"","bandit","132","348342","0.0-94.0-0.0","32069706","wem/bandit_party_2","AZJEDXAMBQDK0","either","5","406","","","","","","","0","0","1","0.2301492847","","0.4","0.6","0.2","0.8","","","","","0.7363191169","0.2301492847","0.003474758773","0.1648918076","","","","","","","","","","74","J","1","","","53","main_expt",""
"","bandit","133","350195","0.0-95.0-0.0","32069706","wem/bandit_party_2","AZJEDXAMBQDK0","either","5","344","","","","","","","1","0","0","0.7639548597","","0.4","0.6","0.2","0.8","","","","","0.7639548597","0.2779325162","0.003279238457","0.1761014763","","","","","","","","","","72","H","0","img/none_selected.jpg","","54","main_expt",""
"","bandit","134","352130","0.0-96.0-0.0","32069706","wem/bandit_party_2","AZJEDXAMBQDK0","either","5","425","","","","","","","1","0","0","0.7264154962","","0.4","0.6","0.2","0.8","","","","","0.7264154962","0.2882189161","0.001847339967","0.1460392243","","","","","","","","","","72","H","0","img/none_selected.jpg","","55","main_expt",""
"","bandit","135","353950","0.0-97.0-0.0","32069706","wem/bandit_party_2","AZJEDXAMBQDK0","either","5","311","","","","","","","0","1","0","","0.7511403137","0.4","0.6","0.2","0.8","0.7511403137","0.2646822794","0.001186331615","0.1882527018","","","","","","","","","","","","","","72","H","0","img/none_selected.jpg","","56","main_expt",""
"","bandit","136","355844","0.0-98.0-0.0","32069706","wem/bandit_party_2","AZJEDXAMBQDK0","either","5","384","","","","","","","0","1","0","","0.6292194553","0.4","0.6","0.2","0.8","0.6292194553","0.3080117871","0.001917609755","0.1836596221","","","","","","","","","","","","","","72","H","0","img/none_selected.jpg","","57","main_expt",""
"","bandit","137","357657","0.0-99.0-0.0","32069706","wem/bandit_party_2","AZJEDXAMBQDK0","either","5","308","","","","","","","0","0","1","0.5622591622","","0.4","0.6","0.2","0.8","","","","","0.5622591622","0.2609020091","0.004115025419","0.2259562874","","","","","","","","","","72","H","0","img/none_selected.jpg","","58","main_expt",""
"","bandit","138","359732","0.0-100.0-0.0","32069706","wem/bandit_party_2","AZJEDXAMBQDK0","either","5","566","","","","","","","0","0","1","","0.6394190939","0.4","0.6","0.2","0.8","0.6394190939","0.3014652953","0.007083433589","0.1673227733","","","","","","","","","","","","","","72","H","0","img/none_selected.jpg","","59","main_expt",""
"","bandit","139","361797","0.0-101.0-0.0","32069706","wem/bandit_party_2","AZJEDXAMBQDK0","either","5","557","","","","","","","0","0","1","0.2872544729","","0.4","0.6","0.2","0.8","","","","","0.502148976","0.2872544729","0.0100473459","0.1404143731","","","","","","","","","","74","J","1","","","60","main_expt",""
"","bandit","140","363642","0.0-102.0-0.0","32069706","wem/bandit_party_2","AZJEDXAMBQDK0","either","5","336","","","","","","","0","0","1","","0.02288810402","0.4","0.6","0.2","0.8","0.5541662771","0.2347068593","0.02288810402","0.1087230511","","","","","","","","","","","","","","75","K","2","","","61","main_expt",""
"","bandit","141","365423","0.0-103.0-0.0","32069706","wem/bandit_party_2","AZJEDXAMBQDK0","either","5","272","","","","","","","0","0","1","","0.1173770395","0.4","0.6","0.2","0.8","0.6016144889","0.1786743828","0.04890713094","0.1173770395","","","","","","","","","","","","","","76","L","3","","","62","main_expt",""
"","bandit","142","367145","0.0-104.0-0.0","32069706","wem/bandit_party_2","AZJEDXAMBQDK0","either","5","213","","","","","","","0","1","0","","0.6306423252","0.4","0.6","0.2","0.8","0.6306423252","0.1627017484","0.06015841579","0.1173961002","","","","","","","","","","","","","","72","H","0","img/none_selected.jpg","","63","main_expt",""
"","bandit","143","369601","0.0-105.0-0.0","32069706","wem/bandit_party_2","AZJEDXAMBQDK0","either","5","947","","","","","","","0","1","0","","0.5963496952","0.4","0.6","0.2","0.8","0.5963496952","0.2220220934","0.0697324588","0.1093057248","","","","","","","","","","","","","","72","H","0","img/none_selected.jpg","","64","main_expt",""
"","bandit","144","371475","0.0-106.0-0.0","32069706","wem/bandit_party_2","AZJEDXAMBQDK0","either","5","365","","","","","","","0","0","1","0.5835424673","","0.4","0.6","0.2","0.8","","","","","0.5835424673","0.1387290973","0.03955641554","0.1437581537","","","","","","","","","","72","H","0","img/none_selected.jpg","","65","main_expt",""
"","bandit","145","373385","0.0-107.0-0.0","32069706","wem/bandit_party_2","AZJEDXAMBQDK0","either","5","402","","","","","","","0","0","1","","0.5789137396","0.4","0.6","0.2","0.8","0.5789137396","0.1481952943","0.04104317144","0.1321246006","","","","","","","","","","","","","","72","H","0","img/none_selected.jpg","","66","main_expt",""
"","bandit","146","375209","0.0-108.0-0.0","32069706","wem/bandit_party_2","AZJEDXAMBQDK0","either","5","316","","","","","","","0","0","1","0.1354395346","","0.4","0.6","0.2","0.8","","","","","0.6503196648","0.1354395346","0.07749417123","0.1441415222","","","","","","","","","","74","J","1","","","67","main_expt",""
"","bandit","147","376980","0.0-109.0-0.0","32069706","wem/bandit_party_2","AZJEDXAMBQDK0","either","5","261","","","","","","","0","0","1","0.09431815687","","0.4","0.6","0.2","0.8","","","","","0.7295955131","0.09431815687","0.1606162296","0.1794787892","","","","","","","","","","74","J","1","","","68","main_expt",""
"","bandit","148","378607","0.0-110.0-0.0","32069706","wem/bandit_party_2","AZJEDXAMBQDK0","either","5","118","","","","","","","0","1","0","","0.1458723802","0.4","0.6","0.2","0.8","0.7924649224","0.09491494314","0.1458723802","0.2467892919","","","","","","","","","","","","","","75","K","2","","","69","main_expt",""
"","bandit","149","380251","0.0-111.0-0.0","32069706","wem/bandit_party_2","AZJEDXAMBQDK0","either","5","134","","","","","","","0","0","1","0.09936082334","","0.4","0.6","0.2","0.8","","","","","0.7104550926","0.144379617","0.09936082334","0.2683381141","","","","","","","","","","75","K","2","","","70","main_expt",""
"","bandit","150","381971","0.0-112.0-0.0","32069706","wem/bandit_party_2","AZJEDXAMBQDK0","either","5","209","","","","","","","0","0","1","","0.08487306657","0.4","0.6","0.2","0.8","0.6350436987","0.1522740794","0.08487306657","0.3513633517","","","","","","","","","","","","","","75","K","2","","","71","main_expt",""
"","bandit","151","383695","0.0-113.0-0.0","32069706","wem/bandit_party_2","AZJEDXAMBQDK0","either","5","214","","","","","","","0","0","1","","0.08819471669","0.4","0.6","0.2","0.8","0.5987872161","0.1668466162","0.08819471669","0.2914052368","","","","","","","","","","","","","","75","K","2","","","72","main_expt",""
"","bandit","152","385354","0.0-114.0-0.0","32069706","wem/bandit_party_2","AZJEDXAMBQDK0","either","5","150","","","","","","","0","0","1","0.2877488323","","0.4","0.6","0.2","0.8","","","","","0.5985066563","0.1896474075","0.1283432424","0.2877488323","","","","","","","","","","76","L","3","","","73","main_expt",""
"","bandit","153","386958","0.0-115.0-0.0","32069706","wem/bandit_party_2","AZJEDXAMBQDK0","either","5","94","","","","","","","0","0","1","0.2562899571","","0.4","0.6","0.2","0.8","","","","","0.6384302553","0.2374421278","0.09379917772","0.2562899571","","","","","","","","","","76","L","3","","","74","main_expt",""
"","bandit","154","388543","0.0-116.0-0.0","32069706","wem/bandit_party_2","AZJEDXAMBQDK0","either","5","76","","","","","","","0","0","1","0.2733605005","","0.4","0.6","0.2","0.8","","","","","0.5658832615","0.2083661751","0.09049970266","0.2733605005","","","","","","","","","","76","L","3","","","75","main_expt",""
"","bandit","155","390291","0.0-117.0-0.0","32069706","wem/bandit_party_2","AZJEDXAMBQDK0","either","5","238","","","","","","","0","1","0","","0.6242699585","0.4","0.6","0.2","0.8","0.6242699585","0.2438220339","0.08721668036","0.3937912108","","","","","","","","","","","","","","72","H","0","img/none_selected.jpg","","76","main_expt",""
"","bandit","156","392050","0.0-118.0-0.0","32069706","wem/bandit_party_2","AZJEDXAMBQDK0","either","5","249","","","","","","","1","0","0","0.5744400186","","0.4","0.6","0.2","0.8","","","","","0.5744400186","0.2688374605","0.06435523183","0.2317864895","","","","","","","","","","72","H","0","img/none_selected.jpg","","77","main_expt",""
"","bandit","157","393839","0.0-119.0-0.0","32069706","wem/bandit_party_2","AZJEDXAMBQDK0","either","5","284","","","","","","","0","1","0","","0.5888420407","0.4","0.6","0.2","0.8","0.5888420407","0.354885782","0.0482567949","0.1809738678","","","","","","","","","","","","","","72","H","0","img/none_selected.jpg","","78","main_expt",""
"","bandit","158","395589","0.0-120.0-0.0","32069706","wem/bandit_party_2","AZJEDXAMBQDK0","either","5","240","","","","","","","0","0","1","","0.6367332082","0.4","0.6","0.2","0.8","0.6367332082","0.3618930149","0.0437210955","0.1139783564","","","","","","","","","","","","","","72","H","0","img/none_selected.jpg","","79","main_expt",""
"","bandit","159","397317","0.0-121.0-0.0","32069706","wem/bandit_party_2","AZJEDXAMBQDK0","either","5","219","","","","","","","0","0","1","0.2656346555","","0.4","0.6","0.2","0.8","","","","","0.6870764151","0.2656346555","0.02877808334","0.08785846653","","","","","","","","","","74","J","1","","","80","main_expt",""
"","bandit","160","399089","0.0-122.0-0.0","32069706","wem/bandit_party_2","AZJEDXAMBQDK0","either","5","262","","","","","","","1","0","0","0.594282643","","0.4","0.6","0.2","0.8","","","","","0.594282643","0.4245431589","0.01921293631","0.09113866108","","","","","","","","","","72","H","0","img/none_selected.jpg","","81","main_expt",""
"","bandit","161","400747","0.0-123.0-0.0","32069706","wem/bandit_party_2","AZJEDXAMBQDK0","either","5","148","","","","","","","1","0","0","0.6134463007","","0.4","0.6","0.2","0.8","","","","","0.6134463007","0.4469352605","0.04933803159","0.1055231707","","","","","","","","","","72","H","0","img/none_selected.jpg","","82","main_expt",""
"","bandit","162","402400","0.0-124.0-0.0","32069706","wem/bandit_party_2","AZJEDXAMBQDK0","either","5","143","","","","","","","0","0","1","","0.573719985","0.4","0.6","0.2","0.8","0.573719985","0.4492602846","0.03134335394","0.09865920741","","","","","","","","","","","","","","72","H","0","img/none_selected.jpg","","83","main_expt",""
"","bandit","163","404124","0.0-125.0-0.0","32069706","wem/bandit_party_2","AZJEDXAMBQDK0","either","5","216","","","","","","","0","0","1","0.5666188995","","0.4","0.6","0.2","0.8","","","","","0.5666188995","0.4800113203","0.08181594064","0.06745845416","","","","","","","","","","72","H","0","img/none_selected.jpg","","84","main_expt",""
"","bandit","164","405913","0.0-126.0-0.0","32069706","wem/bandit_party_2","AZJEDXAMBQDK0","either","5","280","","","","","","","0","1","0","","0.5161506384","0.4","0.6","0.2","0.8","0.5161506384","0.53417275","0.09326949564","0.05723787215","","","","","","","","","","","","","","72","H","0","img/none_selected.jpg","","85","main_expt",""
"","bandit","165","407753","0.0-127.0-0.0","32069706","wem/bandit_party_2","AZJEDXAMBQDK0","either","5","332","","","","","","","0","0","1","","0.4408304524","0.4","0.6","0.2","0.8","0.4408304524","0.4431594274","0.1365856799","0.04283717318","","","","","","","","","","","","","","72","H","0","img/none_selected.jpg","","86","main_expt",""
"","bandit","166","409775","0.0-128.0-0.0","32069706","wem/bandit_party_2","AZJEDXAMBQDK0","either","5","515","","","","","","","0","1","0","","0.4926691315","0.4","0.6","0.2","0.8","0.4926691315","0.4135642243","0.1845868617","0.04801612347","","","","","","","","","","","","","","72","H","0","img/none_selected.jpg","","87","main_expt",""
"","bandit","167","411557","0.0-129.0-0.0","32069706","wem/bandit_party_2","AZJEDXAMBQDK0","either","5","273","","","","","","","0","0","1","0.6047228172","","0.4","0.6","0.2","0.8","","","","","0.6047228172","0.4785462387","0.2304222619","0.1154775412","","","","","","","","","","72","H","0","img/none_selected.jpg","","88","main_expt",""
"","bandit","168","413302","0.0-130.0-0.0","32069706","wem/bandit_party_2","AZJEDXAMBQDK0","either","5","235","","","","","","","0","0","1","","0.1408060154","0.4","0.6","0.2","0.8","0.5311406509","0.6395163219","0.1408060154","0.1308375778","","","","","","","","","","","","","","75","K","2","","","89","main_expt",""
"","bandit","169","415060","0.0-131.0-0.0","32069706","wem/bandit_party_2","AZJEDXAMBQDK0","either","5","249","","","","","","","1","0","0","0.6143207643","","0.4","0.6","0.2","0.8","","","","","0.6262376813","0.6143207643","0.1870966622","0.07282967421","","","","","","","","","","74","J","1","","","90","main_expt",""
"","bandit","170","416835","0.0-132.0-0.0","32069706","wem/bandit_party_2","AZJEDXAMBQDK0","either","5","265","","","","","","","0","1","0","","0.446485487","0.4","0.6","0.2","0.8","0.690423555","0.446485487","0.192698437","0.07599207753","","","","","","","","","","","","","","74","J","1","","","91","main_expt",""
"","bandit","171","418835","0.0-133.0-0.0","32069706","wem/bandit_party_2","AZJEDXAMBQDK0","either","5","490","","","","","","","0","0","1","0.5169677416","","0.4","0.6","0.2","0.8","","","","","0.6517149298","0.5169677416","0.1683480261","0.04323911508","","","","","","","","","","74","J","1","","","92","main_expt",""
"","bandit","172","420604","0.0-134.0-0.0","32069706","wem/bandit_party_2","AZJEDXAMBQDK0","either","5","260","","","","","","","1","0","0","0.4242737166","","0.4","0.6","0.2","0.8","","","","","0.5656193004","0.4242737166","0.1330499919","0.04253576945","","","","","","","","","","74","J","1","","","93","main_expt",""
"","bandit","173","422529","0.0-135.0-0.0","32069706","wem/bandit_party_2","AZJEDXAMBQDK0","either","5","414","","","","","","","0","0","1","0.3479993201","","0.4","0.6","0.2","0.8","","","","","0.4344563295","0.3479993201","0.1880917327","0.04534385772","","","","","","","","","","74","J","1","","","94","main_expt",""
"","bandit","174","424384","0.0-136.0-0.0","32069706","wem/bandit_party_2","AZJEDXAMBQDK0","either","5","344","","","","","","","1","0","0","0.3701135783","","0.4","0.6","0.2","0.8","","","","","0.5651083109","0.3701135783","0.1867575465","0.03318992591","","","","","","","","","","74","J","1","","","95","main_expt",""
"","bandit","175","426234","0.0-137.0-0.0","32069706","wem/bandit_party_2","AZJEDXAMBQDK0","either","5","340","","","","","","","1","0","0","0.3430407586","","0.4","0.6","0.2","0.8","","","","","0.5348041914","0.3430407586","0.2231999883","0.03408771876","","","","","","","","","","74","J","1","","","96","main_expt",""
"","bandit","176","428028","0.0-138.0-0.0","32069706","wem/bandit_party_2","AZJEDXAMBQDK0","either","5","284","","","","","","","0","0","1","","0.2876443713","0.4","0.6","0.2","0.8","0.5627844697","0.2876443713","0.2149045243","0.05013144164","","","","","","","","","","","","","","74","J","1","","","97","main_expt",""
"","bandit","177","429862","0.0-139.0-0.0","32069706","wem/bandit_party_2","AZJEDXAMBQDK0","either","5","327","","","","","","","0","0","1","0.03739082544","","0.4","0.6","0.2","0.8","","","","","0.6177525637","0.3310412313","0.1963416079","0.03739082544","","","","","","","","","","76","L","3","","","98","main_expt",""
"","bandit","178","431703","0.0-140.0-0.0","32069706","wem/bandit_party_2","AZJEDXAMBQDK0","either","5","331","","","","","","","0","0","1","0.1018336486","","0.4","0.6","0.2","0.8","","","","","0.7429557604","0.3893078888","0.1659387142","0.1018336486","","","","","","","","","","76","L","3","","","99","main_expt",""
"","bandit","179","433471","0.0-141.0-0.0","32069706","wem/bandit_party_2","AZJEDXAMBQDK0","either","5","258","","","","","","","0","0","1","","0.145948344","0.4","0.6","0.2","0.8","0.6717563967","0.4049224607","0.145948344","0.1398961818","","","","","","","","","","","","","","75","K","2","","","100","main_expt",""
"","bandit","180","435186","0.0-142.0-0.0","32069706","wem/bandit_party_2","AZJEDXAMBQDK0","either","5","203","","","","","","","0","1","0","","0.1366695263","0.4","0.6","0.2","0.8","0.6929666651","0.3259939159","0.1366695263","0.1830356504","","","","","","","","","","","","","","75","K","2","","","101","main_expt",""
"","bandit","181","436955","0.0-143.0-0.0","32069706","wem/bandit_party_2","AZJEDXAMBQDK0","either","5","259","","","","","","","0","0","1","","0.1543059156","0.4","0.6","0.2","0.8","0.6827494989","0.3598161211","0.1543059156","0.1396005595","","","","","","","","","","","","","","75","K","2","","","102","main_expt",""
"","bandit","182","438750","0.0-144.0-0.0","32069706","wem/bandit_party_2","AZJEDXAMBQDK0","either","5","285","","","","","","","0","0","1","","0.1484193465","0.4","0.6","0.2","0.8","0.7315485361","0.3385951472","0.1484193465","0.0853830874","","","","","","","","","","","","","","75","K","2","","","103","main_expt",""
"","bandit","183","440478","0.0-145.0-0.0","32069706","wem/bandit_party_2","AZJEDXAMBQDK0","either","5","218","","","","","","","0","0","1","0.4881545817","","0.4","0.6","0.2","0.8","","","","","0.6852971926","0.4881545817","0.1516288854","0.09317924201","","","","","","","","","","74","J","1","","","104","main_expt",""
"","bandit","184","442239","0.0-146.0-0.0","32069706","wem/bandit_party_2","AZJEDXAMBQDK0","either","5","251","","","","","","","0","0","1","","0.4790883063","0.4","0.6","0.2","0.8","0.693594393","0.4790883063","0.1283123627","0.08203708102","","","","","","","","","","","","","","74","J","1","","","105","main_expt",""
"","bandit","185","444011","0.0-147.0-0.0","32069706","wem/bandit_party_2","AZJEDXAMBQDK0","either","5","263","","","","","","","1","0","0","0.4354998123","","0.4","0.6","0.2","0.8","","","","","0.6101065231","0.4354998123","0.2016068708","0.07160056992","","","","","","","","","","74","J","1","","","106","main_expt",""
"","bandit","186","445815","0.0-148.0-0.0","32069706","wem/bandit_party_2","AZJEDXAMBQDK0","either","5","294","","","","","","","0","0","1","","0.4789065637","0.4","0.6","0.2","0.8","0.5549317608","0.4789065637","0.2344181992","0.09799112372","","","","","","","","","","","","","","74","J","1","","","107","main_expt",""
"","bandit","187","447645","0.0-149.0-0.0","32069706","wem/bandit_party_2","AZJEDXAMBQDK0","either","5","320","","","","","","","0","0","1","","0.5753690117","0.4","0.6","0.2","0.8","0.5753690117","0.2921896665","0.2234564856","0.1101799882","","","","","","","","","","","","","","72","H","0","img/none_selected.jpg","","108","main_expt",""
"","bandit","188","449559","0.0-150.0-0.0","32069706","wem/bandit_party_2","AZJEDXAMBQDK0","either","5","405","","","","","","","0","0","1","","0.5748544728","0.4","0.6","0.2","0.8","0.5748544728","0.3545905428","0.2494485671","0.07189968831","","","","","","","","","","","","","","72","H","0","img/none_selected.jpg","","109","main_expt",""
"","bandit","189","451510","0.0-151.0-0.0","32069706","wem/bandit_party_2","AZJEDXAMBQDK0","either","5","439","","","","","","","0","1","0","","0.3110769573","0.4","0.6","0.2","0.8","0.6473038793","0.3110769573","0.2804015825","0.06101418375","","","","","","","","","","","","","","74","J","1","","","110","main_expt",""
"","bandit","190","453326","0.0-152.0-0.0","32069706","wem/bandit_party_2","AZJEDXAMBQDK0","either","5","306","","","","","","","0","0","1","0.3673577619","","0.4","0.6","0.2","0.8","","","","","0.6296147118","0.3673577619","0.254644275","0.1032726654","","","","","","","","","","74","J","1","","","111","main_expt",""
"","bandit","191","455154","0.0-153.0-0.0","32069706","wem/bandit_party_2","AZJEDXAMBQDK0","either","5","318","","","","","","","0","0","1","","0.3439961468","0.4","0.6","0.2","0.8","0.6174722021","0.3439961468","0.2686709136","0.1061240248","","","","","","","","","","","","","","74","J","1","","","112","main_expt",""
"","bandit","192","457108","0.0-154.0-0.0","32069706","wem/bandit_party_2","AZJEDXAMBQDK0","either","5","444","","","","","","","0","1","0","","0.3211503982","0.4","0.6","0.2","0.8","0.7467975424","0.3389202036","0.3211503982","0.1150632514","","","","","","","","","","","","","","75","K","2","","","113","main_expt",""
"","bandit","193","459078","0.0-155.0-0.0","32069706","wem/bandit_party_2","AZJEDXAMBQDK0","either","5","459","","","","","","","0","1","0","","0.3067152309","0.4","0.6","0.2","0.8","0.7797220863","0.3122185675","0.3067152309","0.1491479201","","","","","","","","","","","","","","75","K","2","","","114","main_expt",""
"","bandit","194","460847","0.0-156.0-0.0","32069706","wem/bandit_party_2","AZJEDXAMBQDK0","either","5","259","","","","","","","0","0","1","","0.3274584286","0.4","0.6","0.2","0.8","0.8152411921","0.2431064996","0.3274584286","0.08304421353","","","","","","","","","","","","","","75","K","2","","","115","main_expt",""
"","bandit","195","463961","0.0-157.0-0.0","32069706","wem/bandit_party_2","AZJEDXAMBQDK0","either","5","1604","","","","","","","0","0","1","","0.2491959293","0.4","0.6","0.2","0.8","0.7362727539","0.2225404561","0.2491959293","0.1391191417","","","","","","","","","","","","","","75","K","2","","","116","main_expt",""
"","bandit","196","465624","0.0-158.0-0.0","32069706","wem/bandit_party_2","AZJEDXAMBQDK0","either","5","153","","","","","","","0","0","1","","0.1689833708","0.4","0.6","0.2","0.8","0.7051771602","0.2891792411","0.1425156065","0.1689833708","","","","","","","","","","","","","","76","L","3","","","117","main_expt",""
"","bandit","197","467313","0.0-159.0-0.0","32069706","wem/bandit_party_2","AZJEDXAMBQDK0","either","5","178","","","","","","","0","0","1","","0.1341186766","0.4","0.6","0.2","0.8","0.7099604309","0.3147139712","0.1550025764","0.1341186766","","","","","","","","","","","","","","76","L","3","","","118","main_expt",""
"","bandit","198","469068","0.0-160.0-0.0","32069706","wem/bandit_party_2","AZJEDXAMBQDK0","either","5","247","","","","","","","0","0","1","0.1211065448","","0.4","0.6","0.2","0.8","","","","","0.6633752461","0.4890071061","0.1733664784","0.1211065448","","","","","","","","","","76","L","3","","","119","main_expt",""
"","bandit","199","470673","0.0-161.0-0.0","32069706","wem/bandit_party_2","AZJEDXAMBQDK0","either","5","93","","","","","","","0","0","1","","0.2091577514","0.4","0.6","0.2","0.8","0.6748815414","0.5238994176","0.2091577514","0.1317257861","","","","","","","","","","","","","","75","K","2","","","120","main_expt",""
"","bandit","200","472426","0.0-162.0-0.0","32069706","wem/bandit_party_2","AZJEDXAMBQDK0","either","5","243","","","","","","","0","1","0","","0.2038206067","0.4","0.6","0.2","0.8","0.694041989","0.4821854017","0.2038206067","0.08851148741","","","","","","","","","","","","","","75","K","2","","","121","main_expt",""
"","bandit","201","474186","0.0-163.0-0.0","32069706","wem/bandit_party_2","AZJEDXAMBQDK0","either","5","250","","","","","","","0","0","1","","0.1646827865","0.4","0.6","0.2","0.8","0.7808088803","0.5695824443","0.1646827865","0.1313095228","","","","","","","","","","","","","","75","K","2","","","122","main_expt",""
"","bandit","202","475899","0.0-164.0-0.0","32069706","wem/bandit_party_2","AZJEDXAMBQDK0","either","5","203","","","","","","","0","0","1","","0.08951947698","0.4","0.6","0.2","0.8","0.7513243775","0.5884468641","0.08951947698","0.1990721176","","","","","","","","","","","","","","75","K","2","","","123","main_expt",""
"","bandit","203","477628","0.0-165.0-0.0","32069706","wem/bandit_party_2","AZJEDXAMBQDK0","either","5","218","","","","","","","1","0","0","0.6578864121","","0.4","0.6","0.2","0.8","","","","","0.7095593687","0.6578864121","0.09676311751","0.3510587203","","","","","","","","","","74","J","1","","","124","main_expt",""
"","bandit","204","479356","0.0-166.0-0.0","32069706","wem/bandit_party_2","AZJEDXAMBQDK0","either","5","219","","","","","","","1","0","0","0.6610648035","","0.4","0.6","0.2","0.8","","","","","0.6464373278","0.6610648035","0.08914634913","0.2829787335","","","","","","","","","","74","J","1","","","125","main_expt",""
"","bandit","205","481062","0.0-167.0-0.0","32069706","wem/bandit_party_2","AZJEDXAMBQDK0","either","5","198","","","","","","","1","0","0","0.6745370829","","0.4","0.6","0.2","0.8","","","","","0.69855693","0.6745370829","0.1104844084","0.3253732313","","","","","","","","","","74","J","1","","","126","main_expt",""
"","bandit","206","482881","0.0-168.0-0.0","32069706","wem/bandit_party_2","AZJEDXAMBQDK0","either","5","308","","","","","","","0","0","1","0.6357656308","","0.4","0.6","0.2","0.8","","","","","0.6394960802","0.6357656308","0.1302598269","0.2969307539","","","","","","","","","","74","J","1","","","127","main_expt",""
"","bandit","207","484596","0.0-169.0-0.0","32069706","wem/bandit_party_2","AZJEDXAMBQDK0","either","5","205","","","","","","","1","0","0","0.5912569563","","0.4","0.6","0.2","0.8","","","","","0.5912569563","0.6746479632","0.1739983423","0.3862322559","","","","","","","","","","72","H","0","img/none_selected.jpg","","128","main_expt",""
"","bandit","208","486394","0.0-170.0-0.0","32069706","wem/bandit_party_2","AZJEDXAMBQDK0","either","5","287","","","","","","","1","0","0","0.6408154383","","0.4","0.6","0.2","0.8","","","","","0.6408154383","0.609360971","0.2144078185","0.3399993615","","","","","","","","","","72","H","0","img/none_selected.jpg","","129","main_expt",""
"","bandit","209","488128","0.0-171.0-0.0","32069706","wem/bandit_party_2","AZJEDXAMBQDK0","either","5","224","","","","","","","0","1","0","","0.6160079471","0.4","0.6","0.2","0.8","0.6160079471","0.5791775941","0.2133227205","0.4343217783","","","","","","","","","","","","","","72","H","0","img/none_selected.jpg","","130","main_expt",""
"","bandit","210","489787","0.0-172.0-0.0","32069706","wem/bandit_party_2","AZJEDXAMBQDK0","either","5","149","","","","","","","1","0","0","0.6639311205","","0.4","0.6","0.2","0.8","","","","","0.6639311205","0.6039133906","0.3009586135","0.4116870082","","","","","","","","","","72","H","0","img/none_selected.jpg","","131","main_expt",""
"","bandit","211","491627","0.0-173.0-0.0","32069706","wem/bandit_party_2","AZJEDXAMBQDK0","either","5","330","","","","","","","0","0","1","","0.7314418876","0.4","0.6","0.2","0.8","0.7314418876","0.5564977279","0.3257006372","0.3235444519","","","","","","","","","","","","","","72","H","0","img/none_selected.jpg","","132","main_expt",""
"","bandit","212","493406","0.0-174.0-0.0","32069706","wem/bandit_party_2","AZJEDXAMBQDK0","either","5","268","","","","","","","0","1","0","","0.7343064015","0.4","0.6","0.2","0.8","0.7343064015","0.5453182718","0.3286432436","0.4204005917","","","","","","","","","","","","","","72","H","0","img/none_selected.jpg","","133","main_expt",""
"","bandit","213","495192","0.0-175.0-0.0","32069706","wem/bandit_party_2","AZJEDXAMBQDK0","either","5","275","","","","","","","0","1","0","","0.6345074403","0.4","0.6","0.2","0.8","0.6345074403","0.5557967555","0.3343575241","0.5326734174","","","","","","","","","","","","","","72","H","0","img/none_selected.jpg","","134","main_expt",""
"","bandit","214","496919","0.0-176.0-0.0","32069706","wem/bandit_party_2","AZJEDXAMBQDK0","either","5","217","","","","","","","0","0","1","","0.752921597","0.4","0.6","0.2","0.8","0.752921597","0.5719827955","0.2917270645","0.6096825818","","","","","","","","","","","","","","72","H","0","img/none_selected.jpg","","135","main_expt",""
"","bandit","215","498819","0.0-177.0-0.0","32069706","wem/bandit_party_2","AZJEDXAMBQDK0","either","5","389","","","","","","","0","1","0","","0.7642539739","0.4","0.6","0.2","0.8","0.7642539739","0.4756276611","0.3972485531","0.6827328332","","","","","","","","","","","","","","72","H","0","img/none_selected.jpg","","136","main_expt",""
"","bandit","216","500568","0.0-178.0-0.0","32069706","wem/bandit_party_2","AZJEDXAMBQDK0","either","5","238","","","","","","","0","0","1","0.7166238274","","0.4","0.6","0.2","0.8","","","","","0.7166238274","0.5078949877","0.4294090248","0.6604068036","","","","","","","","","","72","H","0","img/none_selected.jpg","","137","main_expt",""
"","bandit","217","502187","0.0-179.0-0.0","32069706","wem/bandit_party_2","AZJEDXAMBQDK0","either","5","107","","","","","","","0","1","0","","0.713549589","0.4","0.6","0.2","0.8","0.713549589","0.4938131475","0.5009988565","0.653661868","","","","","","","","","","","","","","72","H","0","img/none_selected.jpg","","138","main_expt",""
"","bandit","218","503952","0.0-180.0-0.0","32069706","wem/bandit_party_2","AZJEDXAMBQDK0","either","5","253","","","","","","","0","1","0","","0.6905374229","0.4","0.6","0.2","0.8","0.6905374229","0.654612375","0.4993746949","0.6169918179","","","","","","","","","","","","","","72","H","0","img/none_selected.jpg","","139","main_expt",""
"","bandit","219","506167","0.0-181.0-0.0","32069706","wem/bandit_party_2","AZJEDXAMBQDK0","either","5","704","","","","","","","0","1","0","","0.6614813372","0.4","0.6","0.2","0.8","0.6614813372","0.52663091","0.5448973659","0.6657435074","","","","","","","","","","","","","","72","H","0","img/none_selected.jpg","","140","main_expt",""
"","bandit","220","508167","0.0-182.0-0.0","32069706","wem/bandit_party_2","AZJEDXAMBQDK0","either","5","489","","","","","","","0","1","0","","0.7024355817","0.4","0.6","0.2","0.8","0.7024355817","0.5976356642","0.4829720837","0.6349341703","","","","","","","","","","","","","","72","H","0","img/none_selected.jpg","","141","main_expt",""
"","bandit","221","509956","0.0-183.0-0.0","32069706","wem/bandit_party_2","AZJEDXAMBQDK0","either","5","278","","","","","","","0","0","1","0.7185929435","","0.4","0.6","0.2","0.8","","","","","0.7185929435","0.5956183516","0.5402580016","0.6379356982","","","","","","","","","","72","H","0","img/none_selected.jpg","","142","main_expt",""
"","bandit","222","511649","0.0-184.0-0.0","32069706","wem/bandit_party_2","AZJEDXAMBQDK0","either","5","183","","","","","","","0","0","1","","0.6240660549","0.4","0.6","0.2","0.8","0.6240660549","0.6432894639","0.5478015274","0.6022688156","","","","","","","","","","","","","","72","H","0","img/none_selected.jpg","","143","main_expt",""
"","bandit","223","513208","0.0-185.0-0.0","32069706","wem/bandit_party_2","AZJEDXAMBQDK0","either","5","48","","","","","","","0","0","1","","0.5797935966","0.4","0.6","0.2","0.8","0.5797935966","0.6691106198","0.5189832842","0.5806731621","","","","","","","","","","","","","","72","H","0","img/none_selected.jpg","","144","main_expt",""
"","bandit","224","515044","0.0-186.0-0.0","32069706","wem/bandit_party_2","AZJEDXAMBQDK0","either","5","325","","","","","","","1","0","0","0.520403766","","0.4","0.6","0.2","0.8","","","","","0.520403766","0.677031803","0.4556604905","0.5512406412","","","","","","","","","","72","H","0","img/none_selected.jpg","","145","main_expt",""
"","bandit","225","516799","0.0-187.0-0.0","32069706","wem/bandit_party_2","AZJEDXAMBQDK0","either","5","244","","","","","","","1","0","0","0.5330345992","","0.4","0.6","0.2","0.8","","","","","0.5330345992","0.6697886415","0.48011385","0.6055708535","","","","","","","","","","72","H","0","img/none_selected.jpg","","146","main_expt",""
"","bandit","226","518571","0.0-188.0-0.0","32069706","wem/bandit_party_2","AZJEDXAMBQDK0","either","5","262","","","","","","","1","0","0","0.5692896821","","0.4","0.6","0.2","0.8","","","","","0.5692896821","0.7101623398","0.5363471167","0.5711328773","","","","","","","","","","72","H","0","img/none_selected.jpg","","147","main_expt",""
"","bandit","227","520571","0.0-189.0-0.0","32069706","wem/bandit_party_2","AZJEDXAMBQDK0","either","5","489","","","","","","","0","0","1","0.4877368026","","0.4","0.6","0.2","0.8","","","","","0.4877368026","0.733230793","0.4929714004","0.4258462921","","","","","","","","","","72","H","0","img/none_selected.jpg","","148","main_expt",""
"","bandit","228","522657","0.0-190.0-0.0","32069706","wem/bandit_party_2","AZJEDXAMBQDK0","either","5","574","","","","","","","0","1","0","","0.7010449773","0.4","0.6","0.2","0.8","0.5936336812","0.7010449773","0.4356177925","0.327967402","","","","","","","","","","","","","","74","J","1","","","149","main_expt",""
"","bandit","229","524571","0.0-191.0-0.0","32069706","wem/bandit_party_2","AZJEDXAMBQDK0","either","5","403","","","","","","","0","1","0","","0.6668672445","0.4","0.6","0.2","0.8","0.7027445866","0.6668672445","0.4054894896","0.4343474627","","","","","","","","","","","","","","74","J","1","","","150","main_expt",""
"","bandit","230","527385","0.0-192.0-0.0","32069706","wem/bandit_party_2","AZJEDXAMBQDK0","either","5","1303","","","","","","","0","0","1","","0.5612636021","0.4","0.6","0.2","0.8","0.7690633033","0.5612636021","0.5283130311","0.5382828223","","","","","","","","","","","","","","74","J","1","","","151","main_expt",""
"","bandit","231","529242","0.0-193.0-0.0","32069706","wem/bandit_party_2","AZJEDXAMBQDK0","either","5","346","","","","","","","1","0","0","0.7032448324","","0.4","0.6","0.2","0.8","","","","","0.5989969619","0.7032448324","0.6323123958","0.6572277468","","","","","","","","","","74","J","1","","","152","main_expt",""
"","bandit","232","531007","0.0-194.0-0.0","32069706","wem/bandit_party_2","AZJEDXAMBQDK0","either","5","253","","","","","","","1","0","0","0.6918543646","","0.4","0.6","0.2","0.8","","","","","0.6126787421","0.6918543646","0.5847243132","0.668560183","","","","","","","","","","74","J","1","","","153","main_expt",""
"","bandit","233","532841","0.0-195.0-0.0","32069706","wem/bandit_party_2","AZJEDXAMBQDK0","either","5","322","","","","","","","0","1","0","","0.5461115941","0.4","0.6","0.2","0.8","0.5461115941","0.647195156","0.4285456013","0.6954524596","","","","","","","","","","","","","","72","H","0","img/none_selected.jpg","","154","main_expt",""
"","bandit","234","534660","0.0-196.0-0.0","32069706","wem/bandit_party_2","AZJEDXAMBQDK0","either","5","309","","","","","","","0","1","0","","0.5456348337","0.4","0.6","0.2","0.8","0.5456348337","0.6135998722","0.4772645207","0.5684527538","","","","","","","","","","","","","","72","H","0","img/none_selected.jpg","","155","main_expt",""
"","bandit","235","536500","0.0-197.0-0.0","32069706","wem/bandit_party_2","AZJEDXAMBQDK0","either","5","329","","","","","","","0","1","0","","0.4782917504","0.4","0.6","0.2","0.8","0.4782917504","0.5591033916","0.4982711843","0.6034375159","","","","","","","","","","","","","","72","H","0","img/none_selected.jpg","","156","main_expt",""
"","bandit","236","538195","0.0-198.0-0.0","32069706","wem/bandit_party_2","AZJEDXAMBQDK0","either","5","185","","","","","","","0","0","1","","0.4868537485","0.4","0.6","0.2","0.8","0.4868537485","0.5090787948","0.5275183668","0.5835723018","","","","","","","","","","","","","","72","H","0","img/none_selected.jpg","","157","main_expt",""
"","bandit","237","539795","0.0-199.0-0.0","32069706","wem/bandit_party_2","AZJEDXAMBQDK0","either","5","92","","","","","","","0","1","0","","0.4489423754","0.4","0.6","0.2","0.8","0.5361642224","0.6087372924","0.4489423754","0.5234712835","","","","","","","","","","","","","","75","K","2","","","158","main_expt",""
"","bandit","238","541453","0.0-200.0-0.0","32069706","wem/bandit_party_2","AZJEDXAMBQDK0","either","5","146","","","","","","","0","0","1","","0.4933275403","0.4","0.6","0.2","0.8","0.4947944436","0.6064578463","0.4933275403","0.5636881177","","","","","","","","","","","","","","75","K","2","","","159","main_expt",""
"","bandit","239","543202","0.0-201.0-0.0","32069706","wem/bandit_party_2","AZJEDXAMBQDK0","either","5","237","","","","","","","0","1","0","","0.4521998099","0.4","0.6","0.2","0.8","0.5106889885","0.6951258233","0.4521998099","0.4785340868","","","","","","","","","","","","","","75","K","2","","","160","main_expt",""
"","bandit","240","544821","0.0-202.0-0.0","32069706","wem/bandit_party_2","AZJEDXAMBQDK0","either","5","107","","","","","","","0","0","1","","0.5114636712","0.4","0.6","0.2","0.8","0.4566704777","0.7129510734","0.5114636712","0.5038962889","","","","","","","","","","","","","","75","K","2","","","161","main_expt",""
"","bandit","241","547437","0.0-203.0-0.0","32069706","wem/bandit_party_2","AZJEDXAMBQDK0","either","5","1104","","","","","","","0","1","0","","0.5242674757","0.4","0.6","0.2","0.8","0.3259271754","0.7028034005","0.5242674757","0.4448395692","","","","","","","","","","","","","","75","K","2","","","162","main_expt",""
"","bandit","242","549237","0.0-204.0-0.0","32069706","wem/bandit_party_2","AZJEDXAMBQDK0","either","5","289","","","","","","","0","1","0","","0.5687322637","0.4","0.6","0.2","0.8","0.2806734392","0.6293758899","0.5687322637","0.471982621","","","","","","","","","","","","","","75","K","2","","","163","main_expt",""
"","bandit","243","550980","0.0-205.0-0.0","32069706","wem/bandit_party_2","AZJEDXAMBQDK0","either","5","231","","","","","","","0","0","1","","0.5635146256","0.4","0.6","0.2","0.8","0.2973163189","0.6813427096","0.5635146256","0.6517066897","","","","","","","","","","","","","","75","K","2","","","164","main_expt",""
"","bandit","244","552624","0.0-206.0-0.0","32069706","wem/bandit_party_2","AZJEDXAMBQDK0","either","5","132","","","","","","","1","0","0","0.6588968294","","0.4","0.6","0.2","0.8","","","","","0.2872552927","0.7231406025","0.6588968294","0.6339143586","","","","","","","","","","75","K","2","","","165","main_expt",""
"","bandit","245","554208","0.0-207.0-0.0","32069706","wem/bandit_party_2","AZJEDXAMBQDK0","either","5","69","","","","","","","0","1","0","","0.74872254","0.4","0.6","0.2","0.8","0.325395791","0.6274448994","0.74872254","0.6507743373","","","","","","","","","","","","","","75","K","2","","","166","main_expt",""
"","bandit","246","555778","0.0-208.0-0.0","32069706","wem/bandit_party_2","AZJEDXAMBQDK0","either","5","57","","","","","","","0","1","0","","0.7741304825","0.4","0.6","0.2","0.8","0.3307719744","0.6778384319","0.7741304825","0.6753437353","","","","","","","","","","","","","","75","K","2","","","167","main_expt",""
"","bandit","247","557546","0.0-209.0-0.0","32069706","wem/bandit_party_2","AZJEDXAMBQDK0","either","5","256","","","","","","","0","0","1","","0.8873722237","0.4","0.6","0.2","0.8","0.4033689778","0.6928942004","0.8873722237","0.6308788189","","","","","","","","","","","","","","75","K","2","","","168","main_expt",""
"","bandit","248","559332","0.0-210.0-0.0","32069706","wem/bandit_party_2","AZJEDXAMBQDK0","either","5","274","","","","","","","0","1","0","","0.8649989169","0.4","0.6","0.2","0.8","0.4089274666","0.6181376835","0.8649989169","0.6289357746","","","","","","","","","","","","","","75","K","2","","","169","main_expt",""
"","bandit","249","560970","0.0-211.0-0.0","32069706","wem/bandit_party_2","AZJEDXAMBQDK0","either","5","126","","","","","","","0","0","1","","0.8634323334","0.4","0.6","0.2","0.8","0.4033631647","0.6539136718","0.8634323334","0.6308829817","","","","","","","","","","","","","","75","K","2","","","170","main_expt",""
"","bandit","250","562494","0.0-212.0-0.0","32069706","wem/bandit_party_2","AZJEDXAMBQDK0","either","5","12","","","","","","","1","0","0","0.3743415885","","0.4","0.6","0.2","0.8","","","","","0.3743415885","0.7935188527","0.8050812792","0.6008061885","","","","","","","","","","72","H","0","img/none_selected.jpg","","171","main_expt",""
"","bandit","251","564187","0.0-213.0-0.0","32069706","wem/bandit_party_2","AZJEDXAMBQDK0","either","5","181","","","","","","","0","0","1","","0.4145867416","0.4","0.6","0.2","0.8","0.4145867416","0.7959482017","0.7635000848","0.6498855282","","","","","","","","","","","","","","72","H","0","img/none_selected.jpg","","172","main_expt",""
"","bandit","252","565961","0.0-214.0-0.0","32069706","wem/bandit_party_2","AZJEDXAMBQDK0","either","5","262","","","","","","","0","0","1","0.4421490518","","0.4","0.6","0.2","0.8","","","","","0.4421490518","0.7720377381","0.7793560846","0.6361658802","","","","","","","","","","72","H","0","img/none_selected.jpg","","173","main_expt",""
"","bandit","253","568116","0.0-215.0-0.0","32069706","wem/bandit_party_2","AZJEDXAMBQDK0","either","5","643","","","","","","","0","0","1","0.7751150559","","0.4","0.6","0.2","0.8","","","","","0.373112653","0.7751150559","0.7290013271","0.5494915933","","","","","","","","","","74","J","1","","","174","main_expt",""
"","bandit","254","569741","0.0-216.0-0.0","32069706","wem/bandit_party_2","AZJEDXAMBQDK0","either","5","114","","","","","","","1","0","0","0.6292002022","","0.4","0.6","0.2","0.8","","","","","0.372221374","0.7699246652","0.8353873757","0.6292002022","","","","","","","","","","76","L","3","","","175","main_expt",""
"","bandit","255","571344","0.0-217.0-0.0","32069706","wem/bandit_party_2","AZJEDXAMBQDK0","either","5","91","","","","","","","1","0","0","0.4999600136","","0.4","0.6","0.2","0.8","","","","","0.3594456443","0.8092821718","0.8589437223","0.4999600136","","","","","","","","","","76","L","3","","","176","main_expt",""
"","bandit","256","573060","0.0-218.0-0.0","32069706","wem/bandit_party_2","AZJEDXAMBQDK0","either","5","202","","","","","","","0","0","1","0.4500304274","","0.4","0.6","0.2","0.8","","","","","0.3705823864","0.7728258073","0.8824379228","0.4500304274","","","","","","","","","","76","L","3","","","177","main_expt",""
"","bandit","257","575535","0.0-219.0-0.0","32069706","wem/bandit_party_2","AZJEDXAMBQDK0","either","5","964","","","","","","","0","0","1","0.4626099748","","0.4","0.6","0.2","0.8","","","","","0.3042584581","0.8128952128","0.8862787626","0.4626099748","","","","","","","","","","76","L","3","","","178","main_expt",""
"","bandit","258","577279","0.0-220.0-0.0","32069706","wem/bandit_party_2","AZJEDXAMBQDK0","either","5","234","","","","","","","1","0","0","0.3074659707","","0.4","0.6","0.2","0.8","","","","","0.3056645996","0.7878088044","0.8851661012","0.3074659707","","","","","","","","","","76","L","3","","","179","main_expt",""
"","bandit","259","578853","0.0-221.0-0.0","32069706","wem/bandit_party_2","AZJEDXAMBQDK0","either","5","61","","","","","","","0","0","1","0.2445312817","","0.4","0.6","0.2","0.8","","","","","0.3124458775","0.7626215198","0.8623840347","0.2445312817","","","","","","","","","","76","L","3","","","180","main_expt",""
"","bandit","260","580642","0.0-222.0-0.0","32069706","wem/bandit_party_2","AZJEDXAMBQDK0","either","5","280","","","","","","","0","1","0","","0.8815853427","0.4","0.6","0.2","0.8","0.2597333415","0.7059637017","0.8815853427","0.2284870313","","","","","","","","","","","","","","75","K","2","","","181","main_expt",""
"","bandit","261","582377","0.0-223.0-0.0","32069706","wem/bandit_party_2","AZJEDXAMBQDK0","either","5","221","","","","","","","0","1","0","","0.8955826305","0.4","0.6","0.2","0.8","0.2117009826","0.6691747745","0.8955826305","0.2195648065","","","","","","","","","","","","","","75","K","2","","","182","main_expt",""
"","bandit","262","584311","0.0-224.0-0.0","32069706","wem/bandit_party_2","AZJEDXAMBQDK0","either","5","421","","","","","","","0","1","0","","0.9362873759","0.4","0.6","0.2","0.8","0.2327762041","0.5523838876","0.9362873759","0.2327716204","","","","","","","","","","","","","","75","K","2","","","183","main_expt",""
"","bandit","263","585905","0.0-225.0-0.0","32069706","wem/bandit_party_2","AZJEDXAMBQDK0","either","5","85","","","","","","","0","0","1","","0.9484326647","0.4","0.6","0.2","0.8","0.2750618684","0.5451875246","0.9484326647","0.3207903029","","","","","","","","","","","","","","75","K","2","","","184","main_expt",""
"","bandit","264","587624","0.0-226.0-0.0","32069706","wem/bandit_party_2","AZJEDXAMBQDK0","either","5","206","","","","","","","0","1","0","","0.9660783121","0.4","0.6","0.2","0.8","0.2305846964","0.6090771744","0.9660783121","0.3609723674","","","","","","","","","","","","","","75","K","2","","","185","main_expt",""
"","bandit","265","590386","0.0-227.0-0.0","32069706","wem/bandit_party_2","AZJEDXAMBQDK0","either","5","1249","","","","","","","0","1","0","","0.9665376101","0.4","0.6","0.2","0.8","0.2597669424","0.5810996076","0.9665376101","0.4442397518","","","","","","","","","","","","","","75","K","2","","","186","main_expt",""
"","bandit","266","592177","0.0-228.0-0.0","32069706","wem/bandit_party_2","AZJEDXAMBQDK0","either","5","277","","","","","","","0","1","0","","0.9644184371","0.4","0.6","0.2","0.8","0.2143742246","0.4445572548","0.9644184371","0.4478442549","","","","","","","","","","","","","","75","K","2","","","187","main_expt",""
"","bandit","267","594080","0.0-229.0-0.0","32069706","wem/bandit_party_2","AZJEDXAMBQDK0","either","5","390","","","","","","","1","0","0","0.9731237162","","0.4","0.6","0.2","0.8","","","","","0.2294707647","0.4113554433","0.9731237162","0.4026396634","","","","","","","","","","75","K","2","","","188","main_expt",""
"","bandit","268","596015","0.0-230.0-0.0","32069706","wem/bandit_party_2","AZJEDXAMBQDK0","either","5","422","","","","","","","1","0","0","0.9787475226","","0.4","0.6","0.2","0.8","","","","","0.2469430613","0.4053553249","0.9787475226","0.5072589837","","","","","","","","","","75","K","2","","","189","main_expt",""
"","bandit","269","597799","0.0-231.0-0.0","32069706","wem/bandit_party_2","AZJEDXAMBQDK0","either","5","271","","","","","","","1","0","0","0.9847816181","","0.4","0.6","0.2","0.8","","","","","0.2437728268","0.4927633492","0.9847816181","0.5234843415","","","","","","","","","","75","K","2","","","190","main_expt",""
"","bandit","270","599543","0.0-232.0-0.0","32069706","wem/bandit_party_2","AZJEDXAMBQDK0","either","5","231","","","","","","","0","1","0","","0.9713064587","0.4","0.6","0.2","0.8","0.1655579887","0.428678546","0.9713064587","0.5054414672","","","","","","","","","","","","","","75","K","2","","","191","main_expt",""
"","bandit","271","601226","0.0-233.0-0.0","32069706","wem/bandit_party_2","AZJEDXAMBQDK0","either","5","171","","","","","","","0","1","0","","0.9558555722","0.4","0.6","0.2","0.8","0.1501427492","0.3358015867","0.9558555722","0.7037613703","","","","","","","","","","","","","","75","K","2","","","192","main_expt",""
"","bandit","272","603371","0.0-234.0-0.0","32069706","wem/bandit_party_2","AZJEDXAMBQDK0","either","5","633","","","","","","","0","1","0","","0.9443800135","0.4","0.6","0.2","0.8","0.2062706367","0.2816430679","0.9443800135","0.5980286963","","","","","","","","","","","","","","75","K","2","","","193","main_expt",""
"","bandit","273","605020","0.0-235.0-0.0","32069706","wem/bandit_party_2","AZJEDXAMBQDK0","either","5","140","","","","","","","1","0","0","0.947825408","","0.4","0.6","0.2","0.8","","","","","0.2782937815","0.2951519504","0.947825408","0.5607231578","","","","","","","","","","75","K","2","","","194","main_expt",""
"","bandit","274","606694","0.0-236.0-0.0","32069706","wem/bandit_party_2","AZJEDXAMBQDK0","either","5","162","","","","","","","0","1","0","","0.9531013361","0.4","0.6","0.2","0.8","0.2393938873","0.2482291913","0.9531013361","0.6222063369","","","","","","","","","","","","","","75","K","2","","","195","main_expt",""
"","bandit","275","608519","0.0-237.0-0.0","32069706","wem/bandit_party_2","AZJEDXAMBQDK0","either","5","312","","","","","","","0","1","0","","0.9653581558","0.4","0.6","0.2","0.8","0.3385483064","0.2548661126","0.9653581558","0.7092042058","","","","","","","","","","","","","","75","K","2","","","196","main_expt",""
"","bandit","276","610249","0.0-238.0-0.0","32069706","wem/bandit_party_2","AZJEDXAMBQDK0","either","5","217","","","","","","","1","0","0","0.9774234012","","0.4","0.6","0.2","0.8","","","","","0.3474357388","0.2789697966","0.9774234012","0.7397780251","","","","","","","","","","75","K","2","","","197","main_expt",""
"","bandit","277","612008","0.0-239.0-0.0","32069706","wem/bandit_party_2","AZJEDXAMBQDK0","either","5","247","","","","","","","0","1","0","","0.9866112083","0.4","0.6","0.2","0.8","0.4511600961","0.2893473624","0.9866112083","0.6977166648","","","","","","","","","","","","","","75","K","2","","","198","main_expt",""
"","bandit","278","613787","0.0-240.0-0.0","32069706","wem/bandit_party_2","AZJEDXAMBQDK0","either","5","266","","","","","","","0","1","0","","0.9889390623","0.4","0.6","0.2","0.8","0.4387406867","0.2499124536","0.9889390623","0.591703898","","","","","","","","","","","","","","75","K","2","","","199","main_expt",""
"","bandit","279","615541","0.0-241.0-0.0","32069706","wem/bandit_party_2","AZJEDXAMBQDK0","either","5","241","","","","","","","1","0","0","0.9894921125","","0.4","0.6","0.2","0.8","","","","","0.4368135332","0.2643429758","0.9894921125","0.5107967375","","","","","","","","","","75","K","2","","","200","main_expt",""
"","bandit","280","617111","0.0-242.0-0.0","32069706","wem/bandit_party_2","AZJEDXAMBQDK0","either","5","55","","","","","","","0","1","0","","0.989248002","0.4","0.6","0.2","0.8","0.3070084091","0.2382870841","0.989248002","0.6528148869","","","","","","","","","","","","","","75","K","2","","","201","main_expt",""
"","bandit","281","618729","0.0-243.0-0.0","32069706","wem/bandit_party_2","AZJEDXAMBQDK0","either","5","105","","","","","","","0","1","0","","0.9957983392","0.4","0.6","0.2","0.8","0.3603585946","0.1604624283","0.9957983392","0.6892998309","","","","","","","","","","","","","","75","K","2","","","202","main_expt",""
"","bandit","282","620338","0.0-244.0-0.0","32069706","wem/bandit_party_2","AZJEDXAMBQDK0","either","5","95","","","","","","","0","1","0","","0.9958893","0.4","0.6","0.2","0.8","0.260320329","0.1407610566","0.9958893","0.6989476798","","","","","","","","","","","","","","75","K","2","","","203","main_expt",""
"","bandit","283","622052","0.0-245.0-0.0","32069706","wem/bandit_party_2","AZJEDXAMBQDK0","either","5","202","","","","","","","0","1","0","","0.9955962674","0.4","0.6","0.2","0.8","0.2003029851","0.1343245238","0.9955962674","0.772264117","","","","","","","","","","","","","","75","K","2","","","204","main_expt",""
"","bandit","284","623896","0.0-246.0-0.0","32069706","wem/bandit_party_2","AZJEDXAMBQDK0","either","5","330","","","","","","","0","1","0","","0.9943432705","0.4","0.6","0.2","0.8","0.1922312923","0.1715400642","0.9943432705","0.7366863645","","","","","","","","","","","","","","75","K","2","","","205","main_expt",""
"","bandit","285","625555","0.0-247.0-0.0","32069706","wem/bandit_party_2","AZJEDXAMBQDK0","either","5","145","","","","","","","0","1","0","","0.9982320458","0.4","0.6","0.2","0.8","0.1936085521","0.117617648","0.9982320458","0.7477287432","","","","","","","","","","","","","","75","K","2","","","206","main_expt",""
"","bandit","286","627290","0.0-248.0-0.0","32069706","wem/bandit_party_2","AZJEDXAMBQDK0","either","5","220","","","","","","","0","1","0","","0.9976530308","0.4","0.6","0.2","0.8","0.1821705986","0.1182717864","0.9976530308","0.8185776196","","","","","","","","","","","","","","75","K","2","","","207","main_expt",""
"","bandit","287","628879","0.0-249.0-0.0","32069706","wem/bandit_party_2","AZJEDXAMBQDK0","either","5","75","","","","","","","1","0","0","0.9961811318","","0.4","0.6","0.2","0.8","","","","","0.1145050302","0.1445047472","0.9961811318","0.8161769506","","","","","","","","","","75","K","2","","","208","main_expt",""
"","bandit","288","630754","0.0-250.0-0.0","32069706","wem/bandit_party_2","AZJEDXAMBQDK0","either","5","361","","","","","","","0","1","0","","0.9977639941","0.4","0.6","0.2","0.8","0.1206637037","0.1264159314","0.9977639941","0.8224464957","","","","","","","","","","","","","","75","K","2","","","209","main_expt",""
"","bandit","289","633129","0.0-251.0-0.0","32069706","wem/bandit_party_2","AZJEDXAMBQDK0","either","5","861","","","","","","","0","1","0","","0.9953783407","0.4","0.6","0.2","0.8","0.1422927172","0.1208777168","0.9953783407","0.7392866018","","","","","","","","","","","","","","75","K","2","","","210","main_expt",""
"","bandit","290","634738","0.0-252.0-0.0","32069706","wem/bandit_party_2","AZJEDXAMBQDK0","either","5","100","","","","","","","1","0","0","0.9976351195","","0.4","0.6","0.2","0.8","","","","","0.1811219169","0.1733448518","0.9976351195","0.7125411919","","","","","","","","","","75","K","2","","","211","main_expt",""
"","bandit","291","636327","0.0-253.0-0.0","32069706","wem/bandit_party_2","AZJEDXAMBQDK0","either","5","75","","","","","","","0","1","0","","0.9983589292","0.4","0.6","0.2","0.8","0.1982527665","0.1085262221","0.9983589292","0.7191881067","","","","","","","","","","","","","","75","K","2","","","212","main_expt",""
"","bandit","292","638131","0.0-254.0-0.0","32069706","wem/bandit_party_2","AZJEDXAMBQDK0","either","5","290","","","","","","","1","0","0","0.9960427138","","0.4","0.6","0.2","0.8","","","","","0.124448309","0.08145678985","0.9960427138","0.7523845147","","","","","","","","","","75","K","2","","","213","main_expt",""
"","bandit","293","640036","0.0-255.0-0.0","32069706","wem/bandit_party_2","AZJEDXAMBQDK0","either","5","391","","","","","","","0","1","0","","0.9924650588","0.4","0.6","0.2","0.8","0.1036015692","0.05725631888","0.9924650588","0.7193420906","","","","","","","","","","","","","","75","K","2","","","214","main_expt",""
"","bandit","294","641859","0.0-256.0-0.0","32069706","wem/bandit_party_2","AZJEDXAMBQDK0","either","5","310","","","","","","","0","1","0","","0.9858211903","0.4","0.6","0.2","0.8","0.14458031","0.04356988172","0.9858211903","0.6784461291","","","","","","","","","","","","","","75","K","2","","","215","main_expt",""
"","bandit","295","643573","0.0-257.0-0.0","32069706","wem/bandit_party_2","AZJEDXAMBQDK0","either","5","201","","","","","","","1","0","0","0.9915289077","","0.4","0.6","0.2","0.8","","","","","0.2094876981","0.04316154837","0.9915289077","0.5658185063","","","","","","","","","","75","K","2","","","216","main_expt",""
"","bandit","296","645203","0.0-258.0-0.0","32069706","wem/bandit_party_2","AZJEDXAMBQDK0","either","5","117","","","","","","","1","0","0","0.9929544916","","0.4","0.6","0.2","0.8","","","","","0.24936904","0.03453558383","0.9929544916","0.4886301847","","","","","","","","","","75","K","2","","","217","main_expt",""
"","bandit","297","646742","0.0-259.0-0.0","32069706","wem/bandit_party_2","AZJEDXAMBQDK0","either","5","26","","","","","","","0","1","0","","0.9741721496","0.4","0.6","0.2","0.8","0.2006789107","0.03800932399","0.9741721496","0.5674985979","","","","","","","","","","","","","","75","K","2","","","218","main_expt",""
"","bandit","298","648486","0.0-260.0-0.0","32069706","wem/bandit_party_2","AZJEDXAMBQDK0","either","5","231","","","","","","","0","1","0","","0.9413517393","0.4","0.6","0.2","0.8","0.2118480588","0.07914639327","0.9413517393","0.6088772151","","","","","","","","","","","","","","75","K","2","","","219","main_expt",""
"","bandit","299","650042","0.0-261.0-0.0","32069706","wem/bandit_party_2","AZJEDXAMBQDK0","either","5","41","","","","","","","0","1","0","","0.9230346446","0.4","0.6","0.2","0.8","0.2159213458","0.07044987786","0.9230346446","0.5856238885","","","","","","","","","","","","","","75","K","2","","","220","main_expt",""
"","bandit","300","651573","0.0-262.0-0.0","32069706","wem/bandit_party_2","AZJEDXAMBQDK0","either","5","16","","","","","","","0","1","0","","0.9216350241","0.4","0.6","0.2","0.8","0.2097338805","0.1351506501","0.9216350241","0.6601978635","","","","","","","","","","","","","","75","K","2","","","221","main_expt",""
"","bandit","301","653222","0.0-263.0-0.0","32069706","wem/bandit_party_2","AZJEDXAMBQDK0","either","5","135","","","","","","","0","1","0","","0.9093406134","0.4","0.6","0.2","0.8","0.1468233299","0.2099108548","0.9093406134","0.6540659739","","","","","","","","","","","","","","75","K","2","","","222","main_expt",""
"","bandit","302","655127","0.0-264.0-0.0","32069706","wem/bandit_party_2","AZJEDXAMBQDK0","either","5","392","","","","","","","1","0","0","0.8361447498","","0.4","0.6","0.2","0.8","","","","","0.1379540926","0.2971693323","0.8361447498","0.7010542315","","","","","","","","","","75","K","2","","","223","main_expt",""
"","bandit","303","656991","0.0-265.0-0.0","32069706","wem/bandit_party_2","AZJEDXAMBQDK0","either","5","350","","","","","","","0","1","0","","0.8626161161","0.4","0.6","0.2","0.8","0.1943723139","0.2754671199","0.8626161161","0.7972730751","","","","","","","","","","","","","","75","K","2","","","224","main_expt",""
"","bandit","304","658625","0.0-266.0-0.0","32069706","wem/bandit_party_2","AZJEDXAMBQDK0","either","5","120","","","","","","","0","1","0","","0.9176165053","0.4","0.6","0.2","0.8","0.2949344278","0.2483133052","0.9176165053","0.8726314772","","","","","","","","","","","","","","75","K","2","","","225","main_expt",""
"","bandit","305","660449","0.0-267.0-0.0","32069706","wem/bandit_party_2","AZJEDXAMBQDK0","either","5","310","","","","","","","1","0","0","0.9516545376","","0.4","0.6","0.2","0.8","","","","","0.4040967375","0.2945032007","0.9516545376","0.8569150835","","","","","","","","","","75","K","2","","","226","main_expt",""
"","bandit","306","662285","0.0-268.0-0.0","32069706","wem/bandit_party_2","AZJEDXAMBQDK0","either","5","321","","","","","","","0","0","1","","0.9448551655","0.4","0.6","0.2","0.8","0.4369809926","0.2544933329","0.9448551655","0.8773762417","","","","","","","","","","","","","","75","K","2","","","227","main_expt",""
"","bandit","307","664009","0.0-269.0-0.0","32069706","wem/bandit_party_2","AZJEDXAMBQDK0","either","5","210","","","","","","","0","1","0","","0.9298030406","0.4","0.6","0.2","0.8","0.4228749262","0.22227057","0.9298030406","0.8514828757","","","","","","","","","","","","","","75","K","2","","","228","main_expt",""
"","bandit","308","665763","0.0-270.0-0.0","32069706","wem/bandit_party_2","AZJEDXAMBQDK0","either","5","240","","","","","","","0","1","0","","0.9022116856","0.4","0.6","0.2","0.8","0.4953143479","0.2319557967","0.9022116856","0.893786405","","","","","","","","","","","","","","75","K","2","","","229","main_expt",""
"","bandit","309","667637","0.0-271.0-0.0","32069706","wem/bandit_party_2","AZJEDXAMBQDK0","either","5","360","","","","","","","0","1","0","","0.8934587516","0.4","0.6","0.2","0.8","0.4752889979","0.3107577299","0.8934587516","0.9350514117","","","","","","","","","","","","","","75","K","2","","","230","main_expt",""
"","bandit","310","669311","0.0-272.0-0.0","32069706","wem/bandit_party_2","AZJEDXAMBQDK0","either","5","159","","","","","","","0","1","0","","0.8403693225","0.4","0.6","0.2","0.8","0.4887049862","0.3046703461","0.8403693225","0.9139197991","","","","","","","","","","","","","","75","K","2","","","231","main_expt",""
"","bandit","311","670945","0.0-273.0-0.0","32069706","wem/bandit_party_2","AZJEDXAMBQDK0","either","5","120","","","","","","","0","1","0","","0.7373772703","0.4","0.6","0.2","0.8","0.6065944358","0.4259459217","0.7373772703","0.8753904063","","","","","","","","","","","","","","75","K","2","","","232","main_expt",""
"","bandit","312","672558","0.0-274.0-0.0","32069706","wem/bandit_party_2","AZJEDXAMBQDK0","either","5","99","","","","","","","0","1","0","","0.7275490615","0.4","0.6","0.2","0.8","0.5320380184","0.3391655585","0.7275490615","0.807664976","","","","","","","","","","","","","","75","K","2","","","233","main_expt",""
"","bandit","313","674113","0.0-275.0-0.0","32069706","wem/bandit_party_2","AZJEDXAMBQDK0","either","5","40","","","","","","","0","0","1","","0.6910989812","0.4","0.6","0.2","0.8","0.5845689413","0.3380141995","0.6910989812","0.817303243","","","","","","","","","","","","","","75","K","2","","","234","main_expt",""
"","bandit","314","675832","0.0-276.0-0.0","32069706","wem/bandit_party_2","AZJEDXAMBQDK0","either","5","205","","","","","","","1","0","0","0.6506848601","","0.4","0.6","0.2","0.8","","","","","0.4424117598","0.2949514339","0.6506848601","0.8320050337","","","","","","","","","","75","K","2","","","235","main_expt",""
"","bandit","315","677461","0.0-277.0-0.0","32069706","wem/bandit_party_2","AZJEDXAMBQDK0","either","5","114","","","","","","","0","0","1","","0.589166471","0.4","0.6","0.2","0.8","0.4411324282","0.2575094814","0.589166471","0.8539654836","","","","","","","","","","","","","","75","K","2","","","236","main_expt",""
"","bandit","316","679191","0.0-278.0-0.0","32069706","wem/bandit_party_2","AZJEDXAMBQDK0","either","5","214","","","","","","","1","0","0","0.5475273787","","0.4","0.6","0.2","0.8","","","","","0.5792865955","0.3298960346","0.5475273787","0.8151920012","","","","","","","","","","75","K","2","","","237","main_expt",""
