"consent","trial_type","trial_index","time_elapsed","internal_node_id","subjID","study","MID","cond","drift","rt","responses","button_pressed","key_press","like","value","connected","gems","bombs","no_reward","GemPrChosen","BombPrChosen","GainOverPainPr_0","GainOverPainPr_1","GainOverPainPr_2","GainOverPainPr_3","LosePr_0","LosePr_1","LosePr_2","LosePr_3","WinPr_0","WinPr_1","WinPr_2","WinPr_3","Q0","Q1","Q2","gender","age","ethnicity","label","expt_phase","target","respCharCode","respKey","respChoiceNum","respChoice","practice","trial_counter","trial_label","Q0_index","view_history"
"GDM/GDM_behavioral_consent_30min_online.html","consent","0","10134","0.0-0.0","33596081","wem/bandit_party_2","A175X5H642OD4W","either","1","","","","","","","","","","","","","","","","","","","","","","","","","","","","","","","","","","","","","","","","","",""
"","survey-text","1","21698","0.0-1.0","33596081","wem/bandit_party_2","A175X5H642OD4W","either","1","10528","{""Q0"":""A175X5H642OD4W""}","","","","","","","","","","","","","","","","","","","","","","","","","","","","","","","","","","","","","","","",""
"","button-response","2","24675","0.0-2.0","33596081","wem/bandit_party_2","A175X5H642OD4W","either","1","1965","","0","","","","","","","","","","","","","","","","","","","","","","","","","","","","","","","","","","","","","","",""
"","text-replacement","3","37254","0.0-3.0","33596081","wem/bandit_party_2","A175X5H642OD4W","either","1","11571","","","32","","","","","","","","","","","","","","","","","","","","","","","","","","","","","","","","","","","","","",""
"","text-replacement","4","48763","0.0-4.0","33596081","wem/bandit_party_2","A175X5H642OD4W","either","1","11502","","","32","","","","","","","","","","","","","","","","","","","","","","","","","","","","","","","","","","","","","",""
"","identification","5","62494","0.0-6.0-0.0","33596081","wem/bandit_party_2","A175X5H642OD4W","either","1","13689","","","","5","5","5","","","","","","","","","","","","","","","","","","","","","","","","pre","identification_pre","the Republican Party","","","","","","","","",""
"","identification","6","71065","0.0-6.0-1.0","33596081","wem/bandit_party_2","A175X5H642OD4W","either","1","7532","","","","2","1","1","","","","","","","","","","","","","","","","","","","","","","","","pre","identification_pre","the Democratic Party","","","","","","","","",""
"","text-replacement","7","82439","0.0-7.0","33596081","wem/bandit_party_2","A175X5H642OD4W","either","1","10364","","","32","","","","","","","","","","","","","","","","","","","","","","","","","","","","","","","","","","","","","",""
"","text-replacement","8","84313","0.0-8.0","33596081","wem/bandit_party_2","A175X5H642OD4W","either","1","1866","","","32","","","","","","","","","","","","","","","","","","","","","","","","","","","","","","","","","","","","","",""
"","text-replacement","9","96293","0.0-9.0","33596081","wem/bandit_party_2","A175X5H642OD4W","either","1","11972","","","32","","","","","","","","","","","","","","","","","","","","","","","","","","","","","","","","","","","","","",""
"","text-replacement","10","102161","0.0-10.0","33596081","wem/bandit_party_2","A175X5H642OD4W","either","1","5862","","","32","","","","","","","","","","","","","","","","","","","","","","","","","","","","","","","","","","","","","",""
"","text-replacement","11","108070","0.0-11.0","33596081","wem/bandit_party_2","A175X5H642OD4W","either","1","5903","","","32","","","","","","","","","","","","","","","","","","","","","","","","","","","","","","","","","","","","","",""
"","bandit","12","112177","0.0-12.0-0.0","33596081","wem/bandit_party_2","A175X5H642OD4W","either","1","2579","","","","","","","0","0","1","0","0","","","","","0","","","","0","","","","","","","","","","","","","74","J","0","img/none_selected_demo.jpg","true","0","","",""
"","bandit","13","114253","0.0-13.0-0.0","33596081","wem/bandit_party_2","A175X5H642OD4W","either","1","556","","","","","","","0","0","1","0","0","","","","","0","","","","0","","","","","","","","","","","","","75","K","0","img/none_selected_demo.jpg","true","0","","",""
"","text-replacement","14","123569","0.0-14.0","33596081","wem/bandit_party_2","A175X5H642OD4W","either","1","9305","","","32","","","","","","","","","","","","","","","","","","","","","","","","","","","","","","","","","","","","","",""
"","text-replacement","15","132770","0.0-15.0","33596081","wem/bandit_party_2","A175X5H642OD4W","either","1","9195","","","32","","","","","","","","","","","","","","","","","","","","","","","","","","","","","","","","","","","","","",""
"","text-replacement","16","140517","0.0-16.0","33596081","wem/bandit_party_2","A175X5H642OD4W","either","1","7741","","","32","","","","","","","","","","","","","","","","","","","","","","","","","","","","","","","","","","","","","",""
"","text-replacement","17","148151","0.0-17.0","33596081","wem/bandit_party_2","A175X5H642OD4W","either","1","7629","","","32","","","","","","","","","","","","","","","","","","","","","","","","","","","","","","","","","","","","","",""
"","bandit","18","150701","0.0-18.0-0.0","33596081","wem/bandit_party_2","A175X5H642OD4W","either","1","1023","","","","","","","0","0","1","","0.2","0.5","0.5","","","0.8","0.2","","","","","","","","","","","","","","","","75","K","1","","true","0","80_20_practice","",""
"","bandit","19","153728","0.0-18.0-1.0","33596081","wem/bandit_party_2","A175X5H642OD4W","either","1","1495","","","","","","","1","0","0","0.8","","0.5","0.5","","","","","","","0.8","0.2","","","","","","","","","","","","74","J","0","img/none_selected_demo.jpg","true","0","80_20_practice","",""
"","bandit","20","156970","0.0-18.0-2.0","33596081","wem/bandit_party_2","A175X5H642OD4W","either","1","1718","","","","","","","1","0","0","0.8","","0.5","0.5","","","","","","","0.8","0.2","","","","","","","","","","","","74","J","0","img/none_selected_demo.jpg","true","0","80_20_practice","",""
"","bandit","21","160639","0.0-18.0-3.0","33596081","wem/bandit_party_2","A175X5H642OD4W","either","1","2139","","","","","","","1","0","0","0.8","","0.5","0.5","","","","","","","0.8","0.2","","","","","","","","","","","","74","J","0","img/none_selected_demo.jpg","true","0","80_20_practice","",""
"","bandit","22","163095","0.0-18.0-4.0","33596081","wem/bandit_party_2","A175X5H642OD4W","either","1","938","","","","","","","0","0","1","","0.2","0.5","0.5","","","0.8","0.2","","","","","","","","","","","","","","","","75","K","1","","true","0","80_20_practice","",""
"","bandit","23","165145","0.0-18.0-5.0","33596081","wem/bandit_party_2","A175X5H642OD4W","either","1","522","","","","","","","0","1","0","","0.8","0.5","0.5","","","0.8","0.2","","","","","","","","","","","","","","","","74","J","0","img/none_selected_demo.jpg","true","0","80_20_practice","",""
"","bandit","24","167493","0.0-18.0-6.0","33596081","wem/bandit_party_2","A175X5H642OD4W","either","1","825","","","","","","","0","1","0","","0.8","0.5","0.5","","","0.8","0.2","","","","","","","","","","","","","","","","74","J","0","img/none_selected_demo.jpg","true","0","80_20_practice","",""
"","bandit","25","169838","0.0-18.0-7.0","33596081","wem/bandit_party_2","A175X5H642OD4W","either","1","817","","","","","","","1","0","0","0.8","","0.5","0.5","","","","","","","0.8","0.2","","","","","","","","","","","","74","J","0","img/none_selected_demo.jpg","true","0","80_20_practice","",""
"","bandit","26","171876","0.0-18.0-8.0","33596081","wem/bandit_party_2","A175X5H642OD4W","either","1","508","","","","","","","0","1","0","","0.8","0.5","0.5","","","0.8","0.2","","","","","","","","","","","","","","","","74","J","0","img/none_selected_demo.jpg","true","0","80_20_practice","",""
"","bandit","27","174834","0.0-18.0-9.0","33596081","wem/bandit_party_2","A175X5H642OD4W","either","1","1428","","","","","","","1","0","0","0.8","","0.5","0.5","","","","","","","0.8","0.2","","","","","","","","","","","","74","J","0","img/none_selected_demo.jpg","true","0","80_20_practice","",""
"","bandit","28","176974","0.0-18.0-10.0","33596081","wem/bandit_party_2","A175X5H642OD4W","either","1","617","","","","","","","1","0","0","0.8","","0.5","0.5","","","","","","","0.8","0.2","","","","","","","","","","","","74","J","0","img/none_selected_demo.jpg","true","0","80_20_practice","",""
"","bandit","29","179020","0.0-18.0-11.0","33596081","wem/bandit_party_2","A175X5H642OD4W","either","1","519","","","","","","","0","0","1","","0.2","0.5","0.5","","","0.8","0.2","","","","","","","","","","","","","","","","75","K","1","","true","0","80_20_practice","",""
"","bandit","30","181115","0.0-18.0-12.0","33596081","wem/bandit_party_2","A175X5H642OD4W","either","1","572","","","","","","","1","0","0","0.8","","0.5","0.5","","","","","","","0.8","0.2","","","","","","","","","","","","74","J","0","img/none_selected_demo.jpg","true","0","80_20_practice","",""
"","bandit","31","183127","0.0-18.0-13.0","33596081","wem/bandit_party_2","A175X5H642OD4W","either","1","485","","","","","","","1","0","0","0.8","","0.5","0.5","","","","","","","0.8","0.2","","","","","","","","","","","","74","J","0","img/none_selected_demo.jpg","true","0","80_20_practice","",""
"","bandit","32","185322","0.0-18.0-14.0","33596081","wem/bandit_party_2","A175X5H642OD4W","either","1","668","","","","","","","1","0","0","0.8","","0.5","0.5","","","","","","","0.8","0.2","","","","","","","","","","","","74","J","0","img/none_selected_demo.jpg","true","0","80_20_practice","",""
"","bandit","33","188250","0.0-18.0-15.0","33596081","wem/bandit_party_2","A175X5H642OD4W","either","1","1404","","","","","","","0","0","1","0.8","","0.5","0.5","","","","","","","0.8","0.2","","","","","","","","","","","","74","J","0","img/none_selected_demo.jpg","true","0","80_20_practice","",""
"","bandit","34","190184","0.0-18.0-16.0","33596081","wem/bandit_party_2","A175X5H642OD4W","either","1","405","","","","","","","0","0","1","0.2","","0.5","0.5","","","","","","","0.8","0.2","","","","","","","","","","","","75","K","1","","true","0","80_20_practice","",""
"","bandit","35","192091","0.0-18.0-17.0","33596081","wem/bandit_party_2","A175X5H642OD4W","either","1","386","","","","","","","0","1","0","","0.8","0.5","0.5","","","0.8","0.2","","","","","","","","","","","","","","","","74","J","0","img/none_selected_demo.jpg","true","0","80_20_practice","",""
"","bandit","36","194066","0.0-18.0-18.0","33596081","wem/bandit_party_2","A175X5H642OD4W","either","1","448","","","","","","","1","0","0","0.8","","0.5","0.5","","","","","","","0.8","0.2","","","","","","","","","","","","74","J","0","img/none_selected_demo.jpg","true","0","80_20_practice","",""
"","bandit","37","197108","0.0-18.0-19.0","33596081","wem/bandit_party_2","A175X5H642OD4W","either","1","1505","","","","","","","1","0","0","0.8","","0.5","0.5","","","","","","","0.8","0.2","","","","","","","","","","","","74","J","0","img/none_selected_demo.jpg","true","0","80_20_practice","",""
"","text-replacement","38","201562","0.0-19.0","33596081","wem/bandit_party_2","A175X5H642OD4W","either","1","4446","","","32","","","","","","","","","","","","","","","","","","","","","","","","","","","","","","","","","","","","","",""
"","bandit","39","203653","0.0-20.0-0.0","33596081","wem/bandit_party_2","A175X5H642OD4W","either","1","569","","","","","","","1","0","0","1","0","","","","","0","1","","","1","0","","","","","","","","","","","","74","J","0","img/none_selected_demo.jpg","true","0","","",""
"","text-replacement","40","209870","0.0-21.0","33596081","wem/bandit_party_2","A175X5H642OD4W","either","1","6203","","","32","","","","","","","","","","","","","","","","","","","","","","","","","","","","","","","","","","","","","",""
"","text-replacement","41","212747","0.0-22.0","33596081","wem/bandit_party_2","A175X5H642OD4W","either","1","2870","","","32","","","","","","","","","","","","","","","","","","","","","","","","","","","","","","","","","","","","","",""
"","text-replacement","42","216588","0.0-23.0","33596081","wem/bandit_party_2","A175X5H642OD4W","either","1","3834","","","32","","","","","","","","","","","","","","","","","","","","","","","","","","","","","","","","","","","","","",""
"","text-replacement","43","220158","0.0-24.0","33596081","wem/bandit_party_2","A175X5H642OD4W","either","1","3562","","","32","","","","","","","","","","","","","","","","","","","","","","","","","","","","","","","","","","","","","",""
"","text-replacement","44","230439","0.0-25.0","33596081","wem/bandit_party_2","A175X5H642OD4W","either","1","10273","","","32","","","","","","","","","","","","","","","","","","","","","","","","","","","","","","","","","","","","","",""
"","text-replacement","45","235734","0.0-26.0","33596081","wem/bandit_party_2","A175X5H642OD4W","either","1","5287","","","32","","","","","","","","","","","","","","","","","","","","","","","","","","","","","","","","","","","","","",""
"","text-replacement","46","242619","0.0-27.0","33596081","wem/bandit_party_2","A175X5H642OD4W","either","1","6877","","","32","","","","","","","","","","","","","","","","","","","","","","","","","","","","","","","","","","","","","",""
"","text-replacement","47","246514","0.0-28.0","33596081","wem/bandit_party_2","A175X5H642OD4W","either","1","3886","","","32","","","","","","","","","","","","","","","","","","","","","","","","","","","","","","","","","","","","","",""
"","text-replacement","48","254403","0.0-29.0","33596081","wem/bandit_party_2","A175X5H642OD4W","either","1","7882","","","32","","","","","","","","","","","","","","","","","","","","","","","","","","","","","","","","","","","","","",""
"","text-replacement","49","256738","0.0-30.0","33596081","wem/bandit_party_2","A175X5H642OD4W","either","1","2327","","","32","","","","","","","","","","","","","","","","","","","","","","","","","","","","","","","","","","","","","",""
"","text-replacement","50","260451","0.0-31.0","33596081","wem/bandit_party_2","A175X5H642OD4W","either","1","3705","","","32","","","","","","","","","","","","","","","","","","","","","","","","","","","","","","","","","","","","","",""
"","bandit","51","262738","0.0-32.0-0.0","33596081","wem/bandit_party_2","A175X5H642OD4W","either","1","766","","","","","","","0","0","1","0.8","","0.5","0.5","0.5","0.5","","","","","0.8","0.2","0.6","0.2","","","","","","","","","","72","H","0","img/none_selected.jpg","true","0","full_practice","",""
"","bandit","52","264627","0.0-32.0-1.0","33596081","wem/bandit_party_2","A175X5H642OD4W","either","1","358","","","","","","","1","0","0","0.6","","0.5","0.5","0.5","0.5","","","","","0.8","0.2","0.6","0.2","","","","","","","","","","75","K","2","","true","0","full_practice","",""
"","bandit","53","266481","0.0-32.0-2.0","33596081","wem/bandit_party_2","A175X5H642OD4W","either","1","321","","","","","","","0","1","0","","0.6","0.5","0.5","0.5","0.5","0.8","0.2","0.6","0.2","","","","","","","","","","","","","","75","K","2","","true","0","full_practice","",""
"","bandit","54","268346","0.0-32.0-3.0","33596081","wem/bandit_party_2","A175X5H642OD4W","either","1","336","","","","","","","0","1","0","","0.6","0.5","0.5","0.5","0.5","0.8","0.2","0.6","0.2","","","","","","","","","","","","","","75","K","2","","true","0","full_practice","",""
"","bandit","55","270248","0.0-32.0-4.0","33596081","wem/bandit_party_2","A175X5H642OD4W","either","1","372","","","","","","","0","0","1","","0.6","0.5","0.5","0.5","0.5","0.8","0.2","0.6","0.2","","","","","","","","","","","","","","75","K","2","","true","0","full_practice","",""
"","bandit","56","272113","0.0-32.0-5.0","33596081","wem/bandit_party_2","A175X5H642OD4W","either","1","338","","","","","","","0","0","1","","0.6","0.5","0.5","0.5","0.5","0.8","0.2","0.6","0.2","","","","","","","","","","","","","","75","K","2","","true","0","full_practice","",""
"","bandit","57","273974","0.0-32.0-6.0","33596081","wem/bandit_party_2","A175X5H642OD4W","either","1","337","","","","","","","0","0","1","","0.2","0.5","0.5","0.5","0.5","0.8","0.2","0.6","0.2","","","","","","","","","","","","","","74","J","1","","true","0","full_practice","",""
"","bandit","58","275817","0.0-32.0-7.0","33596081","wem/bandit_party_2","A175X5H642OD4W","either","1","317","","","","","","","0","0","1","","0.2","0.5","0.5","0.5","0.5","0.8","0.2","0.6","0.2","","","","","","","","","","","","","","76","L","3","","true","0","full_practice","",""
"","bandit","59","277672","0.0-32.0-8.0","33596081","wem/bandit_party_2","A175X5H642OD4W","either","1","324","","","","","","","0","0","1","0.8","","0.5","0.5","0.5","0.5","","","","","0.8","0.2","0.6","0.2","","","","","","","","","","72","H","0","img/none_selected.jpg","true","0","full_practice","",""
"","bandit","60","279567","0.0-32.0-9.0","33596081","wem/bandit_party_2","A175X5H642OD4W","either","1","362","","","","","","","0","1","0","","0.6","0.5","0.5","0.5","0.5","0.8","0.2","0.6","0.2","","","","","","","","","","","","","","75","K","2","","true","0","full_practice","",""
"","bandit","61","281436","0.0-32.0-10.0","33596081","wem/bandit_party_2","A175X5H642OD4W","either","1","339","","","","","","","0","0","1","","0.6","0.5","0.5","0.5","0.5","0.8","0.2","0.6","0.2","","","","","","","","","","","","","","75","K","2","","true","0","full_practice","",""
"","bandit","62","283343","0.0-32.0-11.0","33596081","wem/bandit_party_2","A175X5H642OD4W","either","1","374","","","","","","","0","0","1","","0.6","0.5","0.5","0.5","0.5","0.8","0.2","0.6","0.2","","","","","","","","","","","","","","75","K","2","","true","0","full_practice","",""
"","bandit","63","285256","0.0-32.0-12.0","33596081","wem/bandit_party_2","A175X5H642OD4W","either","1","375","","","","","","","0","0","1","","0.2","0.5","0.5","0.5","0.5","0.8","0.2","0.6","0.2","","","","","","","","","","","","","","74","J","1","","true","0","full_practice","",""
"","bandit","64","287047","0.0-32.0-13.0","33596081","wem/bandit_party_2","A175X5H642OD4W","either","1","269","","","","","","","0","0","1","0.2","","0.5","0.5","0.5","0.5","","","","","0.8","0.2","0.6","0.2","","","","","","","","","","74","J","1","","true","0","full_practice","",""
"","bandit","65","288638","0.0-32.0-14.0","33596081","wem/bandit_party_2","A175X5H642OD4W","either","1","66","","","","","","","0","1","0","","0.2","0.5","0.5","0.5","0.5","0.8","0.2","0.6","0.2","","","","","","","","","","","","","","76","L","3","","true","0","full_practice","",""
"","bandit","66","290472","0.0-32.0-15.0","33596081","wem/bandit_party_2","A175X5H642OD4W","either","1","307","","","","","","","0","0","1","0.2","","0.5","0.5","0.5","0.5","","","","","0.8","0.2","0.6","0.2","","","","","","","","","","76","L","3","","true","0","full_practice","",""
"","bandit","67","292277","0.0-32.0-16.0","33596081","wem/bandit_party_2","A175X5H642OD4W","either","1","284","","","","","","","0","0","1","0.2","","0.5","0.5","0.5","0.5","","","","","0.8","0.2","0.6","0.2","","","","","","","","","","76","L","3","","true","0","full_practice","",""
"","bandit","68","294102","0.0-32.0-17.0","33596081","wem/bandit_party_2","A175X5H642OD4W","either","1","296","","","","","","","1","0","0","0.6","","0.5","0.5","0.5","0.5","","","","","0.8","0.2","0.6","0.2","","","","","","","","","","75","K","2","","true","0","full_practice","",""
"","bandit","69","295996","0.0-32.0-18.0","33596081","wem/bandit_party_2","A175X5H642OD4W","either","1","365","","","","","","","0","1","0","","0.6","0.5","0.5","0.5","0.5","0.8","0.2","0.6","0.2","","","","","","","","","","","","","","75","K","2","","true","0","full_practice","",""
"","bandit","70","297817","0.0-32.0-19.0","33596081","wem/bandit_party_2","A175X5H642OD4W","either","1","296","","","","","","","1","0","0","0.6","","0.5","0.5","0.5","0.5","","","","","0.8","0.2","0.6","0.2","","","","","","","","","","75","K","2","","true","0","full_practice","",""
"","text","71","302372","0.0-33.0","33596081","wem/bandit_party_2","A175X5H642OD4W","either","1","4518","","","32","","","","","","","","","","","","","","","","","","","","","","","","","","","","","","","","","","","","","",""
"","text-replacement","72","318679","0.0-34.0","33596081","wem/bandit_party_2","A175X5H642OD4W","either","1","15294","","","32","","","","","","","","","","","","","","","","","","","","","","","","","","","","","","","","","","","","","",""
"","text-replacement","73","325349","0.0-35.0","33596081","wem/bandit_party_2","A175X5H642OD4W","either","1","6658","","","32","","","","","","","","","","","","","","","","","","","","","","","","","","","","","","","","","","","","","",""
"","text-replacement","74","329697","0.0-36.0","33596081","wem/bandit_party_2","A175X5H642OD4W","either","1","4339","","","32","","","","","","","","","","","","","","","","","","","","","","","","","","","","","","","","","","","","","",""
"","text-replacement","75","333597","0.0-37.0","33596081","wem/bandit_party_2","A175X5H642OD4W","either","1","3893","","","32","","","","","","","","","","","","","","","","","","","","","","","","","","","","","","","","","","","","","",""
"","text-replacement","76","342162","0.0-38.0","33596081","wem/bandit_party_2","A175X5H642OD4W","either","1","8554","","","32","","","","","","","","","","","","","","","","","","","","","","","","","","","","","","","","","","","","","",""
"","survey-multi-choice-replacement","77","351986","0.0-39.0-0.0","33596081","wem/bandit_party_2","A175X5H642OD4W","either","1","9799","","","","","","","","","","","","","","","","","","","","","","","","Equal amounts of money will be added to the pool for <span style='color:red;'>REPUBLICANS</span> and subtracted from the pool for <span style='color:blue;'>DEMOCRATS</span>","","","","","","","attn_check","","","","","","","","","2",""
"","instructions","78","355002","0.0-39.0-1.0-0.0","33596081","wem/bandit_party_2","A175X5H642OD4W","either","1","2008","","","","","","","","","","","","","","","","","","","","","","","","","","","","","","","","","","","","","","","","","[{""page_index"":0,""viewing_time"":2007}]"
"","survey-multi-choice-replacement","79","358827","0.0-39.1-0.1","33596081","wem/bandit_party_2","A175X5H642OD4W","either","1","2798","","","","","","","","","","","","","","","","","","","","","","","","Money will be added to the pool for <span style='color:red;'>REPUBLICANS</span>","","","","","","","attn_check","","","","","","","","","0",""
"","survey-multi-choice-replacement","80","368441","0.0-40.0-0.0","33596081","wem/bandit_party_2","A175X5H642OD4W","either","1","8582","","","","","","","","","","","","","","","","","","","","","","","","Equal amounts of money will be added to the pool for <span style='color:red;'>REPUBLICANS</span> and subtracted from the pool for <span style='color:blue;'>DEMOCRATS</span>","","","","","","","attn_check","","","","","","","","","2",""
"","survey-multi-choice-replacement","81","375394","0.0-41.0-0.0","33596081","wem/bandit_party_2","A175X5H642OD4W","either","1","5930","","","","","","","","","","","","","","","","","","","","","","","","No money will be added to either pool","","","","","","","attn_check","","","","","","","","","3",""
"","bandit","82","380489","0.0-42.0-0.0","33596081","wem/bandit_party_2","A175X5H642OD4W","either","1","2566","","","","","","","0","1","0","","0.8101107889","0.4","0.8","0.2","0.6","0.8101107889","0.7674833066","0.5202783506","0.4995060561","","","","","","","","","","","","","","72","H","0","img/none_selected.jpg","","1","main_expt","",""
"","bandit","83","382713","0.0-43.0-0.0","33596081","wem/bandit_party_2","A175X5H642OD4W","either","1","698","","","","","","","0","1","0","","0.8827976921","0.4","0.8","0.2","0.6","0.8827976921","0.7786696111","0.4559554218","0.4452888422","","","","","","","","","","","","","","72","H","0","img/none_selected.jpg","","2","main_expt","",""
"","bandit","84","384757","0.0-44.0-0.0","33596081","wem/bandit_party_2","A175X5H642OD4W","either","1","511","","","","","","","0","1","0","","0.918633781","0.4","0.8","0.2","0.6","0.918633781","0.7883912796","0.3791335739","0.4956599627","","","","","","","","","","","","","","72","H","0","img/none_selected.jpg","","3","main_expt","",""
"","bandit","85","386708","0.0-45.0-0.0","33596081","wem/bandit_party_2","A175X5H642OD4W","either","1","425","","","","","","","1","0","0","0.8961075186","","0.4","0.8","0.2","0.6","","","","","0.8961075186","0.8311681014","0.362446662","0.3939226057","","","","","","","","","","72","H","0","img/none_selected.jpg","","4","main_expt","",""
"","bandit","86","388600","0.0-46.0-0.0","33596081","wem/bandit_party_2","A175X5H642OD4W","either","1","360","","","","","","","0","1","0","","0.9065038385","0.4","0.8","0.2","0.6","0.9065038385","0.706748425","0.4337427147","0.4737796053","","","","","","","","","","","","","","72","H","0","img/none_selected.jpg","","5","main_expt","",""
"","bandit","87","390473","0.0-47.0-0.0","33596081","wem/bandit_party_2","A175X5H642OD4W","either","1","345","","","","","","","1","0","0","0.9628954729","","0.4","0.8","0.2","0.6","","","","","0.9628954729","0.7246132019","0.4260566605","0.5798080576","","","","","","","","","","72","H","0","img/none_selected.jpg","","6","main_expt","",""
"","bandit","88","392368","0.0-48.0-0.0","33596081","wem/bandit_party_2","A175X5H642OD4W","either","1","361","","","","","","","1","0","0","0.9244273404","","0.4","0.8","0.2","0.6","","","","","0.9244273404","0.822103072","0.5595739282","0.6184433593","","","","","","","","","","72","H","0","img/none_selected.jpg","","7","main_expt","",""
"","bandit","89","394206","0.0-49.0-0.0","33596081","wem/bandit_party_2","A175X5H642OD4W","either","1","310","","","","","","","1","0","0","0.9214665689","","0.4","0.8","0.2","0.6","","","","","0.9214665689","0.8176183596","0.5757792393","0.5380809204","","","","","","","","","","72","H","0","img/none_selected.jpg","","8","main_expt","",""
"","bandit","90","396070","0.0-50.0-0.0","33596081","wem/bandit_party_2","A175X5H642OD4W","either","1","328","","","","","","","0","1","0","","0.9604963414","0.4","0.8","0.2","0.6","0.9604963414","0.7421782695","0.5508288143","0.4884558296","","","","","","","","","","","","","","72","H","0","img/none_selected.jpg","","9","main_expt","",""
"","bandit","91","397916","0.0-51.0-0.0","33596081","wem/bandit_party_2","A175X5H642OD4W","either","1","317","","","","","","","1","0","0","0.973544224","","0.4","0.8","0.2","0.6","","","","","0.973544224","0.7112185725","0.4615344473","0.6062827564","","","","","","","","","","72","H","0","img/none_selected.jpg","","10","main_expt","",""
"","bandit","92","399766","0.0-52.0-0.0","33596081","wem/bandit_party_2","A175X5H642OD4W","either","1","308","","","","","","","0","1","0","","0.9756729976","0.4","0.8","0.2","0.6","0.9756729976","0.6656122322","0.4731032433","0.6618996933","","","","","","","","","","","","","","72","H","0","img/none_selected.jpg","","11","main_expt","",""
"","bandit","93","401695","0.0-53.0-0.0","33596081","wem/bandit_party_2","A175X5H642OD4W","either","1","394","","","","","","","1","0","0","0.9824084628","","0.4","0.8","0.2","0.6","","","","","0.9824084628","0.632951522","0.5028989732","0.6589688621","","","","","","","","","","72","H","0","img/none_selected.jpg","","12","main_expt","",""
"","bandit","94","403527","0.0-54.0-0.0","33596081","wem/bandit_party_2","A175X5H642OD4W","either","1","309","","","","","","","0","1","0","","0.9852841122","0.4","0.8","0.2","0.6","0.9852841122","0.6428643634","0.5252386458","0.7483501345","","","","","","","","","","","","","","72","H","0","img/none_selected.jpg","","13","main_expt","",""
"","bandit","95","405564","0.0-55.0-0.0","33596081","wem/bandit_party_2","A175X5H642OD4W","either","1","510","","","","","","","0","1","0","","0.9844185579","0.4","0.8","0.2","0.6","0.9844185579","0.5693663763","0.4883642101","0.7642220585","","","","","","","","","","","","","","72","H","0","img/none_selected.jpg","","14","main_expt","",""
"","bandit","96","407408","0.0-56.0-0.0","33596081","wem/bandit_party_2","A175X5H642OD4W","either","1","318","","","","","","","1","0","0","0.9716790186","","0.4","0.8","0.2","0.6","","","","","0.9716790186","0.6354763258","0.5125695872","0.8255663415","","","","","","","","","","72","H","0","img/none_selected.jpg","","15","main_expt","",""
"","bandit","97","409312","0.0-57.0-0.0","33596081","wem/bandit_party_2","A175X5H642OD4W","either","1","372","","","","","","","1","0","0","0.9724226268","","0.4","0.8","0.2","0.6","","","","","0.9724226268","0.6074668868","0.483313844","0.8262734196","","","","","","","","","","72","H","0","img/none_selected.jpg","","16","main_expt","",""
"","bandit","98","411172","0.0-58.0-0.0","33596081","wem/bandit_party_2","A175X5H642OD4W","either","1","326","","","","","","","0","1","0","","0.969397438","0.4","0.8","0.2","0.6","0.969397438","0.634379517","0.4764119597","0.8957105494","","","","","","","","","","","","","","72","H","0","img/none_selected.jpg","","17","main_expt","",""
"","bandit","99","413037","0.0-59.0-0.0","33596081","wem/bandit_party_2","A175X5H642OD4W","either","1","331","","","","","","","0","1","0","","0.9487821198","0.4","0.8","0.2","0.6","0.9487821198","0.7399013172","0.4742144938","0.8243017832","","","","","","","","","","","","","","72","H","0","img/none_selected.jpg","","18","main_expt","",""
"","bandit","100","415074","0.0-60.0-0.0","33596081","wem/bandit_party_2","A175X5H642OD4W","either","1","506","","","","","","","1","0","0","0.8822386923","","0.4","0.8","0.2","0.6","","","","","0.8822386923","0.6892422428","0.5445729057","0.8174393347","","","","","","","","","","72","H","0","img/none_selected.jpg","","19","main_expt","",""
"","bandit","101","417026","0.0-61.0-0.0","33596081","wem/bandit_party_2","A175X5H642OD4W","either","1","427","","","","","","","0","1","0","","0.8658452863","0.4","0.8","0.2","0.6","0.8658452863","0.5544472153","0.5114357523","0.8457625901","","","","","","","","","","","","","","72","H","0","img/none_selected.jpg","","20","main_expt","",""
"","bandit","102","418986","0.0-62.0-0.0","33596081","wem/bandit_party_2","A175X5H642OD4W","either","1","431","","","","","","","1","0","0","0.8597265301","","0.4","0.8","0.2","0.6","","","","","0.8597265301","0.4705077418","0.4948626968","0.8565453533","","","","","","","","","","72","H","0","img/none_selected.jpg","","21","main_expt","",""
"","bandit","103","420882","0.0-63.0-0.0","33596081","wem/bandit_party_2","A175X5H642OD4W","either","1","364","","","","","","","0","1","0","","0.929530396","0.4","0.8","0.2","0.6","0.929530396","0.5364913494","0.3750889156","0.8821281293","","","","","","","","","","","","","","72","H","0","img/none_selected.jpg","","22","main_expt","",""
"","bandit","104","422735","0.0-64.0-0.0","33596081","wem/bandit_party_2","A175X5H642OD4W","either","1","323","","","","","","","1","0","0","0.9149061772","","0.4","0.8","0.2","0.6","","","","","0.9149061772","0.5450887529","0.3874093852","0.8253896901","","","","","","","","","","72","H","0","img/none_selected.jpg","","23","main_expt","",""
"","bandit","105","424623","0.0-65.0-0.0","33596081","wem/bandit_party_2","A175X5H642OD4W","either","1","356","","","","","","","0","1","0","","0.9389899916","0.4","0.8","0.2","0.6","0.9389899916","0.6013055931","0.4126546177","0.8682133559","","","","","","","","","","","","","","72","H","0","img/none_selected.jpg","","24","main_expt","",""
"","bandit","106","426483","0.0-66.0-0.0","33596081","wem/bandit_party_2","A175X5H642OD4W","either","1","328","","","","","","","0","1","0","","0.9583062328","0.4","0.8","0.2","0.6","0.9583062328","0.7116226269","0.3871809826","0.8186134727","","","","","","","","","","","","","","72","H","0","img/none_selected.jpg","","25","main_expt","",""
"","bandit","107","428317","0.0-67.0-0.0","33596081","wem/bandit_party_2","A175X5H642OD4W","either","1","310","","","","","","","1","0","0","0.9349434311","","0.4","0.8","0.2","0.6","","","","","0.9349434311","0.7284905038","0.4162773602","0.841170918","","","","","","","","","","72","H","0","img/none_selected.jpg","","26","main_expt","",""
"","bandit","108","431395","0.0-68.0-0.0","33596081","wem/bandit_party_2","A175X5H642OD4W","either","1","1542","","","","","","","0","1","0","","0.9147743466","0.4","0.8","0.2","0.6","0.9147743466","0.7007901837","0.4153433109","0.8332298301","","","","","","","","","","","","","","72","H","0","img/none_selected.jpg","","27","main_expt","",""
"","bandit","109","433225","0.0-69.0-0.0","33596081","wem/bandit_party_2","A175X5H642OD4W","either","1","300","","","","","","","0","0","1","","0.8913744663","0.4","0.8","0.2","0.6","0.8913744663","0.7197690037","0.3083156359","0.8340804883","","","","","","","","","","","","","","72","H","0","img/none_selected.jpg","","28","main_expt","",""
"","bandit","110","435061","0.0-70.0-0.0","33596081","wem/bandit_party_2","A175X5H642OD4W","either","1","308","","","","","","","0","1","0","","0.9004815278","0.4","0.8","0.2","0.6","0.9004815278","0.7569205749","0.4048150761","0.8800986549","","","","","","","","","","","","","","72","H","0","img/none_selected.jpg","","29","main_expt","",""
"","bandit","111","437198","0.0-71.0-0.0","33596081","wem/bandit_party_2","A175X5H642OD4W","either","1","606","","","","","","","1","0","0","0.8335499875","","0.4","0.8","0.2","0.6","","","","","0.8335499875","0.7007062976","0.5604470694","0.800988266","","","","","","","","","","72","H","0","img/none_selected.jpg","","30","main_expt","",""
"","bandit","112","439018","0.0-72.0-0.0","33596081","wem/bandit_party_2","A175X5H642OD4W","either","1","287","","","","","","","1","0","0","0.7904098286","","0.4","0.8","0.2","0.6","","","","","0.7904098286","0.6218809145","0.5114456598","0.8092707987","","","","","","","","","","72","H","0","img/none_selected.jpg","","31","main_expt","",""
"","bandit","113","440872","0.0-73.0-0.0","33596081","wem/bandit_party_2","A175X5H642OD4W","either","1","323","","","","","","","0","1","0","","0.8156470634","0.4","0.8","0.2","0.6","0.8156470634","0.5448888872","0.5195843055","0.7600689364","","","","","","","","","","","","","","72","H","0","img/none_selected.jpg","","32","main_expt","",""
"","bandit","114","442696","0.0-74.0-0.0","33596081","wem/bandit_party_2","A175X5H642OD4W","either","1","291","","","","","","","0","0","1","","0.7458483223","0.4","0.8","0.2","0.6","0.7458483223","0.4396040002","0.4278216128","0.7268405739","","","","","","","","","","","","","","72","H","0","img/none_selected.jpg","","33","main_expt","",""
"","bandit","115","444512","0.0-75.0-0.0","33596081","wem/bandit_party_2","A175X5H642OD4W","either","1","284","","","","","","","0","0","1","","0.8745519215","0.4","0.8","0.2","0.6","0.8745519215","0.3418027302","0.4581725564","0.7867385379","","","","","","","","","","","","","","72","H","0","img/none_selected.jpg","","34","main_expt","",""
"","bandit","116","446369","0.0-76.0-0.0","33596081","wem/bandit_party_2","A175X5H642OD4W","either","1","322","","","","","","","0","1","0","","0.8761773117","0.4","0.8","0.2","0.6","0.8761773117","0.3770378826","0.5170179058","0.7776722478","","","","","","","","","","","","","","72","H","0","img/none_selected.jpg","","35","main_expt","",""
"","bandit","117","448249","0.0-77.0-0.0","33596081","wem/bandit_party_2","A175X5H642OD4W","either","1","348","","","","","","","1","0","0","0.8898579413","","0.4","0.8","0.2","0.6","","","","","0.8898579413","0.3264650107","0.5761285305","0.8110731924","","","","","","","","","","72","H","0","img/none_selected.jpg","","36","main_expt","",""
"","bandit","118","450098","0.0-78.0-0.0","33596081","wem/bandit_party_2","A175X5H642OD4W","either","1","312","","","","","","","0","1","0","","0.9189960073","0.4","0.8","0.2","0.6","0.9189960073","0.1696248696","0.5824592389","0.8371501114","","","","","","","","","","","","","","72","H","0","img/none_selected.jpg","","37","main_expt","",""
"","bandit","119","452059","0.0-79.0-0.0","33596081","wem/bandit_party_2","A175X5H642OD4W","either","1","428","","","","","","","0","1","0","","0.9429067042","0.4","0.8","0.2","0.6","0.9429067042","0.3008725236","0.5039158184","0.801984358","","","","","","","","","","","","","","72","H","0","img/none_selected.jpg","","38","main_expt","",""
"","bandit","120","453908","0.0-80.0-0.0","33596081","wem/bandit_party_2","A175X5H642OD4W","either","1","314","","","","","","","0","1","0","","0.8860185862","0.4","0.8","0.2","0.6","0.8860185862","0.3612597963","0.4906961915","0.836760671","","","","","","","","","","","","","","72","H","0","img/none_selected.jpg","","39","main_expt","",""
"","bandit","121","455861","0.0-81.0-0.0","33596081","wem/bandit_party_2","A175X5H642OD4W","either","1","419","","","","","","","0","1","0","","0.8958725565","0.4","0.8","0.2","0.6","0.8958725565","0.3316001813","0.5118773476","0.7930168878","","","","","","","","","","","","","","72","H","0","img/none_selected.jpg","","40","main_expt","",""
"","bandit","122","457747","0.0-82.0-0.0","33596081","wem/bandit_party_2","A175X5H642OD4W","either","1","368","","","","","","","0","1","0","","0.8369757826","0.4","0.8","0.2","0.6","0.8369757826","0.251761063","0.5207000815","0.6758505439","","","","","","","","","","","","","","72","H","0","img/none_selected.jpg","","41","main_expt","",""
"","bandit","123","459651","0.0-83.0-0.0","33596081","wem/bandit_party_2","A175X5H642OD4W","either","1","378","","","","","","","0","1","0","","0.8724413244","0.4","0.8","0.2","0.6","0.8724413244","0.3764367217","0.6208632684","0.669091732","","","","","","","","","","","","","","72","H","0","img/none_selected.jpg","","42","main_expt","",""
"","bandit","124","461521","0.0-84.0-0.0","33596081","wem/bandit_party_2","A175X5H642OD4W","either","1","334","","","","","","","1","0","0","0.8721156492","","0.4","0.8","0.2","0.6","","","","","0.8721156492","0.4280411123","0.6736877605","0.5774386383","","","","","","","","","","72","H","0","img/none_selected.jpg","","43","main_expt","",""
"","bandit","125","463364","0.0-85.0-0.0","33596081","wem/bandit_party_2","A175X5H642OD4W","either","1","310","","","","","","","1","0","0","0.874486911","","0.4","0.8","0.2","0.6","","","","","0.874486911","0.4250007774","0.6770598463","0.5402750746","","","","","","","","","","72","H","0","img/none_selected.jpg","","44","main_expt","",""
"","bandit","126","465210","0.0-86.0-0.0","33596081","wem/bandit_party_2","A175X5H642OD4W","either","1","315","","","","","","","0","1","0","","0.7653026016","0.4","0.8","0.2","0.6","0.7653026016","0.3964774122","0.6811336834","0.4769525635","","","","","","","","","","","","","","72","H","0","img/none_selected.jpg","","45","main_expt","",""
"","bandit","127","467050","0.0-87.0-0.0","33596081","wem/bandit_party_2","A175X5H642OD4W","either","1","306","","","","","","","0","0","1","","0.6884850605","0.4","0.8","0.2","0.6","0.6884850605","0.3755541509","0.7409040253","0.460739512","","","","","","","","","","","","","","72","H","0","img/none_selected.jpg","","46","main_expt","",""
"","bandit","128","468730","0.0-88.0-0.0","33596081","wem/bandit_party_2","A175X5H642OD4W","either","1","148","","","","","","","0","0","1","0.6869729855","","0.4","0.8","0.2","0.6","","","","","0.6869729855","0.3698766084","0.8602274841","0.3953603582","","","","","","","","","","72","H","0","img/none_selected.jpg","","47","main_expt","",""
"","bandit","129","470576","0.0-89.0-0.0","33596081","wem/bandit_party_2","A175X5H642OD4W","either","1","312","","","","","","","1","0","0","0.624749708","","0.4","0.8","0.2","0.6","","","","","0.624749708","0.2924141828","0.8947369126","0.5194217752","","","","","","","","","","72","H","0","img/none_selected.jpg","","48","main_expt","",""
"","bandit","130","472424","0.0-90.0-0.0","33596081","wem/bandit_party_2","A175X5H642OD4W","either","1","308","","","","","","","0","0","1","0.6269608649","","0.4","0.8","0.2","0.6","","","","","0.6269608649","0.2506794134","0.9071052574","0.5015721984","","","","","","","","","","72","H","0","img/none_selected.jpg","","49","main_expt","",""
"","bandit","131","474320","0.0-91.0-0.0","33596081","wem/bandit_party_2","A175X5H642OD4W","either","1","367","","","","","","","0","1","0","","0.5394470416","0.4","0.8","0.2","0.6","0.5394470416","0.2200095001","0.8569531155","0.4427204185","","","","","","","","","","","","","","72","H","0","img/none_selected.jpg","","50","main_expt","",""
"","bandit","132","476337","0.0-92.0-0.0","33596081","wem/bandit_party_2","A175X5H642OD4W","either","1","483","","","","","","","1","0","0","0.4991806479","","0.4","0.8","0.2","0.6","","","","","0.4991806479","0.2703780474","0.8728609703","0.5194544998","","","","","","","","","","72","H","0","img/none_selected.jpg","","51","main_expt","",""
"","bandit","133","478178","0.0-93.0-0.0","33596081","wem/bandit_party_2","A175X5H642OD4W","either","1","312","","","","","","","0","0","1","","0.5431464126","0.4","0.8","0.2","0.6","0.5431464126","0.3215640211","0.902184381","0.4420680866","","","","","","","","","","","","","","72","H","0","img/none_selected.jpg","","52","main_expt","",""
"","bandit","134","480015","0.0-94.0-0.0","33596081","wem/bandit_party_2","A175X5H642OD4W","either","1","299","","","","","","","1","0","0","0.4799783957","","0.4","0.8","0.2","0.6","","","","","0.4799783957","0.2918797996","0.8975054296","0.5541791803","","","","","","","","","","72","H","0","img/none_selected.jpg","","53","main_expt","",""
"","bandit","135","481899","0.0-95.0-0.0","33596081","wem/bandit_party_2","A175X5H642OD4W","either","1","351","","","","","","","0","0","1","","0.3946877269","0.4","0.8","0.2","0.6","0.3946877269","0.2432815539","0.9436546011","0.6187664305","","","","","","","","","","","","","","72","H","0","img/none_selected.jpg","","54","main_expt","",""
"","bandit","136","483448","0.0-96.0-0.0","33596081","wem/bandit_party_2","A175X5H642OD4W","either","1","17","","","","","","","1","0","0","0.3892466866","","0.4","0.8","0.2","0.6","","","","","0.3892466866","0.1993500609","0.9411334538","0.538030076","","","","","","","","","","72","H","0","img/none_selected.jpg","","55","main_expt","",""
"","bandit","137","485285","0.0-97.0-0.0","33596081","wem/bandit_party_2","A175X5H642OD4W","either","1","304","","","","","","","0","0","1","","0.347268188","0.4","0.8","0.2","0.6","0.347268188","0.1832364248","0.862285227","0.5137881872","","","","","","","","","","","","","","72","H","0","img/none_selected.jpg","","56","main_expt","",""
"","bandit","138","487768","0.0-98.0-0.0","33596081","wem/bandit_party_2","A175X5H642OD4W","either","1","950","","","","","","","1","0","0","0.3462231845","","0.4","0.8","0.2","0.6","","","","","0.3462231845","0.1703919496","0.9034803314","0.6274604021","","","","","","","","","","72","H","0","img/none_selected.jpg","","57","main_expt","",""
"","bandit","139","489712","0.0-99.0-0.0","33596081","wem/bandit_party_2","A175X5H642OD4W","either","1","409","","","","","","","0","0","1","","0.3707442777","0.4","0.8","0.2","0.6","0.3707442777","0.2146973212","0.9062052911","0.5636132077","","","","","","","","","","","","","","72","H","0","img/none_selected.jpg","","58","main_expt","",""
"","bandit","140","491698","0.0-100.0-0.0","33596081","wem/bandit_party_2","A175X5H642OD4W","either","1","442","","","","","","","0","1","0","","0.4530366532","0.4","0.8","0.2","0.6","0.4530366532","0.2118107272","0.9169546289","0.6555757088","","","","","","","","","","","","","","72","H","0","img/none_selected.jpg","","59","main_expt","",""
"","bandit","141","493731","0.0-101.0-0.0","33596081","wem/bandit_party_2","A175X5H642OD4W","either","1","505","","","","","","","0","0","1","0.4335409142","","0.4","0.8","0.2","0.6","","","","","0.4335409142","0.2096036334","0.9048679239","0.6555481193","","","","","","","","","","72","H","0","img/none_selected.jpg","","60","main_expt","",""
"","bandit","142","495439","0.0-102.0-0.0","33596081","wem/bandit_party_2","A175X5H642OD4W","either","1","174","","","","","","","1","0","0","0.3601573371","","0.4","0.8","0.2","0.6","","","","","0.3601573371","0.1985607356","0.9346572725","0.6988977931","","","","","","","","","","72","H","0","img/none_selected.jpg","","61","main_expt","",""
"","bandit","143","497300","0.0-103.0-0.0","33596081","wem/bandit_party_2","A175X5H642OD4W","either","1","345","","","","","","","0","0","1","","0.3187004912","0.4","0.8","0.2","0.6","0.3187004912","0.2352246004","0.9332729597","0.6124712875","","","","","","","","","","","","","","72","H","0","img/none_selected.jpg","","62","main_expt","",""
"","bandit","144","499146","0.0-104.0-0.0","33596081","wem/bandit_party_2","A175X5H642OD4W","either","1","308","","","","","","","0","1","0","","0.9300142507","0.4","0.8","0.2","0.6","0.331276396","0.1989126294","0.9300142507","0.4881994696","","","","","","","","","","","","","","75","K","2","","","63","main_expt","",""
"","bandit","145","501004","0.0-105.0-0.0","33596081","wem/bandit_party_2","A175X5H642OD4W","either","1","328","","","","","","","0","1","0","","0.8992917639","0.4","0.8","0.2","0.6","0.3984677","0.2231035509","0.8992917639","0.5007509184","","","","","","","","","","","","","","75","K","2","","","64","main_expt","",""
"","bandit","146","503090","0.0-106.0-0.0","33596081","wem/bandit_party_2","A175X5H642OD4W","either","1","547","","","","","","","0","1","0","","0.7939475476","0.4","0.8","0.2","0.6","0.3012021372","0.174077904","0.7939475476","0.6077525222","","","","","","","","","","","","","","75","K","2","","","65","main_expt","",""
"","bandit","147","505125","0.0-107.0-0.0","33596081","wem/bandit_party_2","A175X5H642OD4W","either","1","500","","","","","","","0","0","1","","0.7848839068","0.4","0.8","0.2","0.6","0.2848395029","0.1505104035","0.7848839068","0.4876759876","","","","","","","","","","","","","","75","K","2","","","66","main_expt","",""
"","bandit","148","507158","0.0-108.0-0.0","33596081","wem/bandit_party_2","A175X5H642OD4W","either","1","493","","","","","","","0","0","1","","0.7712869283","0.4","0.8","0.2","0.6","0.2908363747","0.1706094741","0.7712869283","0.4705728971","","","","","","","","","","","","","","75","K","2","","","67","main_expt","",""
"","bandit","149","509075","0.0-109.0-0.0","33596081","wem/bandit_party_2","A175X5H642OD4W","either","1","380","","","","","","","0","0","1","","0.7426915226","0.4","0.8","0.2","0.6","0.3226378352","0.193375558","0.7426915226","0.5822594153","","","","","","","","","","","","","","75","K","2","","","68","main_expt","",""
"","bandit","150","510940","0.0-110.0-0.0","33596081","wem/bandit_party_2","A175X5H642OD4W","either","1","321","","","","","","","0","0","1","0.226811003","","0.4","0.8","0.2","0.6","","","","","0.4490581071","0.226811003","0.592712881","0.6189715015","","","","","","","","","","74","J","1","","","69","main_expt","",""
"","bandit","151","513325","0.0-111.0-0.0","33596081","wem/bandit_party_2","A175X5H642OD4W","either","1","852","","","","","","","0","0","1","0.191142909","","0.4","0.8","0.2","0.6","","","","","0.42365523","0.191142909","0.6587085967","0.5307799745","","","","","","","","","","74","J","1","","","70","main_expt","",""
"","bandit","152","515172","0.0-112.0-0.0","33596081","wem/bandit_party_2","A175X5H642OD4W","either","1","312","","","","","","","0","0","1","","0.5205551237","0.4","0.8","0.2","0.6","0.427101634","0.2371486809","0.7562029562","0.5205551237","","","","","","","","","","","","","","76","L","3","","","71","main_expt","",""
"","bandit","153","516965","0.0-113.0-0.0","33596081","wem/bandit_party_2","A175X5H642OD4W","either","1","263","","","","","","","0","0","1","","0.5387899421","0.4","0.8","0.2","0.6","0.5387899421","0.2602117984","0.670676276","0.5913901284","","","","","","","","","","","","","","72","H","0","img/none_selected.jpg","","72","main_expt","",""
"","bandit","154","518659","0.0-114.0-0.0","33596081","wem/bandit_party_2","A175X5H642OD4W","either","1","143","","","","","","","0","0","1","","0.4931252492","0.4","0.8","0.2","0.6","0.4931252492","0.1837165363","0.6870219419","0.7127465592","","","","","","","","","","","","","","72","H","0","img/none_selected.jpg","","73","main_expt","",""
"","bandit","155","521340","0.0-115.0-0.0","33596081","wem/bandit_party_2","A175X5H642OD4W","either","1","1166","","","","","","","0","1","0","","0.7804212289","0.4","0.8","0.2","0.6","0.3888626504","0.2032334464","0.582898469","0.7804212289","","","","","","","","","","","","","","76","L","3","","","74","main_expt","",""
"","bandit","156","523309","0.0-116.0-0.0","33596081","wem/bandit_party_2","A175X5H642OD4W","either","1","435","","","","","","","1","0","0","0.7966502287","","0.4","0.8","0.2","0.6","","","","","0.3866429177","0.2782751631","0.6452442043","0.7966502287","","","","","","","","","","76","L","3","","","75","main_expt","",""
"","bandit","157","525155","0.0-117.0-0.0","33596081","wem/bandit_party_2","A175X5H642OD4W","either","1","309","","","","","","","0","1","0","","0.7775959854","0.4","0.8","0.2","0.6","0.3948468247","0.3318782676","0.7031137023","0.7775959854","","","","","","","","","","","","","","76","L","3","","","76","main_expt","",""
"","bandit","158","527286","0.0-118.0-0.0","33596081","wem/bandit_party_2","A175X5H642OD4W","either","1","595","","","","","","","0","1","0","","0.8523583745","0.4","0.8","0.2","0.6","0.4853082722","0.312607664","0.6096498107","0.8523583745","","","","","","","","","","","","","","76","L","3","","","77","main_expt","",""
"","bandit","159","529194","0.0-119.0-0.0","33596081","wem/bandit_party_2","A175X5H642OD4W","either","1","369","","","","","","","0","1","0","","0.7707034136","0.4","0.8","0.2","0.6","0.4971609959","0.3250695504","0.532302087","0.7707034136","","","","","","","","","","","","","","76","L","3","","","78","main_expt","",""
"","bandit","160","531121","0.0-120.0-0.0","33596081","wem/bandit_party_2","A175X5H642OD4W","either","1","392","","","","","","","0","1","0","","0.7919080975","0.4","0.8","0.2","0.6","0.5349041547","0.277144637","0.4448734945","0.7919080975","","","","","","","","","","","","","","76","L","3","","","79","main_expt","",""
"","bandit","161","533182","0.0-121.0-0.0","33596081","wem/bandit_party_2","A175X5H642OD4W","either","1","527","","","","","","","0","1","0","","0.8107458935","0.4","0.8","0.2","0.6","0.4713204996","0.293018971","0.34513516","0.8107458935","","","","","","","","","","","","","","76","L","3","","","80","main_expt","",""
"","bandit","162","535181","0.0-122.0-0.0","33596081","wem/bandit_party_2","A175X5H642OD4W","either","1","463","","","","","","","1","0","0","0.7851591746","","0.4","0.8","0.2","0.6","","","","","0.4132476049","0.2730851157","0.406584365","0.7851591746","","","","","","","","","","76","L","3","","","81","main_expt","",""
"","bandit","163","537063","0.0-123.0-0.0","33596081","wem/bandit_party_2","A175X5H642OD4W","either","1","348","","","","","","","1","0","0","0.8067558171","","0.4","0.8","0.2","0.6","","","","","0.4640808921","0.2436011542","0.5068312928","0.8067558171","","","","","","","","","","76","L","3","","","82","main_expt","",""
"","bandit","164","538928","0.0-124.0-0.0","33596081","wem/bandit_party_2","A175X5H642OD4W","either","1","322","","","","","","","0","1","0","","0.7777816444","0.4","0.8","0.2","0.6","0.442115463","0.2009218657","0.5209063211","0.7777816444","","","","","","","","","","","","","","76","L","3","","","83","main_expt","",""
"","bandit","165","540791","0.0-125.0-0.0","33596081","wem/bandit_party_2","A175X5H642OD4W","either","1","330","","","","","","","1","0","0","0.7801041195","","0.4","0.8","0.2","0.6","","","","","0.5117806844","0.1550904625","0.6221591745","0.7801041195","","","","","","","","","","76","L","3","","","84","main_expt","",""
"","bandit","166","542890","0.0-126.0-0.0","33596081","wem/bandit_party_2","A175X5H642OD4W","either","1","565","","","","","","","1","0","0","0.7593249252","","0.4","0.8","0.2","0.6","","","","","0.5309627618","0.1193398435","0.6939346182","0.7593249252","","","","","","","","","","76","L","3","","","85","main_expt","",""
"","bandit","167","544932","0.0-127.0-0.0","33596081","wem/bandit_party_2","A175X5H642OD4W","either","1","506","","","","","","","0","0","1","0.7911667705","","0.4","0.8","0.2","0.6","","","","","0.5482659382","0.1398572341","0.7533471596","0.7911667705","","","","","","","","","","76","L","3","","","86","main_expt","",""
"","bandit","168","547342","0.0-128.0-0.0","33596081","wem/bandit_party_2","A175X5H642OD4W","either","1","876","","","","","","","0","1","0","","0.8040573679","0.4","0.8","0.2","0.6","0.4772076429","0.1941505275","0.8040573679","0.8480662183","","","","","","","","","","","","","","75","K","2","","","87","main_expt","",""
"","bandit","169","549205","0.0-129.0-0.0","33596081","wem/bandit_party_2","A175X5H642OD4W","either","1","328","","","","","","","0","1","0","","0.7800800897","0.4","0.8","0.2","0.6","0.5202977678","0.09645570925","0.7800800897","0.8110462569","","","","","","","","","","","","","","75","K","2","","","88","main_expt","",""
"","bandit","170","551159","0.0-130.0-0.0","33596081","wem/bandit_party_2","A175X5H642OD4W","either","1","418","","","","","","","0","0","1","0.7329239748","","0.4","0.8","0.2","0.6","","","","","0.4970482359","0.1304326216","0.7329239748","0.7924414871","","","","","","","","","","75","K","2","","","89","main_expt","",""
"","bandit","171","552762","0.0-131.0-0.0","33596081","wem/bandit_party_2","A175X5H642OD4W","either","1","66","","","","","","","1","0","0","0.7202813078","","0.4","0.8","0.2","0.6","","","","","0.4671205494","0.1410434261","0.7202813078","0.8190855249","","","","","","","","","","75","K","2","","","90","main_expt","",""
"","bandit","172","555223","0.0-132.0-0.0","33596081","wem/bandit_party_2","A175X5H642OD4W","either","1","921","","","","","","","0","0","1","0.698586111","","0.4","0.8","0.2","0.6","","","","","0.5518401665","0.1277095213","0.698586111","0.858270253","","","","","","","","","","75","K","2","","","91","main_expt","",""
"","bandit","173","557846","0.0-133.0-0.0","33596081","wem/bandit_party_2","A175X5H642OD4W","either","1","1091","","","","","","","0","0","1","0.08596821216","","0.4","0.8","0.2","0.6","","","","","0.620788192","0.08596821216","0.6054304462","0.8583259383","","","","","","","","","","74","J","1","","","92","main_expt","",""
"","bandit","174","559629","0.0-134.0-0.0","33596081","wem/bandit_party_2","A175X5H642OD4W","either","1","247","","","","","","","1","0","0","0.679669404","","0.4","0.8","0.2","0.6","","","","","0.679669404","0.05652587691","0.6829204303","0.8335107661","","","","","","","","","","72","H","0","img/none_selected.jpg","","93","main_expt","",""
"","bandit","175","561479","0.0-135.0-0.0","33596081","wem/bandit_party_2","A175X5H642OD4W","either","1","308","","","","","","","1","0","0","0.6726581754","","0.4","0.8","0.2","0.6","","","","","0.6726581754","0.07490457358","0.6084783934","0.8849423118","","","","","","","","","","72","H","0","img/none_selected.jpg","","94","main_expt","",""
"","bandit","176","563661","0.0-136.0-0.0","33596081","wem/bandit_party_2","A175X5H642OD4W","either","1","643","","","","","","","0","0","1","","0.5983950962","0.4","0.8","0.2","0.6","0.5983950962","0.05201682933","0.51962455","0.9175662658","","","","","","","","","","","","","","72","H","0","img/none_selected.jpg","","95","main_expt","",""
"","bandit","177","566809","0.0-137.0-0.0","33596081","wem/bandit_party_2","A175X5H642OD4W","either","1","1613","","","","","","","0","1","0","","0.6316158747","0.4","0.8","0.2","0.6","0.6316158747","0.0353667714","0.453067158","0.8726153548","","","","","","","","","","","","","","72","H","0","img/none_selected.jpg","","96","main_expt","",""
"","bandit","178","568913","0.0-138.0-0.0","33596081","wem/bandit_party_2","A175X5H642OD4W","either","1","560","","","","","","","0","0","1","0.6660601513","","0.4","0.8","0.2","0.6","","","","","0.6660601513","0.04301306848","0.4090095009","0.7260562137","","","","","","","","","","72","H","0","img/none_selected.jpg","","97","main_expt","",""
"","bandit","179","571288","0.0-139.0-0.0","33596081","wem/bandit_party_2","A175X5H642OD4W","either","1","836","","","","","","","0","0","1","","0.6185462561","0.4","0.8","0.2","0.6","0.6185462561","0.03950067624","0.360727585","0.6506148609","","","","","","","","","","","","","","72","H","0","img/none_selected.jpg","","98","main_expt","",""
"","bandit","180","573336","0.0-140.0-0.0","33596081","wem/bandit_party_2","A175X5H642OD4W","either","1","502","","","","","","","0","0","1","0.581128502","","0.4","0.8","0.2","0.6","","","","","0.581128502","0.03156699585","0.3351327477","0.5816342488","","","","","","","","","","72","H","0","img/none_selected.jpg","","99","main_expt","",""
"","bandit","181","576294","0.0-141.0-0.0","33596081","wem/bandit_party_2","A175X5H642OD4W","either","1","1425","","","","","","","0","1","0","","0.3491912274","0.4","0.8","0.2","0.6","0.479775063","0.0248161238","0.3491912274","0.5521464449","","","","","","","","","","","","","","75","K","2","","","100","main_expt","",""
"","bandit","182","578225","0.0-142.0-0.0","33596081","wem/bandit_party_2","A175X5H642OD4W","either","1","398","","","","","","","0","1","0","","0.4105375765","0.4","0.8","0.2","0.6","0.5114647241","0.02218075004","0.4105375765","0.6063232436","","","","","","","","","","","","","","75","K","2","","","101","main_expt","",""
"","bandit","183","579998","0.0-143.0-0.0","33596081","wem/bandit_party_2","A175X5H642OD4W","either","1","239","","","","","","","1","0","0","0.438632671","","0.4","0.8","0.2","0.6","","","","","0.4718740674","0.01802152149","0.438632671","0.5636213764","","","","","","","","","","75","K","2","","","102","main_expt","",""
"","bandit","184","581880","0.0-144.0-0.0","33596081","wem/bandit_party_2","A175X5H642OD4W","either","1","366","","","","","","","1","0","0","0.372838406","","0.4","0.8","0.2","0.6","","","","","0.5245129891","0.01877214671","0.372838406","0.5370473259","","","","","","","","","","75","K","2","","","103","main_expt","",""
"","bandit","185","583852","0.0-145.0-0.0","33596081","wem/bandit_party_2","A175X5H642OD4W","either","1","455","","","","","","","1","0","0","0.3057692375","","0.4","0.8","0.2","0.6","","","","","0.5170751474","0.01556743346","0.3057692375","0.549647281","","","","","","","","","","75","K","2","","","104","main_expt","",""
"","bandit","186","585739","0.0-146.0-0.0","33596081","wem/bandit_party_2","A175X5H642OD4W","either","1","346","","","","","","","0","0","1","","0.37369274","0.4","0.8","0.2","0.6","0.472330124","0.03717147126","0.37369274","0.4225976111","","","","","","","","","","","","","","75","K","2","","","105","main_expt","",""
"","bandit","187","587944","0.0-147.0-0.0","33596081","wem/bandit_party_2","A175X5H642OD4W","either","1","667","","","","","","","0","0","1","","0.3179799449","0.4","0.8","0.2","0.6","0.568133852","0.07687033395","0.3179799449","0.5005163425","","","","","","","","","","","","","","75","K","2","","","106","main_expt","",""
"","bandit","188","591409","0.0-148.0-0.0","33596081","wem/bandit_party_2","A175X5H642OD4W","either","1","1936","","","","","","","1","0","0","0.3053765494","","0.4","0.8","0.2","0.6","","","","","0.536018559","0.07659049968","0.3053765494","0.3995396385","","","","","","","","","","75","K","2","","","107","main_expt","",""
"","bandit","189","593476","0.0-149.0-0.0","33596081","wem/bandit_party_2","A175X5H642OD4W","either","1","525","","","","","","","0","0","1","","0.2732860947","0.4","0.8","0.2","0.6","0.3880888981","0.07827602418","0.2732860947","0.3855926336","","","","","","","","","","","","","","75","K","2","","","108","main_expt","",""
"","bandit","190","595192","0.0-150.0-0.0","33596081","wem/bandit_party_2","A175X5H642OD4W","either","1","176","","","","","","","0","0","1","","0.2624197952","0.4","0.8","0.2","0.6","0.3675045314","0.1352418701","0.2624197952","0.3059937163","","","","","","","","","","","","","","75","K","2","","","109","main_expt","",""
"","bandit","191","597456","0.0-151.0-0.0","33596081","wem/bandit_party_2","A175X5H642OD4W","either","1","727","","","","","","","1","0","0","0.2752892785","","0.4","0.8","0.2","0.6","","","","","0.4560700489","0.1705666919","0.3303210632","0.2752892785","","","","","","","","","","76","L","3","","","110","main_expt","",""
"","bandit","192","599313","0.0-152.0-0.0","33596081","wem/bandit_party_2","A175X5H642OD4W","either","1","312","","","","","","","0","1","0","","0.3038626008","0.4","0.8","0.2","0.6","0.5366389876","0.2202970635","0.3541452024","0.3038626008","","","","","","","","","","","","","","76","L","3","","","111","main_expt","",""
"","bandit","193","601455","0.0-153.0-0.0","33596081","wem/bandit_party_2","A175X5H642OD4W","either","1","600","","","","","","","0","0","1","0.2308866464","","0.4","0.8","0.2","0.6","","","","","0.5742054707","0.2368742277","0.4468573219","0.2308866464","","","","","","","","","","76","L","3","","","112","main_expt","",""
"","bandit","194","603286","0.0-154.0-0.0","33596081","wem/bandit_party_2","A175X5H642OD4W","either","1","302","","","","","","","0","1","0","","0.2420052043","0.4","0.8","0.2","0.6","0.6014260319","0.2487241586","0.5163231944","0.2420052043","","","","","","","","","","","","","","76","L","3","","","113","main_expt","",""
"","bandit","195","605462","0.0-155.0-0.0","33596081","wem/bandit_party_2","A175X5H642OD4W","either","1","634","","","","","","","0","0","1","0.3277817495","","0.4","0.8","0.2","0.6","","","","","0.5398035654","0.238824581","0.4064640458","0.3277817495","","","","","","","","","","76","L","3","","","114","main_expt","",""
"","bandit","196","608181","0.0-156.0-0.0","33596081","wem/bandit_party_2","A175X5H642OD4W","either","1","1178","","","","","","","0","0","1","","0.3280884562","0.4","0.8","0.2","0.6","0.5008208772","0.1480638281","0.4085425191","0.3280884562","","","","","","","","","","","","","","76","L","3","","","115","main_expt","",""
"","bandit","197","610117","0.0-157.0-0.0","33596081","wem/bandit_party_2","A175X5H642OD4W","either","1","403","","","","","","","1","0","0","0.4200837231","","0.4","0.8","0.2","0.6","","","","","0.4200837231","0.1246447603","0.4412864427","0.4137256642","","","","","","","","","","72","H","0","img/none_selected.jpg","","116","main_expt","",""
"","bandit","198","612065","0.0-158.0-0.0","33596081","wem/bandit_party_2","A175X5H642OD4W","either","1","406","","","","","","","0","0","1","","0.4094987027","0.4","0.8","0.2","0.6","0.4094987027","0.1308085784","0.5188885271","0.372751341","","","","","","","","","","","","","","72","H","0","img/none_selected.jpg","","117","main_expt","",""
"","bandit","199","613950","0.0-159.0-0.0","33596081","wem/bandit_party_2","A175X5H642OD4W","either","1","346","","","","","","","1","0","0","0.3862907493","","0.4","0.8","0.2","0.6","","","","","0.3862907493","0.09076242324","0.5728151575","0.4225631273","","","","","","","","","","72","H","0","img/none_selected.jpg","","118","main_expt","",""
"","bandit","200","615927","0.0-160.0-0.0","33596081","wem/bandit_party_2","A175X5H642OD4W","either","1","439","","","","","","","1","0","0","0.4437318585","","0.4","0.8","0.2","0.6","","","","","0.4437318585","0.09057925276","0.5065624602","0.4188482812","","","","","","","","","","72","H","0","img/none_selected.jpg","","119","main_expt","",""
"","bandit","201","618128","0.0-161.0-0.0","33596081","wem/bandit_party_2","A175X5H642OD4W","either","1","665","","","","","","","0","0","1","0.293469011","","0.4","0.8","0.2","0.6","","","","","0.293469011","0.1288926122","0.4064427813","0.3729077829","","","","","","","","","","72","H","0","img/none_selected.jpg","","120","main_expt","",""
"","bandit","202","620166","0.0-162.0-0.0","33596081","wem/bandit_party_2","A175X5H642OD4W","either","1","497","","","","","","","0","0","1","0.2141601759","","0.4","0.8","0.2","0.6","","","","","0.2141601759","0.1479701512","0.3948988447","0.3817262037","","","","","","","","","","72","H","0","img/none_selected.jpg","","121","main_expt","",""
"","bandit","203","623019","0.0-163.0-0.0","33596081","wem/bandit_party_2","A175X5H642OD4W","either","1","1313","","","","","","","0","0","1","","0.2594293103","0.4","0.8","0.2","0.6","0.2594293103","0.1663524813","0.316823658","0.3537210734","","","","","","","","","","","","","","72","H","0","img/none_selected.jpg","","122","main_expt","",""
"","bandit","204","625159","0.0-164.0-0.0","33596081","wem/bandit_party_2","A175X5H642OD4W","either","1","598","","","","","","","0","0","1","0.1993917655","","0.4","0.8","0.2","0.6","","","","","0.1519240937","0.1993917655","0.3045978244","0.3633727708","","","","","","","","","","74","J","1","","","123","main_expt","",""
"","bandit","205","627057","0.0-165.0-0.0","33596081","wem/bandit_party_2","A175X5H642OD4W","either","1","359","","","","","","","0","0","1","","0.2389028675","0.4","0.8","0.2","0.6","0.2311656533","0.2948689786","0.2389028675","0.4139908316","","","","","","","","","","","","","","75","K","2","","","124","main_expt","",""
"","bandit","206","628826","0.0-166.0-0.0","33596081","wem/bandit_party_2","A175X5H642OD4W","either","1","236","","","","","","","0","1","0","","0.2166803268","0.4","0.8","0.2","0.6","0.1956748967","0.4054398129","0.2166803268","0.3619800754","","","","","","","","","","","","","","75","K","2","","","125","main_expt","",""
"","bandit","207","630715","0.0-167.0-0.0","33596081","wem/bandit_party_2","A175X5H642OD4W","either","1","355","","","","","","","0","0","1","","0.1613674106","0.4","0.8","0.2","0.6","0.1419383156","0.5337661481","0.1613674106","0.353362548","","","","","","","","","","","","","","75","K","2","","","126","main_expt","",""
"","bandit","208","632609","0.0-168.0-0.0","33596081","wem/bandit_party_2","A175X5H642OD4W","either","1","357","","","","","","","0","0","1","","0.1682412955","0.4","0.8","0.2","0.6","0.1768105291","0.5510518781","0.1682412955","0.2888217425","","","","","","","","","","","","","","75","K","2","","","127","main_expt","",""
"","bandit","209","634374","0.0-169.0-0.0","33596081","wem/bandit_party_2","A175X5H642OD4W","either","1","230","","","","","","","0","1","0","","0.3131893798","0.4","0.8","0.2","0.6","0.1187699492","0.4746642732","0.1655910943","0.3131893798","","","","","","","","","","","","","","76","L","3","","","128","main_expt","",""
"","bandit","210","636190","0.0-170.0-0.0","33596081","wem/bandit_party_2","A175X5H642OD4W","either","1","282","","","","","","","0","0","1","","0.2826861836","0.4","0.8","0.2","0.6","0.1860330609","0.5345142674","0.1845506081","0.2826861836","","","","","","","","","","","","","","76","L","3","","","129","main_expt","",""
"","bandit","211","637860","0.0-171.0-0.0","33596081","wem/bandit_party_2","A175X5H642OD4W","either","1","136","","","","","","","0","0","1","0.3434973012","","0.4","0.8","0.2","0.6","","","","","0.09722607165","0.6617219445","0.1548240476","0.3434973012","","","","","","","","","","76","L","3","","","130","main_expt","",""
"","bandit","212","640084","0.0-172.0-0.0","33596081","wem/bandit_party_2","A175X5H642OD4W","either","1","684","","","","","","","0","0","1","0.3848082556","","0.4","0.8","0.2","0.6","","","","","0.05626421391","0.6183560712","0.1503989","0.3848082556","","","","","","","","","","76","L","3","","","131","main_expt","",""
"","bandit","213","642181","0.0-173.0-0.0","33596081","wem/bandit_party_2","A175X5H642OD4W","either","1","548","","","","","","","0","0","1","","0.1149854728","0.4","0.8","0.2","0.6","0.1149854728","0.7009512511","0.1199593994","0.4140069858","","","","","","","","","","","","","","72","H","0","img/none_selected.jpg","","132","main_expt","",""
"","bandit","214","643805","0.0-174.0-0.0","33596081","wem/bandit_party_2","A175X5H642OD4W","either","1","82","","","","","","","1","0","0","0.1698175541","","0.4","0.8","0.2","0.6","","","","","0.1698175541","0.5838974895","0.1518383839","0.3745017877","","","","","","","","","","72","H","0","img/none_selected.jpg","","133","main_expt","",""
"","bandit","215","645744","0.0-175.0-0.0","33596081","wem/bandit_party_2","A175X5H642OD4W","either","1","399","","","","","","","0","0","1","","0.1925371395","0.4","0.8","0.2","0.6","0.1925371395","0.6628563986","0.1855528241","0.3918835711","","","","","","","","","","","","","","72","H","0","img/none_selected.jpg","","134","main_expt","",""
"","bandit","216","647790","0.0-176.0-0.0","33596081","wem/bandit_party_2","A175X5H642OD4W","either","1","509","","","","","","","0","0","1","","0.246136332","0.4","0.8","0.2","0.6","0.246136332","0.5610912218","0.2187769305","0.3405764209","","","","","","","","","","","","","","72","H","0","img/none_selected.jpg","","135","main_expt","",""
"","bandit","217","651847","0.0-177.0-0.0","33596081","wem/bandit_party_2","A175X5H642OD4W","either","1","2530","","","","","","","1","0","0","0.2277518718","","0.4","0.8","0.2","0.6","","","","","0.2277518718","0.4834649218","0.2001534018","0.4155430462","","","","","","","","","","72","H","0","img/none_selected.jpg","","136","main_expt","",""
"","bandit","218","653759","0.0-178.0-0.0","33596081","wem/bandit_party_2","A175X5H642OD4W","either","1","384","","","","","","","0","1","0","","0.252962458","0.4","0.8","0.2","0.6","0.252962458","0.513072369","0.176995917","0.3389252929","","","","","","","","","","","","","","72","H","0","img/none_selected.jpg","","137","main_expt","",""
"","bandit","219","655685","0.0-179.0-0.0","33596081","wem/bandit_party_2","A175X5H642OD4W","either","1","391","","","","","","","0","0","1","0.3018696236","","0.4","0.8","0.2","0.6","","","","","0.3018696236","0.5502636267","0.1460019238","0.2698753193","","","","","","","","","","72","H","0","img/none_selected.jpg","","138","main_expt","",""
"","bandit","220","657536","0.0-180.0-0.0","33596081","wem/bandit_party_2","A175X5H642OD4W","either","1","308","","","","","","","0","0","1","0.347353107","","0.4","0.8","0.2","0.6","","","","","0.347353107","0.4564922144","0.06707115951","0.2821570394","","","","","","","","","","72","H","0","img/none_selected.jpg","","139","main_expt","",""
"","bandit","221","659422","0.0-181.0-0.0","33596081","wem/bandit_party_2","A175X5H642OD4W","either","1","350","","","","","","","0","0","1","","0.2477375586","0.4","0.8","0.2","0.6","0.2477375586","0.4116013625","0.1071331831","0.3577533322","","","","","","","","","","","","","","72","H","0","img/none_selected.jpg","","140","main_expt","",""
"","bandit","222","661376","0.0-182.0-0.0","33596081","wem/bandit_party_2","A175X5H642OD4W","either","1","413","","","","","","","0","0","1","0.2880826197","","0.4","0.8","0.2","0.6","","","","","0.2880826197","0.4498847811","0.1224459691","0.4250900652","","","","","","","","","","72","H","0","img/none_selected.jpg","","141","main_expt","",""
"","bandit","223","663178","0.0-183.0-0.0","33596081","wem/bandit_party_2","A175X5H642OD4W","either","1","272","","","","","","","0","0","1","0.3451055681","","0.4","0.8","0.2","0.6","","","","","0.2287108423","0.4822150968","0.1127900777","0.3451055681","","","","","","","","","","76","L","3","","","142","main_expt","",""
"","bandit","224","665094","0.0-184.0-0.0","33596081","wem/bandit_party_2","A175X5H642OD4W","either","1","379","","","","","","","0","0","1","0.1736101882","","0.4","0.8","0.2","0.6","","","","","0.2096850542","0.513506041","0.1736101882","0.4661026996","","","","","","","","","","75","K","2","","","143","main_expt","",""
"","bandit","225","666957","0.0-185.0-0.0","33596081","wem/bandit_party_2","A175X5H642OD4W","either","1","333","","","","","","","0","0","1","","0.1231714597","0.4","0.8","0.2","0.6","0.2214165798","0.556822441","0.1231714597","0.4683168179","","","","","","","","","","","","","","75","K","2","","","144","main_expt","",""
"","bandit","226","668866","0.0-186.0-0.0","33596081","wem/bandit_party_2","A175X5H642OD4W","either","1","377","","","","","","","0","0","1","0.10514291","","0.4","0.8","0.2","0.6","","","","","0.2412424024","0.5633269006","0.10514291","0.448697065","","","","","","","","","","75","K","2","","","145","main_expt","",""
"","bandit","227","670780","0.0-187.0-0.0","33596081","wem/bandit_party_2","A175X5H642OD4W","either","1","368","","","","","","","1","0","0","0.6482805244","","0.4","0.8","0.2","0.6","","","","","0.1841611904","0.6482805244","0.0972381369","0.4560677512","","","","","","","","","","74","J","1","","","146","main_expt","",""
"","bandit","228","672738","0.0-188.0-0.0","33596081","wem/bandit_party_2","A175X5H642OD4W","either","1","424","","","","","","","1","0","0","0.6036290043","","0.4","0.8","0.2","0.6","","","","","0.1577922033","0.6036290043","0.1897119627","0.513472809","","","","","","","","","","74","J","1","","","147","main_expt","",""
"","bandit","229","675015","0.0-189.0-0.0","33596081","wem/bandit_party_2","A175X5H642OD4W","either","1","735","","","","","","","1","0","0","0.6110248825","","0.4","0.8","0.2","0.6","","","","","0.1663963597","0.6110248825","0.1759094881","0.3820674583","","","","","","","","","","74","J","1","","","148","main_expt","",""
"","bandit","230","677222","0.0-190.0-0.0","33596081","wem/bandit_party_2","A175X5H642OD4W","either","1","665","","","","","","","0","0","1","0.6453676348","","0.4","0.8","0.2","0.6","","","","","0.319747154","0.6453676348","0.2204336569","0.3116557105","","","","","","","","","","74","J","1","","","149","main_expt","",""
"","bandit","231","679522","0.0-191.0-0.0","33596081","wem/bandit_party_2","A175X5H642OD4W","either","1","760","","","","","","","0","0","1","","0.2328853871","0.4","0.8","0.2","0.6","0.5410110608","0.66235511","0.2328853871","0.3039338698","","","","","","","","","","","","","","75","K","2","","","150","main_expt","",""
"","bandit","232","681097","0.0-192.0-0.0","33596081","wem/bandit_party_2","A175X5H642OD4W","either","1","42","","","","","","","0","0","1","","0.3092958796","0.4","0.8","0.2","0.6","0.5584745132","0.5547575852","0.2652525627","0.3092958796","","","","","","","","","","","","","","76","L","3","","","151","main_expt","",""
"","bandit","233","683137","0.0-193.0-0.0","33596081","wem/bandit_party_2","A175X5H642OD4W","either","1","503","","","","","","","0","0","1","0.3097370874","","0.4","0.8","0.2","0.6","","","","","0.5709378499","0.5223098228","0.2654363334","0.3097370874","","","","","","","","","","76","L","3","","","152","main_expt","",""
"","bandit","234","685275","0.0-194.0-0.0","33596081","wem/bandit_party_2","A175X5H642OD4W","either","1","583","","","","","","","0","0","1","","0.2955649657","0.4","0.8","0.2","0.6","0.6314515046","0.5137303037","0.3505589273","0.2955649657","","","","","","","","","","","","","","76","L","3","","","153","main_expt","",""
"","bandit","235","687331","0.0-195.0-0.0","33596081","wem/bandit_party_2","A175X5H642OD4W","either","1","523","","","","","","","0","0","1","","0.39889796","0.4","0.8","0.2","0.6","0.6734276465","0.5193194566","0.39889796","0.221553637","","","","","","","","","","","","","","75","K","2","","","154","main_expt","",""
"","bandit","236","689257","0.0-196.0-0.0","33596081","wem/bandit_party_2","A175X5H642OD4W","either","1","387","","","","","","","0","0","1","","0.4202606707","0.4","0.8","0.2","0.6","0.7019144477","0.4736812385","0.4202606707","0.2231547498","","","","","","","","","","","","","","75","K","2","","","155","main_expt","",""
"","bandit","237","691362","0.0-197.0-0.0","33596081","wem/bandit_party_2","A175X5H642OD4W","either","1","576","","","","","","","0","0","1","","0.4814159609","0.4","0.8","0.2","0.6","0.6695455193","0.4616442501","0.4814159609","0.2750957943","","","","","","","","","","","","","","75","K","2","","","156","main_expt","",""
"","bandit","238","693421","0.0-198.0-0.0","33596081","wem/bandit_party_2","A175X5H642OD4W","either","1","518","","","","","","","0","0","1","0.6179864128","","0.4","0.8","0.2","0.6","","","","","0.6179864128","0.5025740222","0.5316807058","0.2005793054","","","","","","","","","","72","H","0","img/none_selected.jpg","","157","main_expt","",""
"","bandit","239","695510","0.0-199.0-0.0","33596081","wem/bandit_party_2","A175X5H642OD4W","either","1","545","","","","","","","0","0","1","0.7380689997","","0.4","0.8","0.2","0.6","","","","","0.7380689997","0.4548105643","0.5429668589","0.2502080146","","","","","","","","","","72","H","0","img/none_selected.jpg","","158","main_expt","",""
"","bandit","240","697230","0.0-200.0-0.0","33596081","wem/bandit_party_2","A175X5H642OD4W","either","1","184","","","","","","","0","0","1","0.7632184112","","0.4","0.8","0.2","0.6","","","","","0.7632184112","0.4622667215","0.5991419929","0.2729805177","","","","","","","","","","72","H","0","img/none_selected.jpg","","159","main_expt","",""
"","bandit","241","699188","0.0-201.0-0.0","33596081","wem/bandit_party_2","A175X5H642OD4W","either","1","422","","","","","","","1","0","0","0.6917664031","","0.4","0.8","0.2","0.6","","","","","0.6917664031","0.4600517474","0.6480894682","0.2801697818","","","","","","","","","","72","H","0","img/none_selected.jpg","","160","main_expt","",""
"","bandit","242","701205","0.0-202.0-0.0","33596081","wem/bandit_party_2","A175X5H642OD4W","either","1","476","","","","","","","0","1","0","","0.7106531984","0.4","0.8","0.2","0.6","0.7106531984","0.481388234","0.6776161973","0.2437938608","","","","","","","","","","","","","","72","H","0","img/none_selected.jpg","","161","main_expt","",""
"","bandit","243","703236","0.0-203.0-0.0","33596081","wem/bandit_party_2","A175X5H642OD4W","either","1","496","","","","","","","0","1","0","","0.809310282","0.4","0.8","0.2","0.6","0.809310282","0.3850106192","0.7134031715","0.2687553501","","","","","","","","","","","","","","72","H","0","img/none_selected.jpg","","162","main_expt","",""
"","bandit","244","705183","0.0-204.0-0.0","33596081","wem/bandit_party_2","A175X5H642OD4W","either","1","385","","","","","","","0","1","0","","0.7492875705","0.4","0.8","0.2","0.6","0.7492875705","0.3498723973","0.6215635068","0.245991677","","","","","","","","","","","","","","72","H","0","img/none_selected.jpg","","163","main_expt","",""
"","bandit","245","707294","0.0-205.0-0.0","33596081","wem/bandit_party_2","A175X5H642OD4W","either","1","582","","","","","","","1","0","0","0.7561394707","","0.4","0.8","0.2","0.6","","","","","0.7561394707","0.4287417444","0.5219240024","0.270385563","","","","","","","","","","72","H","0","img/none_selected.jpg","","164","main_expt","",""
"","bandit","246","709373","0.0-206.0-0.0","33596081","wem/bandit_party_2","A175X5H642OD4W","either","1","535","","","","","","","0","0","1","0.8111415702","","0.4","0.8","0.2","0.6","","","","","0.8111415702","0.3150145745","0.4727302842","0.3037855967","","","","","","","","","","72","H","0","img/none_selected.jpg","","165","main_expt","",""
"","bandit","247","711820","0.0-207.0-0.0","33596081","wem/bandit_party_2","A175X5H642OD4W","either","1","909","","","","","","","0","1","0","","0.7759938205","0.4","0.8","0.2","0.6","0.7759938205","0.2927018344","0.5181018645","0.3395577104","","","","","","","","","","","","","","72","H","0","img/none_selected.jpg","","166","main_expt","",""
"","bandit","248","713800","0.0-208.0-0.0","33596081","wem/bandit_party_2","A175X5H642OD4W","either","1","442","","","","","","","0","0","1","","0.8267633335","0.4","0.8","0.2","0.6","0.8267633335","0.3610256338","0.5280433419","0.3443901906","","","","","","","","","","","","","","72","H","0","img/none_selected.jpg","","167","main_expt","",""
"","bandit","249","716096","0.0-209.0-0.0","33596081","wem/bandit_party_2","A175X5H642OD4W","either","1","756","","","","","","","1","0","0","0.8136073627","","0.4","0.8","0.2","0.6","","","","","0.8136073627","0.3137127159","0.5470010145","0.2552323567","","","","","","","","","","72","H","0","img/none_selected.jpg","","168","main_expt","",""
"","bandit","250","718658","0.0-210.0-0.0","33596081","wem/bandit_party_2","A175X5H642OD4W","either","1","1015","","","","","","","1","0","0","0.7308533614","","0.4","0.8","0.2","0.6","","","","","0.7308533614","0.2292796242","0.5558845962","0.289352286","","","","","","","","","","72","H","0","img/none_selected.jpg","","169","main_expt","",""
"","bandit","251","720655","0.0-211.0-0.0","33596081","wem/bandit_party_2","A175X5H642OD4W","either","1","465","","","","","","","0","1","0","","0.7090730391","0.4","0.8","0.2","0.6","0.7090730391","0.221948569","0.5799309324","0.2262743404","","","","","","","","","","","","","","72","H","0","img/none_selected.jpg","","170","main_expt","",""
"","bandit","252","722608","0.0-212.0-0.0","33596081","wem/bandit_party_2","A175X5H642OD4W","either","1","405","","","","","","","1","0","0","0.7229684446","","0.4","0.8","0.2","0.6","","","","","0.7229684446","0.159615594","0.6643953266","0.2644351609","","","","","","","","","","72","H","0","img/none_selected.jpg","","171","main_expt","",""
"","bandit","253","725439","0.0-213.0-0.0","33596081","wem/bandit_party_2","A175X5H642OD4W","either","1","1297","","","","","","","1","0","0","0.6612043244","","0.4","0.8","0.2","0.6","","","","","0.6612043244","0.1303854457","0.7610666705","0.4136296373","","","","","","","","","","72","H","0","img/none_selected.jpg","","172","main_expt","",""
"","bandit","254","728044","0.0-214.0-0.0","33596081","wem/bandit_party_2","A175X5H642OD4W","either","1","1068","","","","","","","0","1","0","","0.7669021743","0.4","0.8","0.2","0.6","0.7669021743","0.07729024622","0.8006149786","0.491318492","","","","","","","","","","","","","","72","H","0","img/none_selected.jpg","","173","main_expt","",""
"","bandit","255","730399","0.0-215.0-0.0","33596081","wem/bandit_party_2","A175X5H642OD4W","either","1","809","","","","","","","0","0","1","","0.8111867287","0.4","0.8","0.2","0.6","0.8111867287","0.1227026474","0.791095403","0.4966763124","","","","","","","","","","","","","","72","H","0","img/none_selected.jpg","","174","main_expt","",""
"","bandit","256","733227","0.0-216.0-0.0","33596081","wem/bandit_party_2","A175X5H642OD4W","either","1","1285","","","","","","","1","0","0","0.8192498968","","0.4","0.8","0.2","0.6","","","","","0.8192498968","0.09483306355","0.8572088762","0.5109350621","","","","","","","","","","72","H","0","img/none_selected.jpg","","175","main_expt","",""
"","bandit","257","735527","0.0-217.0-0.0","33596081","wem/bandit_party_2","A175X5H642OD4W","either","1","759","","","","","","","1","0","0","0.8371283275","","0.4","0.8","0.2","0.6","","","","","0.8371283275","0.143069758","0.8576080684","0.6321295754","","","","","","","","","","72","H","0","img/none_selected.jpg","","176","main_expt","",""
"","bandit","258","737964","0.0-218.0-0.0","33596081","wem/bandit_party_2","A175X5H642OD4W","either","1","891","","","","","","","0","0","1","","0.8545140947","0.4","0.8","0.2","0.6","0.8545140947","0.1741656422","0.8678158231","0.5515755996","","","","","","","","","","","","","","72","H","0","img/none_selected.jpg","","177","main_expt","",""
"","bandit","259","740650","0.0-219.0-0.0","33596081","wem/bandit_party_2","A175X5H642OD4W","either","1","1147","","","","","","","0","1","0","","0.8794893657","0.4","0.8","0.2","0.6","0.8794893657","0.1904086474","0.8820542777","0.5086275016","","","","","","","","","","","","","","72","H","0","img/none_selected.jpg","","178","main_expt","",""
"","bandit","260","742955","0.0-220.0-0.0","33596081","wem/bandit_party_2","A175X5H642OD4W","either","1","767","","","","","","","0","1","0","","0.8939587296","0.4","0.8","0.2","0.6","0.8939587296","0.1778905233","0.8907334788","0.5215192908","","","","","","","","","","","","","","72","H","0","img/none_selected.jpg","","179","main_expt","",""
"","bandit","261","745192","0.0-221.0-0.0","33596081","wem/bandit_party_2","A175X5H642OD4W","either","1","695","","","","","","","0","1","0","","0.868077767","0.4","0.8","0.2","0.6","0.868077767","0.2112817454","0.9161653667","0.5193414217","","","","","","","","","","","","","","72","H","0","img/none_selected.jpg","","180","main_expt","",""
"","bandit","262","747305","0.0-222.0-0.0","33596081","wem/bandit_party_2","A175X5H642OD4W","either","1","570","","","","","","","0","1","0","","0.9295405476","0.4","0.8","0.2","0.6","0.9295405476","0.2236312472","0.9327112184","0.4613460131","","","","","","","","","","","","","","72","H","0","img/none_selected.jpg","","181","main_expt","",""
"","bandit","263","749438","0.0-223.0-0.0","33596081","wem/bandit_party_2","A175X5H642OD4W","either","1","588","","","","","","","0","1","0","","0.9213574857","0.4","0.8","0.2","0.6","0.9213574857","0.264467441","0.9284398706","0.4468633868","","","","","","","","","","","","","","72","H","0","img/none_selected.jpg","","182","main_expt","",""
"","bandit","264","751812","0.0-224.0-0.0","33596081","wem/bandit_party_2","A175X5H642OD4W","either","1","827","","","","","","","0","1","0","","0.9374560388","0.4","0.8","0.2","0.6","0.9374560388","0.2240632979","0.89591471","0.4985091709","","","","","","","","","","","","","","72","H","0","img/none_selected.jpg","","183","main_expt","",""
"","bandit","265","753961","0.0-225.0-0.0","33596081","wem/bandit_party_2","A175X5H642OD4W","either","1","608","","","","","","","0","1","0","","0.9120054929","0.4","0.8","0.2","0.6","0.9120054929","0.1671404848","0.9146434193","0.6057575335","","","","","","","","","","","","","","72","H","0","img/none_selected.jpg","","184","main_expt","",""
"","bandit","266","756039","0.0-226.0-0.0","33596081","wem/bandit_party_2","A175X5H642OD4W","either","1","539","","","","","","","0","1","0","","0.8428471033","0.4","0.8","0.2","0.6","0.8428471033","0.1932257563","0.8575823977","0.4915456485","","","","","","","","","","","","","","72","H","0","img/none_selected.jpg","","185","main_expt","",""
"","bandit","267","758090","0.0-227.0-0.0","33596081","wem/bandit_party_2","A175X5H642OD4W","either","1","507","","","","","","","1","0","0","0.7734335662","","0.4","0.8","0.2","0.6","","","","","0.7734335662","0.155472597","0.8487952361","0.5976273718","","","","","","","","","","72","H","0","img/none_selected.jpg","","186","main_expt","",""
"","bandit","268","760136","0.0-228.0-0.0","33596081","wem/bandit_party_2","A175X5H642OD4W","either","1","501","","","","","","","0","0","1","0.7667319261","","0.4","0.8","0.2","0.6","","","","","0.7667319261","0.1895871356","0.8603972339","0.5743595779","","","","","","","","","","72","H","0","img/none_selected.jpg","","187","main_expt","",""
"","bandit","269","762098","0.0-229.0-0.0","33596081","wem/bandit_party_2","A175X5H642OD4W","either","1","424","","","","","","","0","0","1","0.5945875292","","0.4","0.8","0.2","0.6","","","","","0.5945875292","0.2119556673","0.8834510925","0.6833173747","","","","","","","","","","72","H","0","img/none_selected.jpg","","188","main_expt","",""
"","bandit","270","765473","0.0-230.0-0.0","33596081","wem/bandit_party_2","A175X5H642OD4W","either","1","1828","","","","","","","0","0","1","0.2255007403","","0.4","0.8","0.2","0.6","","","","","0.7406569186","0.2255007403","0.8973947779","0.651089354","","","","","","","","","","74","J","1","","","189","main_expt","",""
"","bandit","271","769173","0.0-231.0-0.0","33596081","wem/bandit_party_2","A175X5H642OD4W","either","1","2161","","","","","","","0","1","0","","0.1754842532","0.4","0.8","0.2","0.6","0.7371931777","0.1754842532","0.8824587855","0.6599652607","","","","","","","","","","","","","","74","J","1","","","190","main_expt","",""
"","bandit","272","773044","0.0-232.0-0.0","33596081","wem/bandit_party_2","A175X5H642OD4W","either","1","2329","","","","","","","0","0","1","","0.1936311571","0.4","0.8","0.2","0.6","0.7019705866","0.1936311571","0.9076431997","0.6960236584","","","","","","","","","","","","","","74","J","1","","","191","main_expt","",""
"","bandit","273","775429","0.0-233.0-0.0","33596081","wem/bandit_party_2","A175X5H642OD4W","either","1","853","","","","","","","0","1","0","","0.8673165995","0.4","0.8","0.2","0.6","0.6198122665","0.215612591","0.8673165995","0.6713911156","","","","","","","","","","","","","","75","K","2","","","192","main_expt","",""
"","bandit","274","777117","0.0-234.0-0.0","33596081","wem/bandit_party_2","A175X5H642OD4W","either","1","150","","","","","","","0","1","0","","0.8264401474","0.4","0.8","0.2","0.6","0.6100930929","0.2818734505","0.8264401474","0.7244072205","","","","","","","","","","","","","","75","K","2","","","193","main_expt","",""
"","bandit","275","780688","0.0-235.0-0.0","33596081","wem/bandit_party_2","A175X5H642OD4W","either","1","2027","","","","","","","0","1","0","","0.8546086414","0.4","0.8","0.2","0.6","0.6332739585","0.3616108755","0.8546086414","0.7397798508","","","","","","","","","","","","","","75","K","2","","","194","main_expt","",""
"","bandit","276","782836","0.0-236.0-0.0","33596081","wem/bandit_party_2","A175X5H642OD4W","either","1","615","","","","","","","0","0","1","","0.7914914872","0.4","0.8","0.2","0.6","0.609207161","0.3979961615","0.7914914872","0.7602069811","","","","","","","","","","","","","","75","K","2","","","195","main_expt","",""
"","bandit","277","785804","0.0-237.0-0.0","33596081","wem/bandit_party_2","A175X5H642OD4W","either","1","1411","","","","","","","0","1","0","","0.7608346536","0.4","0.8","0.2","0.6","0.6560649547","0.4366641927","0.7608346536","0.7114092524","","","","","","","","","","","","","","75","K","2","","","196","main_expt","",""
"","bandit","278","788083","0.0-238.0-0.0","33596081","wem/bandit_party_2","A175X5H642OD4W","either","1","737","","","","","","","0","1","0","","0.7003784325","0.4","0.8","0.2","0.6","0.6656533059","0.560782874","0.7003784325","0.6917424169","","","","","","","","","","","","","","75","K","2","","","197","main_expt","",""
"","bandit","279","791203","0.0-239.0-0.0","33596081","wem/bandit_party_2","A175X5H642OD4W","either","1","1578","","","","","","","1","0","0","0.6036075577","","0.4","0.8","0.2","0.6","","","","","0.6841747727","0.5649388288","0.6036075577","0.6561069913","","","","","","","","","","75","K","2","","","198","main_expt","",""
"","bandit","280","793556","0.0-240.0-0.0","33596081","wem/bandit_party_2","A175X5H642OD4W","either","1","825","","","","","","","0","1","0","","0.5843314555","0.4","0.8","0.2","0.6","0.7105065455","0.5375892324","0.5843314555","0.6948346643","","","","","","","","","","","","","","75","K","2","","","199","main_expt","",""
"","bandit","281","796047","0.0-241.0-0.0","33596081","wem/bandit_party_2","A175X5H642OD4W","either","1","949","","","","","","","1","0","0","0.539414212","","0.4","0.8","0.2","0.6","","","","","0.7380433654","0.5625167851","0.539414212","0.7369743936","","","","","","","","","","75","K","2","","","200","main_expt","",""
"","bandit","282","798068","0.0-242.0-0.0","33596081","wem/bandit_party_2","A175X5H642OD4W","either","1","469","","","","","","","0","0","1","","0.3774065742","0.4","0.8","0.2","0.6","0.6432951689","0.6266810217","0.3774065742","0.8347268415","","","","","","","","","","","","","","75","K","2","","","201","main_expt","",""
"","bandit","283","800144","0.0-243.0-0.0","33596081","wem/bandit_party_2","A175X5H642OD4W","either","1","534","","","","","","","0","0","1","","0.2824615609","0.4","0.8","0.2","0.6","0.4995879772","0.6661075828","0.2824615609","0.7612264534","","","","","","","","","","","","","","75","K","2","","","202","main_expt","",""
"","bandit","284","801695","0.0-244.0-0.0","33596081","wem/bandit_party_2","A175X5H642OD4W","either","1","1","","","","","","","0","0","1","","0.210170224","0.4","0.8","0.2","0.6","0.4767352753","0.7534099026","0.210170224","0.6904596671","","","","","","","","","","","","","","75","K","2","","","203","main_expt","",""
"","bandit","285","803366","0.0-245.0-0.0","33596081","wem/bandit_party_2","A175X5H642OD4W","either","1","136","","","","","","","0","0","1","","0.2708138581","0.4","0.8","0.2","0.6","0.3680612217","0.7033522103","0.2708138581","0.6855485072","","","","","","","","","","","","","","75","K","2","","","204","main_expt","",""
"","bandit","286","805697","0.0-246.0-0.0","33596081","wem/bandit_party_2","A175X5H642OD4W","either","1","791","","","","","","","0","0","1","","0.3319820794","0.4","0.8","0.2","0.6","0.3404512965","0.6105989365","0.3319820794","0.7006332368","","","","","","","","","","","","","","75","K","2","","","205","main_expt","",""
"","bandit","287","808820","0.0-247.0-0.0","33596081","wem/bandit_party_2","A175X5H642OD4W","either","1","1579","","","","","","","0","1","0","","0.7533130943","0.4","0.8","0.2","0.6","0.2774568564","0.725137222","0.3517339603","0.7533130943","","","","","","","","","","","","","","76","L","3","","","206","main_expt","",""
"","bandit","288","810849","0.0-248.0-0.0","33596081","wem/bandit_party_2","A175X5H642OD4W","either","1","485","","","","","","","1","0","0","0.7191760557","","0.4","0.8","0.2","0.6","","","","","0.2228883469","0.5888984072","0.2871079035","0.7191760557","","","","","","","","","","76","L","3","","","207","main_expt","",""
"","bandit","289","813389","0.0-249.0-0.0","33596081","wem/bandit_party_2","A175X5H642OD4W","either","1","994","","","","","","","1","0","0","0.6264293856","","0.4","0.8","0.2","0.6","","","","","0.2829247412","0.4650323514","0.2642306377","0.6264293856","","","","","","","","","","76","L","3","","","208","main_expt","",""
"","bandit","290","815659","0.0-250.0-0.0","33596081","wem/bandit_party_2","A175X5H642OD4W","either","1","730","","","","","","","0","1","0","","0.6500478562","0.4","0.8","0.2","0.6","0.3169104167","0.4100719568","0.3587725811","0.6500478562","","","","","","","","","","","","","","76","L","3","","","209","main_expt","",""
"","bandit","291","818036","0.0-251.0-0.0","33596081","wem/bandit_party_2","A175X5H642OD4W","either","1","830","","","","","","","0","1","0","","0.6498865343","0.4","0.8","0.2","0.6","0.2090062306","0.5177296744","0.3103342645","0.6498865343","","","","","","","","","","","","","","76","L","3","","","210","main_expt","",""
"","bandit","292","820240","0.0-252.0-0.0","33596081","wem/bandit_party_2","A175X5H642OD4W","either","1","661","","","","","","","0","0","1","","0.6056301442","0.4","0.8","0.2","0.6","0.1481662818","0.5950812693","0.3760595068","0.6056301442","","","","","","","","","","","","","","76","L","3","","","211","main_expt","",""
"","bandit","293","821946","0.0-253.0-0.0","33596081","wem/bandit_party_2","A175X5H642OD4W","either","1","159","","","","","","","0","1","0","","0.5524844402","0.4","0.8","0.2","0.6","0.2114888193","0.7169745983","0.447023013","0.5524844402","","","","","","","","","","","","","","76","L","3","","","212","main_expt","",""
"","bandit","294","823815","0.0-254.0-0.0","33596081","wem/bandit_party_2","A175X5H642OD4W","either","1","310","","","","","","","1","0","0","0.6984249358","","0.4","0.8","0.2","0.6","","","","","0.2234642754","0.6766124197","0.4529182837","0.6984249358","","","","","","","","","","76","L","3","","","213","main_expt","",""
"","bandit","295","825889","0.0-255.0-0.0","33596081","wem/bandit_party_2","A175X5H642OD4W","either","1","531","","","","","","","0","0","1","","0.5996975418","0.4","0.8","0.2","0.6","0.2315139555","0.8005648136","0.4306534983","0.5996975418","","","","","","","","","","","","","","76","L","3","","","214","main_expt","",""
"","bandit","296","828136","0.0-256.0-0.0","33596081","wem/bandit_party_2","A175X5H642OD4W","either","1","703","","","","","","","0","1","0","","0.6067129047","0.4","0.8","0.2","0.6","0.1949488974","0.8487964291","0.4314469479","0.6067129047","","","","","","","","","","","","","","76","L","3","","","215","main_expt","",""
"","bandit","297","830766","0.0-257.0-0.0","33596081","wem/bandit_party_2","A175X5H642OD4W","either","1","1084","","","","","","","0","0","1","0.6297976658","","0.4","0.8","0.2","0.6","","","","","0.2333303883","0.8674123454","0.45439575","0.6297976658","","","","","","","","","","76","L","3","","","216","main_expt","",""
"","bandit","298","832371","0.0-258.0-0.0","33596081","wem/bandit_party_2","A175X5H642OD4W","either","1","58","","","","","","","1","0","0","0.6095272491","","0.4","0.8","0.2","0.6","","","","","0.2027763819","0.8774404243","0.5228861726","0.6095272491","","","","","","","","","","76","L","3","","","217","main_expt","",""
"","bandit","299","834341","0.0-259.0-0.0","33596081","wem/bandit_party_2","A175X5H642OD4W","either","1","428","","","","","","","1","0","0","0.7058099393","","0.4","0.8","0.2","0.6","","","","","0.1895874514","0.8836448068","0.463703458","0.7058099393","","","","","","","","","","76","L","3","","","218","main_expt","",""
"","bandit","300","839277","0.0-260.0-0.0","33596081","wem/bandit_party_2","A175X5H642OD4W","either","1","3389","","","","","","","1","0","0","0.7396246451","","0.4","0.8","0.2","0.6","","","","","0.1537120117","0.880498508","0.4522864467","0.7396246451","","","","","","","","","","76","L","3","","","219","main_expt","",""
"","bandit","301","841110","0.0-261.0-0.0","33596081","wem/bandit_party_2","A175X5H642OD4W","either","1","291","","","","","","","0","1","0","","0.7091968036","0.4","0.8","0.2","0.6","0.2022747423","0.8740874997","0.4561576612","0.7091968036","","","","","","","","","","","","","","76","L","3","","","220","main_expt","",""
"","bandit","302","843077","0.0-262.0-0.0","33596081","wem/bandit_party_2","A175X5H642OD4W","either","1","426","","","","","","","0","0","1","0.7116308873","","0.4","0.8","0.2","0.6","","","","","0.3174413427","0.8527830905","0.4264657168","0.7116308873","","","","","","","","","","76","L","3","","","221","main_expt","",""
"","bandit","303","844811","0.0-263.0-0.0","33596081","wem/bandit_party_2","A175X5H642OD4W","either","1","190","","","","","","","1","0","0","0.769465391","","0.4","0.8","0.2","0.6","","","","","0.2315667073","0.7717907476","0.3055141729","0.769465391","","","","","","","","","","76","L","3","","","222","main_expt","",""
"","bandit","304","846756","0.0-264.0-0.0","33596081","wem/bandit_party_2","A175X5H642OD4W","either","1","397","","","","","","","1","0","0","0.7509006974","","0.4","0.8","0.2","0.6","","","","","0.2261006122","0.8359700354","0.2868954791","0.7509006974","","","","","","","","","","76","L","3","","","223","main_expt","",""
"","bandit","305","849132","0.0-265.0-0.0","33596081","wem/bandit_party_2","A175X5H642OD4W","either","1","827","","","","","","","0","0","1","0.7007688409","","0.4","0.8","0.2","0.6","","","","","0.2662378096","0.819670806","0.2698185242","0.7007688409","","","","","","","","","","76","L","3","","","224","main_expt","",""
"","bandit","306","851044","0.0-266.0-0.0","33596081","wem/bandit_party_2","A175X5H642OD4W","either","1","365","","","","","","","0","0","1","","0.7409020096","0.4","0.8","0.2","0.6","0.2163280173","0.8512382749","0.213842325","0.7409020096","","","","","","","","","","","","","","76","L","3","","","225","main_expt","",""
"","bandit","307","853903","0.0-267.0-0.0","33596081","wem/bandit_party_2","A175X5H642OD4W","either","1","1300","","","","","","","0","0","1","0.7052945704","","0.4","0.8","0.2","0.6","","","","","0.2809353625","0.8342861847","0.1616408491","0.7052945704","","","","","","","","","","76","L","3","","","226","main_expt","",""
"","bandit","308","856016","0.0-268.0-0.0","33596081","wem/bandit_party_2","A175X5H642OD4W","either","1","566","","","","","","","0","1","0","","0.606091252","0.4","0.8","0.2","0.6","0.2396571279","0.7736041865","0.1777599287","0.606091252","","","","","","","","","","","","","","76","L","3","","","227","main_expt","",""
"","bandit","309","858077","0.0-269.0-0.0","33596081","wem/bandit_party_2","A175X5H642OD4W","either","1","520","","","","","","","0","0","1","0.5834203199","","0.4","0.8","0.2","0.6","","","","","0.3430446928","0.8094350608","0.2866543064","0.5834203199","","","","","","","","","","76","L","3","","","228","main_expt","",""
