"consent","trial_type","trial_index","time_elapsed","internal_node_id","subjID","study","MID","cond","drift","rt","responses","button_pressed","key_press","like","value","connected","gems","bombs","no_reward","GemPrChosen","BombPrChosen","GainOverPainPr_0","GainOverPainPr_1","GainOverPainPr_2","GainOverPainPr_3","LosePr_0","LosePr_1","LosePr_2","LosePr_3","WinPr_0","WinPr_1","WinPr_2","WinPr_3","Q0","Q1","Q2","gender","age","ethnicity","label","expt_phase","target","respCharCode","respKey","respChoiceNum","respChoice","practice","trial_counter","trial_label","Q0_index"
"GDM/GDM_behavioral_consent_30min_online.html","consent","0","9971","0.0-0.0","35905813","wem/bandit_party_2","A37AWU2VH1ZIXX","either","5","","","","","","","","","","","","","","","","","","","","","","","","","","","","","","","","","","","","","","","","",""
"","survey-text","1","13965","0.0-1.0","35905813","wem/bandit_party_2","A37AWU2VH1ZIXX","either","5","2953","{""Q0"":""A37AWU2VH1ZIXX""}","","","","","","","","","","","","","","","","","","","","","","","","","","","","","","","","","","","","","","",""
"","button-response","2","16708","0.0-2.0","35905813","wem/bandit_party_2","A37AWU2VH1ZIXX","either","5","1717","","0","","","","","","","","","","","","","","","","","","","","","","","","","","","","","","","","","","","","","",""
"","text-replacement","3","31150","0.0-3.0","35905813","wem/bandit_party_2","A37AWU2VH1ZIXX","either","5","13435","","","32","","","","","","","","","","","","","","","","","","","","","","","","","","","","","","","","","","","","",""
"","text-replacement","4","38707","0.0-4.0","35905813","wem/bandit_party_2","A37AWU2VH1ZIXX","either","5","7551","","","32","","","","","","","","","","","","","","","","","","","","","","","","","","","","","","","","","","","","",""
"","identification","5","46732","0.0-6.0-0.0","35905813","wem/bandit_party_2","A37AWU2VH1ZIXX","either","5","7830","","","","5","5","5","","","","","","","","","","","","","","","","","","","","","","","","pre","identification_pre","the Republican Party","","","","","","","",""
"","identification","6","52872","0.0-6.0-1.0","35905813","wem/bandit_party_2","A37AWU2VH1ZIXX","either","5","5097","","","","3","2","1","","","","","","","","","","","","","","","","","","","","","","","","pre","identification_pre","the Democratic Party","","","","","","","",""
"","text-replacement","7","60876","0.0-7.0","35905813","wem/bandit_party_2","A37AWU2VH1ZIXX","either","5","6999","","","32","","","","","","","","","","","","","","","","","","","","","","","","","","","","","","","","","","","","",""
"","text-replacement","8","68859","0.0-8.0","35905813","wem/bandit_party_2","A37AWU2VH1ZIXX","either","5","7979","","","32","","","","","","","","","","","","","","","","","","","","","","","","","","","","","","","","","","","","",""
"","text-replacement","9","80788","0.0-9.0","35905813","wem/bandit_party_2","A37AWU2VH1ZIXX","either","5","11921","","","32","","","","","","","","","","","","","","","","","","","","","","","","","","","","","","","","","","","","",""
"","text-replacement","10","85027","0.0-10.0","35905813","wem/bandit_party_2","A37AWU2VH1ZIXX","either","5","4232","","","32","","","","","","","","","","","","","","","","","","","","","","","","","","","","","","","","","","","","",""
"","text-replacement","11","89378","0.0-11.0","35905813","wem/bandit_party_2","A37AWU2VH1ZIXX","either","5","4347","","","32","","","","","","","","","","","","","","","","","","","","","","","","","","","","","","","","","","","","",""
"","bandit","12","94487","0.0-12.0-0.0","35905813","wem/bandit_party_2","A37AWU2VH1ZIXX","either","5","3531","","","","","","","0","0","1","0","0","","","","","0","","","","0","","","","","","","","","","","","","74","J","0","img/none_selected_demo.jpg","true","0","",""
"","bandit","13","97405","0.0-13.0-0.0","35905813","wem/bandit_party_2","A37AWU2VH1ZIXX","either","5","1351","","","","","","","0","0","1","0","0","","","","","0","","","","0","","","","","","","","","","","","","75","K","0","img/none_selected_demo.jpg","true","0","",""
"","text-replacement","14","103430","0.0-14.0","35905813","wem/bandit_party_2","A37AWU2VH1ZIXX","either","5","6019","","","32","","","","","","","","","","","","","","","","","","","","","","","","","","","","","","","","","","","","",""
"","text-replacement","15","108779","0.0-15.0","35905813","wem/bandit_party_2","A37AWU2VH1ZIXX","either","5","5344","","","32","","","","","","","","","","","","","","","","","","","","","","","","","","","","","","","","","","","","",""
"","text-replacement","16","113638","0.0-16.0","35905813","wem/bandit_party_2","A37AWU2VH1ZIXX","either","5","4854","","","32","","","","","","","","","","","","","","","","","","","","","","","","","","","","","","","","","","","","",""
"","text-replacement","17","117210","0.0-17.0","35905813","wem/bandit_party_2","A37AWU2VH1ZIXX","either","5","3568","","","32","","","","","","","","","","","","","","","","","","","","","","","","","","","","","","","","","","","","",""
"","bandit","18","120025","0.0-18.0-0.0","35905813","wem/bandit_party_2","A37AWU2VH1ZIXX","either","5","1284","","","","","","","0","1","0","","0.8","0.5","0.5","","","0.8","0.2","","","","","","","","","","","","","","","","74","J","0","img/none_selected_demo.jpg","true","0","80_20_practice",""
"","bandit","19","123528","0.0-18.0-1.0","35905813","wem/bandit_party_2","A37AWU2VH1ZIXX","either","5","1973","","","","","","","0","0","1","0.2","","0.5","0.5","","","","","","","0.8","0.2","","","","","","","","","","","","75","K","1","","true","0","80_20_practice",""
"","bandit","20","126496","0.0-18.0-2.0","35905813","wem/bandit_party_2","A37AWU2VH1ZIXX","either","5","1357","","","","","","","1","0","0","0.8","","0.5","0.5","","","","","","","0.8","0.2","","","","","","","","","","","","74","J","0","img/none_selected_demo.jpg","true","0","80_20_practice",""
"","bandit","21","129387","0.0-18.0-3.0","35905813","wem/bandit_party_2","A37AWU2VH1ZIXX","either","5","1278","","","","","","","0","1","0","","0.8","0.5","0.5","","","0.8","0.2","","","","","","","","","","","","","","","","74","J","0","img/none_selected_demo.jpg","true","0","80_20_practice",""
"","bandit","22","132049","0.0-18.0-4.0","35905813","wem/bandit_party_2","A37AWU2VH1ZIXX","either","5","1118","","","","","","","0","1","0","","0.8","0.5","0.5","","","0.8","0.2","","","","","","","","","","","","","","","","74","J","0","img/none_selected_demo.jpg","true","0","80_20_practice",""
"","bandit","23","134381","0.0-18.0-5.0","35905813","wem/bandit_party_2","A37AWU2VH1ZIXX","either","5","814","","","","","","","1","0","0","0.8","","0.5","0.5","","","","","","","0.8","0.2","","","","","","","","","","","","74","J","0","img/none_selected_demo.jpg","true","0","80_20_practice",""
"","bandit","24","136316","0.0-18.0-6.0","35905813","wem/bandit_party_2","A37AWU2VH1ZIXX","either","5","413","","","","","","","0","1","0","","0.8","0.5","0.5","","","0.8","0.2","","","","","","","","","","","","","","","","74","J","0","img/none_selected_demo.jpg","true","0","80_20_practice",""
"","bandit","25","138221","0.0-18.0-7.0","35905813","wem/bandit_party_2","A37AWU2VH1ZIXX","either","5","389","","","","","","","1","0","0","0.8","","0.5","0.5","","","","","","","0.8","0.2","","","","","","","","","","","","74","J","0","img/none_selected_demo.jpg","true","0","80_20_practice",""
"","bandit","26","140860","0.0-18.0-8.0","35905813","wem/bandit_party_2","A37AWU2VH1ZIXX","either","5","1119","","","","","","","1","0","0","0.8","","0.5","0.5","","","","","","","0.8","0.2","","","","","","","","","","","","74","J","0","img/none_selected_demo.jpg","true","0","80_20_practice",""
"","bandit","27","142792","0.0-18.0-9.0","35905813","wem/bandit_party_2","A37AWU2VH1ZIXX","either","5","402","","","","","","","0","1","0","","0.8","0.5","0.5","","","0.8","0.2","","","","","","","","","","","","","","","","74","J","0","img/none_selected_demo.jpg","true","0","80_20_practice",""
"","bandit","28","150741","0.0-18.0-10.0","35905813","wem/bandit_party_2","A37AWU2VH1ZIXX","either","5","6413","","","","","","","0","1","0","","0.2","0.5","0.5","","","0.8","0.2","","","","","","","","","","","","","","","","75","K","1","","true","0","80_20_practice",""
"","bandit","29","152883","0.0-18.0-11.0","35905813","wem/bandit_party_2","A37AWU2VH1ZIXX","either","5","618","","","","","","","0","0","1","0.8","","0.5","0.5","","","","","","","0.8","0.2","","","","","","","","","","","","74","J","0","img/none_selected_demo.jpg","true","0","80_20_practice",""
"","bandit","30","155021","0.0-18.0-12.0","35905813","wem/bandit_party_2","A37AWU2VH1ZIXX","either","5","524","","","","","","","1","0","0","0.2","","0.5","0.5","","","","","","","0.8","0.2","","","","","","","","","","","","75","K","1","","true","0","80_20_practice",""
"","bandit","31","156886","0.0-18.0-13.0","35905813","wem/bandit_party_2","A37AWU2VH1ZIXX","either","5","335","","","","","","","0","0","1","0.2","","0.5","0.5","","","","","","","0.8","0.2","","","","","","","","","","","","75","K","1","","true","0","80_20_practice",""
"","bandit","32","158611","0.0-18.0-14.0","35905813","wem/bandit_party_2","A37AWU2VH1ZIXX","either","5","197","","","","","","","0","0","1","","0.2","0.5","0.5","","","0.8","0.2","","","","","","","","","","","","","","","","75","K","1","","true","0","80_20_practice",""
"","bandit","33","160448","0.0-18.0-15.0","35905813","wem/bandit_party_2","A37AWU2VH1ZIXX","either","5","314","","","","","","","0","0","1","0.8","","0.5","0.5","","","","","","","0.8","0.2","","","","","","","","","","","","74","J","0","img/none_selected_demo.jpg","true","0","80_20_practice",""
"","bandit","34","162345","0.0-18.0-16.0","35905813","wem/bandit_party_2","A37AWU2VH1ZIXX","either","5","317","","","","","","","1","0","0","0.8","","0.5","0.5","","","","","","","0.8","0.2","","","","","","","","","","","","74","J","0","img/none_selected_demo.jpg","true","0","80_20_practice",""
"","bandit","35","164237","0.0-18.0-17.0","35905813","wem/bandit_party_2","A37AWU2VH1ZIXX","either","5","372","","","","","","","0","0","1","","0.2","0.5","0.5","","","0.8","0.2","","","","","","","","","","","","","","","","75","K","1","","true","0","80_20_practice",""
"","bandit","36","166178","0.0-18.0-18.0","35905813","wem/bandit_party_2","A37AWU2VH1ZIXX","either","5","403","","","","","","","0","1","0","","0.8","0.5","0.5","","","0.8","0.2","","","","","","","","","","","","","","","","74","J","0","img/none_selected_demo.jpg","true","0","80_20_practice",""
"","bandit","37","168087","0.0-18.0-19.0","35905813","wem/bandit_party_2","A37AWU2VH1ZIXX","either","5","366","","","","","","","1","0","0","0.8","","0.5","0.5","","","","","","","0.8","0.2","","","","","","","","","","","","74","J","0","img/none_selected_demo.jpg","true","0","80_20_practice",""
"","text-replacement","38","170517","0.0-19.0","35905813","wem/bandit_party_2","A37AWU2VH1ZIXX","either","5","2424","","","32","","","","","","","","","","","","","","","","","","","","","","","","","","","","","","","","","","","","",""
"","bandit","39","172645","0.0-20.0-0.0","35905813","wem/bandit_party_2","A37AWU2VH1ZIXX","either","5","611","","","","","","","1","0","0","1","0","","","","","0","1","","","1","0","","","","","","","","","","","","74","J","0","img/none_selected_demo.jpg","true","0","",""
"","text-replacement","40","177098","0.0-21.0","35905813","wem/bandit_party_2","A37AWU2VH1ZIXX","either","5","4445","","","32","","","","","","","","","","","","","","","","","","","","","","","","","","","","","","","","","","","","",""
"","text-replacement","41","180464","0.0-22.0","35905813","wem/bandit_party_2","A37AWU2VH1ZIXX","either","5","3361","","","32","","","","","","","","","","","","","","","","","","","","","","","","","","","","","","","","","","","","",""
"","text-replacement","42","182856","0.0-23.0","35905813","wem/bandit_party_2","A37AWU2VH1ZIXX","either","5","2385","","","32","","","","","","","","","","","","","","","","","","","","","","","","","","","","","","","","","","","","",""
"","text-replacement","43","185369","0.0-24.0","35905813","wem/bandit_party_2","A37AWU2VH1ZIXX","either","5","2507","","","32","","","","","","","","","","","","","","","","","","","","","","","","","","","","","","","","","","","","",""
"","text-replacement","44","190969","0.0-25.0","35905813","wem/bandit_party_2","A37AWU2VH1ZIXX","either","5","5594","","","32","","","","","","","","","","","","","","","","","","","","","","","","","","","","","","","","","","","","",""
"","text-replacement","45","193670","0.0-26.0","35905813","wem/bandit_party_2","A37AWU2VH1ZIXX","either","5","2692","","","32","","","","","","","","","","","","","","","","","","","","","","","","","","","","","","","","","","","","",""
"","text-replacement","46","196739","0.0-27.0","35905813","wem/bandit_party_2","A37AWU2VH1ZIXX","either","5","3064","","","32","","","","","","","","","","","","","","","","","","","","","","","","","","","","","","","","","","","","",""
"","text-replacement","47","198787","0.0-28.0","35905813","wem/bandit_party_2","A37AWU2VH1ZIXX","either","5","2042","","","32","","","","","","","","","","","","","","","","","","","","","","","","","","","","","","","","","","","","",""
"","text-replacement","48","203726","0.0-29.0","35905813","wem/bandit_party_2","A37AWU2VH1ZIXX","either","5","4934","","","32","","","","","","","","","","","","","","","","","","","","","","","","","","","","","","","","","","","","",""
"","text-replacement","49","205168","0.0-30.0","35905813","wem/bandit_party_2","A37AWU2VH1ZIXX","either","5","1434","","","32","","","","","","","","","","","","","","","","","","","","","","","","","","","","","","","","","","","","",""
"","text-replacement","50","209887","0.0-31.0","35905813","wem/bandit_party_2","A37AWU2VH1ZIXX","either","5","4713","","","32","","","","","","","","","","","","","","","","","","","","","","","","","","","","","","","","","","","","",""
"","bandit","51","212626","0.0-32.0-0.0","35905813","wem/bandit_party_2","A37AWU2VH1ZIXX","either","5","1220","","","","","","","0","1","0","","0.8","0.5","0.5","0.5","0.5","0.8","0.2","0.6","0.2","","","","","","","","","","","","","","72","H","0","img/none_selected.jpg","true","0","full_practice",""
"","bandit","52","214723","0.0-32.0-1.0","35905813","wem/bandit_party_2","A37AWU2VH1ZIXX","either","5","568","","","","","","","1","0","0","0.8","","0.5","0.5","0.5","0.5","","","","","0.8","0.2","0.6","0.2","","","","","","","","","","72","H","0","img/none_selected.jpg","true","0","full_practice",""
"","bandit","53","216773","0.0-32.0-2.0","35905813","wem/bandit_party_2","A37AWU2VH1ZIXX","either","5","511","","","","","","","1","0","0","0.8","","0.5","0.5","0.5","0.5","","","","","0.8","0.2","0.6","0.2","","","","","","","","","","72","H","0","img/none_selected.jpg","true","0","full_practice",""
"","bandit","54","219458","0.0-32.0-3.0","35905813","wem/bandit_party_2","A37AWU2VH1ZIXX","either","5","1164","","","","","","","0","0","1","0.8","","0.5","0.5","0.5","0.5","","","","","0.8","0.2","0.6","0.2","","","","","","","","","","72","H","0","img/none_selected.jpg","true","0","full_practice",""
"","bandit","55","221845","0.0-32.0-4.0","35905813","wem/bandit_party_2","A37AWU2VH1ZIXX","either","5","865","","","","","","","0","1","0","","0.6","0.5","0.5","0.5","0.5","0.8","0.2","0.6","0.2","","","","","","","","","","","","","","75","K","2","","true","0","full_practice",""
"","bandit","56","223982","0.0-32.0-5.0","35905813","wem/bandit_party_2","A37AWU2VH1ZIXX","either","5","614","","","","","","","0","1","0","","0.6","0.5","0.5","0.5","0.5","0.8","0.2","0.6","0.2","","","","","","","","","","","","","","75","K","2","","true","0","full_practice",""
"","bandit","57","226286","0.0-32.0-6.0","35905813","wem/bandit_party_2","A37AWU2VH1ZIXX","either","5","746","","","","","","","0","1","0","","0.6","0.5","0.5","0.5","0.5","0.8","0.2","0.6","0.2","","","","","","","","","","","","","","75","K","2","","true","0","full_practice",""
"","bandit","58","228221","0.0-32.0-7.0","35905813","wem/bandit_party_2","A37AWU2VH1ZIXX","either","5","417","","","","","","","0","0","1","","0.6","0.5","0.5","0.5","0.5","0.8","0.2","0.6","0.2","","","","","","","","","","","","","","75","K","2","","true","0","full_practice",""
"","bandit","59","230389","0.0-32.0-8.0","35905813","wem/bandit_party_2","A37AWU2VH1ZIXX","either","5","649","","","","","","","0","0","1","","0.2","0.5","0.5","0.5","0.5","0.8","0.2","0.6","0.2","","","","","","","","","","","","","","74","J","1","","true","0","full_practice",""
"","bandit","60","232264","0.0-32.0-9.0","35905813","wem/bandit_party_2","A37AWU2VH1ZIXX","either","5","354","","","","","","","1","0","0","0.2","","0.5","0.5","0.5","0.5","","","","","0.8","0.2","0.6","0.2","","","","","","","","","","76","L","3","","true","0","full_practice",""
"","bandit","61","233882","0.0-32.0-10.0","35905813","wem/bandit_party_2","A37AWU2VH1ZIXX","either","5","49","","","","","","","0","0","1","","0.2","0.5","0.5","0.5","0.5","0.8","0.2","0.6","0.2","","","","","","","","","","","","","","76","L","3","","true","0","full_practice",""
"","bandit","62","235517","0.0-32.0-11.0","35905813","wem/bandit_party_2","A37AWU2VH1ZIXX","either","5","103","","","","","","","0","1","0","","0.2","0.5","0.5","0.5","0.5","0.8","0.2","0.6","0.2","","","","","","","","","","","","","","74","J","1","","true","0","full_practice",""
"","bandit","63","237429","0.0-32.0-12.0","35905813","wem/bandit_party_2","A37AWU2VH1ZIXX","either","5","323","","","","","","","0","0","1","0.2","","0.5","0.5","0.5","0.5","","","","","0.8","0.2","0.6","0.2","","","","","","","","","","74","J","1","","true","0","full_practice",""
"","bandit","64","239817","0.0-32.0-13.0","35905813","wem/bandit_party_2","A37AWU2VH1ZIXX","either","5","862","","","","","","","0","0","1","","0.2","0.5","0.5","0.5","0.5","0.8","0.2","0.6","0.2","","","","","","","","","","","","","","76","L","3","","true","0","full_practice",""
"","bandit","65","241547","0.0-32.0-14.0","35905813","wem/bandit_party_2","A37AWU2VH1ZIXX","either","5","188","","","","","","","1","0","0","0.6","","0.5","0.5","0.5","0.5","","","","","0.8","0.2","0.6","0.2","","","","","","","","","","75","K","2","","true","0","full_practice",""
"","bandit","66","243980","0.0-32.0-15.0","35905813","wem/bandit_party_2","A37AWU2VH1ZIXX","either","5","913","","","","","","","1","0","0","0.6","","0.5","0.5","0.5","0.5","","","","","0.8","0.2","0.6","0.2","","","","","","","","","","75","K","2","","true","0","full_practice",""
"","bandit","67","247452","0.0-32.0-16.0","35905813","wem/bandit_party_2","A37AWU2VH1ZIXX","either","5","1931","","","","","","","0","0","1","0.6","","0.5","0.5","0.5","0.5","","","","","0.8","0.2","0.6","0.2","","","","","","","","","","75","K","2","","true","0","full_practice",""
"","bandit","68","249793","0.0-32.0-17.0","35905813","wem/bandit_party_2","A37AWU2VH1ZIXX","either","5","812","","","","","","","0","1","0","","0.8","0.5","0.5","0.5","0.5","0.8","0.2","0.6","0.2","","","","","","","","","","","","","","72","H","0","img/none_selected.jpg","true","0","full_practice",""
"","bandit","69","252357","0.0-32.0-18.0","35905813","wem/bandit_party_2","A37AWU2VH1ZIXX","either","5","1043","","","","","","","0","1","0","","0.8","0.5","0.5","0.5","0.5","0.8","0.2","0.6","0.2","","","","","","","","","","","","","","72","H","0","img/none_selected.jpg","true","0","full_practice",""
"","bandit","70","254734","0.0-32.0-19.0","35905813","wem/bandit_party_2","A37AWU2VH1ZIXX","either","5","837","","","","","","","0","1","0","","0.8","0.5","0.5","0.5","0.5","0.8","0.2","0.6","0.2","","","","","","","","","","","","","","72","H","0","img/none_selected.jpg","true","0","full_practice",""
"","text","71","259192","0.0-33.0","35905813","wem/bandit_party_2","A37AWU2VH1ZIXX","either","5","4440","","","32","","","","","","","","","","","","","","","","","","","","","","","","","","","","","","","","","","","","",""
"","text-replacement","72","266771","0.0-34.0","35905813","wem/bandit_party_2","A37AWU2VH1ZIXX","either","5","6568","","","32","","","","","","","","","","","","","","","","","","","","","","","","","","","","","","","","","","","","",""
"","text-replacement","73","268923","0.0-35.0","35905813","wem/bandit_party_2","A37AWU2VH1ZIXX","either","5","2145","","","32","","","","","","","","","","","","","","","","","","","","","","","","","","","","","","","","","","","","",""
"","text-replacement","74","272008","0.0-36.0","35905813","wem/bandit_party_2","A37AWU2VH1ZIXX","either","5","3078","","","32","","","","","","","","","","","","","","","","","","","","","","","","","","","","","","","","","","","","",""
"","text-replacement","75","274695","0.0-37.0","35905813","wem/bandit_party_2","A37AWU2VH1ZIXX","either","5","2679","","","32","","","","","","","","","","","","","","","","","","","","","","","","","","","","","","","","","","","","",""
"","text-replacement","76","276133","0.0-38.0","35905813","wem/bandit_party_2","A37AWU2VH1ZIXX","either","5","1430","","","32","","","","","","","","","","","","","","","","","","","","","","","","","","","","","","","","","","","","",""
"","survey-multi-choice-replacement","77","284146","0.0-39.0-0.0","35905813","wem/bandit_party_2","A37AWU2VH1ZIXX","either","5","7960","","","","","","","","","","","","","","","","","","","","","","","","Money will be added to the pool for <span style='color:red;'>REPUBLICANS</span>","","","","","","","attn_check","","","","","","","","","0"
"","survey-multi-choice-replacement","78","291933","0.0-40.0-0.0","35905813","wem/bandit_party_2","A37AWU2VH1ZIXX","either","5","6711","","","","","","","","","","","","","","","","","","","","","","","","Equal amounts of money will be added to the pool for <span style='color:red;'>REPUBLICANS</span> and subtracted from the pool for <span style='color:blue;'>DEMOCRATS</span>","","","","","","","attn_check","","","","","","","","","2"
"","survey-multi-choice-replacement","79","297434","0.0-41.0-0.0","35905813","wem/bandit_party_2","A37AWU2VH1ZIXX","either","5","4075","","","","","","","","","","","","","","","","","","","","","","","","No money will be added to either pool","","","","","","","attn_check","","","","","","","","","3"
"","bandit","80","302944","0.0-42.0-0.0","35905813","wem/bandit_party_2","A37AWU2VH1ZIXX","either","5","2652","","","","","","","0","0","1","0.4253928501","","0.2","0.4","0.8","0.6","","","","","0.6131215568","0.4253928501","0.4909711759","0.32692793","","","","","","","","","","74","J","1","","","1","main_expt",""
"","bandit","81","305175","0.0-43.0-0.0","35905813","wem/bandit_party_2","A37AWU2VH1ZIXX","either","5","680","","","","","","","1","0","0","0.5514346198","","0.2","0.4","0.8","0.6","","","","","0.6783759564","0.5447097682","0.5514346198","0.3068321923","","","","","","","","","","75","K","2","","","2","main_expt",""
"","bandit","82","307523","0.0-44.0-0.0","35905813","wem/bandit_party_2","A37AWU2VH1ZIXX","either","5","827","","","","","","","0","0","1","0.5966913043","","0.2","0.4","0.8","0.6","","","","","0.6535049038","0.5631376832","0.5966913043","0.2871808385","","","","","","","","","","75","K","2","","","3","main_expt",""
"","bandit","83","309702","0.0-45.0-0.0","35905813","wem/bandit_party_2","A37AWU2VH1ZIXX","either","5","363","","","","","","","0","0","1","","0.3062311279","0.2","0.4","0.8","0.6","0.5433476707","0.5889355808","0.6236804691","0.3062311279","","","","","","","","","","","","","","76","L","3","","","4","main_expt",""
"","bandit","84","311986","0.0-46.0-0.0","35905813","wem/bandit_party_2","A37AWU2VH1ZIXX","either","5","707","","","","","","","1","0","0","0.6125363118","","0.2","0.4","0.8","0.6","","","","","0.4256320799","0.6125363118","0.5844938386","0.2453374439","","","","","","","","","","74","J","1","","","5","main_expt",""
"","bandit","85","314140","0.0-47.0-0.0","35905813","wem/bandit_party_2","A37AWU2VH1ZIXX","either","5","599","","","","","","","0","0","1","0.5204159956","","0.2","0.4","0.8","0.6","","","","","0.4097031487","0.5204159956","0.4929788692","0.2258644136","","","","","","","","","","74","J","1","","","6","main_expt",""
"","bandit","86","316895","0.0-48.0-0.0","35905813","wem/bandit_party_2","A37AWU2VH1ZIXX","either","5","1239","","","","","","","0","0","1","","0.4614862243","0.2","0.4","0.8","0.6","0.4614862243","0.5949894572","0.3978044106","0.2251512132","","","","","","","","","","","","","","72","H","0","img/none_selected.jpg","","7","main_expt",""
"","bandit","87","320173","0.0-49.0-0.0","35905813","wem/bandit_party_2","A37AWU2VH1ZIXX","either","5","1470","","","","","","","0","1","0","","0.4305419438","0.2","0.4","0.8","0.6","0.4305419438","0.7043393759","0.5080346622","0.1597376121","","","","","","","","","","","","","","72","H","0","img/none_selected.jpg","","8","main_expt",""
"","bandit","88","324001","0.0-50.0-0.0","35905813","wem/bandit_party_2","A37AWU2VH1ZIXX","either","5","2021","","","","","","","0","0","1","","0.6000641755","0.2","0.4","0.8","0.6","0.6000641755","0.6866437556","0.440708512","0.1395884133","","","","","","","","","","","","","","72","H","0","img/none_selected.jpg","","9","main_expt",""
"","bandit","89","326306","0.0-51.0-0.0","35905813","wem/bandit_party_2","A37AWU2VH1ZIXX","either","5","784","","","","","","","0","0","1","0.4862198985","","0.2","0.4","0.8","0.6","","","","","0.66675231","0.6743415364","0.4862198985","0.1529628815","","","","","","","","","","75","K","2","","","10","main_expt",""
"","bandit","90","328147","0.0-52.0-0.0","35905813","wem/bandit_party_2","A37AWU2VH1ZIXX","either","5","315","","","","","","","1","0","0","0.6907290289","","0.2","0.4","0.8","0.6","","","","","0.538431352","0.6907290289","0.4942886423","0.1918890603","","","","","","","","","","74","J","1","","","11","main_expt",""
"","bandit","91","330254","0.0-53.0-0.0","35905813","wem/bandit_party_2","A37AWU2VH1ZIXX","either","5","564","","","","","","","0","0","1","","0.7254617755","0.2","0.4","0.8","0.6","0.5683478731","0.7254617755","0.4999864232","0.1412308375","","","","","","","","","","","","","","74","J","1","","","12","main_expt",""
"","bandit","92","334036","0.0-54.0-0.0","35905813","wem/bandit_party_2","A37AWU2VH1ZIXX","either","5","2147","","","","","","","0","1","0","","0.1854965676","0.2","0.4","0.8","0.6","0.5870071372","0.7533793381","0.3945724157","0.1854965676","","","","","","","","","","","","","","76","L","3","","","13","main_expt",""
"","bandit","93","336231","0.0-55.0-0.0","35905813","wem/bandit_party_2","A37AWU2VH1ZIXX","either","5","640","","","","","","","0","0","1","0.2200151947","","0.2","0.4","0.8","0.6","","","","","0.3389967741","0.6909187676","0.458684297","0.2200151947","","","","","","","","","","76","L","3","","","14","main_expt",""
"","bandit","94","338302","0.0-56.0-0.0","35905813","wem/bandit_party_2","A37AWU2VH1ZIXX","either","5","466","","","","","","","0","1","0","","0.7916820586","0.2","0.4","0.8","0.6","0.2927381815","0.7916820586","0.5338449271","0.1497743902","","","","","","","","","","","","","","74","J","1","","","15","main_expt",""
"","bandit","95","340440","0.0-57.0-0.0","35905813","wem/bandit_party_2","A37AWU2VH1ZIXX","either","5","609","","","","","","","1","0","0","0.6821016448","","0.2","0.4","0.8","0.6","","","","","0.2268478953","0.7991661796","0.6821016448","0.1767244745","","","","","","","","","","75","K","2","","","16","main_expt",""
"","bandit","96","342545","0.0-58.0-0.0","35905813","wem/bandit_party_2","A37AWU2VH1ZIXX","either","5","474","","","","","","","1","0","0","0.2364877179","","0.2","0.4","0.8","0.6","","","","","0.2364877179","0.7352739439","0.6963612506","0.1953364786","","","","","","","","","","72","H","0","img/none_selected.jpg","","17","main_expt",""
"","bandit","97","344770","0.0-59.0-0.0","35905813","wem/bandit_party_2","A37AWU2VH1ZIXX","either","5","659","","","","","","","1","0","0","0.7035779666","","0.2","0.4","0.8","0.6","","","","","0.280777314","0.6911569498","0.7035779666","0.139355503","","","","","","","","","","75","K","2","","","18","main_expt",""
"","bandit","98","346757","0.0-60.0-0.0","35905813","wem/bandit_party_2","A37AWU2VH1ZIXX","either","5","454","","","","","","","0","1","0","","0.6372159304","0.2","0.4","0.8","0.6","0.3280428268","0.6372159304","0.677086514","0.129677489","","","","","","","","","","","","","","74","J","1","","","19","main_expt",""
"","bandit","99","349333","0.0-61.0-0.0","35905813","wem/bandit_party_2","A37AWU2VH1ZIXX","either","5","1052","","","","","","","0","1","0","","0.1584506979","0.2","0.4","0.8","0.6","0.213865824","0.5917564331","0.5211019236","0.1584506979","","","","","","","","","","","","","","76","L","3","","","20","main_expt",""
"","bandit","100","351321","0.0-62.0-0.0","35905813","wem/bandit_party_2","A37AWU2VH1ZIXX","either","5","464","","","","","","","1","0","0","0.6040081297","","0.2","0.4","0.8","0.6","","","","","0.2755747612","0.6351733259","0.6040081297","0.1934985877","","","","","","","","","","75","K","2","","","21","main_expt",""
"","bandit","101","353662","0.0-63.0-0.0","35905813","wem/bandit_party_2","A37AWU2VH1ZIXX","either","5","819","","","","","","","0","0","1","","0.3096891892","0.2","0.4","0.8","0.6","0.3096891892","0.57448168","0.5276460007","0.1184813826","","","","","","","","","","","","","","72","H","0","img/none_selected.jpg","","22","main_expt",""
"","bandit","102","355825","0.0-64.0-0.0","35905813","wem/bandit_party_2","A37AWU2VH1ZIXX","either","5","606","","","","","","","0","0","1","","0.4373756081","0.2","0.4","0.8","0.6","0.1855444332","0.532235281","0.4373756081","0.1387482349","","","","","","","","","","","","","","75","K","2","","","23","main_expt",""
"","bandit","103","357633","0.0-65.0-0.0","35905813","wem/bandit_party_2","A37AWU2VH1ZIXX","either","5","279","","","","","","","1","0","0","0.4695599312","","0.2","0.4","0.8","0.6","","","","","0.2026045625","0.4695599312","0.4051577966","0.1275075135","","","","","","","","","","74","J","1","","","24","main_expt",""
"","bandit","104","359527","0.0-66.0-0.0","35905813","wem/bandit_party_2","A37AWU2VH1ZIXX","either","5","370","","","","","","","0","1","0","","0.3710761786","0.2","0.4","0.8","0.6","0.2610081957","0.3710761786","0.3583026632","0.1324238285","","","","","","","","","","","","","","74","J","1","","","25","main_expt",""
"","bandit","105","361524","0.0-67.0-0.0","35905813","wem/bandit_party_2","A37AWU2VH1ZIXX","either","5","472","","","","","","","1","0","0","0.2222282692","","0.2","0.4","0.8","0.6","","","","","0.2068764453","0.3104834237","0.4070676783","0.2222282692","","","","","","","","","","76","L","3","","","26","main_expt",""
"","bandit","106","363451","0.0-68.0-0.0","35905813","wem/bandit_party_2","A37AWU2VH1ZIXX","either","5","385","","","","","","","0","0","1","0.3962805628","","0.2","0.4","0.8","0.6","","","","","0.1387354037","0.4250638914","0.3962805628","0.2367528544","","","","","","","","","","75","K","2","","","27","main_expt",""
"","bandit","107","365386","0.0-69.0-0.0","35905813","wem/bandit_party_2","A37AWU2VH1ZIXX","either","5","391","","","","","","","0","0","1","0.3381264529","","0.2","0.4","0.8","0.6","","","","","0.2065421522","0.3738912408","0.3381264529","0.1581712713","","","","","","","","","","75","K","2","","","28","main_expt",""
"","bandit","108","367368","0.0-70.0-0.0","35905813","wem/bandit_party_2","A37AWU2VH1ZIXX","either","5","461","","","","","","","1","0","0","0.411092256","","0.2","0.4","0.8","0.6","","","","","0.2452437498","0.411092256","0.3405446746","0.2361440946","","","","","","","","","","74","J","1","","","29","main_expt",""
"","bandit","109","369326","0.0-71.0-0.0","35905813","wem/bandit_party_2","A37AWU2VH1ZIXX","either","5","402","","","","","","","0","0","1","","0.3076129501","0.2","0.4","0.8","0.6","0.3076129501","0.306262239","0.3536414415","0.3051502752","","","","","","","","","","","","","","72","H","0","img/none_selected.jpg","","30","main_expt",""
"","bandit","110","371210","0.0-72.0-0.0","35905813","wem/bandit_party_2","A37AWU2VH1ZIXX","either","5","330","","","","","","","0","1","0","","0.2846857217","0.2","0.4","0.8","0.6","0.275744379","0.2846857217","0.3201297868","0.3588845582","","","","","","","","","","","","","","74","J","1","","","31","main_expt",""
"","bandit","111","373371","0.0-73.0-0.0","35905813","wem/bandit_party_2","A37AWU2VH1ZIXX","either","5","597","","","","","","","0","0","1","0.260797537","","0.2","0.4","0.8","0.6","","","","","0.1582224348","0.260797537","0.414050106","0.3351264969","","","","","","","","","","74","J","1","","","32","main_expt",""
"","bandit","112","374950","0.0-74.0-0.0","35905813","wem/bandit_party_2","A37AWU2VH1ZIXX","either","5","58","","","","","","","0","0","1","0.4846208784","","0.2","0.4","0.8","0.6","","","","","0.07234251762","0.3108282978","0.4846208784","0.3369799553","","","","","","","","","","75","K","2","","","33","main_expt",""
"","bandit","113","377136","0.0-75.0-0.0","35905813","wem/bandit_party_2","A37AWU2VH1ZIXX","either","5","635","","","","","","","0","0","1","0.3040676539","","0.2","0.4","0.8","0.6","","","","","0.07244310326","0.3996464291","0.4250330595","0.3040676539","","","","","","","","","","76","L","3","","","34","main_expt",""
"","bandit","114","379056","0.0-76.0-0.0","35905813","wem/bandit_party_2","A37AWU2VH1ZIXX","either","5","356","","","","","","","0","0","1","","0.07140094546","0.2","0.4","0.8","0.6","0.07140094546","0.4368131495","0.499329675","0.2974236485","","","","","","","","","","","","","","72","H","0","img/none_selected.jpg","","35","main_expt",""
"","bandit","115","381176","0.0-77.0-0.0","35905813","wem/bandit_party_2","A37AWU2VH1ZIXX","either","5","568","","","","","","","0","0","1","0.3396719642","","0.2","0.4","0.8","0.6","","","","","0.08624361683","0.3396719642","0.3892953339","0.310238309","","","","","","","","","","74","J","1","","","36","main_expt",""
"","bandit","116","383111","0.0-78.0-0.0","35905813","wem/bandit_party_2","A37AWU2VH1ZIXX","either","5","370","","","","","","","0","0","1","0.4409026667","","0.2","0.4","0.8","0.6","","","","","0.07543251018","0.4409026667","0.3680424748","0.2818719109","","","","","","","","","","74","J","1","","","37","main_expt",""
"","bandit","117","384930","0.0-79.0-0.0","35905813","wem/bandit_party_2","A37AWU2VH1ZIXX","either","5","286","","","","","","","0","1","0","","0.4909804269","0.2","0.4","0.8","0.6","0.1324785543","0.489392614","0.4909804269","0.2925765749","","","","","","","","","","","","","","75","K","2","","","38","main_expt",""
"","bandit","118","386927","0.0-80.0-0.0","35905813","wem/bandit_party_2","A37AWU2VH1ZIXX","either","5","477","","","","","","","1","0","0","0.5165168671","","0.2","0.4","0.8","0.6","","","","","0.1824024676","0.4403114744","0.5165168671","0.3033582507","","","","","","","","","","75","K","2","","","39","main_expt",""
"","bandit","119","388954","0.0-81.0-0.0","35905813","wem/bandit_party_2","A37AWU2VH1ZIXX","either","5","488","","","","","","","1","0","0","0.6036007873","","0.2","0.4","0.8","0.6","","","","","0.09861269436","0.343221944","0.6036007873","0.2371445562","","","","","","","","","","75","K","2","","","40","main_expt",""
"","bandit","120","391171","0.0-82.0-0.0","35905813","wem/bandit_party_2","A37AWU2VH1ZIXX","either","5","663","","","","","","","1","0","0","0.6078828369","","0.2","0.4","0.8","0.6","","","","","0.1028082326","0.450343793","0.6078828369","0.2072661203","","","","","","","","","","75","K","2","","","41","main_expt",""
"","bandit","121","393281","0.0-83.0-0.0","35905813","wem/bandit_party_2","A37AWU2VH1ZIXX","either","5","575","","","","","","","1","0","0","0.5757077757","","0.2","0.4","0.8","0.6","","","","","0.1326350751","0.4422822993","0.5757077757","0.1850700716","","","","","","","","","","75","K","2","","","42","main_expt",""
"","bandit","122","395261","0.0-84.0-0.0","35905813","wem/bandit_party_2","A37AWU2VH1ZIXX","either","5","459","","","","","","","0","1","0","","0.504524575","0.2","0.4","0.8","0.6","0.1591685393","0.4755437476","0.504524575","0.1700345657","","","","","","","","","","","","","","75","K","2","","","43","main_expt",""
"","bandit","123","397297","0.0-85.0-0.0","35905813","wem/bandit_party_2","A37AWU2VH1ZIXX","either","5","461","","","","","","","0","0","1","0.3354744533","","0.2","0.4","0.8","0.6","","","","","0.1558361793","0.6211160782","0.3354744533","0.150922449","","","","","","","","","","75","K","2","","","44","main_expt",""
"","bandit","124","399024","0.0-86.0-0.0","35905813","wem/bandit_party_2","A37AWU2VH1ZIXX","either","5","205","","","","","","","0","0","1","","0.08224127908","0.2","0.4","0.8","0.6","0.08224127908","0.5950963145","0.2259933845","0.08792573626","","","","","","","","","","","","","","72","H","0","img/none_selected.jpg","","45","main_expt",""
"","bandit","125","400870","0.0-87.0-0.0","35905813","wem/bandit_party_2","A37AWU2VH1ZIXX","either","5","323","","","","","","","0","0","1","0.05210962111","","0.2","0.4","0.8","0.6","","","","","0.05681632526","0.600883672","0.1991815266","0.05210962111","","","","","","","","","","76","L","3","","","46","main_expt",""
"","bandit","126","402718","0.0-88.0-0.0","35905813","wem/bandit_party_2","A37AWU2VH1ZIXX","either","5","301","","","","","","","0","0","1","","0.1658512007","0.2","0.4","0.8","0.6","0.02046531905","0.6018426621","0.1821259253","0.1658512007","","","","","","","","","","","","","","76","L","3","","","47","main_expt",""
"","bandit","127","405657","0.0-89.0-0.0","35905813","wem/bandit_party_2","A37AWU2VH1ZIXX","either","5","1413","","","","","","","1","0","0","0.6719149388","","0.2","0.4","0.8","0.6","","","","","0.02793369594","0.6719149388","0.1850219792","0.2171730843","","","","","","","","","","74","J","1","","","48","main_expt",""
"","bandit","128","407802","0.0-90.0-0.0","35905813","wem/bandit_party_2","A37AWU2VH1ZIXX","either","5","618","","","","","","","1","0","0","0.5824093935","","0.2","0.4","0.8","0.6","","","","","0.01520235592","0.5824093935","0.2843491098","0.2545874694","","","","","","","","","","74","J","1","","","49","main_expt",""
"","bandit","129","409741","0.0-91.0-0.0","35905813","wem/bandit_party_2","A37AWU2VH1ZIXX","either","5","414","","","","","","","1","0","0","0.5697547833","","0.2","0.4","0.8","0.6","","","","","0.008868670712","0.5697547833","0.2385085868","0.1971443839","","","","","","","","","","74","J","1","","","50","main_expt",""
"","bandit","130","411741","0.0-92.0-0.0","35905813","wem/bandit_party_2","A37AWU2VH1ZIXX","either","5","429","","","","","","","1","0","0","0.5875551098","","0.2","0.4","0.8","0.6","","","","","0.004668439046","0.5875551098","0.2762119933","0.1743954459","","","","","","","","","","74","J","1","","","51","main_expt",""
"","bandit","131","413635","0.0-93.0-0.0","35905813","wem/bandit_party_2","A37AWU2VH1ZIXX","either","5","366","","","","","","","1","0","0","0.691822337","","0.2","0.4","0.8","0.6","","","","","0.003090075005","0.691822337","0.2350807626","0.1007451992","","","","","","","","","","74","J","1","","","52","main_expt",""
"","bandit","132","415536","0.0-94.0-0.0","35905813","wem/bandit_party_2","A37AWU2VH1ZIXX","either","5","375","","","","","","","1","0","0","0.7363191169","","0.2","0.4","0.8","0.6","","","","","0.003474758773","0.7363191169","0.2301492847","0.1648918076","","","","","","","","","","74","J","1","","","53","main_expt",""
"","bandit","133","417443","0.0-95.0-0.0","35905813","wem/bandit_party_2","A37AWU2VH1ZIXX","either","5","351","","","","","","","0","1","0","","0.7639548597","0.2","0.4","0.8","0.6","0.003279238457","0.7639548597","0.2779325162","0.1761014763","","","","","","","","","","","","","","74","J","1","","","54","main_expt",""
"","bandit","134","419404","0.0-96.0-0.0","35905813","wem/bandit_party_2","A37AWU2VH1ZIXX","either","5","426","","","","","","","0","0","1","0.7264154962","","0.2","0.4","0.8","0.6","","","","","0.001847339967","0.7264154962","0.2882189161","0.1460392243","","","","","","","","","","74","J","1","","","55","main_expt",""
"","bandit","135","421547","0.0-97.0-0.0","35905813","wem/bandit_party_2","A37AWU2VH1ZIXX","either","5","614","","","","","","","1","0","0","0.2646822794","","0.2","0.4","0.8","0.6","","","","","0.001186331615","0.7511403137","0.2646822794","0.1882527018","","","","","","","","","","75","K","2","","","56","main_expt",""
"","bandit","136","423448","0.0-98.0-0.0","35905813","wem/bandit_party_2","A37AWU2VH1ZIXX","either","5","369","","","","","","","0","0","1","0.3080117871","","0.2","0.4","0.8","0.6","","","","","0.001917609755","0.6292194553","0.3080117871","0.1836596221","","","","","","","","","","75","K","2","","","57","main_expt",""
"","bandit","137","425299","0.0-99.0-0.0","35905813","wem/bandit_party_2","A37AWU2VH1ZIXX","either","5","322","","","","","","","0","0","1","","0.004115025419","0.2","0.4","0.8","0.6","0.004115025419","0.5622591622","0.2609020091","0.2259562874","","","","","","","","","","","","","","72","H","0","img/none_selected.jpg","","58","main_expt",""
"","bandit","138","427105","0.0-100.0-0.0","35905813","wem/bandit_party_2","A37AWU2VH1ZIXX","either","5","279","","","","","","","0","0","1","","0.1673227733","0.2","0.4","0.8","0.6","0.007083433589","0.6394190939","0.3014652953","0.1673227733","","","","","","","","","","","","","","76","L","3","","","59","main_expt",""
"","bandit","139","428798","0.0-101.0-0.0","35905813","wem/bandit_party_2","A37AWU2VH1ZIXX","either","5","166","","","","","","","0","0","1","","0.2872544729","0.2","0.4","0.8","0.6","0.0100473459","0.502148976","0.2872544729","0.1404143731","","","","","","","","","","","","","","75","K","2","","","60","main_expt",""
"","bandit","140","430652","0.0-102.0-0.0","35905813","wem/bandit_party_2","A37AWU2VH1ZIXX","either","5","293","","","","","","","0","0","1","0.2347068593","","0.2","0.4","0.8","0.6","","","","","0.02288810402","0.5541662771","0.2347068593","0.1087230511","","","","","","","","","","75","K","2","","","61","main_expt",""
"","bandit","141","432990","0.0-103.0-0.0","35905813","wem/bandit_party_2","A37AWU2VH1ZIXX","either","5","805","","","","","","","0","1","0","","0.6016144889","0.2","0.4","0.8","0.6","0.04890713094","0.6016144889","0.1786743828","0.1173770395","","","","","","","","","","","","","","74","J","1","","","62","main_expt",""
"","bandit","142","435070","0.0-104.0-0.0","35905813","wem/bandit_party_2","A37AWU2VH1ZIXX","either","5","554","","","","","","","0","0","1","0.6306423252","","0.2","0.4","0.8","0.6","","","","","0.06015841579","0.6306423252","0.1627017484","0.1173961002","","","","","","","","","","74","J","1","","","63","main_expt",""
"","bandit","143","436797","0.0-105.0-0.0","35905813","wem/bandit_party_2","A37AWU2VH1ZIXX","either","5","197","","","","","","","0","0","1","0.1093057248","","0.2","0.4","0.8","0.6","","","","","0.0697324588","0.5963496952","0.2220220934","0.1093057248","","","","","","","","","","76","L","3","","","64","main_expt",""
"","bandit","144","438493","0.0-106.0-0.0","35905813","wem/bandit_party_2","A37AWU2VH1ZIXX","either","5","141","","","","","","","0","0","1","0.1387290973","","0.2","0.4","0.8","0.6","","","","","0.03955641554","0.5835424673","0.1387290973","0.1437581537","","","","","","","","","","75","K","2","","","65","main_expt",""
"","bandit","145","441100","0.0-107.0-0.0","35905813","wem/bandit_party_2","A37AWU2VH1ZIXX","either","5","1083","","","","","","","0","0","1","","0.04104317144","0.2","0.4","0.8","0.6","0.04104317144","0.5789137396","0.1481952943","0.1321246006","","","","","","","","","","","","","","72","H","0","img/none_selected.jpg","","66","main_expt",""
"","bandit","146","443003","0.0-108.0-0.0","35905813","wem/bandit_party_2","A37AWU2VH1ZIXX","either","5","369","","","","","","","0","0","1","0.1354395346","","0.2","0.4","0.8","0.6","","","","","0.07749417123","0.6503196648","0.1354395346","0.1441415222","","","","","","","","","","75","K","2","","","67","main_expt",""
"","bandit","147","444876","0.0-109.0-0.0","35905813","wem/bandit_party_2","A37AWU2VH1ZIXX","either","5","349","","","","","","","0","1","0","","0.7295955131","0.2","0.4","0.8","0.6","0.1606162296","0.7295955131","0.09431815687","0.1794787892","","","","","","","","","","","","","","74","J","1","","","68","main_expt",""
"","bandit","148","446922","0.0-110.0-0.0","35905813","wem/bandit_party_2","A37AWU2VH1ZIXX","either","5","507","","","","","","","1","0","0","0.7924649224","","0.2","0.4","0.8","0.6","","","","","0.1458723802","0.7924649224","0.09491494314","0.2467892919","","","","","","","","","","74","J","1","","","69","main_expt",""
"","bandit","149","448986","0.0-111.0-0.0","35905813","wem/bandit_party_2","A37AWU2VH1ZIXX","either","5","497","","","","","","","0","1","0","","0.7104550926","0.2","0.4","0.8","0.6","0.09936082334","0.7104550926","0.144379617","0.2683381141","","","","","","","","","","","","","","74","J","1","","","70","main_expt",""
"","bandit","150","450899","0.0-112.0-0.0","35905813","wem/bandit_party_2","A37AWU2VH1ZIXX","either","5","373","","","","","","","1","0","0","0.6350436987","","0.2","0.4","0.8","0.6","","","","","0.08487306657","0.6350436987","0.1522740794","0.3513633517","","","","","","","","","","74","J","1","","","71","main_expt",""
"","bandit","151","452767","0.0-113.0-0.0","35905813","wem/bandit_party_2","A37AWU2VH1ZIXX","either","5","322","","","","","","","0","0","1","","0.5987872161","0.2","0.4","0.8","0.6","0.08819471669","0.5987872161","0.1668466162","0.2914052368","","","","","","","","","","","","","","74","J","1","","","72","main_expt",""
"","bandit","152","455163","0.0-114.0-0.0","35905813","wem/bandit_party_2","A37AWU2VH1ZIXX","either","5","764","","","","","","","0","0","1","0.2877488323","","0.2","0.4","0.8","0.6","","","","","0.1283432424","0.5985066563","0.1896474075","0.2877488323","","","","","","","","","","76","L","3","","","73","main_expt",""
"","bandit","153","456817","0.0-115.0-0.0","35905813","wem/bandit_party_2","A37AWU2VH1ZIXX","either","5","126","","","","","","","0","0","1","0.2374421278","","0.2","0.4","0.8","0.6","","","","","0.09379917772","0.6384302553","0.2374421278","0.2562899571","","","","","","","","","","75","K","2","","","74","main_expt",""
"","bandit","154","459031","0.0-116.0-0.0","35905813","wem/bandit_party_2","A37AWU2VH1ZIXX","either","5","683","","","","","","","0","0","1","0.09049970266","","0.2","0.4","0.8","0.6","","","","","0.09049970266","0.5658832615","0.2083661751","0.2733605005","","","","","","","","","","72","H","0","img/none_selected.jpg","","75","main_expt",""
"","bandit","155","460837","0.0-117.0-0.0","35905813","wem/bandit_party_2","A37AWU2VH1ZIXX","either","5","273","","","","","","","0","1","0","","0.6242699585","0.2","0.4","0.8","0.6","0.08721668036","0.6242699585","0.2438220339","0.3937912108","","","","","","","","","","","","","","74","J","1","","","76","main_expt",""
"","bandit","156","462831","0.0-118.0-0.0","35905813","wem/bandit_party_2","A37AWU2VH1ZIXX","either","5","466","","","","","","","1","0","0","0.5744400186","","0.2","0.4","0.8","0.6","","","","","0.06435523183","0.5744400186","0.2688374605","0.2317864895","","","","","","","","","","74","J","1","","","77","main_expt",""
"","bandit","157","464709","0.0-119.0-0.0","35905813","wem/bandit_party_2","A37AWU2VH1ZIXX","either","5","353","","","","","","","0","1","0","","0.5888420407","0.2","0.4","0.8","0.6","0.0482567949","0.5888420407","0.354885782","0.1809738678","","","","","","","","","","","","","","74","J","1","","","78","main_expt",""
"","bandit","158","466586","0.0-120.0-0.0","35905813","wem/bandit_party_2","A37AWU2VH1ZIXX","either","5","349","","","","","","","0","0","1","","0.6367332082","0.2","0.4","0.8","0.6","0.0437210955","0.6367332082","0.3618930149","0.1139783564","","","","","","","","","","","","","","74","J","1","","","79","main_expt",""
"","bandit","159","468669","0.0-121.0-0.0","35905813","wem/bandit_party_2","A37AWU2VH1ZIXX","either","5","553","","","","","","","0","0","1","","0.6870764151","0.2","0.4","0.8","0.6","0.02877808334","0.6870764151","0.2656346555","0.08785846653","","","","","","","","","","","","","","74","J","1","","","80","main_expt",""
"","bandit","160","470581","0.0-122.0-0.0","35905813","wem/bandit_party_2","A37AWU2VH1ZIXX","either","5","379","","","","","","","1","0","0","0.594282643","","0.2","0.4","0.8","0.6","","","","","0.01921293631","0.594282643","0.4245431589","0.09113866108","","","","","","","","","","74","J","1","","","81","main_expt",""
"","bandit","161","472527","0.0-123.0-0.0","35905813","wem/bandit_party_2","A37AWU2VH1ZIXX","either","5","386","","","","","","","0","0","1","0.6134463007","","0.2","0.4","0.8","0.6","","","","","0.04933803159","0.6134463007","0.4469352605","0.1055231707","","","","","","","","","","74","J","1","","","82","main_expt",""
"","bandit","162","474642","0.0-124.0-0.0","35905813","wem/bandit_party_2","A37AWU2VH1ZIXX","either","5","569","","","","","","","1","0","0","0.4492602846","","0.2","0.4","0.8","0.6","","","","","0.03134335394","0.573719985","0.4492602846","0.09865920741","","","","","","","","","","75","K","2","","","83","main_expt",""
"","bandit","163","476560","0.0-125.0-0.0","35905813","wem/bandit_party_2","A37AWU2VH1ZIXX","either","5","396","","","","","","","1","0","0","0.4800113203","","0.2","0.4","0.8","0.6","","","","","0.08181594064","0.5666188995","0.4800113203","0.06745845416","","","","","","","","","","75","K","2","","","84","main_expt",""
"","bandit","164","478978","0.0-126.0-0.0","35905813","wem/bandit_party_2","A37AWU2VH1ZIXX","either","5","892","","","","","","","0","0","1","0.53417275","","0.2","0.4","0.8","0.6","","","","","0.09326949564","0.5161506384","0.53417275","0.05723787215","","","","","","","","","","75","K","2","","","85","main_expt",""
"","bandit","165","481302","0.0-127.0-0.0","35905813","wem/bandit_party_2","A37AWU2VH1ZIXX","either","5","780","","","","","","","0","0","1","0.04283717318","","0.2","0.4","0.8","0.6","","","","","0.1365856799","0.4408304524","0.4431594274","0.04283717318","","","","","","","","","","76","L","3","","","86","main_expt",""
"","bandit","166","483106","0.0-128.0-0.0","35905813","wem/bandit_party_2","A37AWU2VH1ZIXX","either","5","274","","","","","","","0","0","1","","0.1845868617","0.2","0.4","0.8","0.6","0.1845868617","0.4926691315","0.4135642243","0.04801612347","","","","","","","","","","","","","","72","H","0","img/none_selected.jpg","","87","main_expt",""
"","bandit","167","484884","0.0-129.0-0.0","35905813","wem/bandit_party_2","A37AWU2VH1ZIXX","either","5","245","","","","","","","0","0","1","0.4785462387","","0.2","0.4","0.8","0.6","","","","","0.2304222619","0.6047228172","0.4785462387","0.1154775412","","","","","","","","","","75","K","2","","","88","main_expt",""
"","bandit","168","486416","0.0-130.0-0.0","35905813","wem/bandit_party_2","A37AWU2VH1ZIXX","either","5","7","","","","","","","0","1","0","","0.5311406509","0.2","0.4","0.8","0.6","0.1408060154","0.5311406509","0.6395163219","0.1308375778","","","","","","","","","","","","","","74","J","1","","","89","main_expt",""
"","bandit","169","488383","0.0-131.0-0.0","35905813","wem/bandit_party_2","A37AWU2VH1ZIXX","either","5","443","","","","","","","0","1","0","","0.6262376813","0.2","0.4","0.8","0.6","0.1870966622","0.6262376813","0.6143207643","0.07282967421","","","","","","","","","","","","","","74","J","1","","","90","main_expt",""
"","bandit","170","489933","0.0-132.0-0.0","35905813","wem/bandit_party_2","A37AWU2VH1ZIXX","either","5","20","","","","","","","0","1","0","","0.690423555","0.2","0.4","0.8","0.6","0.192698437","0.690423555","0.446485487","0.07599207753","","","","","","","","","","","","","","74","J","1","","","91","main_expt",""
"","bandit","171","491961","0.0-133.0-0.0","35905813","wem/bandit_party_2","A37AWU2VH1ZIXX","either","5","486","","","","","","","1","0","0","0.6517149298","","0.2","0.4","0.8","0.6","","","","","0.1683480261","0.6517149298","0.5169677416","0.04323911508","","","","","","","","","","74","J","1","","","92","main_expt",""
"","bandit","172","493951","0.0-134.0-0.0","35905813","wem/bandit_party_2","A37AWU2VH1ZIXX","either","5","451","","","","","","","1","0","0","0.5656193004","","0.2","0.4","0.8","0.6","","","","","0.1330499919","0.5656193004","0.4242737166","0.04253576945","","","","","","","","","","74","J","1","","","93","main_expt",""
"","bandit","173","496032","0.0-135.0-0.0","35905813","wem/bandit_party_2","A37AWU2VH1ZIXX","either","5","533","","","","","","","0","0","1","","0.4344563295","0.2","0.4","0.8","0.6","0.1880917327","0.4344563295","0.3479993201","0.04534385772","","","","","","","","","","","","","","74","J","1","","","94","main_expt",""
"","bandit","174","498063","0.0-136.0-0.0","35905813","wem/bandit_party_2","A37AWU2VH1ZIXX","either","5","508","","","","","","","0","0","1","0.3701135783","","0.2","0.4","0.8","0.6","","","","","0.1867575465","0.5651083109","0.3701135783","0.03318992591","","","","","","","","","","75","K","2","","","95","main_expt",""
"","bandit","175","500061","0.0-137.0-0.0","35905813","wem/bandit_party_2","A37AWU2VH1ZIXX","either","5","443","","","","","","","0","1","0","","0.3430407586","0.2","0.4","0.8","0.6","0.2231999883","0.5348041914","0.3430407586","0.03408771876","","","","","","","","","","","","","","75","K","2","","","96","main_expt",""
"","bandit","176","502346","0.0-138.0-0.0","35905813","wem/bandit_party_2","A37AWU2VH1ZIXX","either","5","759","","","","","","","0","0","1","0.2876443713","","0.2","0.4","0.8","0.6","","","","","0.2149045243","0.5627844697","0.2876443713","0.05013144164","","","","","","","","","","75","K","2","","","97","main_expt",""
"","bandit","177","504297","0.0-139.0-0.0","35905813","wem/bandit_party_2","A37AWU2VH1ZIXX","either","5","422","","","","","","","0","0","1","0.03739082544","","0.2","0.4","0.8","0.6","","","","","0.1963416079","0.6177525637","0.3310412313","0.03739082544","","","","","","","","","","76","L","3","","","98","main_expt",""
"","bandit","178","506127","0.0-140.0-0.0","35905813","wem/bandit_party_2","A37AWU2VH1ZIXX","either","5","297","","","","","","","0","0","1","","0.7429557604","0.2","0.4","0.8","0.6","0.1659387142","0.7429557604","0.3893078888","0.1018336486","","","","","","","","","","","","","","74","J","1","","","99","main_expt",""
"","bandit","179","507703","0.0-141.0-0.0","35905813","wem/bandit_party_2","A37AWU2VH1ZIXX","either","5","46","","","","","","","0","0","1","","0.145948344","0.2","0.4","0.8","0.6","0.145948344","0.6717563967","0.4049224607","0.1398961818","","","","","","","","","","","","","","72","H","0","img/none_selected.jpg","","100","main_expt",""
"","bandit","180","509230","0.0-142.0-0.0","35905813","wem/bandit_party_2","A37AWU2VH1ZIXX","either","5","0","","","","","","","0","0","1","0.3259939159","","0.2","0.4","0.8","0.6","","","","","0.1366695263","0.6929666651","0.3259939159","0.1830356504","","","","","","","","","","75","K","2","","","101","main_expt",""
"","bandit","181","510776","0.0-143.0-0.0","35905813","wem/bandit_party_2","A37AWU2VH1ZIXX","either","5","13","","","","","","","1","0","0","0.6827494989","","0.2","0.4","0.8","0.6","","","","","0.1543059156","0.6827494989","0.3598161211","0.1396005595","","","","","","","","","","74","J","1","","","102","main_expt",""
"","bandit","182","512783","0.0-144.0-0.0","35905813","wem/bandit_party_2","A37AWU2VH1ZIXX","either","5","439","","","","","","","0","0","1","","0.7315485361","0.2","0.4","0.8","0.6","0.1484193465","0.7315485361","0.3385951472","0.0853830874","","","","","","","","","","","","","","74","J","1","","","103","main_expt",""
"","bandit","183","514745","0.0-145.0-0.0","35905813","wem/bandit_party_2","A37AWU2VH1ZIXX","either","5","407","","","","","","","0","0","1","","0.6852971926","0.2","0.4","0.8","0.6","0.1516288854","0.6852971926","0.4881545817","0.09317924201","","","","","","","","","","","","","","74","J","1","","","104","main_expt",""
"","bandit","184","516726","0.0-146.0-0.0","35905813","wem/bandit_party_2","A37AWU2VH1ZIXX","either","5","399","","","","","","","0","0","1","","0.693594393","0.2","0.4","0.8","0.6","0.1283123627","0.693594393","0.4790883063","0.08203708102","","","","","","","","","","","","","","74","J","1","","","105","main_expt",""
"","bandit","185","519122","0.0-147.0-0.0","35905813","wem/bandit_party_2","A37AWU2VH1ZIXX","either","5","862","","","","","","","0","0","1","","0.07160056992","0.2","0.4","0.8","0.6","0.2016068708","0.6101065231","0.4354998123","0.07160056992","","","","","","","","","","","","","","76","L","3","","","106","main_expt",""
"","bandit","186","521034","0.0-148.0-0.0","35905813","wem/bandit_party_2","A37AWU2VH1ZIXX","either","5","363","","","","","","","0","1","0","","0.5549317608","0.2","0.4","0.8","0.6","0.2344181992","0.5549317608","0.4789065637","0.09799112372","","","","","","","","","","","","","","74","J","1","","","107","main_expt",""
"","bandit","187","523147","0.0-149.0-0.0","35905813","wem/bandit_party_2","A37AWU2VH1ZIXX","either","5","572","","","","","","","1","0","0","0.5753690117","","0.2","0.4","0.8","0.6","","","","","0.2234564856","0.5753690117","0.2921896665","0.1101799882","","","","","","","","","","74","J","1","","","108","main_expt",""
"","bandit","188","525101","0.0-150.0-0.0","35905813","wem/bandit_party_2","A37AWU2VH1ZIXX","either","5","421","","","","","","","0","0","1","","0.5748544728","0.2","0.4","0.8","0.6","0.2494485671","0.5748544728","0.3545905428","0.07189968831","","","","","","","","","","","","","","74","J","1","","","109","main_expt",""
"","bandit","189","526727","0.0-151.0-0.0","35905813","wem/bandit_party_2","A37AWU2VH1ZIXX","either","5","93","","","","","","","0","0","1","","0.3110769573","0.2","0.4","0.8","0.6","0.2804015825","0.6473038793","0.3110769573","0.06101418375","","","","","","","","","","","","","","75","K","2","","","110","main_expt",""
"","bandit","190","529233","0.0-152.0-0.0","35905813","wem/bandit_party_2","A37AWU2VH1ZIXX","either","5","971","","","","","","","0","1","0","","0.254644275","0.2","0.4","0.8","0.6","0.254644275","0.6296147118","0.3673577619","0.1032726654","","","","","","","","","","","","","","72","H","0","img/none_selected.jpg","","111","main_expt",""
"","bandit","191","531172","0.0-153.0-0.0","35905813","wem/bandit_party_2","A37AWU2VH1ZIXX","either","5","407","","","","","","","0","0","1","","0.2686709136","0.2","0.4","0.8","0.6","0.2686709136","0.6174722021","0.3439961468","0.1061240248","","","","","","","","","","","","","","72","H","0","img/none_selected.jpg","","112","main_expt",""
"","bandit","192","532925","0.0-154.0-0.0","35905813","wem/bandit_party_2","A37AWU2VH1ZIXX","either","5","117","","","","","","","0","0","1","","0.1150632514","0.2","0.4","0.8","0.6","0.3211503982","0.7467975424","0.3389202036","0.1150632514","","","","","","","","","","","","","","76","L","3","","","113","main_expt",""
"","bandit","193","534813","0.0-155.0-0.0","35905813","wem/bandit_party_2","A37AWU2VH1ZIXX","either","5","355","","","","","","","0","0","1","0.3067152309","","0.2","0.4","0.8","0.6","","","","","0.3067152309","0.7797220863","0.3122185675","0.1491479201","","","","","","","","","","72","H","0","img/none_selected.jpg","","114","main_expt",""
"","bandit","194","537208","0.0-156.0-0.0","35905813","wem/bandit_party_2","A37AWU2VH1ZIXX","either","5","865","","","","","","","0","0","1","","0.8152411921","0.2","0.4","0.8","0.6","0.3274584286","0.8152411921","0.2431064996","0.08304421353","","","","","","","","","","","","","","74","J","1","","","115","main_expt",""
"","bandit","195","539587","0.0-157.0-0.0","35905813","wem/bandit_party_2","A37AWU2VH1ZIXX","either","5","835","","","","","","","0","0","1","","0.2491959293","0.2","0.4","0.8","0.6","0.2491959293","0.7362727539","0.2225404561","0.1391191417","","","","","","","","","","","","","","72","H","0","img/none_selected.jpg","","116","main_expt",""
"","bandit","196","541527","0.0-158.0-0.0","35905813","wem/bandit_party_2","A37AWU2VH1ZIXX","either","5","384","","","","","","","0","0","1","0.1689833708","","0.2","0.4","0.8","0.6","","","","","0.1425156065","0.7051771602","0.2891792411","0.1689833708","","","","","","","","","","76","L","3","","","117","main_expt",""
"","bandit","197","543392","0.0-159.0-0.0","35905813","wem/bandit_party_2","A37AWU2VH1ZIXX","either","5","329","","","","","","","0","0","1","0.3147139712","","0.2","0.4","0.8","0.6","","","","","0.1550025764","0.7099604309","0.3147139712","0.1341186766","","","","","","","","","","75","K","2","","","118","main_expt",""
"","bandit","198","545422","0.0-160.0-0.0","35905813","wem/bandit_party_2","A37AWU2VH1ZIXX","either","5","497","","","","","","","0","0","1","0.1211065448","","0.2","0.4","0.8","0.6","","","","","0.1733664784","0.6633752461","0.4890071061","0.1211065448","","","","","","","","","","76","L","3","","","119","main_expt",""
"","bandit","199","547280","0.0-161.0-0.0","35905813","wem/bandit_party_2","A37AWU2VH1ZIXX","either","5","315","","","","","","","0","0","1","0.6748815414","","0.2","0.4","0.8","0.6","","","","","0.2091577514","0.6748815414","0.5238994176","0.1317257861","","","","","","","","","","74","J","1","","","120","main_expt",""
"","bandit","200","549319","0.0-162.0-0.0","35905813","wem/bandit_party_2","A37AWU2VH1ZIXX","either","5","502","","","","","","","0","0","1","","0.2038206067","0.2","0.4","0.8","0.6","0.2038206067","0.694041989","0.4821854017","0.08851148741","","","","","","","","","","","","","","72","H","0","img/none_selected.jpg","","121","main_expt",""
"","bandit","201","551340","0.0-163.0-0.0","35905813","wem/bandit_party_2","A37AWU2VH1ZIXX","either","5","470","","","","","","","1","0","0","0.5695824443","","0.2","0.4","0.8","0.6","","","","","0.1646827865","0.7808088803","0.5695824443","0.1313095228","","","","","","","","","","75","K","2","","","122","main_expt",""
"","bandit","202","553371","0.0-164.0-0.0","35905813","wem/bandit_party_2","A37AWU2VH1ZIXX","either","5","453","","","","","","","0","0","1","0.5884468641","","0.2","0.4","0.8","0.6","","","","","0.08951947698","0.7513243775","0.5884468641","0.1990721176","","","","","","","","","","75","K","2","","","123","main_expt",""
"","bandit","203","555036","0.0-165.0-0.0","35905813","wem/bandit_party_2","A37AWU2VH1ZIXX","either","5","95","","","","","","","0","0","1","","0.3510587203","0.2","0.4","0.8","0.6","0.09676311751","0.7095593687","0.6578864121","0.3510587203","","","","","","","","","","","","","","76","L","3","","","124","main_expt",""
"","bandit","204","557023","0.0-166.0-0.0","35905813","wem/bandit_party_2","A37AWU2VH1ZIXX","either","5","457","","","","","","","1","0","0","0.6464373278","","0.2","0.4","0.8","0.6","","","","","0.08914634913","0.6464373278","0.6610648035","0.2829787335","","","","","","","","","","74","J","1","","","125","main_expt",""
"","bandit","205","559299","0.0-167.0-0.0","35905813","wem/bandit_party_2","A37AWU2VH1ZIXX","either","5","684","","","","","","","0","1","0","","0.69855693","0.2","0.4","0.8","0.6","0.1104844084","0.69855693","0.6745370829","0.3253732313","","","","","","","","","","","","","","74","J","1","","","126","main_expt",""
"","bandit","206","563222","0.0-168.0-0.0","35905813","wem/bandit_party_2","A37AWU2VH1ZIXX","either","5","2311","","","","","","","1","0","0","0.6394960802","","0.2","0.4","0.8","0.6","","","","","0.1302598269","0.6394960802","0.6357656308","0.2969307539","","","","","","","","","","74","J","1","","","127","main_expt",""
"","bandit","207","565298","0.0-169.0-0.0","35905813","wem/bandit_party_2","A37AWU2VH1ZIXX","either","5","524","","","","","","","1","0","0","0.5912569563","","0.2","0.4","0.8","0.6","","","","","0.1739983423","0.5912569563","0.6746479632","0.3862322559","","","","","","","","","","74","J","1","","","128","main_expt",""
"","bandit","208","567541","0.0-170.0-0.0","35905813","wem/bandit_party_2","A37AWU2VH1ZIXX","either","5","655","","","","","","","0","0","1","0.6408154383","","0.2","0.4","0.8","0.6","","","","","0.2144078185","0.6408154383","0.609360971","0.3399993615","","","","","","","","","","74","J","1","","","129","main_expt",""
"","bandit","209","570053","0.0-171.0-0.0","35905813","wem/bandit_party_2","A37AWU2VH1ZIXX","either","5","973","","","","","","","1","0","0","0.5791775941","","0.2","0.4","0.8","0.6","","","","","0.2133227205","0.6160079471","0.5791775941","0.4343217783","","","","","","","","","","75","K","2","","","130","main_expt",""
"","bandit","210","572671","0.0-172.0-0.0","35905813","wem/bandit_party_2","A37AWU2VH1ZIXX","either","5","967","","","","","","","0","1","0","","0.6039133906","0.2","0.4","0.8","0.6","0.3009586135","0.6639311205","0.6039133906","0.4116870082","","","","","","","","","","","","","","75","K","2","","","131","main_expt",""
"","bandit","211","576210","0.0-173.0-0.0","35905813","wem/bandit_party_2","A37AWU2VH1ZIXX","either","5","2000","","","","","","","0","1","0","","0.5564977279","0.2","0.4","0.8","0.6","0.3257006372","0.7314418876","0.5564977279","0.3235444519","","","","","","","","","","","","","","75","K","2","","","132","main_expt",""
"","bandit","212","578556","0.0-174.0-0.0","35905813","wem/bandit_party_2","A37AWU2VH1ZIXX","either","5","796","","","","","","","0","0","1","0.5453182718","","0.2","0.4","0.8","0.6","","","","","0.3286432436","0.7343064015","0.5453182718","0.4204005917","","","","","","","","","","75","K","2","","","133","main_expt",""
"","bandit","213","580547","0.0-175.0-0.0","35905813","wem/bandit_party_2","A37AWU2VH1ZIXX","either","5","429","","","","","","","0","1","0","","0.5326734174","0.2","0.4","0.8","0.6","0.3343575241","0.6345074403","0.5557967555","0.5326734174","","","","","","","","","","","","","","76","L","3","","","134","main_expt",""
"","bandit","214","583091","0.0-176.0-0.0","35905813","wem/bandit_party_2","A37AWU2VH1ZIXX","either","5","1012","","","","","","","0","0","1","0.6096825818","","0.2","0.4","0.8","0.6","","","","","0.2917270645","0.752921597","0.5719827955","0.6096825818","","","","","","","","","","76","L","3","","","135","main_expt",""
"","bandit","215","585078","0.0-177.0-0.0","35905813","wem/bandit_party_2","A37AWU2VH1ZIXX","either","5","459","","","","","","","0","1","0","","0.3972485531","0.2","0.4","0.8","0.6","0.3972485531","0.7642539739","0.4756276611","0.6827328332","","","","","","","","","","","","","","72","H","0","img/none_selected.jpg","","136","main_expt",""
"","bandit","216","587623","0.0-178.0-0.0","35905813","wem/bandit_party_2","A37AWU2VH1ZIXX","either","5","1014","","","","","","","0","1","0","","0.4294090248","0.2","0.4","0.8","0.6","0.4294090248","0.7166238274","0.5078949877","0.6604068036","","","","","","","","","","","","","","72","H","0","img/none_selected.jpg","","137","main_expt",""
"","bandit","217","589800","0.0-179.0-0.0","35905813","wem/bandit_party_2","A37AWU2VH1ZIXX","either","5","623","","","","","","","0","0","1","","0.5009988565","0.2","0.4","0.8","0.6","0.5009988565","0.713549589","0.4938131475","0.653661868","","","","","","","","","","","","","","72","H","0","img/none_selected.jpg","","138","main_expt",""
"","bandit","218","591892","0.0-180.0-0.0","35905813","wem/bandit_party_2","A37AWU2VH1ZIXX","either","5","527","","","","","","","1","0","0","0.654612375","","0.2","0.4","0.8","0.6","","","","","0.4993746949","0.6905374229","0.654612375","0.6169918179","","","","","","","","","","75","K","2","","","139","main_expt",""
"","bandit","219","593933","0.0-181.0-0.0","35905813","wem/bandit_party_2","A37AWU2VH1ZIXX","either","5","413","","","","","","","1","0","0","0.52663091","","0.2","0.4","0.8","0.6","","","","","0.5448973659","0.6614813372","0.52663091","0.6657435074","","","","","","","","","","75","K","2","","","140","main_expt",""
"","bandit","220","595956","0.0-182.0-0.0","35905813","wem/bandit_party_2","A37AWU2VH1ZIXX","either","5","387","","","","","","","1","0","0","0.5976356642","","0.2","0.4","0.8","0.6","","","","","0.4829720837","0.7024355817","0.5976356642","0.6349341703","","","","","","","","","","75","K","2","","","141","main_expt",""
"","bandit","221","597812","0.0-183.0-0.0","35905813","wem/bandit_party_2","A37AWU2VH1ZIXX","either","5","318","","","","","","","0","0","1","","0.5956183516","0.2","0.4","0.8","0.6","0.5402580016","0.7185929435","0.5956183516","0.6379356982","","","","","","","","","","","","","","75","K","2","","","142","main_expt",""
"","bandit","222","600036","0.0-184.0-0.0","35905813","wem/bandit_party_2","A37AWU2VH1ZIXX","either","5","569","","","","","","","1","0","0","0.6240660549","","0.2","0.4","0.8","0.6","","","","","0.5478015274","0.6240660549","0.6432894639","0.6022688156","","","","","","","","","","74","J","1","","","143","main_expt",""
"","bandit","223","601984","0.0-185.0-0.0","35905813","wem/bandit_party_2","A37AWU2VH1ZIXX","either","5","387","","","","","","","0","0","1","","0.5797935966","0.2","0.4","0.8","0.6","0.5189832842","0.5797935966","0.6691106198","0.5806731621","","","","","","","","","","","","","","74","J","1","","","144","main_expt",""
"","bandit","224","603985","0.0-186.0-0.0","35905813","wem/bandit_party_2","A37AWU2VH1ZIXX","either","5","430","","","","","","","0","1","0","","0.5512406412","0.2","0.4","0.8","0.6","0.4556604905","0.520403766","0.677031803","0.5512406412","","","","","","","","","","","","","","76","L","3","","","145","main_expt",""
"","bandit","225","606343","0.0-187.0-0.0","35905813","wem/bandit_party_2","A37AWU2VH1ZIXX","either","5","830","","","","","","","0","0","1","","0.6055708535","0.2","0.4","0.8","0.6","0.48011385","0.5330345992","0.6697886415","0.6055708535","","","","","","","","","","","","","","76","L","3","","","146","main_expt",""
"","bandit","226","608314","0.0-188.0-0.0","35905813","wem/bandit_party_2","A37AWU2VH1ZIXX","either","5","443","","","","","","","1","0","0","0.7101623398","","0.2","0.4","0.8","0.6","","","","","0.5363471167","0.5692896821","0.7101623398","0.5711328773","","","","","","","","","","75","K","2","","","147","main_expt",""
"","bandit","227","610321","0.0-189.0-0.0","35905813","wem/bandit_party_2","A37AWU2VH1ZIXX","either","5","477","","","","","","","1","0","0","0.733230793","","0.2","0.4","0.8","0.6","","","","","0.4929714004","0.4877368026","0.733230793","0.4258462921","","","","","","","","","","75","K","2","","","148","main_expt",""
"","bandit","228","612195","0.0-190.0-0.0","35905813","wem/bandit_party_2","A37AWU2VH1ZIXX","either","5","338","","","","","","","1","0","0","0.7010449773","","0.2","0.4","0.8","0.6","","","","","0.4356177925","0.5936336812","0.7010449773","0.327967402","","","","","","","","","","75","K","2","","","149","main_expt",""
"","bandit","229","614335","0.0-191.0-0.0","35905813","wem/bandit_party_2","A37AWU2VH1ZIXX","either","5","570","","","","","","","0","0","1","","0.6668672445","0.2","0.4","0.8","0.6","0.4054894896","0.7027445866","0.6668672445","0.4343474627","","","","","","","","","","","","","","75","K","2","","","150","main_expt",""
"","bandit","230","615925","0.0-192.0-0.0","35905813","wem/bandit_party_2","A37AWU2VH1ZIXX","either","5","28","","","","","","","0","0","1","","0.7690633033","0.2","0.4","0.8","0.6","0.5283130311","0.7690633033","0.5612636021","0.5382828223","","","","","","","","","","","","","","74","J","1","","","151","main_expt",""
"","bandit","231","617965","0.0-193.0-0.0","35905813","wem/bandit_party_2","A37AWU2VH1ZIXX","either","5","423","","","","","","","1","0","0","0.5989969619","","0.2","0.4","0.8","0.6","","","","","0.6323123958","0.5989969619","0.7032448324","0.6572277468","","","","","","","","","","74","J","1","","","152","main_expt",""
"","bandit","232","619840","0.0-194.0-0.0","35905813","wem/bandit_party_2","A37AWU2VH1ZIXX","either","5","344","","","","","","","0","0","1","","0.6918543646","0.2","0.4","0.8","0.6","0.5847243132","0.6126787421","0.6918543646","0.668560183","","","","","","","","","","","","","","75","K","2","","","153","main_expt",""
"","bandit","233","621773","0.0-195.0-0.0","35905813","wem/bandit_party_2","A37AWU2VH1ZIXX","either","5","392","","","","","","","0","1","0","","0.5461115941","0.2","0.4","0.8","0.6","0.4285456013","0.5461115941","0.647195156","0.6954524596","","","","","","","","","","","","","","74","J","1","","","154","main_expt",""
"","bandit","234","623835","0.0-196.0-0.0","35905813","wem/bandit_party_2","A37AWU2VH1ZIXX","either","5","485","","","","","","","1","0","0","0.5456348337","","0.2","0.4","0.8","0.6","","","","","0.4772645207","0.5456348337","0.6135998722","0.5684527538","","","","","","","","","","74","J","1","","","155","main_expt",""
"","bandit","235","628265","0.0-197.0-0.0","35905813","wem/bandit_party_2","A37AWU2VH1ZIXX","either","5","2833","","","","","","","0","0","1","0.4782917504","","0.2","0.4","0.8","0.6","","","","","0.4982711843","0.4782917504","0.5591033916","0.6034375159","","","","","","","","","","74","J","1","","","156","main_expt",""
"","bandit","236","630133","0.0-198.0-0.0","35905813","wem/bandit_party_2","A37AWU2VH1ZIXX","either","5","291","","","","","","","1","0","0","0.5835723018","","0.2","0.4","0.8","0.6","","","","","0.5275183668","0.4868537485","0.5090787948","0.5835723018","","","","","","","","","","76","L","3","","","157","main_expt",""
"","bandit","237","632236","0.0-199.0-0.0","35905813","wem/bandit_party_2","A37AWU2VH1ZIXX","either","5","470","","","","","","","0","1","0","","0.5234712835","0.2","0.4","0.8","0.6","0.4489423754","0.5361642224","0.6087372924","0.5234712835","","","","","","","","","","","","","","76","L","3","","","158","main_expt",""
"","bandit","238","634612","0.0-200.0-0.0","35905813","wem/bandit_party_2","A37AWU2VH1ZIXX","either","5","616","","","","","","","1","0","0","0.5636881177","","0.2","0.4","0.8","0.6","","","","","0.4933275403","0.4947944436","0.6064578463","0.5636881177","","","","","","","","","","76","L","3","","","159","main_expt",""
"","bandit","239","636662","0.0-201.0-0.0","35905813","wem/bandit_party_2","A37AWU2VH1ZIXX","either","5","414","","","","","","","0","0","1","0.4785340868","","0.2","0.4","0.8","0.6","","","","","0.4521998099","0.5106889885","0.6951258233","0.4785340868","","","","","","","","","","76","L","3","","","160","main_expt",""
"","bandit","240","640172","0.0-202.0-0.0","35905813","wem/bandit_party_2","A37AWU2VH1ZIXX","either","5","1898","","","","","","","0","0","1","0.7129510734","","0.2","0.4","0.8","0.6","","","","","0.5114636712","0.4566704777","0.7129510734","0.5038962889","","","","","","","","","","75","K","2","","","161","main_expt",""
"","bandit","241","642434","0.0-203.0-0.0","35905813","wem/bandit_party_2","A37AWU2VH1ZIXX","either","5","697","","","","","","","0","0","1","","0.3259271754","0.2","0.4","0.8","0.6","0.5242674757","0.3259271754","0.7028034005","0.4448395692","","","","","","","","","","","","","","74","J","1","","","162","main_expt",""
"","bandit","242","644283","0.0-204.0-0.0","35905813","wem/bandit_party_2","A37AWU2VH1ZIXX","either","5","237","","","","","","","0","1","0","","0.5687322637","0.2","0.4","0.8","0.6","0.5687322637","0.2806734392","0.6293758899","0.471982621","","","","","","","","","","","","","","72","H","0","img/none_selected.jpg","","163","main_expt",""
"","bandit","243","646665","0.0-205.0-0.0","35905813","wem/bandit_party_2","A37AWU2VH1ZIXX","either","5","769","","","","","","","0","0","1","","0.5635146256","0.2","0.4","0.8","0.6","0.5635146256","0.2973163189","0.6813427096","0.6517066897","","","","","","","","","","","","","","72","H","0","img/none_selected.jpg","","164","main_expt",""
"","bandit","244","648882","0.0-206.0-0.0","35905813","wem/bandit_party_2","A37AWU2VH1ZIXX","either","5","395","","","","","","","0","0","1","0.6339143586","","0.2","0.4","0.8","0.6","","","","","0.6588968294","0.2872552927","0.7231406025","0.6339143586","","","","","","","","","","76","L","3","","","165","main_expt",""
"","bandit","245","651237","0.0-207.0-0.0","35905813","wem/bandit_party_2","A37AWU2VH1ZIXX","either","5","550","","","","","","","1","0","0","0.6274448994","","0.2","0.4","0.8","0.6","","","","","0.74872254","0.325395791","0.6274448994","0.6507743373","","","","","","","","","","75","K","2","","","166","main_expt",""
"","bandit","246","653431","0.0-208.0-0.0","35905813","wem/bandit_party_2","A37AWU2VH1ZIXX","either","5","609","","","","","","","1","0","0","0.6778384319","","0.2","0.4","0.8","0.6","","","","","0.7741304825","0.3307719744","0.6778384319","0.6753437353","","","","","","","","","","75","K","2","","","167","main_expt",""
"","bandit","247","655619","0.0-209.0-0.0","35905813","wem/bandit_party_2","A37AWU2VH1ZIXX","either","5","393","","","","","","","1","0","0","0.6928942004","","0.2","0.4","0.8","0.6","","","","","0.8873722237","0.4033689778","0.6928942004","0.6308788189","","","","","","","","","","75","K","2","","","168","main_expt",""
"","bandit","248","658228","0.0-210.0-0.0","35905813","wem/bandit_party_2","A37AWU2VH1ZIXX","either","5","1004","","","","","","","0","1","0","","0.6181376835","0.2","0.4","0.8","0.6","0.8649989169","0.4089274666","0.6181376835","0.6289357746","","","","","","","","","","","","","","75","K","2","","","169","main_expt",""
"","bandit","249","660522","0.0-211.0-0.0","35905813","wem/bandit_party_2","A37AWU2VH1ZIXX","either","5","763","","","","","","","0","0","1","0.6539136718","","0.2","0.4","0.8","0.6","","","","","0.8634323334","0.4033631647","0.6539136718","0.6308829817","","","","","","","","","","75","K","2","","","170","main_expt",""
"","bandit","250","662646","0.0-212.0-0.0","35905813","wem/bandit_party_2","A37AWU2VH1ZIXX","either","5","586","","","","","","","1","0","0","0.3743415885","","0.2","0.4","0.8","0.6","","","","","0.8050812792","0.3743415885","0.7935188527","0.6008061885","","","","","","","","","","74","J","1","","","171","main_expt",""
"","bandit","251","665399","0.0-213.0-0.0","35905813","wem/bandit_party_2","A37AWU2VH1ZIXX","either","5","1198","","","","","","","0","0","1","","0.4145867416","0.2","0.4","0.8","0.6","0.7635000848","0.4145867416","0.7959482017","0.6498855282","","","","","","","","","","","","","","74","J","1","","","172","main_expt",""
"","bandit","252","667110","0.0-214.0-0.0","35905813","wem/bandit_party_2","A37AWU2VH1ZIXX","either","5","175","","","","","","","0","0","1","0.6361658802","","0.2","0.4","0.8","0.6","","","","","0.7793560846","0.4421490518","0.7720377381","0.6361658802","","","","","","","","","","76","L","3","","","173","main_expt",""
"","bandit","253","668945","0.0-215.0-0.0","35905813","wem/bandit_party_2","A37AWU2VH1ZIXX","either","5","212","","","","","","","0","1","0","","0.7290013271","0.2","0.4","0.8","0.6","0.7290013271","0.373112653","0.7751150559","0.5494915933","","","","","","","","","","","","","","72","H","0","img/none_selected.jpg","","174","main_expt",""
"","bandit","254","671436","0.0-216.0-0.0","35905813","wem/bandit_party_2","A37AWU2VH1ZIXX","either","5","835","","","","","","","0","0","1","","0.8353873757","0.2","0.4","0.8","0.6","0.8353873757","0.372221374","0.7699246652","0.6292002022","","","","","","","","","","","","","","72","H","0","img/none_selected.jpg","","175","main_expt",""
"","bandit","255","673409","0.0-217.0-0.0","35905813","wem/bandit_party_2","A37AWU2VH1ZIXX","either","5","443","","","","","","","1","0","0","0.8092821718","","0.2","0.4","0.8","0.6","","","","","0.8589437223","0.3594456443","0.8092821718","0.4999600136","","","","","","","","","","75","K","2","","","176","main_expt",""
"","bandit","256","675395","0.0-218.0-0.0","35905813","wem/bandit_party_2","A37AWU2VH1ZIXX","either","5","427","","","","","","","1","0","0","0.7728258073","","0.2","0.4","0.8","0.6","","","","","0.8824379228","0.3705823864","0.7728258073","0.4500304274","","","","","","","","","","75","K","2","","","177","main_expt",""
"","bandit","257","677433","0.0-219.0-0.0","35905813","wem/bandit_party_2","A37AWU2VH1ZIXX","either","5","445","","","","","","","1","0","0","0.8128952128","","0.2","0.4","0.8","0.6","","","","","0.8862787626","0.3042584581","0.8128952128","0.4626099748","","","","","","","","","","75","K","2","","","178","main_expt",""
"","bandit","258","679364","0.0-220.0-0.0","35905813","wem/bandit_party_2","A37AWU2VH1ZIXX","either","5","378","","","","","","","1","0","0","0.7878088044","","0.2","0.4","0.8","0.6","","","","","0.8851661012","0.3056645996","0.7878088044","0.3074659707","","","","","","","","","","75","K","2","","","179","main_expt",""
"","bandit","259","681287","0.0-221.0-0.0","35905813","wem/bandit_party_2","A37AWU2VH1ZIXX","either","5","393","","","","","","","0","0","1","0.7626215198","","0.2","0.4","0.8","0.6","","","","","0.8623840347","0.3124458775","0.7626215198","0.2445312817","","","","","","","","","","75","K","2","","","180","main_expt",""
"","bandit","260","683332","0.0-222.0-0.0","35905813","wem/bandit_party_2","A37AWU2VH1ZIXX","either","5","504","","","","","","","0","1","0","","0.2597333415","0.2","0.4","0.8","0.6","0.8815853427","0.2597333415","0.7059637017","0.2284870313","","","","","","","","","","","","","","74","J","1","","","181","main_expt",""
"","bandit","261","685490","0.0-223.0-0.0","35905813","wem/bandit_party_2","A37AWU2VH1ZIXX","either","5","502","","","","","","","0","0","1","0.2117009826","","0.2","0.4","0.8","0.6","","","","","0.8955826305","0.2117009826","0.6691747745","0.2195648065","","","","","","","","","","74","J","1","","","182","main_expt",""
"","bandit","262","687676","0.0-224.0-0.0","35905813","wem/bandit_party_2","A37AWU2VH1ZIXX","either","5","613","","","","","","","0","0","1","0.2327716204","","0.2","0.4","0.8","0.6","","","","","0.9362873759","0.2327762041","0.5523838876","0.2327716204","","","","","","","","","","76","L","3","","","183","main_expt",""
"","bandit","263","689619","0.0-225.0-0.0","35905813","wem/bandit_party_2","A37AWU2VH1ZIXX","either","5","300","","","","","","","1","0","0","0.9484326647","","0.2","0.4","0.8","0.6","","","","","0.9484326647","0.2750618684","0.5451875246","0.3207903029","","","","","","","","","","72","H","0","img/none_selected.jpg","","184","main_expt",""
"","bandit","264","691569","0.0-226.0-0.0","35905813","wem/bandit_party_2","A37AWU2VH1ZIXX","either","5","396","","","","","","","0","1","0","","0.9660783121","0.2","0.4","0.8","0.6","0.9660783121","0.2305846964","0.6090771744","0.3609723674","","","","","","","","","","","","","","72","H","0","img/none_selected.jpg","","185","main_expt",""
"","bandit","265","693608","0.0-227.0-0.0","35905813","wem/bandit_party_2","A37AWU2VH1ZIXX","either","5","410","","","","","","","0","1","0","","0.9665376101","0.2","0.4","0.8","0.6","0.9665376101","0.2597669424","0.5810996076","0.4442397518","","","","","","","","","","","","","","72","H","0","img/none_selected.jpg","","186","main_expt",""
"","bandit","266","695677","0.0-228.0-0.0","35905813","wem/bandit_party_2","A37AWU2VH1ZIXX","either","5","460","","","","","","","1","0","0","0.9644184371","","0.2","0.4","0.8","0.6","","","","","0.9644184371","0.2143742246","0.4445572548","0.4478442549","","","","","","","","","","72","H","0","img/none_selected.jpg","","187","main_expt",""
"","bandit","267","697786","0.0-229.0-0.0","35905813","wem/bandit_party_2","A37AWU2VH1ZIXX","either","5","574","","","","","","","0","1","0","","0.9731237162","0.2","0.4","0.8","0.6","0.9731237162","0.2294707647","0.4113554433","0.4026396634","","","","","","","","","","","","","","72","H","0","img/none_selected.jpg","","188","main_expt",""
"","bandit","268","699882","0.0-230.0-0.0","35905813","wem/bandit_party_2","A37AWU2VH1ZIXX","either","5","538","","","","","","","0","1","0","","0.9787475226","0.2","0.4","0.8","0.6","0.9787475226","0.2469430613","0.4053553249","0.5072589837","","","","","","","","","","","","","","72","H","0","img/none_selected.jpg","","189","main_expt",""
"","bandit","269","701889","0.0-231.0-0.0","35905813","wem/bandit_party_2","A37AWU2VH1ZIXX","either","5","409","","","","","","","0","1","0","","0.9847816181","0.2","0.4","0.8","0.6","0.9847816181","0.2437728268","0.4927633492","0.5234843415","","","","","","","","","","","","","","72","H","0","img/none_selected.jpg","","190","main_expt",""
"","bandit","270","703961","0.0-232.0-0.0","35905813","wem/bandit_party_2","A37AWU2VH1ZIXX","either","5","507","","","","","","","0","1","0","","0.9713064587","0.2","0.4","0.8","0.6","0.9713064587","0.1655579887","0.428678546","0.5054414672","","","","","","","","","","","","","","72","H","0","img/none_selected.jpg","","191","main_expt",""
"","bandit","271","706105","0.0-233.0-0.0","35905813","wem/bandit_party_2","A37AWU2VH1ZIXX","either","5","582","","","","","","","0","1","0","","0.9558555722","0.2","0.4","0.8","0.6","0.9558555722","0.1501427492","0.3358015867","0.7037613703","","","","","","","","","","","","","","72","H","0","img/none_selected.jpg","","192","main_expt",""
"","bandit","272","708041","0.0-234.0-0.0","35905813","wem/bandit_party_2","A37AWU2VH1ZIXX","either","5","400","","","","","","","0","1","0","","0.9443800135","0.2","0.4","0.8","0.6","0.9443800135","0.2062706367","0.2816430679","0.5980286963","","","","","","","","","","","","","","72","H","0","img/none_selected.jpg","","193","main_expt",""
"","bandit","273","709994","0.0-235.0-0.0","35905813","wem/bandit_party_2","A37AWU2VH1ZIXX","either","5","368","","","","","","","0","1","0","","0.947825408","0.2","0.4","0.8","0.6","0.947825408","0.2782937815","0.2951519504","0.5607231578","","","","","","","","","","","","","","72","H","0","img/none_selected.jpg","","194","main_expt",""
"","bandit","274","712158","0.0-236.0-0.0","35905813","wem/bandit_party_2","A37AWU2VH1ZIXX","either","5","576","","","","","","","0","1","0","","0.9531013361","0.2","0.4","0.8","0.6","0.9531013361","0.2393938873","0.2482291913","0.6222063369","","","","","","","","","","","","","","72","H","0","img/none_selected.jpg","","195","main_expt",""
"","bandit","275","714098","0.0-237.0-0.0","35905813","wem/bandit_party_2","A37AWU2VH1ZIXX","either","5","387","","","","","","","0","1","0","","0.9653581558","0.2","0.4","0.8","0.6","0.9653581558","0.3385483064","0.2548661126","0.7092042058","","","","","","","","","","","","","","72","H","0","img/none_selected.jpg","","196","main_expt",""
"","bandit","276","715997","0.0-238.0-0.0","35905813","wem/bandit_party_2","A37AWU2VH1ZIXX","either","5","350","","","","","","","0","1","0","","0.9774234012","0.2","0.4","0.8","0.6","0.9774234012","0.3474357388","0.2789697966","0.7397780251","","","","","","","","","","","","","","72","H","0","img/none_selected.jpg","","197","main_expt",""
"","bandit","277","717804","0.0-239.0-0.0","35905813","wem/bandit_party_2","A37AWU2VH1ZIXX","either","5","191","","","","","","","1","0","0","0.9866112083","","0.2","0.4","0.8","0.6","","","","","0.9866112083","0.4511600961","0.2893473624","0.6977166648","","","","","","","","","","72","H","0","img/none_selected.jpg","","198","main_expt",""
"","bandit","278","719875","0.0-240.0-0.0","35905813","wem/bandit_party_2","A37AWU2VH1ZIXX","either","5","441","","","","","","","0","1","0","","0.9889390623","0.2","0.4","0.8","0.6","0.9889390623","0.4387406867","0.2499124536","0.591703898","","","","","","","","","","","","","","72","H","0","img/none_selected.jpg","","199","main_expt",""
"","bandit","279","722035","0.0-241.0-0.0","35905813","wem/bandit_party_2","A37AWU2VH1ZIXX","either","5","500","","","","","","","0","1","0","","0.9894921125","0.2","0.4","0.8","0.6","0.9894921125","0.4368135332","0.2643429758","0.5107967375","","","","","","","","","","","","","","72","H","0","img/none_selected.jpg","","200","main_expt",""
"","bandit","280","723962","0.0-242.0-0.0","35905813","wem/bandit_party_2","A37AWU2VH1ZIXX","either","5","350","","","","","","","0","1","0","","0.989248002","0.2","0.4","0.8","0.6","0.989248002","0.3070084091","0.2382870841","0.6528148869","","","","","","","","","","","","","","72","H","0","img/none_selected.jpg","","201","main_expt",""
"","bandit","281","726472","0.0-243.0-0.0","35905813","wem/bandit_party_2","A37AWU2VH1ZIXX","either","5","911","","","","","","","0","1","0","","0.9957983392","0.2","0.4","0.8","0.6","0.9957983392","0.3603585946","0.1604624283","0.6892998309","","","","","","","","","","","","","","72","H","0","img/none_selected.jpg","","202","main_expt",""
"","bandit","282","730141","0.0-244.0-0.0","35905813","wem/bandit_party_2","A37AWU2VH1ZIXX","either","5","1994","","","","","","","1","0","0","0.9958893","","0.2","0.4","0.8","0.6","","","","","0.9958893","0.260320329","0.1407610566","0.6989476798","","","","","","","","","","72","H","0","img/none_selected.jpg","","203","main_expt",""
"","bandit","283","732203","0.0-245.0-0.0","35905813","wem/bandit_party_2","A37AWU2VH1ZIXX","either","5","457","","","","","","","0","1","0","","0.9955962674","0.2","0.4","0.8","0.6","0.9955962674","0.2003029851","0.1343245238","0.772264117","","","","","","","","","","","","","","72","H","0","img/none_selected.jpg","","204","main_expt",""
"","bandit","284","734177","0.0-246.0-0.0","35905813","wem/bandit_party_2","A37AWU2VH1ZIXX","either","5","409","","","","","","","0","1","0","","0.9943432705","0.2","0.4","0.8","0.6","0.9943432705","0.1922312923","0.1715400642","0.7366863645","","","","","","","","","","","","","","72","H","0","img/none_selected.jpg","","205","main_expt",""
"","bandit","285","736280","0.0-247.0-0.0","35905813","wem/bandit_party_2","A37AWU2VH1ZIXX","either","5","488","","","","","","","0","1","0","","0.9982320458","0.2","0.4","0.8","0.6","0.9982320458","0.1936085521","0.117617648","0.7477287432","","","","","","","","","","","","","","72","H","0","img/none_selected.jpg","","206","main_expt",""
"","bandit","286","738204","0.0-248.0-0.0","35905813","wem/bandit_party_2","A37AWU2VH1ZIXX","either","5","296","","","","","","","0","1","0","","0.9976530308","0.2","0.4","0.8","0.6","0.9976530308","0.1821705986","0.1182717864","0.8185776196","","","","","","","","","","","","","","72","H","0","img/none_selected.jpg","","207","main_expt",""
"","bandit","287","740134","0.0-249.0-0.0","35905813","wem/bandit_party_2","A37AWU2VH1ZIXX","either","5","373","","","","","","","0","1","0","","0.9961811318","0.2","0.4","0.8","0.6","0.9961811318","0.1145050302","0.1445047472","0.8161769506","","","","","","","","","","","","","","72","H","0","img/none_selected.jpg","","208","main_expt",""
"","bandit","288","742062","0.0-250.0-0.0","35905813","wem/bandit_party_2","A37AWU2VH1ZIXX","either","5","379","","","","","","","0","1","0","","0.9977639941","0.2","0.4","0.8","0.6","0.9977639941","0.1206637037","0.1264159314","0.8224464957","","","","","","","","","","","","","","72","H","0","img/none_selected.jpg","","209","main_expt",""
"","bandit","289","744553","0.0-251.0-0.0","35905813","wem/bandit_party_2","A37AWU2VH1ZIXX","either","5","817","","","","","","","0","1","0","","0.9953783407","0.2","0.4","0.8","0.6","0.9953783407","0.1422927172","0.1208777168","0.7392866018","","","","","","","","","","","","","","72","H","0","img/none_selected.jpg","","210","main_expt",""
"","bandit","290","746553","0.0-252.0-0.0","35905813","wem/bandit_party_2","A37AWU2VH1ZIXX","either","5","444","","","","","","","0","1","0","","0.9976351195","0.2","0.4","0.8","0.6","0.9976351195","0.1811219169","0.1733448518","0.7125411919","","","","","","","","","","","","","","72","H","0","img/none_selected.jpg","","211","main_expt",""
"","bandit","291","748724","0.0-253.0-0.0","35905813","wem/bandit_party_2","A37AWU2VH1ZIXX","either","5","388","","","","","","","0","1","0","","0.9983589292","0.2","0.4","0.8","0.6","0.9983589292","0.1982527665","0.1085262221","0.7191881067","","","","","","","","","","","","","","72","H","0","img/none_selected.jpg","","212","main_expt",""
"","bandit","292","751104","0.0-254.0-0.0","35905813","wem/bandit_party_2","A37AWU2VH1ZIXX","either","5","844","","","","","","","1","0","0","0.9960427138","","0.2","0.4","0.8","0.6","","","","","0.9960427138","0.124448309","0.08145678985","0.7523845147","","","","","","","","","","72","H","0","img/none_selected.jpg","","213","main_expt",""
"","bandit","293","753196","0.0-255.0-0.0","35905813","wem/bandit_party_2","A37AWU2VH1ZIXX","either","5","522","","","","","","","0","1","0","","0.9924650588","0.2","0.4","0.8","0.6","0.9924650588","0.1036015692","0.05725631888","0.7193420906","","","","","","","","","","","","","","72","H","0","img/none_selected.jpg","","214","main_expt",""
"","bandit","294","755464","0.0-256.0-0.0","35905813","wem/bandit_party_2","A37AWU2VH1ZIXX","either","5","669","","","","","","","0","1","0","","0.9858211903","0.2","0.4","0.8","0.6","0.9858211903","0.14458031","0.04356988172","0.6784461291","","","","","","","","","","","","","","72","H","0","img/none_selected.jpg","","215","main_expt",""
"","bandit","295","757451","0.0-257.0-0.0","35905813","wem/bandit_party_2","A37AWU2VH1ZIXX","either","5","426","","","","","","","1","0","0","0.9915289077","","0.2","0.4","0.8","0.6","","","","","0.9915289077","0.2094876981","0.04316154837","0.5658185063","","","","","","","","","","72","H","0","img/none_selected.jpg","","216","main_expt",""
"","bandit","296","759525","0.0-258.0-0.0","35905813","wem/bandit_party_2","A37AWU2VH1ZIXX","either","5","468","","","","","","","0","1","0","","0.9929544916","0.2","0.4","0.8","0.6","0.9929544916","0.24936904","0.03453558383","0.4886301847","","","","","","","","","","","","","","72","H","0","img/none_selected.jpg","","217","main_expt",""
"","bandit","297","761530","0.0-259.0-0.0","35905813","wem/bandit_party_2","A37AWU2VH1ZIXX","either","5","444","","","","","","","0","1","0","","0.9741721496","0.2","0.4","0.8","0.6","0.9741721496","0.2006789107","0.03800932399","0.5674985979","","","","","","","","","","","","","","72","H","0","img/none_selected.jpg","","218","main_expt",""
"","bandit","298","763715","0.0-260.0-0.0","35905813","wem/bandit_party_2","A37AWU2VH1ZIXX","either","5","648","","","","","","","0","1","0","","0.9413517393","0.2","0.4","0.8","0.6","0.9413517393","0.2118480588","0.07914639327","0.6088772151","","","","","","","","","","","","","","72","H","0","img/none_selected.jpg","","219","main_expt",""
"","bandit","299","765870","0.0-261.0-0.0","35905813","wem/bandit_party_2","A37AWU2VH1ZIXX","either","5","600","","","","","","","1","0","0","0.9230346446","","0.2","0.4","0.8","0.6","","","","","0.9230346446","0.2159213458","0.07044987786","0.5856238885","","","","","","","","","","72","H","0","img/none_selected.jpg","","220","main_expt",""
"","bandit","300","767790","0.0-262.0-0.0","35905813","wem/bandit_party_2","A37AWU2VH1ZIXX","either","5","355","","","","","","","1","0","0","0.9216350241","","0.2","0.4","0.8","0.6","","","","","0.9216350241","0.2097338805","0.1351506501","0.6601978635","","","","","","","","","","72","H","0","img/none_selected.jpg","","221","main_expt",""
"","bandit","301","770000","0.0-263.0-0.0","35905813","wem/bandit_party_2","A37AWU2VH1ZIXX","either","5","627","","","","","","","0","1","0","","0.9093406134","0.2","0.4","0.8","0.6","0.9093406134","0.1468233299","0.2099108548","0.6540659739","","","","","","","","","","","","","","72","H","0","img/none_selected.jpg","","222","main_expt",""
"","bandit","302","772539","0.0-264.0-0.0","35905813","wem/bandit_party_2","A37AWU2VH1ZIXX","either","5","989","","","","","","","0","0","1","","0.8361447498","0.2","0.4","0.8","0.6","0.8361447498","0.1379540926","0.2971693323","0.7010542315","","","","","","","","","","","","","","72","H","0","img/none_selected.jpg","","223","main_expt",""
"","bandit","303","774329","0.0-265.0-0.0","35905813","wem/bandit_party_2","A37AWU2VH1ZIXX","either","5","249","","","","","","","0","0","1","0.2754671199","","0.2","0.4","0.8","0.6","","","","","0.8626161161","0.1943723139","0.2754671199","0.7972730751","","","","","","","","","","75","K","2","","","224","main_expt",""
"","bandit","304","776399","0.0-266.0-0.0","35905813","wem/bandit_party_2","A37AWU2VH1ZIXX","either","5","508","","","","","","","1","0","0","0.8726314772","","0.2","0.4","0.8","0.6","","","","","0.9176165053","0.2949344278","0.2483133052","0.8726314772","","","","","","","","","","76","L","3","","","225","main_expt",""
"","bandit","305","778361","0.0-267.0-0.0","35905813","wem/bandit_party_2","A37AWU2VH1ZIXX","either","5","417","","","","","","","0","1","0","","0.8569150835","0.2","0.4","0.8","0.6","0.9516545376","0.4040967375","0.2945032007","0.8569150835","","","","","","","","","","","","","","76","L","3","","","226","main_expt",""
"","bandit","306","780326","0.0-268.0-0.0","35905813","wem/bandit_party_2","A37AWU2VH1ZIXX","either","5","381","","","","","","","0","0","1","0.8773762417","","0.2","0.4","0.8","0.6","","","","","0.9448551655","0.4369809926","0.2544933329","0.8773762417","","","","","","","","","","76","L","3","","","227","main_expt",""
"","bandit","307","782408","0.0-269.0-0.0","35905813","wem/bandit_party_2","A37AWU2VH1ZIXX","either","5","445","","","","","","","0","0","1","0.4228749262","","0.2","0.4","0.8","0.6","","","","","0.9298030406","0.4228749262","0.22227057","0.8514828757","","","","","","","","","","74","J","1","","","228","main_expt",""
"","bandit","308","784422","0.0-270.0-0.0","35905813","wem/bandit_party_2","A37AWU2VH1ZIXX","either","5","362","","","","","","","0","1","0","","0.4953143479","0.2","0.4","0.8","0.6","0.9022116856","0.4953143479","0.2319557967","0.893786405","","","","","","","","","","","","","","74","J","1","","","229","main_expt",""
"","bandit","309","786518","0.0-271.0-0.0","35905813","wem/bandit_party_2","A37AWU2VH1ZIXX","either","5","481","","","","","","","0","0","1","","0.4752889979","0.2","0.4","0.8","0.6","0.8934587516","0.4752889979","0.3107577299","0.9350514117","","","","","","","","","","","","","","74","J","1","","","230","main_expt",""
"","bandit","310","788995","0.0-272.0-0.0","35905813","wem/bandit_party_2","A37AWU2VH1ZIXX","either","5","745","","","","","","","0","0","1","0.3046703461","","0.2","0.4","0.8","0.6","","","","","0.8403693225","0.4887049862","0.3046703461","0.9139197991","","","","","","","","","","75","K","2","","","231","main_expt",""
"","bandit","311","791310","0.0-273.0-0.0","35905813","wem/bandit_party_2","A37AWU2VH1ZIXX","either","5","654","","","","","","","0","0","1","","0.7373772703","0.2","0.4","0.8","0.6","0.7373772703","0.6065944358","0.4259459217","0.8753904063","","","","","","","","","","","","","","72","H","0","img/none_selected.jpg","","232","main_expt",""
"","bandit","312","793425","0.0-274.0-0.0","35905813","wem/bandit_party_2","A37AWU2VH1ZIXX","either","5","443","","","","","","","1","0","0","0.807664976","","0.2","0.4","0.8","0.6","","","","","0.7275490615","0.5320380184","0.3391655585","0.807664976","","","","","","","","","","76","L","3","","","233","main_expt",""
"","bandit","313","796152","0.0-275.0-0.0","35905813","wem/bandit_party_2","A37AWU2VH1ZIXX","either","5","1163","","","","","","","1","0","0","0.817303243","","0.2","0.4","0.8","0.6","","","","","0.6910989812","0.5845689413","0.3380141995","0.817303243","","","","","","","","","","76","L","3","","","234","main_expt",""
"","bandit","314","798143","0.0-276.0-0.0","35905813","wem/bandit_party_2","A37AWU2VH1ZIXX","either","5","409","","","","","","","1","0","0","0.8320050337","","0.2","0.4","0.8","0.6","","","","","0.6506848601","0.4424117598","0.2949514339","0.8320050337","","","","","","","","","","76","L","3","","","235","main_expt",""
"","bandit","315","800167","0.0-277.0-0.0","35905813","wem/bandit_party_2","A37AWU2VH1ZIXX","either","5","390","","","","","","","0","0","1","0.8539654836","","0.2","0.4","0.8","0.6","","","","","0.589166471","0.4411324282","0.2575094814","0.8539654836","","","","","","","","","","76","L","3","","","236","main_expt",""
