"consent","trial_type","trial_index","time_elapsed","internal_node_id","subjID","study","MID","cond","drift","rt","responses","button_pressed","key_press","like","value","connected","gems","bombs","no_reward","GemPrChosen","BombPrChosen","GainOverPainPr_0","GainOverPainPr_1","GainOverPainPr_2","GainOverPainPr_3","LosePr_0","LosePr_1","LosePr_2","LosePr_3","WinPr_0","WinPr_1","WinPr_2","WinPr_3","Q0","Q1","Q2","gender","age","ethnicity","label","expt_phase","target","respCharCode","respKey","respChoiceNum","respChoice","practice","trial_counter","trial_label","Q0_index"
"GDM/GDM_behavioral_consent_30min_online.html","consent","0","14250","0.0-0.0","36329385","wem/bandit_party_2","A6P84EZCZF7II","either","1","","","","","","","","","","","","","","","","","","","","","","","","","","","","","","","","","","","","","","","","",""
"","survey-text","1","25442","0.0-1.0","36329385","wem/bandit_party_2","A6P84EZCZF7II","either","1","10182","{""Q0"":""A6P84EZCZF7II""}","","","","","","","","","","","","","","","","","","","","","","","","","","","","","","","","","","","","","","",""
"","button-response","2","29625","0.0-2.0","36329385","wem/bandit_party_2","A6P84EZCZF7II","either","1","3179","","1","","","","","","","","","","","","","","","","","","","","","","","","","","","","","","","","","","","","","",""
"","text-replacement","3","46501","0.0-3.0","36329385","wem/bandit_party_2","A6P84EZCZF7II","either","1","15871","","","32","","","","","","","","","","","","","","","","","","","","","","","","","","","","","","","","","","","","",""
"","text-replacement","4","56179","0.0-4.0","36329385","wem/bandit_party_2","A6P84EZCZF7II","either","1","9676","","","32","","","","","","","","","","","","","","","","","","","","","","","","","","","","","","","","","","","","",""
"","identification","5","66158","0.0-6.0-0.0","36329385","wem/bandit_party_2","A6P84EZCZF7II","either","1","9966","","","","0","0","0","","","","","","","","","","","","","","","","","","","","","","","","pre","identification_pre","the Republican Party","","","","","","","",""
"","identification","6","72158","0.0-6.0-1.0","36329385","wem/bandit_party_2","A6P84EZCZF7II","either","1","4976","","","","0","0","0","","","","","","","","","","","","","","","","","","","","","","","","pre","identification_pre","the Democratic Party","","","","","","","",""
"","text-replacement","7","80790","0.0-7.0","36329385","wem/bandit_party_2","A6P84EZCZF7II","either","1","7629","","","32","","","","","","","","","","","","","","","","","","","","","","","","","","","","","","","","","","","","",""
"","text-replacement","8","85759","0.0-8.0","36329385","wem/bandit_party_2","A6P84EZCZF7II","either","1","4966","","","32","","","","","","","","","","","","","","","","","","","","","","","","","","","","","","","","","","","","",""
"","text-replacement","9","94224","0.0-9.0","36329385","wem/bandit_party_2","A6P84EZCZF7II","either","1","8461","","","32","","","","","","","","","","","","","","","","","","","","","","","","","","","","","","","","","","","","",""
"","text-replacement","10","100311","0.0-10.0","36329385","wem/bandit_party_2","A6P84EZCZF7II","either","1","6084","","","32","","","","","","","","","","","","","","","","","","","","","","","","","","","","","","","","","","","","",""
"","text-replacement","11","104856","0.0-11.0","36329385","wem/bandit_party_2","A6P84EZCZF7II","either","1","4543","","","32","","","","","","","","","","","","","","","","","","","","","","","","","","","","","","","","","","","","",""
"","bandit","12","110088","0.0-12.0-0.0","36329385","wem/bandit_party_2","A6P84EZCZF7II","either","1","3720","","","","","","","0","0","1","0","0","","","","","0","","","","0","","","","","","","","","","","","","74","J","0","img/none_selected_demo.jpg","true","0","",""
"","bandit","13","113189","0.0-13.0-0.0","36329385","wem/bandit_party_2","A6P84EZCZF7II","either","1","1594","","","","","","","0","0","1","0","0","","","","","0","","","","0","","","","","","","","","","","","","75","K","0","img/none_selected_demo.jpg","true","0","",""
"","text-replacement","14","119954","0.0-14.0","36329385","wem/bandit_party_2","A6P84EZCZF7II","either","1","6759","","","32","","","","","","","","","","","","","","","","","","","","","","","","","","","","","","","","","","","","",""
"","text-replacement","15","123703","0.0-15.0","36329385","wem/bandit_party_2","A6P84EZCZF7II","either","1","3747","","","32","","","","","","","","","","","","","","","","","","","","","","","","","","","","","","","","","","","","",""
"","text-replacement","16","130729","0.0-16.0","36329385","wem/bandit_party_2","A6P84EZCZF7II","either","1","7023","","","32","","","","","","","","","","","","","","","","","","","","","","","","","","","","","","","","","","","","",""
"","text-replacement","17","134937","0.0-17.0","36329385","wem/bandit_party_2","A6P84EZCZF7II","either","1","4205","","","32","","","","","","","","","","","","","","","","","","","","","","","","","","","","","","","","","","","","",""
"","bandit","18","140662","0.0-18.0-0.0","36329385","wem/bandit_party_2","A6P84EZCZF7II","either","1","4219","","","","","","","1","0","0","0.2","","0.5","0.5","","","","","","","0.8","0.2","","","","","","","","","","","","75","K","1","","true","0","80_20_practice",""
"","bandit","19","144610","0.0-18.0-1.0","36329385","wem/bandit_party_2","A6P84EZCZF7II","either","1","2438","","","","","","","0","0","1","0.2","","0.5","0.5","","","","","","","0.8","0.2","","","","","","","","","","","","75","K","1","","true","0","80_20_practice",""
"","bandit","20","147095","0.0-18.0-2.0","36329385","wem/bandit_party_2","A6P84EZCZF7II","either","1","978","","","","","","","0","1","0","","0.8","0.5","0.5","","","0.8","0.2","","","","","","","","","","","","","","","","74","J","0","img/none_selected_demo.jpg","true","0","80_20_practice",""
"","bandit","21","149583","0.0-18.0-3.0","36329385","wem/bandit_party_2","A6P84EZCZF7II","either","1","979","","","","","","","0","0","1","0.2","","0.5","0.5","","","","","","","0.8","0.2","","","","","","","","","","","","75","K","1","","true","0","80_20_practice",""
"","bandit","22","151695","0.0-18.0-4.0","36329385","wem/bandit_party_2","A6P84EZCZF7II","either","1","605","","","","","","","0","0","1","0.8","","0.5","0.5","","","","","","","0.8","0.2","","","","","","","","","","","","74","J","0","img/none_selected_demo.jpg","true","0","80_20_practice",""
"","bandit","23","153529","0.0-18.0-5.0","36329385","wem/bandit_party_2","A6P84EZCZF7II","either","1","325","","","","","","","0","0","1","0.2","","0.5","0.5","","","","","","","0.8","0.2","","","","","","","","","","","","75","K","1","","true","0","80_20_practice",""
"","bandit","24","155595","0.0-18.0-6.0","36329385","wem/bandit_party_2","A6P84EZCZF7II","either","1","557","","","","","","","0","1","0","","0.2","0.5","0.5","","","0.8","0.2","","","","","","","","","","","","","","","","75","K","1","","true","0","80_20_practice",""
"","bandit","25","157888","0.0-18.0-7.0","36329385","wem/bandit_party_2","A6P84EZCZF7II","either","1","784","","","","","","","0","1","0","","0.8","0.5","0.5","","","0.8","0.2","","","","","","","","","","","","","","","","74","J","0","img/none_selected_demo.jpg","true","0","80_20_practice",""
"","bandit","26","159864","0.0-18.0-8.0","36329385","wem/bandit_party_2","A6P84EZCZF7II","either","1","468","","","","","","","0","0","1","0.8","","0.5","0.5","","","","","","","0.8","0.2","","","","","","","","","","","","74","J","0","img/none_selected_demo.jpg","true","0","80_20_practice",""
"","bandit","27","161800","0.0-18.0-9.0","36329385","wem/bandit_party_2","A6P84EZCZF7II","either","1","428","","","","","","","0","0","1","0.2","","0.5","0.5","","","","","","","0.8","0.2","","","","","","","","","","","","75","K","1","","true","0","80_20_practice",""
"","bandit","28","163383","0.0-18.0-10.0","36329385","wem/bandit_party_2","A6P84EZCZF7II","either","1","76","","","","","","","1","0","0","0.8","","0.5","0.5","","","","","","","0.8","0.2","","","","","","","","","","","","74","J","0","img/none_selected_demo.jpg","true","0","80_20_practice",""
"","bandit","29","165344","0.0-18.0-11.0","36329385","wem/bandit_party_2","A6P84EZCZF7II","either","1","454","","","","","","","0","0","1","","0.2","0.5","0.5","","","0.8","0.2","","","","","","","","","","","","","","","","75","K","1","","true","0","80_20_practice",""
"","bandit","30","167482","0.0-18.0-12.0","36329385","wem/bandit_party_2","A6P84EZCZF7II","either","1","630","","","","","","","0","0","1","0.2","","0.5","0.5","","","","","","","0.8","0.2","","","","","","","","","","","","75","K","1","","true","0","80_20_practice",""
"","bandit","31","169540","0.0-18.0-13.0","36329385","wem/bandit_party_2","A6P84EZCZF7II","either","1","545","","","","","","","0","1","0","","0.8","0.5","0.5","","","0.8","0.2","","","","","","","","","","","","","","","","74","J","0","img/none_selected_demo.jpg","true","0","80_20_practice",""
"","bandit","32","171392","0.0-18.0-14.0","36329385","wem/bandit_party_2","A6P84EZCZF7II","either","1","345","","","","","","","1","0","0","0.8","","0.5","0.5","","","","","","","0.8","0.2","","","","","","","","","","","","74","J","0","img/none_selected_demo.jpg","true","0","80_20_practice",""
"","bandit","33","173209","0.0-18.0-15.0","36329385","wem/bandit_party_2","A6P84EZCZF7II","either","1","308","","","","","","","0","0","1","","0.2","0.5","0.5","","","0.8","0.2","","","","","","","","","","","","","","","","75","K","1","","true","0","80_20_practice",""
"","bandit","34","174717","0.0-18.0-16.0","36329385","wem/bandit_party_2","A6P84EZCZF7II","either","1","1","","","","","","","0","0","1","","0.2","0.5","0.5","","","0.8","0.2","","","","","","","","","","","","","","","","75","K","1","","true","0","80_20_practice",""
"","bandit","35","177211","0.0-18.0-17.0","36329385","wem/bandit_party_2","A6P84EZCZF7II","either","1","985","","","","","","","0","0","1","","0.8","0.5","0.5","","","0.8","0.2","","","","","","","","","","","","","","","","74","J","0","img/none_selected_demo.jpg","true","0","80_20_practice",""
"","bandit","36","179219","0.0-18.0-18.0","36329385","wem/bandit_party_2","A6P84EZCZF7II","either","1","500","","","","","","","1","0","0","0.8","","0.5","0.5","","","","","","","0.8","0.2","","","","","","","","","","","","74","J","0","img/none_selected_demo.jpg","true","0","80_20_practice",""
"","bandit","37","181137","0.0-18.0-19.0","36329385","wem/bandit_party_2","A6P84EZCZF7II","either","1","408","","","","","","","0","1","0","","0.8","0.5","0.5","","","0.8","0.2","","","","","","","","","","","","","","","","74","J","0","img/none_selected_demo.jpg","true","0","80_20_practice",""
"","text-replacement","38","188079","0.0-19.0","36329385","wem/bandit_party_2","A6P84EZCZF7II","either","1","6938","","","32","","","","","","","","","","","","","","","","","","","","","","","","","","","","","","","","","","","","",""
"","bandit","39","191894","0.0-20.0-0.0","36329385","wem/bandit_party_2","A6P84EZCZF7II","either","1","2305","","","","","","","1","0","0","1","0","","","","","0","1","","","1","0","","","","","","","","","","","","74","J","0","img/none_selected_demo.jpg","true","0","",""
"","text-replacement","40","201727","0.0-21.0","36329385","wem/bandit_party_2","A6P84EZCZF7II","either","1","9829","","","32","","","","","","","","","","","","","","","","","","","","","","","","","","","","","","","","","","","","",""
"","text-replacement","41","204662","0.0-22.0","36329385","wem/bandit_party_2","A6P84EZCZF7II","either","1","2931","","","32","","","","","","","","","","","","","","","","","","","","","","","","","","","","","","","","","","","","",""
"","text-replacement","42","207719","0.0-23.0","36329385","wem/bandit_party_2","A6P84EZCZF7II","either","1","3052","","","32","","","","","","","","","","","","","","","","","","","","","","","","","","","","","","","","","","","","",""
"","text-replacement","43","210646","0.0-24.0","36329385","wem/bandit_party_2","A6P84EZCZF7II","either","1","2922","","","32","","","","","","","","","","","","","","","","","","","","","","","","","","","","","","","","","","","","",""
"","text-replacement","44","214760","0.0-25.0","36329385","wem/bandit_party_2","A6P84EZCZF7II","either","1","4110","","","32","","","","","","","","","","","","","","","","","","","","","","","","","","","","","","","","","","","","",""
"","text-replacement","45","217478","0.0-26.0","36329385","wem/bandit_party_2","A6P84EZCZF7II","either","1","2714","","","32","","","","","","","","","","","","","","","","","","","","","","","","","","","","","","","","","","","","",""
"","text-replacement","46","222023","0.0-27.0","36329385","wem/bandit_party_2","A6P84EZCZF7II","either","1","4541","","","32","","","","","","","","","","","","","","","","","","","","","","","","","","","","","","","","","","","","",""
"","text-replacement","47","225440","0.0-28.0","36329385","wem/bandit_party_2","A6P84EZCZF7II","either","1","3413","","","32","","","","","","","","","","","","","","","","","","","","","","","","","","","","","","","","","","","","",""
"","text-replacement","48","229320","0.0-29.0","36329385","wem/bandit_party_2","A6P84EZCZF7II","either","1","3875","","","32","","","","","","","","","","","","","","","","","","","","","","","","","","","","","","","","","","","","",""
"","text-replacement","49","232256","0.0-30.0","36329385","wem/bandit_party_2","A6P84EZCZF7II","either","1","2930","","","32","","","","","","","","","","","","","","","","","","","","","","","","","","","","","","","","","","","","",""
"","text-replacement","50","239553","0.0-31.0","36329385","wem/bandit_party_2","A6P84EZCZF7II","either","1","7292","","","32","","","","","","","","","","","","","","","","","","","","","","","","","","","","","","","","","","","","",""
"","bandit","51","242414","0.0-32.0-0.0","36329385","wem/bandit_party_2","A6P84EZCZF7II","either","1","1354","","","","","","","0","1","0","","0.8","0.5","0.5","0.5","0.5","0.8","0.2","0.6","0.2","","","","","","","","","","","","","","72","H","0","img/none_selected.jpg","true","0","full_practice",""
"","bandit","52","244391","0.0-32.0-1.0","36329385","wem/bandit_party_2","A6P84EZCZF7II","either","1","467","","","","","","","0","1","0","","0.2","0.5","0.5","0.5","0.5","0.8","0.2","0.6","0.2","","","","","","","","","","","","","","74","J","1","","true","0","full_practice",""
"","bandit","53","246375","0.0-32.0-2.0","36329385","wem/bandit_party_2","A6P84EZCZF7II","either","1","473","","","","","","","1","0","0","0.8","","0.5","0.5","0.5","0.5","","","","","0.8","0.2","0.6","0.2","","","","","","","","","","72","H","0","img/none_selected.jpg","true","0","full_practice",""
"","bandit","54","248608","0.0-32.0-3.0","36329385","wem/bandit_party_2","A6P84EZCZF7II","either","1","723","","","","","","","0","0","1","","0.2","0.5","0.5","0.5","0.5","0.8","0.2","0.6","0.2","","","","","","","","","","","","","","74","J","1","","true","0","full_practice",""
"","bandit","55","250598","0.0-32.0-4.0","36329385","wem/bandit_party_2","A6P84EZCZF7II","either","1","480","","","","","","","0","0","1","","0.6","0.5","0.5","0.5","0.5","0.8","0.2","0.6","0.2","","","","","","","","","","","","","","75","K","2","","true","0","full_practice",""
"","bandit","56","252397","0.0-32.0-5.0","36329385","wem/bandit_party_2","A6P84EZCZF7II","either","1","291","","","","","","","0","0","1","0.2","","0.5","0.5","0.5","0.5","","","","","0.8","0.2","0.6","0.2","","","","","","","","","","76","L","3","","true","0","full_practice",""
"","bandit","57","254177","0.0-32.0-6.0","36329385","wem/bandit_party_2","A6P84EZCZF7II","either","1","269","","","","","","","0","1","0","","0.8","0.5","0.5","0.5","0.5","0.8","0.2","0.6","0.2","","","","","","","","","","","","","","72","H","0","img/none_selected.jpg","true","0","full_practice",""
"","bandit","58","256022","0.0-32.0-7.0","36329385","wem/bandit_party_2","A6P84EZCZF7II","either","1","338","","","","","","","0","0","1","","0.8","0.5","0.5","0.5","0.5","0.8","0.2","0.6","0.2","","","","","","","","","","","","","","72","H","0","img/none_selected.jpg","true","0","full_practice",""
"","bandit","59","257775","0.0-32.0-8.0","36329385","wem/bandit_party_2","A6P84EZCZF7II","either","1","243","","","","","","","0","1","0","","0.2","0.5","0.5","0.5","0.5","0.8","0.2","0.6","0.2","","","","","","","","","","","","","","74","J","1","","true","0","full_practice",""
"","bandit","60","259610","0.0-32.0-9.0","36329385","wem/bandit_party_2","A6P84EZCZF7II","either","1","325","","","","","","","0","0","1","","0.2","0.5","0.5","0.5","0.5","0.8","0.2","0.6","0.2","","","","","","","","","","","","","","74","J","1","","true","0","full_practice",""
"","bandit","61","261256","0.0-32.0-10.0","36329385","wem/bandit_party_2","A6P84EZCZF7II","either","1","136","","","","","","","0","1","0","","0.8","0.5","0.5","0.5","0.5","0.8","0.2","0.6","0.2","","","","","","","","","","","","","","72","H","0","img/none_selected.jpg","true","0","full_practice",""
"","bandit","62","263166","0.0-32.0-11.0","36329385","wem/bandit_party_2","A6P84EZCZF7II","either","1","403","","","","","","","1","0","0","0.8","","0.5","0.5","0.5","0.5","","","","","0.8","0.2","0.6","0.2","","","","","","","","","","72","H","0","img/none_selected.jpg","true","0","full_practice",""
"","bandit","63","264991","0.0-32.0-12.0","36329385","wem/bandit_party_2","A6P84EZCZF7II","either","1","314","","","","","","","0","1","0","","0.8","0.5","0.5","0.5","0.5","0.8","0.2","0.6","0.2","","","","","","","","","","","","","","72","H","0","img/none_selected.jpg","true","0","full_practice",""
"","bandit","64","266799","0.0-32.0-13.0","36329385","wem/bandit_party_2","A6P84EZCZF7II","either","1","300","","","","","","","0","0","1","","0.8","0.5","0.5","0.5","0.5","0.8","0.2","0.6","0.2","","","","","","","","","","","","","","72","H","0","img/none_selected.jpg","true","0","full_practice",""
"","bandit","65","268623","0.0-32.0-14.0","36329385","wem/bandit_party_2","A6P84EZCZF7II","either","1","316","","","","","","","0","0","1","","0.2","0.5","0.5","0.5","0.5","0.8","0.2","0.6","0.2","","","","","","","","","","","","","","74","J","1","","true","0","full_practice",""
"","bandit","66","270480","0.0-32.0-15.0","36329385","wem/bandit_party_2","A6P84EZCZF7II","either","1","347","","","","","","","0","1","0","","0.8","0.5","0.5","0.5","0.5","0.8","0.2","0.6","0.2","","","","","","","","","","","","","","72","H","0","img/none_selected.jpg","true","0","full_practice",""
"","bandit","67","272289","0.0-32.0-16.0","36329385","wem/bandit_party_2","A6P84EZCZF7II","either","1","297","","","","","","","1","0","0","0.8","","0.5","0.5","0.5","0.5","","","","","0.8","0.2","0.6","0.2","","","","","","","","","","72","H","0","img/none_selected.jpg","true","0","full_practice",""
"","bandit","68","274161","0.0-32.0-17.0","36329385","wem/bandit_party_2","A6P84EZCZF7II","either","1","363","","","","","","","1","0","0","0.8","","0.5","0.5","0.5","0.5","","","","","0.8","0.2","0.6","0.2","","","","","","","","","","72","H","0","img/none_selected.jpg","true","0","full_practice",""
"","bandit","69","275960","0.0-32.0-18.0","36329385","wem/bandit_party_2","A6P84EZCZF7II","either","1","290","","","","","","","1","0","0","0.8","","0.5","0.5","0.5","0.5","","","","","0.8","0.2","0.6","0.2","","","","","","","","","","72","H","0","img/none_selected.jpg","true","0","full_practice",""
"","bandit","70","277761","0.0-32.0-19.0","36329385","wem/bandit_party_2","A6P84EZCZF7II","either","1","290","","","","","","","0","0","1","","0.8","0.5","0.5","0.5","0.5","0.8","0.2","0.6","0.2","","","","","","","","","","","","","","72","H","0","img/none_selected.jpg","true","0","full_practice",""
"","text","71","282868","0.0-33.0","36329385","wem/bandit_party_2","A6P84EZCZF7II","either","1","5084","","","32","","","","","","","","","","","","","","","","","","","","","","","","","","","","","","","","","","","","",""
"","text-replacement","72","293029","0.0-34.0","36329385","wem/bandit_party_2","A6P84EZCZF7II","either","1","9156","","","32","","","","","","","","","","","","","","","","","","","","","","","","","","","","","","","","","","","","",""
"","text-replacement","73","297204","0.0-35.0","36329385","wem/bandit_party_2","A6P84EZCZF7II","either","1","4168","","","32","","","","","","","","","","","","","","","","","","","","","","","","","","","","","","","","","","","","",""
"","text-replacement","74","299627","0.0-36.0","36329385","wem/bandit_party_2","A6P84EZCZF7II","either","1","2417","","","32","","","","","","","","","","","","","","","","","","","","","","","","","","","","","","","","","","","","",""
"","text-replacement","75","301851","0.0-37.0","36329385","wem/bandit_party_2","A6P84EZCZF7II","either","1","2219","","","32","","","","","","","","","","","","","","","","","","","","","","","","","","","","","","","","","","","","",""
"","text-replacement","76","305845","0.0-38.0","36329385","wem/bandit_party_2","A6P84EZCZF7II","either","1","3989","","","32","","","","","","","","","","","","","","","","","","","","","","","","","","","","","","","","","","","","",""
"","survey-multi-choice-replacement","77","310831","0.0-39.0-0.0","36329385","wem/bandit_party_2","A6P84EZCZF7II","either","1","4970","","","","","","","","","","","","","","","","","","","","","","","","Money will be added to the pool for <span style='color:blue;'>DEMOCRATS</span>","","","","","","","attn_check","","","","","","","","","0"
"","survey-multi-choice-replacement","78","317999","0.0-40.0-0.0","36329385","wem/bandit_party_2","A6P84EZCZF7II","either","1","6153","","","","","","","","","","","","","","","","","","","","","","","","Equal amounts of money will be added to the pool for <span style='color:blue;'>DEMOCRATS</span> and subtracted from the pool for <span style='color:red;'>REPUBLICANS</span>","","","","","","","attn_check","","","","","","","","","2"
"","survey-multi-choice-replacement","79","321638","0.0-41.0-0.0","36329385","wem/bandit_party_2","A6P84EZCZF7II","either","1","2622","","","","","","","","","","","","","","","","","","","","","","","","No money will be added to either pool","","","","","","","attn_check","","","","","","","","","3"
"","bandit","80","326733","0.0-42.0-0.0","36329385","wem/bandit_party_2","A6P84EZCZF7II","either","1","2581","","","","","","","0","1","0","","0.7674833066","0.8","0.4","0.6","0.2","0.7674833066","0.5202783506","0.4995060561","0.8101107889","","","","","","","","","","","","","","72","H","0","img/none_selected.jpg","","1","main_expt",""
"","bandit","81","329022","0.0-43.0-0.0","36329385","wem/bandit_party_2","A6P84EZCZF7II","either","1","780","","","","","","","0","1","0","","0.4559554218","0.8","0.4","0.6","0.2","0.7786696111","0.4559554218","0.4452888422","0.8827976921","","","","","","","","","","","","","","74","J","1","","","2","main_expt",""
"","bandit","82","330885","0.0-44.0-0.0","36329385","wem/bandit_party_2","A6P84EZCZF7II","either","1","355","","","","","","","0","1","0","","0.7883912796","0.8","0.4","0.6","0.2","0.7883912796","0.3791335739","0.4956599627","0.918633781","","","","","","","","","","","","","","72","H","0","img/none_selected.jpg","","3","main_expt",""
"","bandit","83","332676","0.0-45.0-0.0","36329385","wem/bandit_party_2","A6P84EZCZF7II","either","1","283","","","","","","","0","0","1","","0.362446662","0.8","0.4","0.6","0.2","0.8311681014","0.362446662","0.3939226057","0.8961075186","","","","","","","","","","","","","","74","J","1","","","4","main_expt",""
"","bandit","84","334478","0.0-46.0-0.0","36329385","wem/bandit_party_2","A6P84EZCZF7II","either","1","293","","","","","","","0","0","1","0.706748425","","0.8","0.4","0.6","0.2","","","","","0.706748425","0.4337427147","0.4737796053","0.9065038385","","","","","","","","","","72","H","0","img/none_selected.jpg","","5","main_expt",""
"","bandit","85","336349","0.0-47.0-0.0","36329385","wem/bandit_party_2","A6P84EZCZF7II","either","1","361","","","","","","","0","1","0","","0.7246132019","0.8","0.4","0.6","0.2","0.7246132019","0.4260566605","0.5798080576","0.9628954729","","","","","","","","","","","","","","72","H","0","img/none_selected.jpg","","6","main_expt",""
"","bandit","86","338221","0.0-48.0-0.0","36329385","wem/bandit_party_2","A6P84EZCZF7II","either","1","360","","","","","","","0","0","1","","0.822103072","0.8","0.4","0.6","0.2","0.822103072","0.5595739282","0.6184433593","0.9244273404","","","","","","","","","","","","","","72","H","0","img/none_selected.jpg","","7","main_expt",""
"","bandit","87","340006","0.0-49.0-0.0","36329385","wem/bandit_party_2","A6P84EZCZF7II","either","1","277","","","","","","","1","0","0","0.5757792393","","0.8","0.4","0.6","0.2","","","","","0.8176183596","0.5757792393","0.5380809204","0.9214665689","","","","","","","","","","74","J","1","","","8","main_expt",""
"","bandit","88","341798","0.0-50.0-0.0","36329385","wem/bandit_party_2","A6P84EZCZF7II","either","1","282","","","","","","","0","0","1","","0.5508288143","0.8","0.4","0.6","0.2","0.7421782695","0.5508288143","0.4884558296","0.9604963414","","","","","","","","","","","","","","74","J","1","","","9","main_expt",""
"","bandit","89","343607","0.0-51.0-0.0","36329385","wem/bandit_party_2","A6P84EZCZF7II","either","1","293","","","","","","","0","1","0","","0.7112185725","0.8","0.4","0.6","0.2","0.7112185725","0.4615344473","0.6062827564","0.973544224","","","","","","","","","","","","","","72","H","0","img/none_selected.jpg","","10","main_expt",""
"","bandit","90","345374","0.0-52.0-0.0","36329385","wem/bandit_party_2","A6P84EZCZF7II","either","1","257","","","","","","","1","0","0","0.6656122322","","0.8","0.4","0.6","0.2","","","","","0.6656122322","0.4731032433","0.6618996933","0.9756729976","","","","","","","","","","72","H","0","img/none_selected.jpg","","11","main_expt",""
"","bandit","91","347149","0.0-53.0-0.0","36329385","wem/bandit_party_2","A6P84EZCZF7II","either","1","267","","","","","","","1","0","0","0.632951522","","0.8","0.4","0.6","0.2","","","","","0.632951522","0.5028989732","0.6589688621","0.9824084628","","","","","","","","","","72","H","0","img/none_selected.jpg","","12","main_expt",""
"","bandit","92","348991","0.0-54.0-0.0","36329385","wem/bandit_party_2","A6P84EZCZF7II","either","1","330","","","","","","","0","0","1","0.6428643634","","0.8","0.4","0.6","0.2","","","","","0.6428643634","0.5252386458","0.7483501345","0.9852841122","","","","","","","","","","72","H","0","img/none_selected.jpg","","13","main_expt",""
"","bandit","93","350791","0.0-55.0-0.0","36329385","wem/bandit_party_2","A6P84EZCZF7II","either","1","291","","","","","","","0","1","0","","0.4883642101","0.8","0.4","0.6","0.2","0.5693663763","0.4883642101","0.7642220585","0.9844185579","","","","","","","","","","","","","","74","J","1","","","14","main_expt",""
"","bandit","94","352575","0.0-56.0-0.0","36329385","wem/bandit_party_2","A6P84EZCZF7II","either","1","274","","","","","","","0","0","1","","0.5125695872","0.8","0.4","0.6","0.2","0.6354763258","0.5125695872","0.8255663415","0.9716790186","","","","","","","","","","","","","","74","J","1","","","15","main_expt",""
"","bandit","95","354384","0.0-57.0-0.0","36329385","wem/bandit_party_2","A6P84EZCZF7II","either","1","297","","","","","","","0","0","1","","0.6074668868","0.8","0.4","0.6","0.2","0.6074668868","0.483313844","0.8262734196","0.9724226268","","","","","","","","","","","","","","72","H","0","img/none_selected.jpg","","16","main_expt",""
"","bandit","96","356206","0.0-58.0-0.0","36329385","wem/bandit_party_2","A6P84EZCZF7II","either","1","313","","","","","","","1","0","0","0.634379517","","0.8","0.4","0.6","0.2","","","","","0.634379517","0.4764119597","0.8957105494","0.969397438","","","","","","","","","","72","H","0","img/none_selected.jpg","","17","main_expt",""
"","bandit","97","358079","0.0-59.0-0.0","36329385","wem/bandit_party_2","A6P84EZCZF7II","either","1","362","","","","","","","1","0","0","0.7399013172","","0.8","0.4","0.6","0.2","","","","","0.7399013172","0.4742144938","0.8243017832","0.9487821198","","","","","","","","","","72","H","0","img/none_selected.jpg","","18","main_expt",""
"","bandit","98","359902","0.0-60.0-0.0","36329385","wem/bandit_party_2","A6P84EZCZF7II","either","1","312","","","","","","","1","0","0","0.6892422428","","0.8","0.4","0.6","0.2","","","","","0.6892422428","0.5445729057","0.8174393347","0.8822386923","","","","","","","","","","72","H","0","img/none_selected.jpg","","19","main_expt",""
"","bandit","99","361715","0.0-61.0-0.0","36329385","wem/bandit_party_2","A6P84EZCZF7II","either","1","300","","","","","","","0","0","1","0.5544472153","","0.8","0.4","0.6","0.2","","","","","0.5544472153","0.5114357523","0.8457625901","0.8658452863","","","","","","","","","","72","H","0","img/none_selected.jpg","","20","main_expt",""
"","bandit","100","363560","0.0-62.0-0.0","36329385","wem/bandit_party_2","A6P84EZCZF7II","either","1","332","","","","","","","0","1","0","","0.4948626968","0.8","0.4","0.6","0.2","0.4705077418","0.4948626968","0.8565453533","0.8597265301","","","","","","","","","","","","","","74","J","1","","","21","main_expt",""
"","bandit","101","365321","0.0-63.0-0.0","36329385","wem/bandit_party_2","A6P84EZCZF7II","either","1","249","","","","","","","0","1","0","","0.3750889156","0.8","0.4","0.6","0.2","0.5364913494","0.3750889156","0.8821281293","0.929530396","","","","","","","","","","","","","","74","J","1","","","22","main_expt",""
"","bandit","102","367087","0.0-64.0-0.0","36329385","wem/bandit_party_2","A6P84EZCZF7II","either","1","256","","","","","","","0","1","0","","0.3874093852","0.8","0.4","0.6","0.2","0.5450887529","0.3874093852","0.8253896901","0.9149061772","","","","","","","","","","","","","","74","J","1","","","23","main_expt",""
"","bandit","103","368888","0.0-65.0-0.0","36329385","wem/bandit_party_2","A6P84EZCZF7II","either","1","288","","","","","","","1","0","0","0.4126546177","","0.8","0.4","0.6","0.2","","","","","0.6013055931","0.4126546177","0.8682133559","0.9389899916","","","","","","","","","","74","J","1","","","24","main_expt",""
"","bandit","104","370688","0.0-66.0-0.0","36329385","wem/bandit_party_2","A6P84EZCZF7II","either","1","291","","","","","","","0","1","0","","0.3871809826","0.8","0.4","0.6","0.2","0.7116226269","0.3871809826","0.8186134727","0.9583062328","","","","","","","","","","","","","","74","J","1","","","25","main_expt",""
"","bandit","105","372482","0.0-67.0-0.0","36329385","wem/bandit_party_2","A6P84EZCZF7II","either","1","282","","","","","","","0","0","1","0.4162773602","","0.8","0.4","0.6","0.2","","","","","0.7284905038","0.4162773602","0.841170918","0.9349434311","","","","","","","","","","74","J","1","","","26","main_expt",""
"","bandit","106","374237","0.0-68.0-0.0","36329385","wem/bandit_party_2","A6P84EZCZF7II","either","1","248","","","","","","","0","0","1","0.7007901837","","0.8","0.4","0.6","0.2","","","","","0.7007901837","0.4153433109","0.8332298301","0.9147743466","","","","","","","","","","72","H","0","img/none_selected.jpg","","27","main_expt",""
"","bandit","107","376053","0.0-69.0-0.0","36329385","wem/bandit_party_2","A6P84EZCZF7II","either","1","312","","","","","","","1","0","0","0.7197690037","","0.8","0.4","0.6","0.2","","","","","0.7197690037","0.3083156359","0.8340804883","0.8913744663","","","","","","","","","","72","H","0","img/none_selected.jpg","","28","main_expt",""
"","bandit","108","377840","0.0-70.0-0.0","36329385","wem/bandit_party_2","A6P84EZCZF7II","either","1","280","","","","","","","0","1","0","","0.7569205749","0.8","0.4","0.6","0.2","0.7569205749","0.4048150761","0.8800986549","0.9004815278","","","","","","","","","","","","","","72","H","0","img/none_selected.jpg","","29","main_expt",""
"","bandit","109","379657","0.0-71.0-0.0","36329385","wem/bandit_party_2","A6P84EZCZF7II","either","1","306","","","","","","","1","0","0","0.7007062976","","0.8","0.4","0.6","0.2","","","","","0.7007062976","0.5604470694","0.800988266","0.8335499875","","","","","","","","","","72","H","0","img/none_selected.jpg","","30","main_expt",""
"","bandit","110","381540","0.0-72.0-0.0","36329385","wem/bandit_party_2","A6P84EZCZF7II","either","1","367","","","","","","","0","1","0","","0.6218809145","0.8","0.4","0.6","0.2","0.6218809145","0.5114456598","0.8092707987","0.7904098286","","","","","","","","","","","","","","72","H","0","img/none_selected.jpg","","31","main_expt",""
"","bandit","111","383321","0.0-73.0-0.0","36329385","wem/bandit_party_2","A6P84EZCZF7II","either","1","273","","","","","","","1","0","0","0.5448888872","","0.8","0.4","0.6","0.2","","","","","0.5448888872","0.5195843055","0.7600689364","0.8156470634","","","","","","","","","","72","H","0","img/none_selected.jpg","","32","main_expt",""
"","bandit","112","385116","0.0-74.0-0.0","36329385","wem/bandit_party_2","A6P84EZCZF7II","either","1","280","","","","","","","0","1","0","","0.4396040002","0.8","0.4","0.6","0.2","0.4396040002","0.4278216128","0.7268405739","0.7458483223","","","","","","","","","","","","","","72","H","0","img/none_selected.jpg","","33","main_expt",""
"","bandit","113","386897","0.0-75.0-0.0","36329385","wem/bandit_party_2","A6P84EZCZF7II","either","1","271","","","","","","","0","0","1","0.3418027302","","0.8","0.4","0.6","0.2","","","","","0.3418027302","0.4581725564","0.7867385379","0.8745519215","","","","","","","","","","72","H","0","img/none_selected.jpg","","34","main_expt",""
"","bandit","114","388689","0.0-76.0-0.0","36329385","wem/bandit_party_2","A6P84EZCZF7II","either","1","276","","","","","","","1","0","0","0.5170179058","","0.8","0.4","0.6","0.2","","","","","0.3770378826","0.5170179058","0.7776722478","0.8761773117","","","","","","","","","","74","J","1","","","35","main_expt",""
"","bandit","115","390480","0.0-77.0-0.0","36329385","wem/bandit_party_2","A6P84EZCZF7II","either","1","280","","","","","","","0","1","0","","0.5761285305","0.8","0.4","0.6","0.2","0.3264650107","0.5761285305","0.8110731924","0.8898579413","","","","","","","","","","","","","","74","J","1","","","36","main_expt",""
"","bandit","116","392265","0.0-78.0-0.0","36329385","wem/bandit_party_2","A6P84EZCZF7II","either","1","274","","","","","","","1","0","0","0.5824592389","","0.8","0.4","0.6","0.2","","","","","0.1696248696","0.5824592389","0.8371501114","0.9189960073","","","","","","","","","","74","J","1","","","37","main_expt",""
"","bandit","117","394018","0.0-79.0-0.0","36329385","wem/bandit_party_2","A6P84EZCZF7II","either","1","242","","","","","","","0","0","1","","0.5039158184","0.8","0.4","0.6","0.2","0.3008725236","0.5039158184","0.801984358","0.9429067042","","","","","","","","","","","","","","74","J","1","","","38","main_expt",""
"","bandit","118","395759","0.0-80.0-0.0","36329385","wem/bandit_party_2","A6P84EZCZF7II","either","1","232","","","","","","","0","0","1","0.3612597963","","0.8","0.4","0.6","0.2","","","","","0.3612597963","0.4906961915","0.836760671","0.8860185862","","","","","","","","","","72","H","0","img/none_selected.jpg","","39","main_expt",""
"","bandit","119","397539","0.0-81.0-0.0","36329385","wem/bandit_party_2","A6P84EZCZF7II","either","1","270","","","","","","","1","0","0","0.5118773476","","0.8","0.4","0.6","0.2","","","","","0.3316001813","0.5118773476","0.7930168878","0.8958725565","","","","","","","","","","74","J","1","","","40","main_expt",""
"","bandit","120","399209","0.0-82.0-0.0","36329385","wem/bandit_party_2","A6P84EZCZF7II","either","1","159","","","","","","","0","0","1","","0.5207000815","0.8","0.4","0.6","0.2","0.251761063","0.5207000815","0.6758505439","0.8369757826","","","","","","","","","","","","","","74","J","1","","","41","main_expt",""
"","bandit","121","400946","0.0-83.0-0.0","36329385","wem/bandit_party_2","A6P84EZCZF7II","either","1","223","","","","","","","0","0","1","0.3764367217","","0.8","0.4","0.6","0.2","","","","","0.3764367217","0.6208632684","0.669091732","0.8724413244","","","","","","","","","","72","H","0","img/none_selected.jpg","","42","main_expt",""
"","bandit","122","402780","0.0-84.0-0.0","36329385","wem/bandit_party_2","A6P84EZCZF7II","either","1","322","","","","","","","1","0","0","0.4280411123","","0.8","0.4","0.6","0.2","","","","","0.4280411123","0.6736877605","0.5774386383","0.8721156492","","","","","","","","","","72","H","0","img/none_selected.jpg","","43","main_expt",""
"","bandit","123","404564","0.0-85.0-0.0","36329385","wem/bandit_party_2","A6P84EZCZF7II","either","1","270","","","","","","","1","0","0","0.4250007774","","0.8","0.4","0.6","0.2","","","","","0.4250007774","0.6770598463","0.5402750746","0.874486911","","","","","","","","","","72","H","0","img/none_selected.jpg","","44","main_expt",""
"","bandit","124","406361","0.0-86.0-0.0","36329385","wem/bandit_party_2","A6P84EZCZF7II","either","1","287","","","","","","","0","0","1","0.3964774122","","0.8","0.4","0.6","0.2","","","","","0.3964774122","0.6811336834","0.4769525635","0.7653026016","","","","","","","","","","72","H","0","img/none_selected.jpg","","45","main_expt",""
"","bandit","125","408146","0.0-87.0-0.0","36329385","wem/bandit_party_2","A6P84EZCZF7II","either","1","271","","","","","","","0","1","0","","0.7409040253","0.8","0.4","0.6","0.2","0.3755541509","0.7409040253","0.460739512","0.6884850605","","","","","","","","","","","","","","74","J","1","","","46","main_expt",""
"","bandit","126","409840","0.0-88.0-0.0","36329385","wem/bandit_party_2","A6P84EZCZF7II","either","1","184","","","","","","","1","0","0","0.8602274841","","0.8","0.4","0.6","0.2","","","","","0.3698766084","0.8602274841","0.3953603582","0.6869729855","","","","","","","","","","74","J","1","","","47","main_expt",""
"","bandit","127","411440","0.0-89.0-0.0","36329385","wem/bandit_party_2","A6P84EZCZF7II","either","1","89","","","","","","","0","1","0","","0.8947369126","0.8","0.4","0.6","0.2","0.2924141828","0.8947369126","0.5194217752","0.624749708","","","","","","","","","","","","","","74","J","1","","","48","main_expt",""
"","bandit","128","413050","0.0-90.0-0.0","36329385","wem/bandit_party_2","A6P84EZCZF7II","either","1","99","","","","","","","0","1","0","","0.9071052574","0.8","0.4","0.6","0.2","0.2506794134","0.9071052574","0.5015721984","0.6269608649","","","","","","","","","","","","","","74","J","1","","","49","main_expt",""
"","bandit","129","414876","0.0-91.0-0.0","36329385","wem/bandit_party_2","A6P84EZCZF7II","either","1","313","","","","","","","0","1","0","","0.8569531155","0.8","0.4","0.6","0.2","0.2200095001","0.8569531155","0.4427204185","0.5394470416","","","","","","","","","","","","","","74","J","1","","","50","main_expt",""
"","bandit","130","416683","0.0-92.0-0.0","36329385","wem/bandit_party_2","A6P84EZCZF7II","either","1","300","","","","","","","0","1","0","","0.8728609703","0.8","0.4","0.6","0.2","0.2703780474","0.8728609703","0.5194544998","0.4991806479","","","","","","","","","","","","","","74","J","1","","","51","main_expt",""
"","bandit","131","418474","0.0-93.0-0.0","36329385","wem/bandit_party_2","A6P84EZCZF7II","either","1","279","","","","","","","0","1","0","","0.902184381","0.8","0.4","0.6","0.2","0.3215640211","0.902184381","0.4420680866","0.5431464126","","","","","","","","","","","","","","74","J","1","","","52","main_expt",""
"","bandit","132","420252","0.0-94.0-0.0","36329385","wem/bandit_party_2","A6P84EZCZF7II","either","1","265","","","","","","","0","1","0","","0.8975054296","0.8","0.4","0.6","0.2","0.2918797996","0.8975054296","0.5541791803","0.4799783957","","","","","","","","","","","","","","74","J","1","","","53","main_expt",""
"","bandit","133","422059","0.0-95.0-0.0","36329385","wem/bandit_party_2","A6P84EZCZF7II","either","1","294","","","","","","","1","0","0","0.9436546011","","0.8","0.4","0.6","0.2","","","","","0.2432815539","0.9436546011","0.6187664305","0.3946877269","","","","","","","","","","74","J","1","","","54","main_expt",""
"","bandit","134","423861","0.0-96.0-0.0","36329385","wem/bandit_party_2","A6P84EZCZF7II","either","1","288","","","","","","","0","1","0","","0.9411334538","0.8","0.4","0.6","0.2","0.1993500609","0.9411334538","0.538030076","0.3892466866","","","","","","","","","","","","","","74","J","1","","","55","main_expt",""
"","bandit","135","425700","0.0-97.0-0.0","36329385","wem/bandit_party_2","A6P84EZCZF7II","either","1","325","","","","","","","0","0","1","0.862285227","","0.8","0.4","0.6","0.2","","","","","0.1832364248","0.862285227","0.5137881872","0.347268188","","","","","","","","","","74","J","1","","","56","main_expt",""
"","bandit","136","427483","0.0-98.0-0.0","36329385","wem/bandit_party_2","A6P84EZCZF7II","either","1","271","","","","","","","0","0","1","","0.9034803314","0.8","0.4","0.6","0.2","0.1703919496","0.9034803314","0.6274604021","0.3462231845","","","","","","","","","","","","","","74","J","1","","","57","main_expt",""
"","bandit","137","429268","0.0-99.0-0.0","36329385","wem/bandit_party_2","A6P84EZCZF7II","either","1","270","","","","","","","0","0","1","0.2146973212","","0.8","0.4","0.6","0.2","","","","","0.2146973212","0.9062052911","0.5636132077","0.3707442777","","","","","","","","","","72","H","0","img/none_selected.jpg","","58","main_expt",""
"","bandit","138","431092","0.0-100.0-0.0","36329385","wem/bandit_party_2","A6P84EZCZF7II","either","1","311","","","","","","","0","0","1","0.2118107272","","0.8","0.4","0.6","0.2","","","","","0.2118107272","0.9169546289","0.6555757088","0.4530366532","","","","","","","","","","72","H","0","img/none_selected.jpg","","59","main_expt",""
"","bandit","139","432980","0.0-101.0-0.0","36329385","wem/bandit_party_2","A6P84EZCZF7II","either","1","377","","","","","","","1","0","0","0.6555481193","","0.8","0.4","0.6","0.2","","","","","0.2096036334","0.9048679239","0.6555481193","0.4335409142","","","","","","","","","","75","K","2","","","60","main_expt",""
"","bandit","140","434996","0.0-102.0-0.0","36329385","wem/bandit_party_2","A6P84EZCZF7II","either","1","507","","","","","","","1","0","0","0.6988977931","","0.8","0.4","0.6","0.2","","","","","0.1985607356","0.9346572725","0.6988977931","0.3601573371","","","","","","","","","","75","K","2","","","61","main_expt",""
"","bandit","141","436808","0.0-103.0-0.0","36329385","wem/bandit_party_2","A6P84EZCZF7II","either","1","298","","","","","","","0","1","0","","0.6124712875","0.8","0.4","0.6","0.2","0.2352246004","0.9332729597","0.6124712875","0.3187004912","","","","","","","","","","","","","","75","K","2","","","62","main_expt",""
"","bandit","142","438624","0.0-104.0-0.0","36329385","wem/bandit_party_2","A6P84EZCZF7II","either","1","297","","","","","","","1","0","0","0.4881994696","","0.8","0.4","0.6","0.2","","","","","0.1989126294","0.9300142507","0.4881994696","0.331276396","","","","","","","","","","75","K","2","","","63","main_expt",""
"","bandit","143","440453","0.0-105.0-0.0","36329385","wem/bandit_party_2","A6P84EZCZF7II","either","1","317","","","","","","","1","0","0","0.5007509184","","0.8","0.4","0.6","0.2","","","","","0.2231035509","0.8992917639","0.5007509184","0.3984677","","","","","","","","","","75","K","2","","","64","main_expt",""
"","bandit","144","442303","0.0-106.0-0.0","36329385","wem/bandit_party_2","A6P84EZCZF7II","either","1","333","","","","","","","1","0","0","0.6077525222","","0.8","0.4","0.6","0.2","","","","","0.174077904","0.7939475476","0.6077525222","0.3012021372","","","","","","","","","","75","K","2","","","65","main_expt",""
"","bandit","145","444134","0.0-107.0-0.0","36329385","wem/bandit_party_2","A6P84EZCZF7II","either","1","315","","","","","","","0","1","0","","0.4876759876","0.8","0.4","0.6","0.2","0.1505104035","0.7848839068","0.4876759876","0.2848395029","","","","","","","","","","","","","","75","K","2","","","66","main_expt",""
"","bandit","146","445932","0.0-108.0-0.0","36329385","wem/bandit_party_2","A6P84EZCZF7II","either","1","287","","","","","","","0","0","1","0.4705728971","","0.8","0.4","0.6","0.2","","","","","0.1706094741","0.7712869283","0.4705728971","0.2908363747","","","","","","","","","","75","K","2","","","67","main_expt",""
"","bandit","147","447864","0.0-109.0-0.0","36329385","wem/bandit_party_2","A6P84EZCZF7II","either","1","417","","","","","","","0","0","1","","0.3226378352","0.8","0.4","0.6","0.2","0.193375558","0.7426915226","0.5822594153","0.3226378352","","","","","","","","","","","","","","76","L","3","","","68","main_expt",""
"","bandit","148","449735","0.0-110.0-0.0","36329385","wem/bandit_party_2","A6P84EZCZF7II","either","1","359","","","","","","","0","0","1","0.6189715015","","0.8","0.4","0.6","0.2","","","","","0.226811003","0.592712881","0.6189715015","0.4490581071","","","","","","","","","","75","K","2","","","69","main_expt",""
"","bandit","149","451766","0.0-111.0-0.0","36329385","wem/bandit_party_2","A6P84EZCZF7II","either","1","519","","","","","","","0","0","1","","0.191142909","0.8","0.4","0.6","0.2","0.191142909","0.6587085967","0.5307799745","0.42365523","","","","","","","","","","","","","","72","H","0","img/none_selected.jpg","","70","main_expt",""
"","bandit","150","453574","0.0-112.0-0.0","36329385","wem/bandit_party_2","A6P84EZCZF7II","either","1","296","","","","","","","0","0","1","","0.7562029562","0.8","0.4","0.6","0.2","0.2371486809","0.7562029562","0.5205551237","0.427101634","","","","","","","","","","","","","","74","J","1","","","71","main_expt",""
"","bandit","151","455321","0.0-113.0-0.0","36329385","wem/bandit_party_2","A6P84EZCZF7II","either","1","230","","","","","","","0","1","0","","0.670676276","0.8","0.4","0.6","0.2","0.2602117984","0.670676276","0.5913901284","0.5387899421","","","","","","","","","","","","","","74","J","1","","","72","main_expt",""
"","bandit","152","457164","0.0-114.0-0.0","36329385","wem/bandit_party_2","A6P84EZCZF7II","either","1","331","","","","","","","0","1","0","","0.6870219419","0.8","0.4","0.6","0.2","0.1837165363","0.6870219419","0.7127465592","0.4931252492","","","","","","","","","","","","","","74","J","1","","","73","main_expt",""
"","bandit","153","458929","0.0-115.0-0.0","36329385","wem/bandit_party_2","A6P84EZCZF7II","either","1","254","","","","","","","0","1","0","","0.582898469","0.8","0.4","0.6","0.2","0.2032334464","0.582898469","0.7804212289","0.3888626504","","","","","","","","","","","","","","74","J","1","","","74","main_expt",""
"","bandit","154","460733","0.0-116.0-0.0","36329385","wem/bandit_party_2","A6P84EZCZF7II","either","1","290","","","","","","","0","1","0","","0.6452442043","0.8","0.4","0.6","0.2","0.2782751631","0.6452442043","0.7966502287","0.3866429177","","","","","","","","","","","","","","74","J","1","","","75","main_expt",""
"","bandit","155","462406","0.0-117.0-0.0","36329385","wem/bandit_party_2","A6P84EZCZF7II","either","1","158","","","","","","","0","1","0","","0.7031137023","0.8","0.4","0.6","0.2","0.3318782676","0.7031137023","0.7775959854","0.3948468247","","","","","","","","","","","","","","74","J","1","","","76","main_expt",""
"","bandit","156","464173","0.0-118.0-0.0","36329385","wem/bandit_party_2","A6P84EZCZF7II","either","1","252","","","","","","","0","0","1","0.6096498107","","0.8","0.4","0.6","0.2","","","","","0.312607664","0.6096498107","0.8523583745","0.4853082722","","","","","","","","","","74","J","1","","","77","main_expt",""
"","bandit","157","465991","0.0-119.0-0.0","36329385","wem/bandit_party_2","A6P84EZCZF7II","either","1","304","","","","","","","1","0","0","0.3250695504","","0.8","0.4","0.6","0.2","","","","","0.3250695504","0.532302087","0.7707034136","0.4971609959","","","","","","","","","","72","H","0","img/none_selected.jpg","","78","main_expt",""
"","bandit","158","467845","0.0-120.0-0.0","36329385","wem/bandit_party_2","A6P84EZCZF7II","either","1","341","","","","","","","1","0","0","0.277144637","","0.8","0.4","0.6","0.2","","","","","0.277144637","0.4448734945","0.7919080975","0.5349041547","","","","","","","","","","72","H","0","img/none_selected.jpg","","79","main_expt",""
"","bandit","159","469705","0.0-121.0-0.0","36329385","wem/bandit_party_2","A6P84EZCZF7II","either","1","348","","","","","","","0","0","1","0.293018971","","0.8","0.4","0.6","0.2","","","","","0.293018971","0.34513516","0.8107458935","0.4713204996","","","","","","","","","","72","H","0","img/none_selected.jpg","","80","main_expt",""
"","bandit","160","471471","0.0-122.0-0.0","36329385","wem/bandit_party_2","A6P84EZCZF7II","either","1","252","","","","","","","1","0","0","0.2730851157","","0.8","0.4","0.6","0.2","","","","","0.2730851157","0.406584365","0.7851591746","0.4132476049","","","","","","","","","","72","H","0","img/none_selected.jpg","","81","main_expt",""
"","bandit","161","473256","0.0-123.0-0.0","36329385","wem/bandit_party_2","A6P84EZCZF7II","either","1","270","","","","","","","0","0","1","0.2436011542","","0.8","0.4","0.6","0.2","","","","","0.2436011542","0.5068312928","0.8067558171","0.4640808921","","","","","","","","","","72","H","0","img/none_selected.jpg","","82","main_expt",""
"","bandit","162","475014","0.0-124.0-0.0","36329385","wem/bandit_party_2","A6P84EZCZF7II","either","1","244","","","","","","","0","1","0","","0.5209063211","0.8","0.4","0.6","0.2","0.2009218657","0.5209063211","0.7777816444","0.442115463","","","","","","","","","","","","","","74","J","1","","","83","main_expt",""
"","bandit","163","476833","0.0-125.0-0.0","36329385","wem/bandit_party_2","A6P84EZCZF7II","either","1","303","","","","","","","1","0","0","0.6221591745","","0.8","0.4","0.6","0.2","","","","","0.1550904625","0.6221591745","0.7801041195","0.5117806844","","","","","","","","","","74","J","1","","","84","main_expt",""
"","bandit","164","478601","0.0-126.0-0.0","36329385","wem/bandit_party_2","A6P84EZCZF7II","either","1","252","","","","","","","0","1","0","","0.6939346182","0.8","0.4","0.6","0.2","0.1193398435","0.6939346182","0.7593249252","0.5309627618","","","","","","","","","","","","","","74","J","1","","","85","main_expt",""
"","bandit","165","480385","0.0-127.0-0.0","36329385","wem/bandit_party_2","A6P84EZCZF7II","either","1","271","","","","","","","0","1","0","","0.7533471596","0.8","0.4","0.6","0.2","0.1398572341","0.7533471596","0.7911667705","0.5482659382","","","","","","","","","","","","","","74","J","1","","","86","main_expt",""
"","bandit","166","482240","0.0-128.0-0.0","36329385","wem/bandit_party_2","A6P84EZCZF7II","either","1","341","","","","","","","0","1","0","","0.8040573679","0.8","0.4","0.6","0.2","0.1941505275","0.8040573679","0.8480662183","0.4772076429","","","","","","","","","","","","","","74","J","1","","","87","main_expt",""
"","bandit","167","484192","0.0-129.0-0.0","36329385","wem/bandit_party_2","A6P84EZCZF7II","either","1","436","","","","","","","0","1","0","","0.7800800897","0.8","0.4","0.6","0.2","0.09645570925","0.7800800897","0.8110462569","0.5202977678","","","","","","","","","","","","","","74","J","1","","","88","main_expt",""
"","bandit","168","486026","0.0-130.0-0.0","36329385","wem/bandit_party_2","A6P84EZCZF7II","either","1","321","","","","","","","0","1","0","","0.7329239748","0.8","0.4","0.6","0.2","0.1304326216","0.7329239748","0.7924414871","0.4970482359","","","","","","","","","","","","","","74","J","1","","","89","main_expt",""
"","bandit","169","487817","0.0-131.0-0.0","36329385","wem/bandit_party_2","A6P84EZCZF7II","either","1","277","","","","","","","0","1","0","","0.7202813078","0.8","0.4","0.6","0.2","0.1410434261","0.7202813078","0.8190855249","0.4671205494","","","","","","","","","","","","","","74","J","1","","","90","main_expt",""
"","bandit","170","489625","0.0-132.0-0.0","36329385","wem/bandit_party_2","A6P84EZCZF7II","either","1","298","","","","","","","1","0","0","0.698586111","","0.8","0.4","0.6","0.2","","","","","0.1277095213","0.698586111","0.858270253","0.5518401665","","","","","","","","","","74","J","1","","","91","main_expt",""
"","bandit","171","491425","0.0-133.0-0.0","36329385","wem/bandit_party_2","A6P84EZCZF7II","either","1","286","","","","","","","0","0","1","","0.6054304462","0.8","0.4","0.6","0.2","0.08596821216","0.6054304462","0.8583259383","0.620788192","","","","","","","","","","","","","","74","J","1","","","92","main_expt",""
"","bandit","172","493238","0.0-134.0-0.0","36329385","wem/bandit_party_2","A6P84EZCZF7II","either","1","299","","","","","","","0","0","1","","0.05652587691","0.8","0.4","0.6","0.2","0.05652587691","0.6829204303","0.8335107661","0.679669404","","","","","","","","","","","","","","72","H","0","img/none_selected.jpg","","93","main_expt",""
"","bandit","173","495121","0.0-135.0-0.0","36329385","wem/bandit_party_2","A6P84EZCZF7II","either","1","363","","","","","","","0","0","1","","0.6084783934","0.8","0.4","0.6","0.2","0.07490457358","0.6084783934","0.8849423118","0.6726581754","","","","","","","","","","","","","","74","J","1","","","94","main_expt",""
"","bandit","174","497313","0.0-136.0-0.0","36329385","wem/bandit_party_2","A6P84EZCZF7II","either","1","676","","","","","","","0","0","1","","0.5983950962","0.8","0.4","0.6","0.2","0.05201682933","0.51962455","0.9175662658","0.5983950962","","","","","","","","","","","","","","76","L","3","","","95","main_expt",""
"","bandit","175","499118","0.0-137.0-0.0","36329385","wem/bandit_party_2","A6P84EZCZF7II","either","1","291","","","","","","","1","0","0","0.8726153548","","0.8","0.4","0.6","0.2","","","","","0.0353667714","0.453067158","0.8726153548","0.6316158747","","","","","","","","","","75","K","2","","","96","main_expt",""
"","bandit","176","500896","0.0-138.0-0.0","36329385","wem/bandit_party_2","A6P84EZCZF7II","either","1","264","","","","","","","0","0","1","0.7260562137","","0.8","0.4","0.6","0.2","","","","","0.04301306848","0.4090095009","0.7260562137","0.6660601513","","","","","","","","","","75","K","2","","","97","main_expt",""
"","bandit","177","503164","0.0-139.0-0.0","36329385","wem/bandit_party_2","A6P84EZCZF7II","either","1","751","","","","","","","0","0","1","0.03950067624","","0.8","0.4","0.6","0.2","","","","","0.03950067624","0.360727585","0.6506148609","0.6185462561","","","","","","","","","","72","H","0","img/none_selected.jpg","","98","main_expt",""
"","bandit","178","505067","0.0-140.0-0.0","36329385","wem/bandit_party_2","A6P84EZCZF7II","either","1","386","","","","","","","0","0","1","0.5816342488","","0.8","0.4","0.6","0.2","","","","","0.03156699585","0.3351327477","0.5816342488","0.581128502","","","","","","","","","","75","K","2","","","99","main_expt",""
"","bandit","179","506809","0.0-141.0-0.0","36329385","wem/bandit_party_2","A6P84EZCZF7II","either","1","228","","","","","","","0","1","0","","0.479775063","0.8","0.4","0.6","0.2","0.0248161238","0.3491912274","0.5521464449","0.479775063","","","","","","","","","","","","","","76","L","3","","","100","main_expt",""
"","bandit","180","508673","0.0-142.0-0.0","36329385","wem/bandit_party_2","A6P84EZCZF7II","either","1","349","","","","","","","0","1","0","","0.5114647241","0.8","0.4","0.6","0.2","0.02218075004","0.4105375765","0.6063232436","0.5114647241","","","","","","","","","","","","","","76","L","3","","","101","main_expt",""
"","bandit","181","510547","0.0-143.0-0.0","36329385","wem/bandit_party_2","A6P84EZCZF7II","either","1","357","","","","","","","0","1","0","","0.4718740674","0.8","0.4","0.6","0.2","0.01802152149","0.438632671","0.5636213764","0.4718740674","","","","","","","","","","","","","","76","L","3","","","102","main_expt",""
"","bandit","182","512305","0.0-144.0-0.0","36329385","wem/bandit_party_2","A6P84EZCZF7II","either","1","242","","","","","","","0","0","1","","0.5245129891","0.8","0.4","0.6","0.2","0.01877214671","0.372838406","0.5370473259","0.5245129891","","","","","","","","","","","","","","76","L","3","","","103","main_expt",""
"","bandit","183","514106","0.0-145.0-0.0","36329385","wem/bandit_party_2","A6P84EZCZF7II","either","1","282","","","","","","","0","0","1","0.5170751474","","0.8","0.4","0.6","0.2","","","","","0.01556743346","0.3057692375","0.549647281","0.5170751474","","","","","","","","","","76","L","3","","","104","main_expt",""
"","bandit","184","516008","0.0-146.0-0.0","36329385","wem/bandit_party_2","A6P84EZCZF7II","either","1","386","","","","","","","0","0","1","0.03717147126","","0.8","0.4","0.6","0.2","","","","","0.03717147126","0.37369274","0.4225976111","0.472330124","","","","","","","","","","72","H","0","img/none_selected.jpg","","105","main_expt",""
"","bandit","185","517954","0.0-147.0-0.0","36329385","wem/bandit_party_2","A6P84EZCZF7II","either","1","432","","","","","","","0","0","1","","0.5005163425","0.8","0.4","0.6","0.2","0.07687033395","0.3179799449","0.5005163425","0.568133852","","","","","","","","","","","","","","75","K","2","","","106","main_expt",""
"","bandit","186","520201","0.0-148.0-0.0","36329385","wem/bandit_party_2","A6P84EZCZF7II","either","1","733","","","","","","","0","0","1","","0.3053765494","0.8","0.4","0.6","0.2","0.07659049968","0.3053765494","0.3995396385","0.536018559","","","","","","","","","","","","","","74","J","1","","","107","main_expt",""
"","bandit","187","522106","0.0-149.0-0.0","36329385","wem/bandit_party_2","A6P84EZCZF7II","either","1","388","","","","","","","0","0","1","0.2732860947","","0.8","0.4","0.6","0.2","","","","","0.07827602418","0.2732860947","0.3855926336","0.3880888981","","","","","","","","","","74","J","1","","","108","main_expt",""
"","bandit","188","523969","0.0-150.0-0.0","36329385","wem/bandit_party_2","A6P84EZCZF7II","either","1","349","","","","","","","1","0","0","0.1352418701","","0.8","0.4","0.6","0.2","","","","","0.1352418701","0.2624197952","0.3059937163","0.3675045314","","","","","","","","","","72","H","0","img/none_selected.jpg","","109","main_expt",""
"","bandit","189","525909","0.0-151.0-0.0","36329385","wem/bandit_party_2","A6P84EZCZF7II","either","1","424","","","","","","","0","0","1","0.1705666919","","0.8","0.4","0.6","0.2","","","","","0.1705666919","0.3303210632","0.2752892785","0.4560700489","","","","","","","","","","72","H","0","img/none_selected.jpg","","110","main_expt",""
"","bandit","190","527722","0.0-152.0-0.0","36329385","wem/bandit_party_2","A6P84EZCZF7II","either","1","298","","","","","","","0","0","1","0.2202970635","","0.8","0.4","0.6","0.2","","","","","0.2202970635","0.3541452024","0.3038626008","0.5366389876","","","","","","","","","","72","H","0","img/none_selected.jpg","","111","main_expt",""
"","bandit","191","529769","0.0-153.0-0.0","36329385","wem/bandit_party_2","A6P84EZCZF7II","either","1","534","","","","","","","0","0","1","0.2308866464","","0.8","0.4","0.6","0.2","","","","","0.2368742277","0.4468573219","0.2308866464","0.5742054707","","","","","","","","","","75","K","2","","","112","main_expt",""
"","bandit","192","531578","0.0-154.0-0.0","36329385","wem/bandit_party_2","A6P84EZCZF7II","either","1","288","","","","","","","0","0","1","0.6014260319","","0.8","0.4","0.6","0.2","","","","","0.2487241586","0.5163231944","0.2420052043","0.6014260319","","","","","","","","","","76","L","3","","","113","main_expt",""
"","bandit","193","533508","0.0-155.0-0.0","36329385","wem/bandit_party_2","A6P84EZCZF7II","either","1","414","","","","","","","0","1","0","","0.4064640458","0.8","0.4","0.6","0.2","0.238824581","0.4064640458","0.3277817495","0.5398035654","","","","","","","","","","","","","","74","J","1","","","114","main_expt",""
"","bandit","194","535318","0.0-156.0-0.0","36329385","wem/bandit_party_2","A6P84EZCZF7II","either","1","292","","","","","","","0","1","0","","0.4085425191","0.8","0.4","0.6","0.2","0.1480638281","0.4085425191","0.3280884562","0.5008208772","","","","","","","","","","","","","","74","J","1","","","115","main_expt",""
"","bandit","195","537159","0.0-157.0-0.0","36329385","wem/bandit_party_2","A6P84EZCZF7II","either","1","322","","","","","","","0","0","1","","0.4412864427","0.8","0.4","0.6","0.2","0.1246447603","0.4412864427","0.4137256642","0.4200837231","","","","","","","","","","","","","","74","J","1","","","116","main_expt",""
"","bandit","196","538996","0.0-158.0-0.0","36329385","wem/bandit_party_2","A6P84EZCZF7II","either","1","318","","","","","","","0","0","1","","0.5188885271","0.8","0.4","0.6","0.2","0.1308085784","0.5188885271","0.372751341","0.4094987027","","","","","","","","","","","","","","74","J","1","","","117","main_expt",""
"","bandit","197","540820","0.0-159.0-0.0","36329385","wem/bandit_party_2","A6P84EZCZF7II","either","1","313","","","","","","","0","0","1","","0.09076242324","0.8","0.4","0.6","0.2","0.09076242324","0.5728151575","0.4225631273","0.3862907493","","","","","","","","","","","","","","72","H","0","img/none_selected.jpg","","118","main_expt",""
"","bandit","198","542768","0.0-160.0-0.0","36329385","wem/bandit_party_2","A6P84EZCZF7II","either","1","436","","","","","","","0","1","0","","0.4437318585","0.8","0.4","0.6","0.2","0.09057925276","0.5065624602","0.4188482812","0.4437318585","","","","","","","","","","","","","","76","L","3","","","119","main_expt",""
"","bandit","199","544509","0.0-161.0-0.0","36329385","wem/bandit_party_2","A6P84EZCZF7II","either","1","230","","","","","","","0","1","0","","0.293469011","0.8","0.4","0.6","0.2","0.1288926122","0.4064427813","0.3729077829","0.293469011","","","","","","","","","","","","","","76","L","3","","","120","main_expt",""
"","bandit","200","546331","0.0-162.0-0.0","36329385","wem/bandit_party_2","A6P84EZCZF7II","either","1","308","","","","","","","0","1","0","","0.2141601759","0.8","0.4","0.6","0.2","0.1479701512","0.3948988447","0.3817262037","0.2141601759","","","","","","","","","","","","","","76","L","3","","","121","main_expt",""
"","bandit","201","548140","0.0-163.0-0.0","36329385","wem/bandit_party_2","A6P84EZCZF7II","either","1","293","","","","","","","0","1","0","","0.2594293103","0.8","0.4","0.6","0.2","0.1663524813","0.316823658","0.3537210734","0.2594293103","","","","","","","","","","","","","","76","L","3","","","122","main_expt",""
"","bandit","202","549925","0.0-164.0-0.0","36329385","wem/bandit_party_2","A6P84EZCZF7II","either","1","269","","","","","","","0","0","1","","0.1519240937","0.8","0.4","0.6","0.2","0.1993917655","0.3045978244","0.3633727708","0.1519240937","","","","","","","","","","","","","","76","L","3","","","123","main_expt",""
"","bandit","203","551781","0.0-165.0-0.0","36329385","wem/bandit_party_2","A6P84EZCZF7II","either","1","338","","","","","","","1","0","0","0.4139908316","","0.8","0.4","0.6","0.2","","","","","0.2948689786","0.2389028675","0.4139908316","0.2311656533","","","","","","","","","","75","K","2","","","124","main_expt",""
"","bandit","204","553573","0.0-166.0-0.0","36329385","wem/bandit_party_2","A6P84EZCZF7II","either","1","277","","","","","","","1","0","0","0.3619800754","","0.8","0.4","0.6","0.2","","","","","0.4054398129","0.2166803268","0.3619800754","0.1956748967","","","","","","","","","","75","K","2","","","125","main_expt",""
"","bandit","205","555355","0.0-167.0-0.0","36329385","wem/bandit_party_2","A6P84EZCZF7II","either","1","267","","","","","","","1","0","0","0.353362548","","0.8","0.4","0.6","0.2","","","","","0.5337661481","0.1613674106","0.353362548","0.1419383156","","","","","","","","","","75","K","2","","","126","main_expt",""
"","bandit","206","557159","0.0-168.0-0.0","36329385","wem/bandit_party_2","A6P84EZCZF7II","either","1","291","","","","","","","0","0","1","0.2888217425","","0.8","0.4","0.6","0.2","","","","","0.5510518781","0.1682412955","0.2888217425","0.1768105291","","","","","","","","","","75","K","2","","","127","main_expt",""
"","bandit","207","559135","0.0-169.0-0.0","36329385","wem/bandit_party_2","A6P84EZCZF7II","either","1","459","","","","","","","0","0","1","0.4746642732","","0.8","0.4","0.6","0.2","","","","","0.4746642732","0.1655910943","0.3131893798","0.1187699492","","","","","","","","","","72","H","0","img/none_selected.jpg","","128","main_expt",""
"","bandit","208","560958","0.0-170.0-0.0","36329385","wem/bandit_party_2","A6P84EZCZF7II","either","1","308","","","","","","","0","1","0","","0.1845506081","0.8","0.4","0.6","0.2","0.5345142674","0.1845506081","0.2826861836","0.1860330609","","","","","","","","","","","","","","74","J","1","","","129","main_expt",""
"","bandit","209","562805","0.0-171.0-0.0","36329385","wem/bandit_party_2","A6P84EZCZF7II","either","1","332","","","","","","","0","0","1","0.1548240476","","0.8","0.4","0.6","0.2","","","","","0.6617219445","0.1548240476","0.3434973012","0.09722607165","","","","","","","","","","74","J","1","","","130","main_expt",""
"","bandit","210","564620","0.0-172.0-0.0","36329385","wem/bandit_party_2","A6P84EZCZF7II","either","1","301","","","","","","","1","0","0","0.6183560712","","0.8","0.4","0.6","0.2","","","","","0.6183560712","0.1503989","0.3848082556","0.05626421391","","","","","","","","","","72","H","0","img/none_selected.jpg","","131","main_expt",""
"","bandit","211","566511","0.0-173.0-0.0","36329385","wem/bandit_party_2","A6P84EZCZF7II","either","1","373","","","","","","","1","0","0","0.7009512511","","0.8","0.4","0.6","0.2","","","","","0.7009512511","0.1199593994","0.4140069858","0.1149854728","","","","","","","","","","72","H","0","img/none_selected.jpg","","132","main_expt",""
"","bandit","212","568373","0.0-174.0-0.0","36329385","wem/bandit_party_2","A6P84EZCZF7II","either","1","347","","","","","","","0","0","1","","0.5838974895","0.8","0.4","0.6","0.2","0.5838974895","0.1518383839","0.3745017877","0.1698175541","","","","","","","","","","","","","","72","H","0","img/none_selected.jpg","","133","main_expt",""
"","bandit","213","570495","0.0-175.0-0.0","36329385","wem/bandit_party_2","A6P84EZCZF7II","either","1","605","","","","","","","0","0","1","","0.1855528241","0.8","0.4","0.6","0.2","0.6628563986","0.1855528241","0.3918835711","0.1925371395","","","","","","","","","","","","","","74","J","1","","","134","main_expt",""
"","bandit","214","572319","0.0-176.0-0.0","36329385","wem/bandit_party_2","A6P84EZCZF7II","either","1","307","","","","","","","0","1","0","","0.246136332","0.8","0.4","0.6","0.2","0.5610912218","0.2187769305","0.3405764209","0.246136332","","","","","","","","","","","","","","76","L","3","","","135","main_expt",""
"","bandit","215","574150","0.0-177.0-0.0","36329385","wem/bandit_party_2","A6P84EZCZF7II","either","1","308","","","","","","","0","0","1","","0.2277518718","0.8","0.4","0.6","0.2","0.4834649218","0.2001534018","0.4155430462","0.2277518718","","","","","","","","","","","","","","76","L","3","","","136","main_expt",""
"","bandit","216","576038","0.0-178.0-0.0","36329385","wem/bandit_party_2","A6P84EZCZF7II","either","1","374","","","","","","","0","0","1","","0.3389252929","0.8","0.4","0.6","0.2","0.513072369","0.176995917","0.3389252929","0.252962458","","","","","","","","","","","","","","75","K","2","","","137","main_expt",""
"","bandit","217","578102","0.0-179.0-0.0","36329385","wem/bandit_party_2","A6P84EZCZF7II","either","1","547","","","","","","","0","1","0","","0.5502636267","0.8","0.4","0.6","0.2","0.5502636267","0.1460019238","0.2698753193","0.3018696236","","","","","","","","","","","","","","72","H","0","img/none_selected.jpg","","138","main_expt",""
"","bandit","218","580068","0.0-180.0-0.0","36329385","wem/bandit_party_2","A6P84EZCZF7II","either","1","451","","","","","","","0","0","1","0.4564922144","","0.8","0.4","0.6","0.2","","","","","0.4564922144","0.06707115951","0.2821570394","0.347353107","","","","","","","","","","72","H","0","img/none_selected.jpg","","139","main_expt",""
"","bandit","219","582079","0.0-181.0-0.0","36329385","wem/bandit_party_2","A6P84EZCZF7II","either","1","495","","","","","","","0","0","1","0.1071331831","","0.8","0.4","0.6","0.2","","","","","0.4116013625","0.1071331831","0.3577533322","0.2477375586","","","","","","","","","","74","J","1","","","140","main_expt",""
"","bandit","220","583910","0.0-182.0-0.0","36329385","wem/bandit_party_2","A6P84EZCZF7II","either","1","314","","","","","","","0","0","1","","0.4250900652","0.8","0.4","0.6","0.2","0.4498847811","0.1224459691","0.4250900652","0.2880826197","","","","","","","","","","","","","","75","K","2","","","141","main_expt",""
"","bandit","221","585925","0.0-183.0-0.0","36329385","wem/bandit_party_2","A6P84EZCZF7II","either","1","500","","","","","","","0","0","1","","0.3451055681","0.8","0.4","0.6","0.2","0.4822150968","0.1127900777","0.3451055681","0.2287108423","","","","","","","","","","","","","","75","K","2","","","142","main_expt",""
"","bandit","222","587686","0.0-184.0-0.0","36329385","wem/bandit_party_2","A6P84EZCZF7II","either","1","253","","","","","","","0","0","1","","0.2096850542","0.8","0.4","0.6","0.2","0.513506041","0.1736101882","0.4661026996","0.2096850542","","","","","","","","","","","","","","76","L","3","","","143","main_expt",""
"","bandit","223","589542","0.0-185.0-0.0","36329385","wem/bandit_party_2","A6P84EZCZF7II","either","1","339","","","","","","","1","0","0","0.556822441","","0.8","0.4","0.6","0.2","","","","","0.556822441","0.1231714597","0.4683168179","0.2214165798","","","","","","","","","","72","H","0","img/none_selected.jpg","","144","main_expt",""
"","bandit","224","591360","0.0-186.0-0.0","36329385","wem/bandit_party_2","A6P84EZCZF7II","either","1","302","","","","","","","1","0","0","0.5633269006","","0.8","0.4","0.6","0.2","","","","","0.5633269006","0.10514291","0.448697065","0.2412424024","","","","","","","","","","72","H","0","img/none_selected.jpg","","145","main_expt",""
"","bandit","225","593139","0.0-187.0-0.0","36329385","wem/bandit_party_2","A6P84EZCZF7II","either","1","258","","","","","","","1","0","0","0.6482805244","","0.8","0.4","0.6","0.2","","","","","0.6482805244","0.0972381369","0.4560677512","0.1841611904","","","","","","","","","","72","H","0","img/none_selected.jpg","","146","main_expt",""
"","bandit","226","594959","0.0-188.0-0.0","36329385","wem/bandit_party_2","A6P84EZCZF7II","either","1","304","","","","","","","0","0","1","0.6036290043","","0.8","0.4","0.6","0.2","","","","","0.6036290043","0.1897119627","0.513472809","0.1577922033","","","","","","","","","","72","H","0","img/none_selected.jpg","","147","main_expt",""
"","bandit","227","596800","0.0-189.0-0.0","36329385","wem/bandit_party_2","A6P84EZCZF7II","either","1","325","","","","","","","0","1","0","","0.1759094881","0.8","0.4","0.6","0.2","0.6110248825","0.1759094881","0.3820674583","0.1663963597","","","","","","","","","","","","","","74","J","1","","","148","main_expt",""
"","bandit","228","598633","0.0-190.0-0.0","36329385","wem/bandit_party_2","A6P84EZCZF7II","either","1","324","","","","","","","0","0","1","0.2204336569","","0.8","0.4","0.6","0.2","","","","","0.6453676348","0.2204336569","0.3116557105","0.319747154","","","","","","","","","","74","J","1","","","149","main_expt",""
"","bandit","229","600673","0.0-191.0-0.0","36329385","wem/bandit_party_2","A6P84EZCZF7II","either","1","518","","","","","","","1","0","0","0.66235511","","0.8","0.4","0.6","0.2","","","","","0.66235511","0.2328853871","0.3039338698","0.5410110608","","","","","","","","","","72","H","0","img/none_selected.jpg","","150","main_expt",""
"","bandit","230","602520","0.0-192.0-0.0","36329385","wem/bandit_party_2","A6P84EZCZF7II","either","1","331","","","","","","","0","0","1","0.5547575852","","0.8","0.4","0.6","0.2","","","","","0.5547575852","0.2652525627","0.3092958796","0.5584745132","","","","","","","","","","72","H","0","img/none_selected.jpg","","151","main_expt",""
"","bandit","231","604345","0.0-193.0-0.0","36329385","wem/bandit_party_2","A6P84EZCZF7II","either","1","309","","","","","","","0","0","1","0.2654363334","","0.8","0.4","0.6","0.2","","","","","0.5223098228","0.2654363334","0.3097370874","0.5709378499","","","","","","","","","","74","J","1","","","152","main_expt",""
"","bandit","232","606193","0.0-194.0-0.0","36329385","wem/bandit_party_2","A6P84EZCZF7II","either","1","331","","","","","","","0","0","1","","0.6314515046","0.8","0.4","0.6","0.2","0.5137303037","0.3505589273","0.2955649657","0.6314515046","","","","","","","","","","","","","","76","L","3","","","153","main_expt",""
"","bandit","233","608015","0.0-195.0-0.0","36329385","wem/bandit_party_2","A6P84EZCZF7II","either","1","307","","","","","","","0","0","1","0.221553637","","0.8","0.4","0.6","0.2","","","","","0.5193194566","0.39889796","0.221553637","0.6734276465","","","","","","","","","","75","K","2","","","154","main_expt",""
"","bandit","234","609847","0.0-196.0-0.0","36329385","wem/bandit_party_2","A6P84EZCZF7II","either","1","316","","","","","","","0","0","1","0.4736812385","","0.8","0.4","0.6","0.2","","","","","0.4736812385","0.4202606707","0.2231547498","0.7019144477","","","","","","","","","","72","H","0","img/none_selected.jpg","","155","main_expt",""
"","bandit","235","611800","0.0-197.0-0.0","36329385","wem/bandit_party_2","A6P84EZCZF7II","either","1","436","","","","","","","0","1","0","","0.6695455193","0.8","0.4","0.6","0.2","0.4616442501","0.4814159609","0.2750957943","0.6695455193","","","","","","","","","","","","","","76","L","3","","","156","main_expt",""
"","bandit","236","613783","0.0-198.0-0.0","36329385","wem/bandit_party_2","A6P84EZCZF7II","either","1","467","","","","","","","0","0","1","","0.6179864128","0.8","0.4","0.6","0.2","0.5025740222","0.5316807058","0.2005793054","0.6179864128","","","","","","","","","","","","","","76","L","3","","","157","main_expt",""
"","bandit","237","615880","0.0-199.0-0.0","36329385","wem/bandit_party_2","A6P84EZCZF7II","either","1","579","","","","","","","0","1","0","","0.4548105643","0.8","0.4","0.6","0.2","0.4548105643","0.5429668589","0.2502080146","0.7380689997","","","","","","","","","","","","","","72","H","0","img/none_selected.jpg","","158","main_expt",""
"","bandit","238","617785","0.0-200.0-0.0","36329385","wem/bandit_party_2","A6P84EZCZF7II","either","1","388","","","","","","","0","0","1","","0.4622667215","0.8","0.4","0.6","0.2","0.4622667215","0.5991419929","0.2729805177","0.7632184112","","","","","","","","","","","","","","72","H","0","img/none_selected.jpg","","159","main_expt",""
"","bandit","239","619553","0.0-201.0-0.0","36329385","wem/bandit_party_2","A6P84EZCZF7II","either","1","249","","","","","","","0","1","0","","0.6480894682","0.8","0.4","0.6","0.2","0.4600517474","0.6480894682","0.2801697818","0.6917664031","","","","","","","","","","","","","","74","J","1","","","160","main_expt",""
"","bandit","240","621787","0.0-202.0-0.0","36329385","wem/bandit_party_2","A6P84EZCZF7II","either","1","715","","","","","","","0","0","1","0.2437938608","","0.8","0.4","0.6","0.2","","","","","0.481388234","0.6776161973","0.2437938608","0.7106531984","","","","","","","","","","75","K","2","","","161","main_expt",""
"","bandit","241","623566","0.0-203.0-0.0","36329385","wem/bandit_party_2","A6P84EZCZF7II","either","1","264","","","","","","","0","0","1","0.3850106192","","0.8","0.4","0.6","0.2","","","","","0.3850106192","0.7134031715","0.2687553501","0.809310282","","","","","","","","","","72","H","0","img/none_selected.jpg","","162","main_expt",""
"","bandit","242","625344","0.0-204.0-0.0","36329385","wem/bandit_party_2","A6P84EZCZF7II","either","1","269","","","","","","","0","1","0","","0.7492875705","0.8","0.4","0.6","0.2","0.3498723973","0.6215635068","0.245991677","0.7492875705","","","","","","","","","","","","","","76","L","3","","","163","main_expt",""
"","bandit","243","627145","0.0-205.0-0.0","36329385","wem/bandit_party_2","A6P84EZCZF7II","either","1","284","","","","","","","0","1","0","","0.7561394707","0.8","0.4","0.6","0.2","0.4287417444","0.5219240024","0.270385563","0.7561394707","","","","","","","","","","","","","","76","L","3","","","164","main_expt",""
"","bandit","244","628984","0.0-206.0-0.0","36329385","wem/bandit_party_2","A6P84EZCZF7II","either","1","324","","","","","","","1","0","0","0.8111415702","","0.8","0.4","0.6","0.2","","","","","0.3150145745","0.4727302842","0.3037855967","0.8111415702","","","","","","","","","","76","L","3","","","165","main_expt",""
"","bandit","245","630817","0.0-207.0-0.0","36329385","wem/bandit_party_2","A6P84EZCZF7II","either","1","309","","","","","","","0","1","0","","0.7759938205","0.8","0.4","0.6","0.2","0.2927018344","0.5181018645","0.3395577104","0.7759938205","","","","","","","","","","","","","","76","L","3","","","166","main_expt",""
"","bandit","246","632728","0.0-208.0-0.0","36329385","wem/bandit_party_2","A6P84EZCZF7II","either","1","395","","","","","","","0","1","0","","0.8267633335","0.8","0.4","0.6","0.2","0.3610256338","0.5280433419","0.3443901906","0.8267633335","","","","","","","","","","","","","","76","L","3","","","167","main_expt",""
"","bandit","247","634611","0.0-209.0-0.0","36329385","wem/bandit_party_2","A6P84EZCZF7II","either","1","363","","","","","","","0","1","0","","0.8136073627","0.8","0.4","0.6","0.2","0.3137127159","0.5470010145","0.2552323567","0.8136073627","","","","","","","","","","","","","","76","L","3","","","168","main_expt",""
"","bandit","248","636449","0.0-210.0-0.0","36329385","wem/bandit_party_2","A6P84EZCZF7II","either","1","321","","","","","","","0","0","1","","0.7308533614","0.8","0.4","0.6","0.2","0.2292796242","0.5558845962","0.289352286","0.7308533614","","","","","","","","","","","","","","76","L","3","","","169","main_expt",""
"","bandit","249","638610","0.0-211.0-0.0","36329385","wem/bandit_party_2","A6P84EZCZF7II","either","1","644","","","","","","","0","0","1","0.221948569","","0.8","0.4","0.6","0.2","","","","","0.221948569","0.5799309324","0.2262743404","0.7090730391","","","","","","","","","","72","H","0","img/none_selected.jpg","","170","main_expt",""
"","bandit","250","640490","0.0-212.0-0.0","36329385","wem/bandit_party_2","A6P84EZCZF7II","either","1","368","","","","","","","1","0","0","0.6643953266","","0.8","0.4","0.6","0.2","","","","","0.159615594","0.6643953266","0.2644351609","0.7229684446","","","","","","","","","","74","J","1","","","171","main_expt",""
"","bandit","251","642332","0.0-213.0-0.0","36329385","wem/bandit_party_2","A6P84EZCZF7II","either","1","324","","","","","","","0","1","0","","0.7610666705","0.8","0.4","0.6","0.2","0.1303854457","0.7610666705","0.4136296373","0.6612043244","","","","","","","","","","","","","","74","J","1","","","172","main_expt",""
"","bandit","252","644161","0.0-214.0-0.0","36329385","wem/bandit_party_2","A6P84EZCZF7II","either","1","313","","","","","","","0","1","0","","0.8006149786","0.8","0.4","0.6","0.2","0.07729024622","0.8006149786","0.491318492","0.7669021743","","","","","","","","","","","","","","74","J","1","","","173","main_expt",""
"","bandit","253","645969","0.0-215.0-0.0","36329385","wem/bandit_party_2","A6P84EZCZF7II","either","1","282","","","","","","","1","0","0","0.791095403","","0.8","0.4","0.6","0.2","","","","","0.1227026474","0.791095403","0.4966763124","0.8111867287","","","","","","","","","","74","J","1","","","174","main_expt",""
"","bandit","254","647786","0.0-216.0-0.0","36329385","wem/bandit_party_2","A6P84EZCZF7II","either","1","300","","","","","","","1","0","0","0.8572088762","","0.8","0.4","0.6","0.2","","","","","0.09483306355","0.8572088762","0.5109350621","0.8192498968","","","","","","","","","","74","J","1","","","175","main_expt",""
"","bandit","255","649685","0.0-217.0-0.0","36329385","wem/bandit_party_2","A6P84EZCZF7II","either","1","377","","","","","","","0","0","1","","0.8576080684","0.8","0.4","0.6","0.2","0.143069758","0.8576080684","0.6321295754","0.8371283275","","","","","","","","","","","","","","74","J","1","","","176","main_expt",""
"","bandit","256","651612","0.0-218.0-0.0","36329385","wem/bandit_party_2","A6P84EZCZF7II","either","1","407","","","","","","","0","1","0","","0.5515755996","0.8","0.4","0.6","0.2","0.1741656422","0.8678158231","0.5515755996","0.8545140947","","","","","","","","","","","","","","75","K","2","","","177","main_expt",""
"","bandit","257","653538","0.0-219.0-0.0","36329385","wem/bandit_party_2","A6P84EZCZF7II","either","1","408","","","","","","","0","0","1","0.5086275016","","0.8","0.4","0.6","0.2","","","","","0.1904086474","0.8820542777","0.5086275016","0.8794893657","","","","","","","","","","75","K","2","","","178","main_expt",""
"","bandit","258","655387","0.0-220.0-0.0","36329385","wem/bandit_party_2","A6P84EZCZF7II","either","1","327","","","","","","","0","1","0","","0.8939587296","0.8","0.4","0.6","0.2","0.1778905233","0.8907334788","0.5215192908","0.8939587296","","","","","","","","","","","","","","76","L","3","","","179","main_expt",""
"","bandit","259","657386","0.0-221.0-0.0","36329385","wem/bandit_party_2","A6P84EZCZF7II","either","1","475","","","","","","","0","1","0","","0.868077767","0.8","0.4","0.6","0.2","0.2112817454","0.9161653667","0.5193414217","0.868077767","","","","","","","","","","","","","","76","L","3","","","180","main_expt",""
"","bandit","260","659274","0.0-222.0-0.0","36329385","wem/bandit_party_2","A6P84EZCZF7II","either","1","371","","","","","","","0","1","0","","0.9295405476","0.8","0.4","0.6","0.2","0.2236312472","0.9327112184","0.4613460131","0.9295405476","","","","","","","","","","","","","","76","L","3","","","181","main_expt",""
"","bandit","261","661084","0.0-223.0-0.0","36329385","wem/bandit_party_2","A6P84EZCZF7II","either","1","292","","","","","","","0","1","0","","0.9213574857","0.8","0.4","0.6","0.2","0.264467441","0.9284398706","0.4468633868","0.9213574857","","","","","","","","","","","","","","76","L","3","","","182","main_expt",""
"","bandit","262","662949","0.0-224.0-0.0","36329385","wem/bandit_party_2","A6P84EZCZF7II","either","1","343","","","","","","","0","1","0","","0.9374560388","0.8","0.4","0.6","0.2","0.2240632979","0.89591471","0.4985091709","0.9374560388","","","","","","","","","","","","","","76","L","3","","","183","main_expt",""
"","bandit","263","664764","0.0-225.0-0.0","36329385","wem/bandit_party_2","A6P84EZCZF7II","either","1","294","","","","","","","0","1","0","","0.9120054929","0.8","0.4","0.6","0.2","0.1671404848","0.9146434193","0.6057575335","0.9120054929","","","","","","","","","","","","","","76","L","3","","","184","main_expt",""
"","bandit","264","666604","0.0-226.0-0.0","36329385","wem/bandit_party_2","A6P84EZCZF7II","either","1","321","","","","","","","0","1","0","","0.8428471033","0.8","0.4","0.6","0.2","0.1932257563","0.8575823977","0.4915456485","0.8428471033","","","","","","","","","","","","","","76","L","3","","","185","main_expt",""
"","bandit","265","668492","0.0-227.0-0.0","36329385","wem/bandit_party_2","A6P84EZCZF7II","either","1","369","","","","","","","0","1","0","","0.7734335662","0.8","0.4","0.6","0.2","0.155472597","0.8487952361","0.5976273718","0.7734335662","","","","","","","","","","","","","","76","L","3","","","186","main_expt",""
"","bandit","266","670461","0.0-228.0-0.0","36329385","wem/bandit_party_2","A6P84EZCZF7II","either","1","449","","","","","","","0","1","0","","0.7667319261","0.8","0.4","0.6","0.2","0.1895871356","0.8603972339","0.5743595779","0.7667319261","","","","","","","","","","","","","","76","L","3","","","187","main_expt",""
"","bandit","267","672519","0.0-229.0-0.0","36329385","wem/bandit_party_2","A6P84EZCZF7II","either","1","538","","","","","","","0","0","1","","0.5945875292","0.8","0.4","0.6","0.2","0.2119556673","0.8834510925","0.6833173747","0.5945875292","","","","","","","","","","","","","","76","L","3","","","188","main_expt",""
"","bandit","268","674373","0.0-230.0-0.0","36329385","wem/bandit_party_2","A6P84EZCZF7II","either","1","336","","","","","","","0","0","1","0.651089354","","0.8","0.4","0.6","0.2","","","","","0.2255007403","0.8973947779","0.651089354","0.7406569186","","","","","","","","","","75","K","2","","","189","main_expt",""
"","bandit","269","676189","0.0-231.0-0.0","36329385","wem/bandit_party_2","A6P84EZCZF7II","either","1","296","","","","","","","0","0","1","0.1754842532","","0.8","0.4","0.6","0.2","","","","","0.1754842532","0.8824587855","0.6599652607","0.7371931777","","","","","","","","","","72","H","0","img/none_selected.jpg","","190","main_expt",""
"","bandit","270","678108","0.0-232.0-0.0","36329385","wem/bandit_party_2","A6P84EZCZF7II","either","1","411","","","","","","","1","0","0","0.9076431997","","0.8","0.4","0.6","0.2","","","","","0.1936311571","0.9076431997","0.6960236584","0.7019705866","","","","","","","","","","74","J","1","","","191","main_expt",""
"","bandit","271","679951","0.0-233.0-0.0","36329385","wem/bandit_party_2","A6P84EZCZF7II","either","1","329","","","","","","","0","1","0","","0.8673165995","0.8","0.4","0.6","0.2","0.215612591","0.8673165995","0.6713911156","0.6198122665","","","","","","","","","","","","","","74","J","1","","","192","main_expt",""
"","bandit","272","681973","0.0-234.0-0.0","36329385","wem/bandit_party_2","A6P84EZCZF7II","either","1","493","","","","","","","0","1","0","","0.8264401474","0.8","0.4","0.6","0.2","0.2818734505","0.8264401474","0.7244072205","0.6100930929","","","","","","","","","","","","","","74","J","1","","","193","main_expt",""
"","bandit","273","683839","0.0-235.0-0.0","36329385","wem/bandit_party_2","A6P84EZCZF7II","either","1","348","","","","","","","0","1","0","","0.8546086414","0.8","0.4","0.6","0.2","0.3616108755","0.8546086414","0.7397798508","0.6332739585","","","","","","","","","","","","","","74","J","1","","","194","main_expt",""
"","bandit","274","685670","0.0-236.0-0.0","36329385","wem/bandit_party_2","A6P84EZCZF7II","either","1","312","","","","","","","0","0","1","","0.7914914872","0.8","0.4","0.6","0.2","0.3979961615","0.7914914872","0.7602069811","0.609207161","","","","","","","","","","","","","","74","J","1","","","195","main_expt",""
"","bandit","275","687527","0.0-237.0-0.0","36329385","wem/bandit_party_2","A6P84EZCZF7II","either","1","334","","","","","","","0","0","1","0.4366641927","","0.8","0.4","0.6","0.2","","","","","0.4366641927","0.7608346536","0.7114092524","0.6560649547","","","","","","","","","","72","H","0","img/none_selected.jpg","","196","main_expt",""
"","bandit","276","689327","0.0-238.0-0.0","36329385","wem/bandit_party_2","A6P84EZCZF7II","either","1","278","","","","","","","0","1","0","","0.6917424169","0.8","0.4","0.6","0.2","0.560782874","0.7003784325","0.6917424169","0.6656533059","","","","","","","","","","","","","","75","K","2","","","197","main_expt",""
"","bandit","277","691166","0.0-239.0-0.0","36329385","wem/bandit_party_2","A6P84EZCZF7II","either","1","317","","","","","","","0","0","1","0.6561069913","","0.8","0.4","0.6","0.2","","","","","0.5649388288","0.6036075577","0.6561069913","0.6841747727","","","","","","","","","","75","K","2","","","198","main_expt",""
"","bandit","278","692910","0.0-240.0-0.0","36329385","wem/bandit_party_2","A6P84EZCZF7II","either","1","223","","","","","","","0","1","0","","0.7105065455","0.8","0.4","0.6","0.2","0.5375892324","0.5843314555","0.6948346643","0.7105065455","","","","","","","","","","","","","","76","L","3","","","199","main_expt",""
"","bandit","279","694720","0.0-241.0-0.0","36329385","wem/bandit_party_2","A6P84EZCZF7II","either","1","288","","","","","","","0","1","0","","0.7380433654","0.8","0.4","0.6","0.2","0.5625167851","0.539414212","0.7369743936","0.7380433654","","","","","","","","","","","","","","76","L","3","","","200","main_expt",""
"","bandit","280","696511","0.0-242.0-0.0","36329385","wem/bandit_party_2","A6P84EZCZF7II","either","1","271","","","","","","","0","1","0","","0.6432951689","0.8","0.4","0.6","0.2","0.6266810217","0.3774065742","0.8347268415","0.6432951689","","","","","","","","","","","","","","76","L","3","","","201","main_expt",""
"","bandit","281","698339","0.0-243.0-0.0","36329385","wem/bandit_party_2","A6P84EZCZF7II","either","1","302","","","","","","","0","0","1","","0.4995879772","0.8","0.4","0.6","0.2","0.6661075828","0.2824615609","0.7612264534","0.4995879772","","","","","","","","","","","","","","76","L","3","","","202","main_expt",""
"","bandit","282","700422","0.0-244.0-0.0","36329385","wem/bandit_party_2","A6P84EZCZF7II","either","1","562","","","","","","","1","0","0","0.7534099026","","0.8","0.4","0.6","0.2","","","","","0.7534099026","0.210170224","0.6904596671","0.4767352753","","","","","","","","","","72","H","0","img/none_selected.jpg","","203","main_expt",""
"","bandit","283","702285","0.0-245.0-0.0","36329385","wem/bandit_party_2","A6P84EZCZF7II","either","1","344","","","","","","","1","0","0","0.7033522103","","0.8","0.4","0.6","0.2","","","","","0.7033522103","0.2708138581","0.6855485072","0.3680612217","","","","","","","","","","72","H","0","img/none_selected.jpg","","204","main_expt",""
"","bandit","284","704111","0.0-246.0-0.0","36329385","wem/bandit_party_2","A6P84EZCZF7II","either","1","306","","","","","","","0","1","0","","0.6105989365","0.8","0.4","0.6","0.2","0.6105989365","0.3319820794","0.7006332368","0.3404512965","","","","","","","","","","","","","","72","H","0","img/none_selected.jpg","","205","main_expt",""
"","bandit","285","705975","0.0-247.0-0.0","36329385","wem/bandit_party_2","A6P84EZCZF7II","either","1","346","","","","","","","1","0","0","0.725137222","","0.8","0.4","0.6","0.2","","","","","0.725137222","0.3517339603","0.7533130943","0.2774568564","","","","","","","","","","72","H","0","img/none_selected.jpg","","206","main_expt",""
"","bandit","286","707850","0.0-248.0-0.0","36329385","wem/bandit_party_2","A6P84EZCZF7II","either","1","348","","","","","","","1","0","0","0.5888984072","","0.8","0.4","0.6","0.2","","","","","0.5888984072","0.2871079035","0.7191760557","0.2228883469","","","","","","","","","","72","H","0","img/none_selected.jpg","","207","main_expt",""
"","bandit","287","709642","0.0-249.0-0.0","36329385","wem/bandit_party_2","A6P84EZCZF7II","either","1","270","","","","","","","0","1","0","","0.4650323514","0.8","0.4","0.6","0.2","0.4650323514","0.2642306377","0.6264293856","0.2829247412","","","","","","","","","","","","","","72","H","0","img/none_selected.jpg","","208","main_expt",""
"","bandit","288","711560","0.0-250.0-0.0","36329385","wem/bandit_party_2","A6P84EZCZF7II","either","1","399","","","","","","","1","0","0","0.4100719568","","0.8","0.4","0.6","0.2","","","","","0.4100719568","0.3587725811","0.6500478562","0.3169104167","","","","","","","","","","72","H","0","img/none_selected.jpg","","209","main_expt",""
"","bandit","289","713440","0.0-251.0-0.0","36329385","wem/bandit_party_2","A6P84EZCZF7II","either","1","359","","","","","","","0","1","0","","0.5177296744","0.8","0.4","0.6","0.2","0.5177296744","0.3103342645","0.6498865343","0.2090062306","","","","","","","","","","","","","","72","H","0","img/none_selected.jpg","","210","main_expt",""
"","bandit","290","715295","0.0-252.0-0.0","36329385","wem/bandit_party_2","A6P84EZCZF7II","either","1","336","","","","","","","0","0","1","0.5950812693","","0.8","0.4","0.6","0.2","","","","","0.5950812693","0.3760595068","0.6056301442","0.1481662818","","","","","","","","","","72","H","0","img/none_selected.jpg","","211","main_expt",""
"","bandit","291","717271","0.0-253.0-0.0","36329385","wem/bandit_party_2","A6P84EZCZF7II","either","1","457","","","","","","","0","0","1","0.5524844402","","0.8","0.4","0.6","0.2","","","","","0.7169745983","0.447023013","0.5524844402","0.2114888193","","","","","","","","","","75","K","2","","","212","main_expt",""
"","bandit","292","719111","0.0-254.0-0.0","36329385","wem/bandit_party_2","A6P84EZCZF7II","either","1","321","","","","","","","0","0","1","","0.4529182837","0.8","0.4","0.6","0.2","0.6766124197","0.4529182837","0.6984249358","0.2234642754","","","","","","","","","","","","","","74","J","1","","","213","main_expt",""
"","bandit","293","721033","0.0-255.0-0.0","36329385","wem/bandit_party_2","A6P84EZCZF7II","either","1","399","","","","","","","0","0","1","","0.2315139555","0.8","0.4","0.6","0.2","0.8005648136","0.4306534983","0.5996975418","0.2315139555","","","","","","","","","","","","","","76","L","3","","","214","main_expt",""
"","bandit","294","722961","0.0-256.0-0.0","36329385","wem/bandit_party_2","A6P84EZCZF7II","either","1","407","","","","","","","1","0","0","0.8487964291","","0.8","0.4","0.6","0.2","","","","","0.8487964291","0.4314469479","0.6067129047","0.1949488974","","","","","","","","","","72","H","0","img/none_selected.jpg","","215","main_expt",""
"","bandit","295","724840","0.0-257.0-0.0","36329385","wem/bandit_party_2","A6P84EZCZF7II","either","1","358","","","","","","","0","1","0","","0.8674123454","0.8","0.4","0.6","0.2","0.8674123454","0.45439575","0.6297976658","0.2333303883","","","","","","","","","","","","","","72","H","0","img/none_selected.jpg","","216","main_expt",""
"","bandit","296","726723","0.0-258.0-0.0","36329385","wem/bandit_party_2","A6P84EZCZF7II","either","1","361","","","","","","","0","0","1","0.8774404243","","0.8","0.4","0.6","0.2","","","","","0.8774404243","0.5228861726","0.6095272491","0.2027763819","","","","","","","","","","72","H","0","img/none_selected.jpg","","217","main_expt",""
"","bandit","297","728562","0.0-259.0-0.0","36329385","wem/bandit_party_2","A6P84EZCZF7II","either","1","316","","","","","","","0","1","0","","0.463703458","0.8","0.4","0.6","0.2","0.8836448068","0.463703458","0.7058099393","0.1895874514","","","","","","","","","","","","","","74","J","1","","","218","main_expt",""
"","bandit","298","730431","0.0-260.0-0.0","36329385","wem/bandit_party_2","A6P84EZCZF7II","either","1","350","","","","","","","0","0","1","0.4522864467","","0.8","0.4","0.6","0.2","","","","","0.880498508","0.4522864467","0.7396246451","0.1537120117","","","","","","","","","","74","J","1","","","219","main_expt",""
"","bandit","299","732368","0.0-261.0-0.0","36329385","wem/bandit_party_2","A6P84EZCZF7II","either","1","417","","","","","","","0","1","0","","0.8740874997","0.8","0.4","0.6","0.2","0.8740874997","0.4561576612","0.7091968036","0.2022747423","","","","","","","","","","","","","","72","H","0","img/none_selected.jpg","","220","main_expt",""
"","bandit","300","734303","0.0-262.0-0.0","36329385","wem/bandit_party_2","A6P84EZCZF7II","either","1","416","","","","","","","1","0","0","0.8527830905","","0.8","0.4","0.6","0.2","","","","","0.8527830905","0.4264657168","0.7116308873","0.3174413427","","","","","","","","","","72","H","0","img/none_selected.jpg","","221","main_expt",""
"","bandit","301","736248","0.0-263.0-0.0","36329385","wem/bandit_party_2","A6P84EZCZF7II","either","1","424","","","","","","","1","0","0","0.7717907476","","0.8","0.4","0.6","0.2","","","","","0.7717907476","0.3055141729","0.769465391","0.2315667073","","","","","","","","","","72","H","0","img/none_selected.jpg","","222","main_expt",""
"","bandit","302","738160","0.0-264.0-0.0","36329385","wem/bandit_party_2","A6P84EZCZF7II","either","1","390","","","","","","","1","0","0","0.8359700354","","0.8","0.4","0.6","0.2","","","","","0.8359700354","0.2868954791","0.7509006974","0.2261006122","","","","","","","","","","72","H","0","img/none_selected.jpg","","223","main_expt",""
"","bandit","303","740088","0.0-265.0-0.0","36329385","wem/bandit_party_2","A6P84EZCZF7II","either","1","407","","","","","","","0","0","1","","0.819670806","0.8","0.4","0.6","0.2","0.819670806","0.2698185242","0.7007688409","0.2662378096","","","","","","","","","","","","","","72","H","0","img/none_selected.jpg","","224","main_expt",""
"","bandit","304","741975","0.0-266.0-0.0","36329385","wem/bandit_party_2","A6P84EZCZF7II","either","1","368","","","","","","","0","0","1","","0.213842325","0.8","0.4","0.6","0.2","0.8512382749","0.213842325","0.7409020096","0.2163280173","","","","","","","","","","","","","","74","J","1","","","225","main_expt",""
"","bandit","305","743849","0.0-267.0-0.0","36329385","wem/bandit_party_2","A6P84EZCZF7II","either","1","360","","","","","","","1","0","0","0.8342861847","","0.8","0.4","0.6","0.2","","","","","0.8342861847","0.1616408491","0.7052945704","0.2809353625","","","","","","","","","","72","H","0","img/none_selected.jpg","","226","main_expt",""
"","bandit","306","745714","0.0-268.0-0.0","36329385","wem/bandit_party_2","A6P84EZCZF7II","either","1","344","","","","","","","0","1","0","","0.7736041865","0.8","0.4","0.6","0.2","0.7736041865","0.1777599287","0.606091252","0.2396571279","","","","","","","","","","","","","","72","H","0","img/none_selected.jpg","","227","main_expt",""
"","bandit","307","747650","0.0-269.0-0.0","36329385","wem/bandit_party_2","A6P84EZCZF7II","either","1","408","","","","","","","0","1","0","","0.8094350608","0.8","0.4","0.6","0.2","0.8094350608","0.2866543064","0.5834203199","0.3430446928","","","","","","","","","","","","","","72","H","0","img/none_selected.jpg","","228","main_expt",""
"","bandit","308","749546","0.0-270.0-0.0","36329385","wem/bandit_party_2","A6P84EZCZF7II","either","1","375","","","","","","","1","0","0","0.8078722129","","0.8","0.4","0.6","0.2","","","","","0.8078722129","0.3948293382","0.5466214007","0.2886233194","","","","","","","","","","72","H","0","img/none_selected.jpg","","229","main_expt",""
"","bandit","309","751386","0.0-271.0-0.0","36329385","wem/bandit_party_2","A6P84EZCZF7II","either","1","325","","","","","","","0","1","0","","0.7719043616","0.8","0.4","0.6","0.2","0.7719043616","0.3291786684","0.5519014059","0.3213731463","","","","","","","","","","","","","","72","H","0","img/none_selected.jpg","","230","main_expt",""
"","bandit","310","753233","0.0-272.0-0.0","36329385","wem/bandit_party_2","A6P84EZCZF7II","either","1","334","","","","","","","1","0","0","0.8049264475","","0.8","0.4","0.6","0.2","","","","","0.8049264475","0.2378236032","0.4527164215","0.2771614906","","","","","","","","","","72","H","0","img/none_selected.jpg","","231","main_expt",""
"","bandit","311","755049","0.0-273.0-0.0","36329385","wem/bandit_party_2","A6P84EZCZF7II","either","1","294","","","","","","","0","0","1","0.8850589997","","0.8","0.4","0.6","0.2","","","","","0.8850589997","0.246393804","0.5135082398","0.2249105956","","","","","","","","","","72","H","0","img/none_selected.jpg","","232","main_expt",""
"","bandit","312","756865","0.0-274.0-0.0","36329385","wem/bandit_party_2","A6P84EZCZF7II","either","1","296","","","","","","","0","0","1","0.2141634692","","0.8","0.4","0.6","0.2","","","","","0.9183615156","0.2141634692","0.5502454751","0.2447973041","","","","","","","","","","74","J","1","","","233","main_expt",""
"","bandit","313","758825","0.0-275.0-0.0","36329385","wem/bandit_party_2","A6P84EZCZF7II","either","1","439","","","","","","","0","1","0","","0.24601643","0.8","0.4","0.6","0.2","0.9639410842","0.2876436191","0.3783923662","0.24601643","","","","","","","","","","","","","","76","L","3","","","234","main_expt",""
"","bandit","314","760696","0.0-276.0-0.0","36329385","wem/bandit_party_2","A6P84EZCZF7II","either","1","351","","","","","","","0","0","1","","0.1629844561","0.8","0.4","0.6","0.2","0.9697187448","0.2769077257","0.2814299379","0.1629844561","","","","","","","","","","","","","","76","L","3","","","235","main_expt",""
"","bandit","315","762483","0.0-277.0-0.0","36329385","wem/bandit_party_2","A6P84EZCZF7II","either","1","277","","","","","","","1","0","0","0.3106100538","","0.8","0.4","0.6","0.2","","","","","0.9571573523","0.136865198","0.3106100538","0.1929455839","","","","","","","","","","75","K","2","","","236","main_expt",""
