"consent","trial_type","trial_index","time_elapsed","internal_node_id","subjID","study","MID","cond","drift","rt","responses","button_pressed","key_press","like","value","connected","gems","bombs","no_reward","GemPrChosen","BombPrChosen","GainOverPainPr_0","GainOverPainPr_1","GainOverPainPr_2","GainOverPainPr_3","LosePr_0","LosePr_1","LosePr_2","LosePr_3","WinPr_0","WinPr_1","WinPr_2","WinPr_3","Q0","Q1","Q2","gender","age","ethnicity","label","expt_phase","target","respCharCode","respKey","respChoiceNum","respChoice","practice","trial_counter","trial_label","Q0_index"
"GDM/GDM_behavioral_consent_30min_online.html","consent","0","23409","0.0-0.0","36440179","wem/bandit_party_2","A2NL38BFEE3BVY","either","3","","","","","","","","","","","","","","","","","","","","","","","","","","","","","","","","","","","","","","","","",""
"","survey-text","1","28374","0.0-1.0","36440179","wem/bandit_party_2","A2NL38BFEE3BVY","either","3","3954","{""Q0"":""A2NL38BFEE3BVY""}","","","","","","","","","","","","","","","","","","","","","","","","","","","","","","","","","","","","","","",""
"","button-response","2","31421","0.0-2.0","36440179","wem/bandit_party_2","A2NL38BFEE3BVY","either","3","2038","","1","","","","","","","","","","","","","","","","","","","","","","","","","","","","","","","","","","","","","",""
"","text-replacement","3","42160","0.0-3.0","36440179","wem/bandit_party_2","A2NL38BFEE3BVY","either","3","9729","","","32","","","","","","","","","","","","","","","","","","","","","","","","","","","","","","","","","","","","",""
"","text-replacement","4","47225","0.0-4.0","36440179","wem/bandit_party_2","A2NL38BFEE3BVY","either","3","5063","","","32","","","","","","","","","","","","","","","","","","","","","","","","","","","","","","","","","","","","",""
"","identification","5","56929","0.0-6.0-0.0","36440179","wem/bandit_party_2","A2NL38BFEE3BVY","either","3","9669","","","","3","4","2","","","","","","","","","","","","","","","","","","","","","","","","pre","identification_pre","the Democratic Party","","","","","","","",""
"","identification","6","64294","0.0-6.0-1.0","36440179","wem/bandit_party_2","A2NL38BFEE3BVY","either","3","6311","","","","1","1","0","","","","","","","","","","","","","","","","","","","","","","","","pre","identification_pre","the Republican Party","","","","","","","",""
"","text-replacement","7","71160","0.0-7.0","36440179","wem/bandit_party_2","A2NL38BFEE3BVY","either","3","5715","","","32","","","","","","","","","","","","","","","","","","","","","","","","","","","","","","","","","","","","",""
"","text-replacement","8","75331","0.0-8.0","36440179","wem/bandit_party_2","A2NL38BFEE3BVY","either","3","4154","","","32","","","","","","","","","","","","","","","","","","","","","","","","","","","","","","","","","","","","",""
"","text-replacement","9","82625","0.0-9.0","36440179","wem/bandit_party_2","A2NL38BFEE3BVY","either","3","7283","","","32","","","","","","","","","","","","","","","","","","","","","","","","","","","","","","","","","","","","",""
"","text-replacement","10","85576","0.0-10.0","36440179","wem/bandit_party_2","A2NL38BFEE3BVY","either","3","2943","","","32","","","","","","","","","","","","","","","","","","","","","","","","","","","","","","","","","","","","",""
"","text-replacement","11","88608","0.0-11.0","36440179","wem/bandit_party_2","A2NL38BFEE3BVY","either","3","3023","","","32","","","","","","","","","","","","","","","","","","","","","","","","","","","","","","","","","","","","",""
"","bandit","12","92881","0.0-12.0-0.0","36440179","wem/bandit_party_2","A2NL38BFEE3BVY","either","3","2735","","","","","","","0","0","1","0","0","","","","","0","","","","0","","","","","","","","","","","","","74","J","0","img/none_selected_demo.jpg","true","0","",""
"","bandit","13","95493","0.0-13.0-0.0","36440179","wem/bandit_party_2","A2NL38BFEE3BVY","either","3","1076","","","","","","","0","0","1","0","0","","","","","0","","","","0","","","","","","","","","","","","","75","K","0","img/none_selected_demo.jpg","true","0","",""
"","text-replacement","14","100327","0.0-14.0","36440179","wem/bandit_party_2","A2NL38BFEE3BVY","either","3","4829","","","32","","","","","","","","","","","","","","","","","","","","","","","","","","","","","","","","","","","","",""
"","text-replacement","15","103128","0.0-15.0","36440179","wem/bandit_party_2","A2NL38BFEE3BVY","either","3","2796","","","32","","","","","","","","","","","","","","","","","","","","","","","","","","","","","","","","","","","","",""
"","text-replacement","16","107328","0.0-16.0","36440179","wem/bandit_party_2","A2NL38BFEE3BVY","either","3","4196","","","32","","","","","","","","","","","","","","","","","","","","","","","","","","","","","","","","","","","","",""
"","text-replacement","17","109824","0.0-17.0","36440179","wem/bandit_party_2","A2NL38BFEE3BVY","either","3","2490","","","32","","","","","","","","","","","","","","","","","","","","","","","","","","","","","","","","","","","","",""
"","bandit","18","112866","0.0-18.0-0.0","36440179","wem/bandit_party_2","A2NL38BFEE3BVY","either","3","1504","","","","","","","0","1","0","","0.8","0.5","0.5","","","0.8","0.2","","","","","","","","","","","","","","","","74","J","0","img/none_selected_demo.jpg","true","0","80_20_practice",""
"","bandit","19","114819","0.0-18.0-1.0","36440179","wem/bandit_party_2","A2NL38BFEE3BVY","either","3","413","","","","","","","0","0","1","0.2","","0.5","0.5","","","","","","","0.8","0.2","","","","","","","","","","","","75","K","1","","true","0","80_20_practice",""
"","bandit","20","116737","0.0-18.0-2.0","36440179","wem/bandit_party_2","A2NL38BFEE3BVY","either","3","389","","","","","","","1","0","0","0.8","","0.5","0.5","","","","","","","0.8","0.2","","","","","","","","","","","","74","J","0","img/none_selected_demo.jpg","true","0","80_20_practice",""
"","bandit","21","118713","0.0-18.0-3.0","36440179","wem/bandit_party_2","A2NL38BFEE3BVY","either","3","449","","","","","","","0","1","0","","0.8","0.5","0.5","","","0.8","0.2","","","","","","","","","","","","","","","","74","J","0","img/none_selected_demo.jpg","true","0","80_20_practice",""
"","bandit","22","120382","0.0-18.0-4.0","36440179","wem/bandit_party_2","A2NL38BFEE3BVY","either","3","133","","","","","","","0","1","0","","0.8","0.5","0.5","","","0.8","0.2","","","","","","","","","","","","","","","","74","J","0","img/none_selected_demo.jpg","true","0","80_20_practice",""
"","bandit","23","122156","0.0-18.0-5.0","36440179","wem/bandit_party_2","A2NL38BFEE3BVY","either","3","248","","","","","","","1","0","0","0.8","","0.5","0.5","","","","","","","0.8","0.2","","","","","","","","","","","","74","J","0","img/none_selected_demo.jpg","true","0","80_20_practice",""
"","bandit","24","123813","0.0-18.0-6.0","36440179","wem/bandit_party_2","A2NL38BFEE3BVY","either","3","121","","","","","","","0","1","0","","0.8","0.5","0.5","","","0.8","0.2","","","","","","","","","","","","","","","","74","J","0","img/none_selected_demo.jpg","true","0","80_20_practice",""
"","bandit","25","125480","0.0-18.0-7.0","36440179","wem/bandit_party_2","A2NL38BFEE3BVY","either","3","129","","","","","","","1","0","0","0.8","","0.5","0.5","","","","","","","0.8","0.2","","","","","","","","","","","","74","J","0","img/none_selected_demo.jpg","true","0","80_20_practice",""
"","bandit","26","127417","0.0-18.0-8.0","36440179","wem/bandit_party_2","A2NL38BFEE3BVY","either","3","399","","","","","","","0","1","0","","0.8","0.5","0.5","","","0.8","0.2","","","","","","","","","","","","","","","","74","J","0","img/none_selected_demo.jpg","true","0","80_20_practice",""
"","bandit","27","129058","0.0-18.0-9.0","36440179","wem/bandit_party_2","A2NL38BFEE3BVY","either","3","109","","","","","","","0","1","0","","0.8","0.5","0.5","","","0.8","0.2","","","","","","","","","","","","","","","","74","J","0","img/none_selected_demo.jpg","true","0","80_20_practice",""
"","bandit","28","131055","0.0-18.0-10.0","36440179","wem/bandit_party_2","A2NL38BFEE3BVY","either","3","468","","","","","","","1","0","0","0.8","","0.5","0.5","","","","","","","0.8","0.2","","","","","","","","","","","","74","J","0","img/none_selected_demo.jpg","true","0","80_20_practice",""
"","bandit","29","133074","0.0-18.0-11.0","36440179","wem/bandit_party_2","A2NL38BFEE3BVY","either","3","488","","","","","","","0","0","1","0.8","","0.5","0.5","","","","","","","0.8","0.2","","","","","","","","","","","","74","J","0","img/none_selected_demo.jpg","true","0","80_20_practice",""
"","bandit","30","135547","0.0-18.0-12.0","36440179","wem/bandit_party_2","A2NL38BFEE3BVY","either","3","926","","","","","","","0","0","1","","0.2","0.5","0.5","","","0.8","0.2","","","","","","","","","","","","","","","","75","K","1","","true","0","80_20_practice",""
"","bandit","31","137155","0.0-18.0-13.0","36440179","wem/bandit_party_2","A2NL38BFEE3BVY","either","3","66","","","","","","","1","0","0","0.8","","0.5","0.5","","","","","","","0.8","0.2","","","","","","","","","","","","74","J","0","img/none_selected_demo.jpg","true","0","80_20_practice",""
"","bandit","32","138701","0.0-18.0-14.0","36440179","wem/bandit_party_2","A2NL38BFEE3BVY","either","3","20","","","","","","","1","0","0","0.8","","0.5","0.5","","","","","","","0.8","0.2","","","","","","","","","","","","74","J","0","img/none_selected_demo.jpg","true","0","80_20_practice",""
"","bandit","33","141499","0.0-18.0-15.0","36440179","wem/bandit_party_2","A2NL38BFEE3BVY","either","3","1256","","","","","","","0","1","0","","0.8","0.5","0.5","","","0.8","0.2","","","","","","","","","","","","","","","","74","J","0","img/none_selected_demo.jpg","true","0","80_20_practice",""
"","bandit","34","143205","0.0-18.0-16.0","36440179","wem/bandit_party_2","A2NL38BFEE3BVY","either","3","162","","","","","","","0","1","0","","0.8","0.5","0.5","","","0.8","0.2","","","","","","","","","","","","","","","","74","J","0","img/none_selected_demo.jpg","true","0","80_20_practice",""
"","bandit","35","144765","0.0-18.0-17.0","36440179","wem/bandit_party_2","A2NL38BFEE3BVY","either","3","17","","","","","","","1","0","0","0.8","","0.5","0.5","","","","","","","0.8","0.2","","","","","","","","","","","","74","J","0","img/none_selected_demo.jpg","true","0","80_20_practice",""
"","bandit","36","146496","0.0-18.0-18.0","36440179","wem/bandit_party_2","A2NL38BFEE3BVY","either","3","205","","","","","","","1","0","0","0.8","","0.5","0.5","","","","","","","0.8","0.2","","","","","","","","","","","","74","J","0","img/none_selected_demo.jpg","true","0","80_20_practice",""
"","bandit","37","148120","0.0-18.0-19.0","36440179","wem/bandit_party_2","A2NL38BFEE3BVY","either","3","95","","","","","","","0","1","0","","0.8","0.5","0.5","","","0.8","0.2","","","","","","","","","","","","","","","","74","J","0","img/none_selected_demo.jpg","true","0","80_20_practice",""
"","text-replacement","38","150551","0.0-19.0","36440179","wem/bandit_party_2","A2NL38BFEE3BVY","either","3","2428","","","32","","","","","","","","","","","","","","","","","","","","","","","","","","","","","","","","","","","","",""
"","bandit","39","153202","0.0-20.0-0.0","36440179","wem/bandit_party_2","A2NL38BFEE3BVY","either","3","1120","","","","","","","1","0","0","1","0","","","","","0","1","","","1","0","","","","","","","","","","","","74","J","0","img/none_selected_demo.jpg","true","0","",""
"","text-replacement","40","155856","0.0-21.0","36440179","wem/bandit_party_2","A2NL38BFEE3BVY","either","3","2648","","","74","","","","","","","","","","","","","","","","","","","","","","","","","","","","","","","","","","","","",""
"","text-replacement","41","160295","0.0-22.0","36440179","wem/bandit_party_2","A2NL38BFEE3BVY","either","3","4433","","","32","","","","","","","","","","","","","","","","","","","","","","","","","","","","","","","","","","","","",""
"","text-replacement","42","162279","0.0-23.0","36440179","wem/bandit_party_2","A2NL38BFEE3BVY","either","3","1978","","","32","","","","","","","","","","","","","","","","","","","","","","","","","","","","","","","","","","","","",""
"","text-replacement","43","164239","0.0-24.0","36440179","wem/bandit_party_2","A2NL38BFEE3BVY","either","3","1954","","","32","","","","","","","","","","","","","","","","","","","","","","","","","","","","","","","","","","","","",""
"","text-replacement","44","170127","0.0-25.0","36440179","wem/bandit_party_2","A2NL38BFEE3BVY","either","3","5882","","","32","","","","","","","","","","","","","","","","","","","","","","","","","","","","","","","","","","","","",""
"","text-replacement","45","172078","0.0-26.0","36440179","wem/bandit_party_2","A2NL38BFEE3BVY","either","3","1947","","","32","","","","","","","","","","","","","","","","","","","","","","","","","","","","","","","","","","","","",""
"","text-replacement","46","174926","0.0-27.0","36440179","wem/bandit_party_2","A2NL38BFEE3BVY","either","3","2843","","","32","","","","","","","","","","","","","","","","","","","","","","","","","","","","","","","","","","","","",""
"","text-replacement","47","176670","0.0-28.0","36440179","wem/bandit_party_2","A2NL38BFEE3BVY","either","3","1741","","","32","","","","","","","","","","","","","","","","","","","","","","","","","","","","","","","","","","","","",""
"","text-replacement","48","179830","0.0-29.0","36440179","wem/bandit_party_2","A2NL38BFEE3BVY","either","3","3154","","","32","","","","","","","","","","","","","","","","","","","","","","","","","","","","","","","","","","","","",""
"","text-replacement","49","181198","0.0-30.0","36440179","wem/bandit_party_2","A2NL38BFEE3BVY","either","3","1363","","","32","","","","","","","","","","","","","","","","","","","","","","","","","","","","","","","","","","","","",""
"","text-replacement","50","185734","0.0-31.0","36440179","wem/bandit_party_2","A2NL38BFEE3BVY","either","3","4530","","","32","","","","","","","","","","","","","","","","","","","","","","","","","","","","","","","","","","","","",""
"","bandit","51","188188","0.0-32.0-0.0","36440179","wem/bandit_party_2","A2NL38BFEE3BVY","either","3","911","","","","","","","0","1","0","","0.8","0.5","0.5","0.5","0.5","0.8","0.2","0.6","0.2","","","","","","","","","","","","","","72","H","0","img/none_selected.jpg","true","0","full_practice",""
"","bandit","52","189854","0.0-32.0-1.0","36440179","wem/bandit_party_2","A2NL38BFEE3BVY","either","3","130","","","","","","","1","0","0","0.8","","0.5","0.5","0.5","0.5","","","","","0.8","0.2","0.6","0.2","","","","","","","","","","72","H","0","img/none_selected.jpg","true","0","full_practice",""
"","bandit","53","191416","0.0-32.0-2.0","36440179","wem/bandit_party_2","A2NL38BFEE3BVY","either","3","32","","","","","","","0","1","0","","0.8","0.5","0.5","0.5","0.5","0.8","0.2","0.6","0.2","","","","","","","","","","","","","","72","H","0","img/none_selected.jpg","true","0","full_practice",""
"","bandit","54","193225","0.0-32.0-3.0","36440179","wem/bandit_party_2","A2NL38BFEE3BVY","either","3","271","","","","","","","0","1","0","","0.8","0.5","0.5","0.5","0.5","0.8","0.2","0.6","0.2","","","","","","","","","","","","","","72","H","0","img/none_selected.jpg","true","0","full_practice",""
"","bandit","55","195027","0.0-32.0-4.0","36440179","wem/bandit_party_2","A2NL38BFEE3BVY","either","3","275","","","","","","","0","1","0","","0.8","0.5","0.5","0.5","0.5","0.8","0.2","0.6","0.2","","","","","","","","","","","","","","72","H","0","img/none_selected.jpg","true","0","full_practice",""
"","bandit","56","196766","0.0-32.0-5.0","36440179","wem/bandit_party_2","A2NL38BFEE3BVY","either","3","202","","","","","","","1","0","0","0.8","","0.5","0.5","0.5","0.5","","","","","0.8","0.2","0.6","0.2","","","","","","","","","","72","H","0","img/none_selected.jpg","true","0","full_practice",""
"","bandit","57","198496","0.0-32.0-6.0","36440179","wem/bandit_party_2","A2NL38BFEE3BVY","either","3","192","","","","","","","0","1","0","","0.8","0.5","0.5","0.5","0.5","0.8","0.2","0.6","0.2","","","","","","","","","","","","","","72","H","0","img/none_selected.jpg","true","0","full_practice",""
"","bandit","58","200101","0.0-32.0-7.0","36440179","wem/bandit_party_2","A2NL38BFEE3BVY","either","3","62","","","","","","","0","0","1","","0.8","0.5","0.5","0.5","0.5","0.8","0.2","0.6","0.2","","","","","","","","","","","","","","72","H","0","img/none_selected.jpg","true","0","full_practice",""
"","bandit","59","201806","0.0-32.0-8.0","36440179","wem/bandit_party_2","A2NL38BFEE3BVY","either","3","176","","","","","","","1","0","0","0.2","","0.5","0.5","0.5","0.5","","","","","0.8","0.2","0.6","0.2","","","","","","","","","","74","J","1","","true","0","full_practice",""
"","bandit","60","203664","0.0-32.0-9.0","36440179","wem/bandit_party_2","A2NL38BFEE3BVY","either","3","320","","","","","","","0","0","1","","0.2","0.5","0.5","0.5","0.5","0.8","0.2","0.6","0.2","","","","","","","","","","","","","","74","J","1","","true","0","full_practice",""
"","bandit","61","205312","0.0-32.0-10.0","36440179","wem/bandit_party_2","A2NL38BFEE3BVY","either","3","100","","","","","","","0","1","0","","0.6","0.5","0.5","0.5","0.5","0.8","0.2","0.6","0.2","","","","","","","","","","","","","","75","K","2","","true","0","full_practice",""
"","bandit","62","206922","0.0-32.0-11.0","36440179","wem/bandit_party_2","A2NL38BFEE3BVY","either","3","61","","","","","","","1","0","0","0.6","","0.5","0.5","0.5","0.5","","","","","0.8","0.2","0.6","0.2","","","","","","","","","","75","K","2","","true","0","full_practice",""
"","bandit","63","208641","0.0-32.0-12.0","36440179","wem/bandit_party_2","A2NL38BFEE3BVY","either","3","187","","","","","","","1","0","0","0.6","","0.5","0.5","0.5","0.5","","","","","0.8","0.2","0.6","0.2","","","","","","","","","","75","K","2","","true","0","full_practice",""
"","bandit","64","210267","0.0-32.0-13.0","36440179","wem/bandit_party_2","A2NL38BFEE3BVY","either","3","84","","","","","","","0","1","0","","0.6","0.5","0.5","0.5","0.5","0.8","0.2","0.6","0.2","","","","","","","","","","","","","","75","K","2","","true","0","full_practice",""
"","bandit","65","211846","0.0-32.0-14.0","36440179","wem/bandit_party_2","A2NL38BFEE3BVY","either","3","58","","","","","","","0","1","0","","0.6","0.5","0.5","0.5","0.5","0.8","0.2","0.6","0.2","","","","","","","","","","","","","","75","K","2","","true","0","full_practice",""
"","bandit","66","213455","0.0-32.0-15.0","36440179","wem/bandit_party_2","A2NL38BFEE3BVY","either","3","78","","","","","","","1","0","0","0.6","","0.5","0.5","0.5","0.5","","","","","0.8","0.2","0.6","0.2","","","","","","","","","","75","K","2","","true","0","full_practice",""
"","bandit","67","215371","0.0-32.0-16.0","36440179","wem/bandit_party_2","A2NL38BFEE3BVY","either","3","382","","","","","","","0","0","1","0.6","","0.5","0.5","0.5","0.5","","","","","0.8","0.2","0.6","0.2","","","","","","","","","","75","K","2","","true","0","full_practice",""
"","bandit","68","217104","0.0-32.0-17.0","36440179","wem/bandit_party_2","A2NL38BFEE3BVY","either","3","202","","","","","","","0","0","1","","0.2","0.5","0.5","0.5","0.5","0.8","0.2","0.6","0.2","","","","","","","","","","","","","","76","L","3","","true","0","full_practice",""
"","bandit","69","218988","0.0-32.0-18.0","36440179","wem/bandit_party_2","A2NL38BFEE3BVY","either","3","343","","","","","","","0","0","1","0.8","","0.5","0.5","0.5","0.5","","","","","0.8","0.2","0.6","0.2","","","","","","","","","","72","H","0","img/none_selected.jpg","true","0","full_practice",""
"","bandit","70","220581","0.0-32.0-19.0","36440179","wem/bandit_party_2","A2NL38BFEE3BVY","either","3","66","","","","","","","0","0","1","","0.2","0.5","0.5","0.5","0.5","0.8","0.2","0.6","0.2","","","","","","","","","","","","","","74","J","1","","true","0","full_practice",""
"","text","71","222950","0.0-33.0","36440179","wem/bandit_party_2","A2NL38BFEE3BVY","either","3","2358","","","32","","","","","","","","","","","","","","","","","","","","","","","","","","","","","","","","","","","","",""
"","text-replacement","72","230318","0.0-34.0","36440179","wem/bandit_party_2","A2NL38BFEE3BVY","either","3","6351","","","32","","","","","","","","","","","","","","","","","","","","","","","","","","","","","","","","","","","","",""
"","text-replacement","73","237726","0.0-35.0","36440179","wem/bandit_party_2","A2NL38BFEE3BVY","either","3","7401","","","32","","","","","","","","","","","","","","","","","","","","","","","","","","","","","","","","","","","","",""
"","text-replacement","74","240590","0.0-36.0","36440179","wem/bandit_party_2","A2NL38BFEE3BVY","either","3","2857","","","32","","","","","","","","","","","","","","","","","","","","","","","","","","","","","","","","","","","","",""
"","text-replacement","75","245222","0.0-37.0","36440179","wem/bandit_party_2","A2NL38BFEE3BVY","either","3","4626","","","32","","","","","","","","","","","","","","","","","","","","","","","","","","","","","","","","","","","","",""
"","text-replacement","76","247278","0.0-38.0","36440179","wem/bandit_party_2","A2NL38BFEE3BVY","either","3","2049","","","32","","","","","","","","","","","","","","","","","","","","","","","","","","","","","","","","","","","","",""
"","survey-multi-choice-replacement","77","252943","0.0-39.0-0.0","36440179","wem/bandit_party_2","A2NL38BFEE3BVY","either","3","5645","","","","","","","","","","","","","","","","","","","","","","","","Money will be added to the pool for <span style='color:blue;'>DEMOCRATS</span>","","","","","","","attn_check","","","","","","","","","0"
"","survey-multi-choice-replacement","78","257933","0.0-40.0-0.0","36440179","wem/bandit_party_2","A2NL38BFEE3BVY","either","3","3964","","","","","","","","","","","","","","","","","","","","","","","","Equal amounts of money will be added to the pool for <span style='color:blue;'>DEMOCRATS</span> and subtracted from the pool for <span style='color:red;'>REPUBLICANS</span>","","","","","","","attn_check","","","","","","","","","2"
"","survey-multi-choice-replacement","79","261556","0.0-41.0-0.0","36440179","wem/bandit_party_2","A2NL38BFEE3BVY","either","3","2590","","","","","","","","","","","","","","","","","","","","","","","","No money will be added to either pool","","","","","","","attn_check","","","","","","","","","3"
"","bandit","80","266105","0.0-42.0-0.0","36440179","wem/bandit_party_2","A2NL38BFEE3BVY","either","3","2000","","","","","","","0","0","1","0.1387034319","","0.6","0.4","0.2","0.8","","","","","0.1387034319","0.4261870849","0.6494041588","0.6473934842","","","","","","","","","","72","H","0","img/none_selected.jpg","","1","main_expt",""
"","bandit","81","267970","0.0-43.0-0.0","36440179","wem/bandit_party_2","A2NL38BFEE3BVY","either","3","324","","","","","","","0","0","1","0.3223101542","","0.6","0.4","0.2","0.8","","","","","0.2166337036","0.3223101542","0.7608835745","0.5221866694","","","","","","","","","","74","J","1","","","2","main_expt",""
"","bandit","82","270048","0.0-44.0-0.0","36440179","wem/bandit_party_2","A2NL38BFEE3BVY","either","3","538","","","","","","","1","0","0","0.5356292978","","0.6","0.4","0.2","0.8","","","","","0.3253899216","0.2541217019","0.7745567172","0.5356292978","","","","","","","","","","76","L","3","","","3","main_expt",""
"","bandit","83","272131","0.0-45.0-0.0","36440179","wem/bandit_party_2","A2NL38BFEE3BVY","either","3","556","","","","","","","1","0","0","0.5154592071","","0.6","0.4","0.2","0.8","","","","","0.3003293127","0.2272043942","0.8315703218","0.5154592071","","","","","","","","","","76","L","3","","","4","main_expt",""
"","bandit","84","273694","0.0-46.0-0.0","36440179","wem/bandit_party_2","A2NL38BFEE3BVY","either","3","41","","","","","","","0","0","1","0.4578896037","","0.6","0.4","0.2","0.8","","","","","0.3839660868","0.2967729676","0.8380789219","0.4578896037","","","","","","","","","","76","L","3","","","5","main_expt",""
"","bandit","85","276420","0.0-47.0-0.0","36440179","wem/bandit_party_2","A2NL38BFEE3BVY","either","3","1177","","","","","","","0","1","0","","0.8233568153","0.6","0.4","0.2","0.8","0.3833463511","0.3211998527","0.8233568153","0.4825789634","","","","","","","","","","","","","","75","K","2","","","6","main_expt",""
"","bandit","86","278380","0.0-48.0-0.0","36440179","wem/bandit_party_2","A2NL38BFEE3BVY","either","3","432","","","","","","","0","1","0","","0.8672840292","0.6","0.4","0.2","0.8","0.3173395401","0.4190649117","0.8672840292","0.4013658759","","","","","","","","","","","","","","75","K","2","","","7","main_expt",""
"","bandit","87","280232","0.0-49.0-0.0","36440179","wem/bandit_party_2","A2NL38BFEE3BVY","either","3","304","","","","","","","0","1","0","","0.7921451217","0.6","0.4","0.2","0.8","0.3265190876","0.5253498774","0.7921451217","0.3721769634","","","","","","","","","","","","","","75","K","2","","","8","main_expt",""
"","bandit","88","282041","0.0-50.0-0.0","36440179","wem/bandit_party_2","A2NL38BFEE3BVY","either","3","282","","","","","","","0","1","0","","0.7826569337","0.6","0.4","0.2","0.8","0.4229840653","0.5552176016","0.7826569337","0.3934089605","","","","","","","","","","","","","","75","K","2","","","9","main_expt",""
"","bandit","89","284792","0.0-51.0-0.0","36440179","wem/bandit_party_2","A2NL38BFEE3BVY","either","3","1221","","","","","","","0","1","0","","0.7150392401","0.6","0.4","0.2","0.8","0.5107168356","0.654745146","0.7150392401","0.3360942297","","","","","","","","","","","","","","75","K","2","","","10","main_expt",""
"","bandit","90","286765","0.0-52.0-0.0","36440179","wem/bandit_party_2","A2NL38BFEE3BVY","either","3","444","","","","","","","0","1","0","","0.6906605055","0.6","0.4","0.2","0.8","0.4383577931","0.6089063278","0.6906605055","0.4969537907","","","","","","","","","","","","","","75","K","2","","","11","main_expt",""
"","bandit","91","288406","0.0-53.0-0.0","36440179","wem/bandit_party_2","A2NL38BFEE3BVY","either","3","110","","","","","","","0","1","0","","0.6725575113","0.6","0.4","0.2","0.8","0.5487148549","0.559155858","0.6725575113","0.4760264401","","","","","","","","","","","","","","75","K","2","","","12","main_expt",""
"","bandit","92","290431","0.0-54.0-0.0","36440179","wem/bandit_party_2","A2NL38BFEE3BVY","either","3","487","","","","","","","0","0","1","","0.7404599176","0.6","0.4","0.2","0.8","0.7407599438","0.6464491645","0.7404599176","0.4008761295","","","","","","","","","","","","","","75","K","2","","","13","main_expt",""
"","bandit","93","292461","0.0-55.0-0.0","36440179","wem/bandit_party_2","A2NL38BFEE3BVY","either","3","493","","","","","","","0","0","1","0.358486362","","0.6","0.4","0.2","0.8","","","","","0.8307131687","0.6936958995","0.6751607758","0.358486362","","","","","","","","","","76","L","3","","","14","main_expt",""
"","bandit","94","294271","0.0-56.0-0.0","36440179","wem/bandit_party_2","A2NL38BFEE3BVY","either","3","263","","","","","","","0","1","0","","0.8114394421","0.6","0.4","0.2","0.8","0.8114394421","0.731471075","0.6115440925","0.395258373","","","","","","","","","","","","","","72","H","0","img/none_selected.jpg","","15","main_expt",""
"","bandit","95","296203","0.0-57.0-0.0","36440179","wem/bandit_party_2","A2NL38BFEE3BVY","either","3","407","","","","","","","1","0","0","0.8242397169","","0.6","0.4","0.2","0.8","","","","","0.8242397169","0.6487541525","0.7019001419","0.4197334966","","","","","","","","","","72","H","0","img/none_selected.jpg","","16","main_expt",""
"","bandit","96","297799","0.0-58.0-0.0","36440179","wem/bandit_party_2","A2NL38BFEE3BVY","either","3","66","","","","","","","1","0","0","0.8317633157","","0.6","0.4","0.2","0.8","","","","","0.8317633157","0.7654634758","0.7017998","0.2160816064","","","","","","","","","","72","H","0","img/none_selected.jpg","","17","main_expt",""
"","bandit","97","299450","0.0-59.0-0.0","36440179","wem/bandit_party_2","A2NL38BFEE3BVY","either","3","108","","","","","","","0","1","0","","0.8158638682","0.6","0.4","0.2","0.8","0.8158638682","0.7160830043","0.7672473748","0.2058632209","","","","","","","","","","","","","","72","H","0","img/none_selected.jpg","","18","main_expt",""
"","bandit","98","301828","0.0-60.0-0.0","36440179","wem/bandit_party_2","A2NL38BFEE3BVY","either","3","841","","","","","","","1","0","0","0.8291878069","","0.6","0.4","0.2","0.8","","","","","0.8291878069","0.6856656502","0.7950219121","0.2314559036","","","","","","","","","","72","H","0","img/none_selected.jpg","","19","main_expt",""
"","bandit","99","303789","0.0-61.0-0.0","36440179","wem/bandit_party_2","A2NL38BFEE3BVY","either","3","415","","","","","","","0","1","0","","0.8665153398","0.6","0.4","0.2","0.8","0.8665153398","0.6829400921","0.8460513568","0.1762066147","","","","","","","","","","","","","","72","H","0","img/none_selected.jpg","","20","main_expt",""
"","bandit","100","305607","0.0-62.0-0.0","36440179","wem/bandit_party_2","A2NL38BFEE3BVY","either","3","270","","","","","","","1","0","0","0.8181415858","","0.6","0.4","0.2","0.8","","","","","0.8181415858","0.6849203215","0.8571228725","0.150477598","","","","","","","","","","72","H","0","img/none_selected.jpg","","21","main_expt",""
"","bandit","101","307230","0.0-63.0-0.0","36440179","wem/bandit_party_2","A2NL38BFEE3BVY","either","3","82","","","","","","","0","0","1","0.7731960963","","0.6","0.4","0.2","0.8","","","","","0.7731960963","0.6832197831","0.8498483749","0.1957635407","","","","","","","","","","72","H","0","img/none_selected.jpg","","22","main_expt",""
"","bandit","102","308885","0.0-64.0-0.0","36440179","wem/bandit_party_2","A2NL38BFEE3BVY","either","3","103","","","","","","","0","1","0","","0.6103957523","0.6","0.4","0.2","0.8","0.8004626553","0.6103957523","0.887495535","0.2193187944","","","","","","","","","","","","","","74","J","1","","","23","main_expt",""
"","bandit","103","310544","0.0-65.0-0.0","36440179","wem/bandit_party_2","A2NL38BFEE3BVY","either","3","126","","","","","","","1","0","0","0.5485819736","","0.6","0.4","0.2","0.8","","","","","0.7941911222","0.5485819736","0.918231735","0.1836328706","","","","","","","","","","74","J","1","","","24","main_expt",""
"","bandit","104","312102","0.0-66.0-0.0","36440179","wem/bandit_party_2","A2NL38BFEE3BVY","either","3","30","","","","","","","0","1","0","","0.5852935809","0.6","0.4","0.2","0.8","0.7100633829","0.5852935809","0.9111146318","0.1410441375","","","","","","","","","","","","","","74","J","1","","","25","main_expt",""
"","bandit","105","313984","0.0-67.0-0.0","36440179","wem/bandit_party_2","A2NL38BFEE3BVY","either","3","340","","","","","","","1","0","0","0.6097892937","","0.6","0.4","0.2","0.8","","","","","0.6872129375","0.6097892937","0.9190640316","0.1082593399","","","","","","","","","","74","J","1","","","26","main_expt",""
"","bandit","106","315899","0.0-68.0-0.0","36440179","wem/bandit_party_2","A2NL38BFEE3BVY","either","3","379","","","","","","","0","1","0","","0.6653335402","0.6","0.4","0.2","0.8","0.6798864795","0.6653335402","0.9372614837","0.1042047793","","","","","","","","","","","","","","74","J","1","","","27","main_expt",""
"","bandit","107","317859","0.0-69.0-0.0","36440179","wem/bandit_party_2","A2NL38BFEE3BVY","either","3","415","","","","","","","1","0","0","0.6850825106","","0.6","0.4","0.2","0.8","","","","","0.6812343762","0.6850825106","0.9269484959","0.1153509117","","","","","","","","","","74","J","1","","","28","main_expt",""
"","bandit","108","320636","0.0-70.0-0.0","36440179","wem/bandit_party_2","A2NL38BFEE3BVY","either","3","1235","","","","","","","0","0","1","","0.7309016742","0.6","0.4","0.2","0.8","0.5305157647","0.7309016742","0.9376772981","0.1601566248","","","","","","","","","","","","","","74","J","1","","","29","main_expt",""
"","bandit","109","322690","0.0-71.0-0.0","36440179","wem/bandit_party_2","A2NL38BFEE3BVY","either","3","527","","","","","","","0","1","0","","0.8795505253","0.6","0.4","0.2","0.8","0.4713174284","0.8141980113","0.8795505253","0.09548927903","","","","","","","","","","","","","","75","K","2","","","30","main_expt",""
"","bandit","110","324391","0.0-72.0-0.0","36440179","wem/bandit_party_2","A2NL38BFEE3BVY","either","3","177","","","","","","","0","1","0","","0.8605863748","0.6","0.4","0.2","0.8","0.2938490869","0.8926711601","0.8605863748","0.09272353297","","","","","","","","","","","","","","75","K","2","","","31","main_expt",""
"","bandit","111","326010","0.0-73.0-0.0","36440179","wem/bandit_party_2","A2NL38BFEE3BVY","either","3","84","","","","","","","0","0","1","","0.757600507","0.6","0.4","0.2","0.8","0.3005160425","0.8397563013","0.757600507","0.09547929832","","","","","","","","","","","","","","75","K","2","","","32","main_expt",""
"","bandit","112","327631","0.0-74.0-0.0","36440179","wem/bandit_party_2","A2NL38BFEE3BVY","either","3","88","","","","","","","0","0","1","0.08683876107","","0.6","0.4","0.2","0.8","","","","","0.3661211491","0.8251988787","0.7257103923","0.08683876107","","","","","","","","","","76","L","3","","","33","main_expt",""
"","bandit","113","329299","0.0-75.0-0.0","36440179","wem/bandit_party_2","A2NL38BFEE3BVY","either","3","135","","","","","","","0","0","1","0.4614725573","","0.6","0.4","0.2","0.8","","","","","0.4614725573","0.7303528712","0.5786815464","0.08117088791","","","","","","","","","","72","H","0","img/none_selected.jpg","","34","main_expt",""
"","bandit","114","331793","0.0-76.0-0.0","36440179","wem/bandit_party_2","A2NL38BFEE3BVY","either","3","952","","","","","","","0","1","0","","0.8093673003","0.6","0.4","0.2","0.8","0.4597324626","0.8093673003","0.4812266686","0.09593582107","","","","","","","","","","","","","","74","J","1","","","35","main_expt",""
"","bandit","115","333424","0.0-77.0-0.0","36440179","wem/bandit_party_2","A2NL38BFEE3BVY","either","3","88","","","","","","","0","1","0","","0.79718131","0.6","0.4","0.2","0.8","0.4294742096","0.79718131","0.4459447539","0.1392988708","","","","","","","","","","","","","","74","J","1","","","36","main_expt",""
"","bandit","116","335036","0.0-78.0-0.0","36440179","wem/bandit_party_2","A2NL38BFEE3BVY","either","3","81","","","","","","","0","0","1","","0.8157762275","0.6","0.4","0.2","0.8","0.5301274199","0.8157762275","0.5737218407","0.07673209605","","","","","","","","","","","","","","74","J","1","","","37","main_expt",""
"","bandit","117","336937","0.0-79.0-0.0","36440179","wem/bandit_party_2","A2NL38BFEE3BVY","either","3","367","","","","","","","0","1","0","","0.5746889943","0.6","0.4","0.2","0.8","0.5746889943","0.7941499978","0.6008421093","0.1078843958","","","","","","","","","","","","","","72","H","0","img/none_selected.jpg","","38","main_expt",""
"","bandit","118","338914","0.0-80.0-0.0","36440179","wem/bandit_party_2","A2NL38BFEE3BVY","either","3","441","","","","","","","0","1","0","","0.6621100331","0.6","0.4","0.2","0.8","0.6621100331","0.7352357368","0.6076920036","0.09731722171","","","","","","","","","","","","","","72","H","0","img/none_selected.jpg","","39","main_expt",""
"","bandit","119","340909","0.0-81.0-0.0","36440179","wem/bandit_party_2","A2NL38BFEE3BVY","either","3","456","","","","","","","0","0","1","0.6794361822","","0.6","0.4","0.2","0.8","","","","","0.6794361822","0.7920886563","0.6616622706","0.2123509389","","","","","","","","","","72","H","0","img/none_selected.jpg","","40","main_expt",""
"","bandit","120","343305","0.0-82.0-0.0","36440179","wem/bandit_party_2","A2NL38BFEE3BVY","either","3","854","","","","","","","0","0","1","0.1265365425","","0.6","0.4","0.2","0.8","","","","","0.7140523024","0.8780543775","0.6945341382","0.1265365425","","","","","","","","","","76","L","3","","","41","main_expt",""
"","bandit","121","344895","0.0-83.0-0.0","36440179","wem/bandit_party_2","A2NL38BFEE3BVY","either","3","49","","","","","","","0","1","0","","0.6833149102","0.6","0.4","0.2","0.8","0.6669732994","0.9167256642","0.6833149102","0.166138795","","","","","","","","","","","","","","75","K","2","","","42","main_expt",""
"","bandit","122","346487","0.0-84.0-0.0","36440179","wem/bandit_party_2","A2NL38BFEE3BVY","either","3","68","","","","","","","0","0","1","","0.7094953576","0.6","0.4","0.2","0.8","0.5435093165","0.9407985187","0.7094953576","0.1782339186","","","","","","","","","","","","","","75","K","2","","","43","main_expt",""
"","bandit","123","348036","0.0-85.0-0.0","36440179","wem/bandit_party_2","A2NL38BFEE3BVY","either","3","18","","","","","","","1","0","0","0.9000978766","","0.6","0.4","0.2","0.8","","","","","0.6002661395","0.9000978766","0.7519468023","0.1342945815","","","","","","","","","","74","J","1","","","44","main_expt",""
"","bandit","124","349570","0.0-86.0-0.0","36440179","wem/bandit_party_2","A2NL38BFEE3BVY","either","3","1","","","","","","","0","1","0","","0.9190036262","0.6","0.4","0.2","0.8","0.5948203474","0.9190036262","0.7673203249","0.09086288848","","","","","","","","","","","","","","74","J","1","","","45","main_expt",""
"","bandit","125","351363","0.0-87.0-0.0","36440179","wem/bandit_party_2","A2NL38BFEE3BVY","either","3","252","","","","","","","0","1","0","","0.8865788656","0.6","0.4","0.2","0.8","0.6230250108","0.8865788656","0.722836051","0.06420934006","","","","","","","","","","","","","","74","J","1","","","46","main_expt",""
"","bandit","126","352897","0.0-88.0-0.0","36440179","wem/bandit_party_2","A2NL38BFEE3BVY","either","3","1","","","","","","","0","1","0","","0.8207935484","0.6","0.4","0.2","0.8","0.7239235909","0.8207935484","0.7392487755","0.02332738683","","","","","","","","","","","","","","74","J","1","","","47","main_expt",""
"","bandit","127","354421","0.0-89.0-0.0","36440179","wem/bandit_party_2","A2NL38BFEE3BVY","either","3","0","","","","","","","0","1","0","","0.8170742187","0.6","0.4","0.2","0.8","0.7715310514","0.8170742187","0.7551111279","0.03517565614","","","","","","","","","","","","","","74","J","1","","","48","main_expt",""
"","bandit","128","356500","0.0-90.0-0.0","36440179","wem/bandit_party_2","A2NL38BFEE3BVY","either","3","552","","","","","","","1","0","0","0.7874830355","","0.6","0.4","0.2","0.8","","","","","0.822179592","0.7874830355","0.6917772817","0.04466115719","","","","","","","","","","74","J","1","","","49","main_expt",""
"","bandit","129","358217","0.0-91.0-0.0","36440179","wem/bandit_party_2","A2NL38BFEE3BVY","either","3","190","","","","","","","0","1","0","","0.8279472521","0.6","0.4","0.2","0.8","0.8108951243","0.8279472521","0.6689959301","0.05053383529","","","","","","","","","","","","","","74","J","1","","","50","main_expt",""
"","bandit","130","360998","0.0-92.0-0.0","36440179","wem/bandit_party_2","A2NL38BFEE3BVY","either","3","1249","","","","","","","1","0","0","0.8426817256","","0.6","0.4","0.2","0.8","","","","","0.7649170446","0.8426817256","0.6020608281","0.04681033125","","","","","","","","","","74","J","1","","","51","main_expt",""
"","bandit","131","363092","0.0-93.0-0.0","36440179","wem/bandit_party_2","A2NL38BFEE3BVY","either","3","564","","","","","","","0","1","0","","0.8377647656","0.6","0.4","0.2","0.8","0.8169848275","0.8377647656","0.6583182673","0.09308222201","","","","","","","","","","","","","","74","J","1","","","52","main_expt",""
"","bandit","132","364689","0.0-94.0-0.0","36440179","wem/bandit_party_2","A2NL38BFEE3BVY","either","3","38","","","","","","","0","0","1","","0.8241398149","0.6","0.4","0.2","0.8","0.8843577791","0.8241398149","0.5419436754","0.1397702629","","","","","","","","","","","","","","74","J","1","","","53","main_expt",""
"","bandit","133","366326","0.0-95.0-0.0","36440179","wem/bandit_party_2","A2NL38BFEE3BVY","either","3","104","","","","","","","0","1","0","","0.8854515068","0.6","0.4","0.2","0.8","0.8854515068","0.7289352116","0.5717614462","0.110287685","","","","","","","","","","","","","","72","H","0","img/none_selected.jpg","","54","main_expt",""
"","bandit","134","368823","0.0-96.0-0.0","36440179","wem/bandit_party_2","A2NL38BFEE3BVY","either","3","962","","","","","","","0","1","0","","0.8884574585","0.6","0.4","0.2","0.8","0.8884574585","0.5895019519","0.5497935615","0.1843384007","","","","","","","","","","","","","","72","H","0","img/none_selected.jpg","","55","main_expt",""
"","bandit","135","372209","0.0-97.0-0.0","36440179","wem/bandit_party_2","A2NL38BFEE3BVY","either","3","1858","","","","","","","0","1","0","","0.8840911236","0.6","0.4","0.2","0.8","0.8840911236","0.4622464331","0.4902645195","0.2056752237","","","","","","","","","","","","","","72","H","0","img/none_selected.jpg","","56","main_expt",""
"","bandit","136","373859","0.0-98.0-0.0","36440179","wem/bandit_party_2","A2NL38BFEE3BVY","either","3","103","","","","","","","1","0","0","0.864283103","","0.6","0.4","0.2","0.8","","","","","0.864283103","0.490024734","0.5258365243","0.3410726922","","","","","","","","","","72","H","0","img/none_selected.jpg","","57","main_expt",""
"","bandit","137","375775","0.0-99.0-0.0","36440179","wem/bandit_party_2","A2NL38BFEE3BVY","either","3","382","","","","","","","1","0","0","0.7377821737","","0.6","0.4","0.2","0.8","","","","","0.7377821737","0.6182628796","0.6097664349","0.3873695161","","","","","","","","","","72","H","0","img/none_selected.jpg","","58","main_expt",""
"","bandit","138","378589","0.0-100.0-0.0","36440179","wem/bandit_party_2","A2NL38BFEE3BVY","either","3","1290","","","","","","","0","1","0","","0.7469541206","0.6","0.4","0.2","0.8","0.7469541206","0.6976829826","0.6016711108","0.3281321534","","","","","","","","","","","","","","72","H","0","img/none_selected.jpg","","59","main_expt",""
"","bandit","139","380628","0.0-101.0-0.0","36440179","wem/bandit_party_2","A2NL38BFEE3BVY","either","3","499","","","","","","","1","0","0","0.8019510571","","0.6","0.4","0.2","0.8","","","","","0.8019510571","0.675433977","0.5544917648","0.2380439254","","","","","","","","","","72","H","0","img/none_selected.jpg","","60","main_expt",""
"","bandit","140","383378","0.0-102.0-0.0","36440179","wem/bandit_party_2","A2NL38BFEE3BVY","either","3","1221","","","","","","","1","0","0","0.8943887388","","0.6","0.4","0.2","0.8","","","","","0.8943887388","0.7206550838","0.6842720067","0.2228222105","","","","","","","","","","72","H","0","img/none_selected.jpg","","61","main_expt",""
"","bandit","141","385326","0.0-103.0-0.0","36440179","wem/bandit_party_2","A2NL38BFEE3BVY","either","3","407","","","","","","","1","0","0","0.8942973556","","0.6","0.4","0.2","0.8","","","","","0.8942973556","0.7184677658","0.6824345281","0.2489253665","","","","","","","","","","72","H","0","img/none_selected.jpg","","62","main_expt",""
"","bandit","142","388330","0.0-104.0-0.0","36440179","wem/bandit_party_2","A2NL38BFEE3BVY","either","3","1470","","","","","","","0","1","0","","0.8829609874","0.6","0.4","0.2","0.8","0.8829609874","0.6785259816","0.7321168219","0.2298237489","","","","","","","","","","","","","","72","H","0","img/none_selected.jpg","","63","main_expt",""
"","bandit","143","390412","0.0-105.0-0.0","36440179","wem/bandit_party_2","A2NL38BFEE3BVY","either","3","547","","","","","","","1","0","0","0.8175344892","","0.6","0.4","0.2","0.8","","","","","0.8175344892","0.6349383059","0.8123013145","0.1849055857","","","","","","","","","","72","H","0","img/none_selected.jpg","","64","main_expt",""
"","bandit","144","392532","0.0-106.0-0.0","36440179","wem/bandit_party_2","A2NL38BFEE3BVY","either","3","595","","","","","","","1","0","0","0.7812905168","","0.6","0.4","0.2","0.8","","","","","0.7812905168","0.629769122","0.8236121316","0.2285715909","","","","","","","","","","72","H","0","img/none_selected.jpg","","65","main_expt",""
"","bandit","145","394197","0.0-107.0-0.0","36440179","wem/bandit_party_2","A2NL38BFEE3BVY","either","3","132","","","","","","","0","0","1","","0.7848445355","0.6","0.4","0.2","0.8","0.7848445355","0.7158950816","0.8270077233","0.2477643906","","","","","","","","","","","","","","72","H","0","img/none_selected.jpg","","66","main_expt",""
"","bandit","146","397251","0.0-108.0-0.0","36440179","wem/bandit_party_2","A2NL38BFEE3BVY","either","3","1531","","","","","","","0","0","1","","0.7601471472","0.6","0.4","0.2","0.8","0.763143195","0.6309271871","0.7601471472","0.1801078726","","","","","","","","","","","","","","75","K","2","","","67","main_expt",""
"","bandit","147","399055","0.0-109.0-0.0","36440179","wem/bandit_party_2","A2NL38BFEE3BVY","either","3","277","","","","","","","0","0","1","","0.617221228","0.6","0.4","0.2","0.8","0.7966751536","0.617221228","0.7567750057","0.08479184886","","","","","","","","","","","","","","74","J","1","","","68","main_expt",""
"","bandit","148","402131","0.0-110.0-0.0","36440179","wem/bandit_party_2","A2NL38BFEE3BVY","either","3","1545","","","","","","","0","0","1","0.06982522498","","0.6","0.4","0.2","0.8","","","","","0.8534335227","0.6235929763","0.6871277649","0.06982522498","","","","","","","","","","76","L","3","","","69","main_expt",""
"","bandit","149","403998","0.0-111.0-0.0","36440179","wem/bandit_party_2","A2NL38BFEE3BVY","either","3","325","","","","","","","0","1","0","","0.8915498471","0.6","0.4","0.2","0.8","0.8915498471","0.5543620559","0.773099018","0.05029268469","","","","","","","","","","","","","","72","H","0","img/none_selected.jpg","","70","main_expt",""
"","bandit","150","405644","0.0-112.0-0.0","36440179","wem/bandit_party_2","A2NL38BFEE3BVY","either","3","114","","","","","","","0","1","0","","0.8736989015","0.6","0.4","0.2","0.8","0.8736989015","0.5333999135","0.7412476729","0.06413839938","","","","","","","","","","","","","","72","H","0","img/none_selected.jpg","","71","main_expt",""
"","bandit","151","407361","0.0-113.0-0.0","36440179","wem/bandit_party_2","A2NL38BFEE3BVY","either","3","180","","","","","","","1","0","0","0.8837551658","","0.6","0.4","0.2","0.8","","","","","0.8837551658","0.5905126671","0.8080704968","0.05155778705","","","","","","","","","","72","H","0","img/none_selected.jpg","","72","main_expt",""
"","bandit","152","409742","0.0-114.0-0.0","36440179","wem/bandit_party_2","A2NL38BFEE3BVY","either","3","854","","","","","","","0","0","1","","0.8495494246","0.6","0.4","0.2","0.8","0.8495494246","0.6925119087","0.8270016227","0.0232747386","","","","","","","","","","","","","","72","H","0","img/none_selected.jpg","","73","main_expt",""
"","bandit","153","412139","0.0-115.0-0.0","36440179","wem/bandit_party_2","A2NL38BFEE3BVY","either","3","850","","","","","","","0","1","0","","0.7872017979","0.6","0.4","0.2","0.8","0.9127472651","0.7134745341","0.7872017979","0.04751547773","","","","","","","","","","","","","","75","K","2","","","74","main_expt",""
"","bandit","154","413677","0.0-116.0-0.0","36440179","wem/bandit_party_2","A2NL38BFEE3BVY","either","3","0","","","","","","","1","0","0","0.6167225576","","0.6","0.4","0.2","0.8","","","","","0.9199060817","0.8065440948","0.6167225576","0.05282531612","","","","","","","","","","75","K","2","","","75","main_expt",""
"","bandit","155","415238","0.0-117.0-0.0","36440179","wem/bandit_party_2","A2NL38BFEE3BVY","either","3","34","","","","","","","1","0","0","0.637182095","","0.6","0.4","0.2","0.8","","","","","0.8691294168","0.7849172319","0.637182095","0.08738729654","","","","","","","","","","75","K","2","","","76","main_expt",""
"","bandit","156","417540","0.0-118.0-0.0","36440179","wem/bandit_party_2","A2NL38BFEE3BVY","either","3","761","","","","","","","0","1","0","","0.7169911294","0.6","0.4","0.2","0.8","0.9111329321","0.7818962729","0.7169911294","0.08851312664","","","","","","","","","","","","","","75","K","2","","","77","main_expt",""
"","bandit","157","419642","0.0-119.0-0.0","36440179","wem/bandit_party_2","A2NL38BFEE3BVY","either","3","564","","","","","","","0","0","1","","0.7446448061","0.6","0.4","0.2","0.8","0.9286966754","0.7002933386","0.7446448061","0.145228539","","","","","","","","","","","","","","75","K","2","","","78","main_expt",""
"","bandit","158","421576","0.0-120.0-0.0","36440179","wem/bandit_party_2","A2NL38BFEE3BVY","either","3","406","","","","","","","1","0","0","0.6510109529","","0.6","0.4","0.2","0.8","","","","","0.9616021792","0.6510109529","0.8152221547","0.1669860915","","","","","","","","","","74","J","1","","","79","main_expt",""
"","bandit","159","423104","0.0-121.0-0.0","36440179","wem/bandit_party_2","A2NL38BFEE3BVY","either","3","0","","","","","","","1","0","0","0.6765614865","","0.6","0.4","0.2","0.8","","","","","0.950571795","0.6765614865","0.810351938","0.1922913003","","","","","","","","","","74","J","1","","","80","main_expt",""
"","bandit","160","427479","0.0-122.0-0.0","36440179","wem/bandit_party_2","A2NL38BFEE3BVY","either","3","2840","","","","","","","0","1","0","","0.5908869344","0.6","0.4","0.2","0.8","0.9331160128","0.5908869344","0.8895110989","0.2407870914","","","","","","","","","","","","","","74","J","1","","","81","main_expt",""
"","bandit","161","429008","0.0-123.0-0.0","36440179","wem/bandit_party_2","A2NL38BFEE3BVY","either","3","0","","","","","","","0","0","1","","0.5267531711","0.6","0.4","0.2","0.8","0.9465986336","0.5267531711","0.9046816681","0.3077898034","","","","","","","","","","","","","","74","J","1","","","82","main_expt",""
"","bandit","162","431313","0.0-124.0-0.0","36440179","wem/bandit_party_2","A2NL38BFEE3BVY","either","3","775","","","","","","","0","1","0","","0.8465278631","0.6","0.4","0.2","0.8","0.9371159138","0.6168373964","0.8465278631","0.2337579628","","","","","","","","","","","","","","75","K","2","","","83","main_expt",""
"","bandit","163","433246","0.0-125.0-0.0","36440179","wem/bandit_party_2","A2NL38BFEE3BVY","either","3","399","","","","","","","1","0","0","0.8998840018","","0.6","0.4","0.2","0.8","","","","","0.8998840018","0.5733990252","0.7584930438","0.2781329454","","","","","","","","","","72","H","0","img/none_selected.jpg","","84","main_expt",""
"","bandit","164","435177","0.0-126.0-0.0","36440179","wem/bandit_party_2","A2NL38BFEE3BVY","either","3","409","","","","","","","1","0","0","0.9102188985","","0.6","0.4","0.2","0.8","","","","","0.9102188985","0.4719695616","0.7727946294","0.3013149798","","","","","","","","","","72","H","0","img/none_selected.jpg","","85","main_expt",""
"","bandit","165","437248","0.0-127.0-0.0","36440179","wem/bandit_party_2","A2NL38BFEE3BVY","either","3","535","","","","","","","0","1","0","","0.9000055418","0.6","0.4","0.2","0.8","0.9000055418","0.6941651786","0.8216594778","0.3231836659","","","","","","","","","","","","","","72","H","0","img/none_selected.jpg","","86","main_expt",""
"","bandit","166","438933","0.0-128.0-0.0","36440179","wem/bandit_party_2","A2NL38BFEE3BVY","either","3","152","","","","","","","1","0","0","0.8563468124","","0.6","0.4","0.2","0.8","","","","","0.8563468124","0.5408952125","0.7833884788","0.3986379136","","","","","","","","","","72","H","0","img/none_selected.jpg","","87","main_expt",""
"","bandit","167","440490","0.0-129.0-0.0","36440179","wem/bandit_party_2","A2NL38BFEE3BVY","either","3","17","","","","","","","1","0","0","0.7349543302","","0.6","0.4","0.2","0.8","","","","","0.7349543302","0.5438891422","0.7804426693","0.4230151841","","","","","","","","","","72","H","0","img/none_selected.jpg","","88","main_expt",""
"","bandit","168","442997","0.0-130.0-0.0","36440179","wem/bandit_party_2","A2NL38BFEE3BVY","either","3","982","","","","","","","1","0","0","0.7907967515","","0.6","0.4","0.2","0.8","","","","","0.7907967515","0.4294971294","0.7930928848","0.3761858397","","","","","","","","","","72","H","0","img/none_selected.jpg","","89","main_expt",""
"","bandit","169","444527","0.0-131.0-0.0","36440179","wem/bandit_party_2","A2NL38BFEE3BVY","either","3","1","","","","","","","0","0","1","","0.7883246469","0.6","0.4","0.2","0.8","0.7883246469","0.4928337868","0.7683039237","0.4799086841","","","","","","","","","","","","","","72","H","0","img/none_selected.jpg","","90","main_expt",""
"","bandit","170","446179","0.0-132.0-0.0","36440179","wem/bandit_party_2","A2NL38BFEE3BVY","either","3","110","","","","","","","0","1","0","","0.8072091422","0.6","0.4","0.2","0.8","0.8389096604","0.5655090935","0.8072091422","0.4558425901","","","","","","","","","","","","","","75","K","2","","","91","main_expt",""
"","bandit","171","447708","0.0-133.0-0.0","36440179","wem/bandit_party_2","A2NL38BFEE3BVY","either","3","1","","","","","","","0","1","0","","0.7791444337","0.6","0.4","0.2","0.8","0.8064187158","0.6154818033","0.7791444337","0.3781515597","","","","","","","","","","","","","","75","K","2","","","92","main_expt",""
"","bandit","172","450430","0.0-134.0-0.0","36440179","wem/bandit_party_2","A2NL38BFEE3BVY","either","3","1187","","","","","","","1","0","0","0.8498372391","","0.6","0.4","0.2","0.8","","","","","0.7542368763","0.7381217307","0.8498372391","0.2858753042","","","","","","","","","","75","K","2","","","93","main_expt",""
"","bandit","173","452756","0.0-135.0-0.0","36440179","wem/bandit_party_2","A2NL38BFEE3BVY","either","3","800","","","","","","","0","1","0","","0.8440610374","0.6","0.4","0.2","0.8","0.6932487021","0.7776388333","0.8440610374","0.3914428564","","","","","","","","","","","","","","75","K","2","","","94","main_expt",""
"","bandit","174","454286","0.0-136.0-0.0","36440179","wem/bandit_party_2","A2NL38BFEE3BVY","either","3","1","","","","","","","0","1","0","","0.8092418145","0.6","0.4","0.2","0.8","0.6706070003","0.8299152283","0.8092418145","0.3800018616","","","","","","","","","","","","","","75","K","2","","","95","main_expt",""
"","bandit","175","455820","0.0-137.0-0.0","36440179","wem/bandit_party_2","A2NL38BFEE3BVY","either","3","4","","","","","","","0","1","0","","0.8655172998","0.6","0.4","0.2","0.8","0.6670251336","0.7697811485","0.8655172998","0.3078584031","","","","","","","","","","","","","","75","K","2","","","96","main_expt",""
"","bandit","176","457532","0.0-138.0-0.0","36440179","wem/bandit_party_2","A2NL38BFEE3BVY","either","3","170","","","","","","","1","0","0","0.8735151232","","0.6","0.4","0.2","0.8","","","","","0.7023758817","0.7487724405","0.8735151232","0.218486712","","","","","","","","","","75","K","2","","","97","main_expt",""
"","bandit","177","459652","0.0-139.0-0.0","36440179","wem/bandit_party_2","A2NL38BFEE3BVY","either","3","586","","","","","","","1","0","0","0.84409386","","0.6","0.4","0.2","0.8","","","","","0.7036518389","0.7450583294","0.84409386","0.2037628256","","","","","","","","","","75","K","2","","","98","main_expt",""
"","bandit","178","461472","0.0-140.0-0.0","36440179","wem/bandit_party_2","A2NL38BFEE3BVY","either","3","278","","","","","","","0","1","0","","0.8089648913","0.6","0.4","0.2","0.8","0.8401346726","0.7227120129","0.8089648913","0.2400196326","","","","","","","","","","","","","","75","K","2","","","99","main_expt",""
"","bandit","179","463590","0.0-141.0-0.0","36440179","wem/bandit_party_2","A2NL38BFEE3BVY","either","3","590","","","","","","","1","0","0","0.7259557377","","0.6","0.4","0.2","0.8","","","","","0.8640782416","0.5872141049","0.7259557377","0.3298222115","","","","","","","","","","75","K","2","","","100","main_expt",""
"","bandit","180","466313","0.0-142.0-0.0","36440179","wem/bandit_party_2","A2NL38BFEE3BVY","either","3","232","","","","","","","0","1","0","","0.6332869741","0.6","0.4","0.2","0.8","0.8232172207","0.6432213136","0.6332869741","0.3108047587","","","","","","","","","","","","","","75","K","2","","","101","main_expt",""
"","bandit","181","474036","0.0-143.0-0.0","36440179","wem/bandit_party_2","A2NL38BFEE3BVY","either","3","2625","","","","","","","0","0","1","0.659443461","","0.6","0.4","0.2","0.8","","","","","0.8451901448","0.6009476408","0.659443461","0.2869381514","","","","","","","","","","75","K","2","","","102","main_expt",""
"","bandit","182","478514","0.0-144.0-0.0","36440179","wem/bandit_party_2","A2NL38BFEE3BVY","either","3","1184","","","","","","","0","1","0","","0.8792283932","0.6","0.4","0.2","0.8","0.8792283932","0.6120105745","0.5959971703","0.246485708","","","","","","","","","","","","","","72","H","0","img/none_selected.jpg","","103","main_expt",""
"","bandit","183","481070","0.0-145.0-0.0","36440179","wem/bandit_party_2","A2NL38BFEE3BVY","either","3","1009","","","","","","","1","0","0","0.8887181638","","0.6","0.4","0.2","0.8","","","","","0.8887181638","0.6821098495","0.5643630141","0.2175667678","","","","","","","","","","72","H","0","img/none_selected.jpg","","104","main_expt",""
"","bandit","184","483142","0.0-146.0-0.0","36440179","wem/bandit_party_2","A2NL38BFEE3BVY","either","3","530","","","","","","","0","0","1","0.8013578166","","0.6","0.4","0.2","0.8","","","","","0.8013578166","0.7228510016","0.5489079514","0.2645808036","","","","","","","","","","72","H","0","img/none_selected.jpg","","105","main_expt",""
"","bandit","185","485015","0.0-147.0-0.0","36440179","wem/bandit_party_2","A2NL38BFEE3BVY","either","3","313","","","","","","","0","0","1","0.6639212405","","0.6","0.4","0.2","0.8","","","","","0.7307006529","0.6639212405","0.4336033326","0.2652424516","","","","","","","","","","74","J","1","","","106","main_expt",""
"","bandit","186","486694","0.0-148.0-0.0","36440179","wem/bandit_party_2","A2NL38BFEE3BVY","either","3","109","","","","","","","1","0","0","0.2481661544","","0.6","0.4","0.2","0.8","","","","","0.7519500851","0.6237034742","0.4779201531","0.2481661544","","","","","","","","","","76","L","3","","","107","main_expt",""
"","bandit","187","488692","0.0-149.0-0.0","36440179","wem/bandit_party_2","A2NL38BFEE3BVY","either","3","442","","","","","","","0","0","1","0.2361720859","","0.6","0.4","0.2","0.8","","","","","0.7457577851","0.5847293191","0.5075294874","0.2361720859","","","","","","","","","","76","L","3","","","108","main_expt",""
"","bandit","188","490459","0.0-150.0-0.0","36440179","wem/bandit_party_2","A2NL38BFEE3BVY","either","3","226","","","","","","","0","1","0","","0.522842385","0.6","0.4","0.2","0.8","0.77583868","0.6260859175","0.522842385","0.2799679389","","","","","","","","","","","","","","75","K","2","","","109","main_expt",""
"","bandit","189","492315","0.0-151.0-0.0","36440179","wem/bandit_party_2","A2NL38BFEE3BVY","either","3","307","","","","","","","0","1","0","","0.419893696","0.6","0.4","0.2","0.8","0.7520827962","0.4788227383","0.419893696","0.3333098602","","","","","","","","","","","","","","75","K","2","","","110","main_expt",""
"","bandit","190","494250","0.0-152.0-0.0","36440179","wem/bandit_party_2","A2NL38BFEE3BVY","either","3","373","","","","","","","0","0","1","","0.431092028","0.6","0.4","0.2","0.8","0.6512809768","0.6019778282","0.431092028","0.3669732535","","","","","","","","","","","","","","75","K","2","","","111","main_expt",""
"","bandit","191","496500","0.0-153.0-0.0","36440179","wem/bandit_party_2","A2NL38BFEE3BVY","either","3","707","","","","","","","0","0","1","0.3590071368","","0.6","0.4","0.2","0.8","","","","","0.5891937939","0.546445977","0.3590071368","0.389765336","","","","","","","","","","75","K","2","","","112","main_expt",""
"","bandit","192","498402","0.0-154.0-0.0","36440179","wem/bandit_party_2","A2NL38BFEE3BVY","either","3","363","","","","","","","1","0","0","0.6490525038","","0.6","0.4","0.2","0.8","","","","","0.6490525038","0.6256092846","0.4498419114","0.3191506652","","","","","","","","","","72","H","0","img/none_selected.jpg","","113","main_expt",""
"","bandit","193","500284","0.0-155.0-0.0","36440179","wem/bandit_party_2","A2NL38BFEE3BVY","either","3","326","","","","","","","1","0","0","0.6283680234","","0.6","0.4","0.2","0.8","","","","","0.6283680234","0.6577617598","0.4829831469","0.2090321438","","","","","","","","","","72","H","0","img/none_selected.jpg","","114","main_expt",""
"","bandit","194","502013","0.0-156.0-0.0","36440179","wem/bandit_party_2","A2NL38BFEE3BVY","either","3","184","","","","","","","1","0","0","0.6064224059","","0.6","0.4","0.2","0.8","","","","","0.6064224059","0.7140476354","0.4846695964","0.2094439124","","","","","","","","","","72","H","0","img/none_selected.jpg","","115","main_expt",""
"","bandit","195","503919","0.0-157.0-0.0","36440179","wem/bandit_party_2","A2NL38BFEE3BVY","either","3","372","","","","","","","0","0","1","0.545813367","","0.6","0.4","0.2","0.8","","","","","0.545813367","0.6589976567","0.5396909338","0.2695181069","","","","","","","","","","72","H","0","img/none_selected.jpg","","116","main_expt",""
"","bandit","196","505494","0.0-158.0-0.0","36440179","wem/bandit_party_2","A2NL38BFEE3BVY","either","3","20","","","","","","","0","0","1","","0.6937703341","0.6","0.4","0.2","0.8","0.5179373022","0.6937703341","0.5378282835","0.3402036285","","","","","","","","","","","","","","74","J","1","","","117","main_expt",""
"","bandit","197","507104","0.0-159.0-0.0","36440179","wem/bandit_party_2","A2NL38BFEE3BVY","either","3","70","","","","","","","0","0","1","0.3101634078","","0.6","0.4","0.2","0.8","","","","","0.4014157923","0.77114399","0.5729988564","0.3101634078","","","","","","","","","","76","L","3","","","118","main_expt",""
"","bandit","198","509508","0.0-160.0-0.0","36440179","wem/bandit_party_2","A2NL38BFEE3BVY","either","3","869","","","","","","","1","0","0","0.5630251564","","0.6","0.4","0.2","0.8","","","","","0.4360264599","0.710000291","0.5630251564","0.3242193616","","","","","","","","","","75","K","2","","","119","main_expt",""
"","bandit","199","511411","0.0-161.0-0.0","36440179","wem/bandit_party_2","A2NL38BFEE3BVY","either","3","368","","","","","","","0","1","0","","0.6482115929","0.6","0.4","0.2","0.8","0.3297853269","0.6767982245","0.6482115929","0.3334277272","","","","","","","","","","","","","","75","K","2","","","120","main_expt",""
"","bandit","200","513314","0.0-162.0-0.0","36440179","wem/bandit_party_2","A2NL38BFEE3BVY","either","3","381","","","","","","","0","1","0","","0.5688505083","0.6","0.4","0.2","0.8","0.3767442019","0.7360115258","0.5688505083","0.4066521311","","","","","","","","","","","","","","75","K","2","","","121","main_expt",""
"","bandit","201","515647","0.0-163.0-0.0","36440179","wem/bandit_party_2","A2NL38BFEE3BVY","either","3","791","","","","","","","0","1","0","","0.5349597204","0.6","0.4","0.2","0.8","0.3589515546","0.7258716992","0.5349597204","0.5193034213","","","","","","","","","","","","","","75","K","2","","","122","main_expt",""
"","bandit","202","517485","0.0-164.0-0.0","36440179","wem/bandit_party_2","A2NL38BFEE3BVY","either","3","293","","","","","","","0","0","1","","0.412887176","0.6","0.4","0.2","0.8","0.3461890545","0.7848203729","0.412887176","0.5594962391","","","","","","","","","","","","","","75","K","2","","","123","main_expt",""
"","bandit","203","519466","0.0-165.0-0.0","36440179","wem/bandit_party_2","A2NL38BFEE3BVY","either","3","446","","","","","","","0","0","1","0.2287340519","","0.6","0.4","0.2","0.8","","","","","0.2287340519","0.7673004895","0.4137060999","0.6876014299","","","","","","","","","","72","H","0","img/none_selected.jpg","","124","main_expt",""
"","bandit","204","521106","0.0-166.0-0.0","36440179","wem/bandit_party_2","A2NL38BFEE3BVY","either","3","119","","","","","","","1","0","0","0.8020703208","","0.6","0.4","0.2","0.8","","","","","0.2900718705","0.8020703208","0.3226696341","0.7354493796","","","","","","","","","","74","J","1","","","125","main_expt",""
"","bandit","205","522651","0.0-167.0-0.0","36440179","wem/bandit_party_2","A2NL38BFEE3BVY","either","3","1","","","","","","","1","0","0","0.8196031782","","0.6","0.4","0.2","0.8","","","","","0.2880997441","0.8196031782","0.3904211026","0.76840964","","","","","","","","","","74","J","1","","","126","main_expt",""
"","bandit","206","525522","0.0-168.0-0.0","36440179","wem/bandit_party_2","A2NL38BFEE3BVY","either","3","1351","","","","","","","1","0","0","0.7095492128","","0.6","0.4","0.2","0.8","","","","","0.3451069126","0.7095492128","0.4227014292","0.7310750685","","","","","","","","","","74","J","1","","","127","main_expt",""
"","bandit","207","527940","0.0-169.0-0.0","36440179","wem/bandit_party_2","A2NL38BFEE3BVY","either","3","895","","","","","","","0","0","1","0.711577854","","0.6","0.4","0.2","0.8","","","","","0.3129298861","0.711577854","0.543317668","0.6582635175","","","","","","","","","","74","J","1","","","128","main_expt",""
"","bandit","208","529800","0.0-170.0-0.0","36440179","wem/bandit_party_2","A2NL38BFEE3BVY","either","3","326","","","","","","","0","0","1","","0.5906282681","0.6","0.4","0.2","0.8","0.3507055597","0.7022761705","0.5906282681","0.7529887683","","","","","","","","","","","","","","75","K","2","","","129","main_expt",""
"","bandit","209","532511","0.0-171.0-0.0","36440179","wem/bandit_party_2","A2NL38BFEE3BVY","either","3","1162","","","","","","","1","0","0","0.6636268631","","0.6","0.4","0.2","0.8","","","","","0.3753424236","0.7309419319","0.6636268631","0.7929301986","","","","","","","","","","75","K","2","","","130","main_expt",""
"","bandit","210","535341","0.0-172.0-0.0","36440179","wem/bandit_party_2","A2NL38BFEE3BVY","either","3","1267","","","","","","","1","0","0","0.8149544693","","0.6","0.4","0.2","0.8","","","","","0.3473486375","0.6904825683","0.5686699027","0.8149544693","","","","","","","","","","76","L","3","","","131","main_expt",""
"","bandit","211","537972","0.0-173.0-0.0","36440179","wem/bandit_party_2","A2NL38BFEE3BVY","either","3","1082","","","","","","","0","1","0","","0.6564012045","0.6","0.4","0.2","0.8","0.303679922","0.7153166113","0.6564012045","0.7626544417","","","","","","","","","","","","","","75","K","2","","","132","main_expt",""
"","bandit","212","540270","0.0-174.0-0.0","36440179","wem/bandit_party_2","A2NL38BFEE3BVY","either","3","563","","","","","","","1","0","0","0.7584501248","","0.6","0.4","0.2","0.8","","","","","0.3385565331","0.8135501627","0.5876654864","0.7584501248","","","","","","","","","","76","L","3","","","133","main_expt",""
"","bandit","213","542884","0.0-175.0-0.0","36440179","wem/bandit_party_2","A2NL38BFEE3BVY","either","3","1054","","","","","","","1","0","0","0.7905015291","","0.6","0.4","0.2","0.8","","","","","0.3686406913","0.7707892239","0.5299368298","0.7905015291","","","","","","","","","","76","L","3","","","134","main_expt",""
"","bandit","214","545217","0.0-176.0-0.0","36440179","wem/bandit_party_2","A2NL38BFEE3BVY","either","3","787","","","","","","","1","0","0","0.7515189777","","0.6","0.4","0.2","0.8","","","","","0.3672202126","0.7689088841","0.4547966061","0.7515189777","","","","","","","","","","76","L","3","","","135","main_expt",""
"","bandit","215","547505","0.0-177.0-0.0","36440179","wem/bandit_party_2","A2NL38BFEE3BVY","either","3","748","","","","","","","0","0","1","0.7293518859","","0.6","0.4","0.2","0.8","","","","","0.4064769993","0.6641324257","0.5290841583","0.7293518859","","","","","","","","","","76","L","3","","","136","main_expt",""
"","bandit","216","549611","0.0-178.0-0.0","36440179","wem/bandit_party_2","A2NL38BFEE3BVY","either","3","564","","","","","","","0","1","0","","0.7286216209","0.6","0.4","0.2","0.8","0.3492503667","0.635388201","0.419904672","0.7286216209","","","","","","","","","","","","","","76","L","3","","","137","main_expt",""
"","bandit","217","551778","0.0-179.0-0.0","36440179","wem/bandit_party_2","A2NL38BFEE3BVY","either","3","633","","","","","","","1","0","0","0.7425921641","","0.6","0.4","0.2","0.8","","","","","0.3315752647","0.6889508363","0.4532768315","0.7425921641","","","","","","","","","","76","L","3","","","138","main_expt",""
"","bandit","218","553970","0.0-180.0-0.0","36440179","wem/bandit_party_2","A2NL38BFEE3BVY","either","3","642","","","","","","","1","0","0","0.7356638012","","0.6","0.4","0.2","0.8","","","","","0.3080831972","0.6481427694","0.4194835996","0.7356638012","","","","","","","","","","76","L","3","","","139","main_expt",""
"","bandit","219","556817","0.0-181.0-0.0","36440179","wem/bandit_party_2","A2NL38BFEE3BVY","either","3","1305","","","","","","","0","0","1","0.7334346803","","0.6","0.4","0.2","0.8","","","","","0.3254670704","0.6497449761","0.420008375","0.7334346803","","","","","","","","","","76","L","3","","","140","main_expt",""
"","bandit","220","558728","0.0-182.0-0.0","36440179","wem/bandit_party_2","A2NL38BFEE3BVY","either","3","384","","","","","","","1","0","0","0.3908595681","","0.6","0.4","0.2","0.8","","","","","0.3452870884","0.7328205829","0.3908595681","0.7737071977","","","","","","","","","","75","K","2","","","141","main_expt",""
"","bandit","221","560321","0.0-183.0-0.0","36440179","wem/bandit_party_2","A2NL38BFEE3BVY","either","3","43","","","","","","","0","1","0","","0.3994278682","0.6","0.4","0.2","0.8","0.2659846132","0.6396752577","0.3994278682","0.7912630164","","","","","","","","","","","","","","75","K","2","","","142","main_expt",""
"","bandit","222","562376","0.0-184.0-0.0","36440179","wem/bandit_party_2","A2NL38BFEE3BVY","either","3","506","","","","","","","0","0","1","","0.3137486051","0.6","0.4","0.2","0.8","0.2549781044","0.5974809775","0.3137486051","0.7709923268","","","","","","","","","","","","","","75","K","2","","","143","main_expt",""
"","bandit","223","564710","0.0-185.0-0.0","36440179","wem/bandit_party_2","A2NL38BFEE3BVY","either","3","784","","","","","","","0","1","0","","0.5953980303","0.6","0.4","0.2","0.8","0.3603981418","0.5953980303","0.3961992406","0.7492848764","","","","","","","","","","","","","","74","J","1","","","144","main_expt",""
"","bandit","224","566706","0.0-186.0-0.0","36440179","wem/bandit_party_2","A2NL38BFEE3BVY","either","3","475","","","","","","","0","0","1","","0.6215671736","0.6","0.4","0.2","0.8","0.3682949958","0.6215671736","0.3186856111","0.7343485297","","","","","","","","","","","","","","74","J","1","","","145","main_expt",""
"","bandit","225","568528","0.0-187.0-0.0","36440179","wem/bandit_party_2","A2NL38BFEE3BVY","either","3","281","","","","","","","1","0","0","0.5028772858","","0.6","0.4","0.2","0.8","","","","","0.5028772858","0.5766937592","0.2724247948","0.7701032705","","","","","","","","","","72","H","0","img/none_selected.jpg","","146","main_expt",""
"","bandit","226","570090","0.0-188.0-0.0","36440179","wem/bandit_party_2","A2NL38BFEE3BVY","either","3","26","","","","","","","0","1","0","","0.4186890645","0.6","0.4","0.2","0.8","0.4186890645","0.4600492943","0.2844288079","0.7521601774","","","","","","","","","","","","","","72","H","0","img/none_selected.jpg","","147","main_expt",""
"","bandit","227","571946","0.0-189.0-0.0","36440179","wem/bandit_party_2","A2NL38BFEE3BVY","either","3","333","","","","","","","0","0","1","","0.3928328601","0.6","0.4","0.2","0.8","0.3928328601","0.4575448178","0.3095389551","0.7762143641","","","","","","","","","","","","","","72","H","0","img/none_selected.jpg","","148","main_expt",""
"","bandit","228","573675","0.0-190.0-0.0","36440179","wem/bandit_party_2","A2NL38BFEE3BVY","either","3","201","","","","","","","0","0","1","0.716016993","","0.6","0.4","0.2","0.8","","","","","0.4220063763","0.3840278576","0.2464654743","0.716016993","","","","","","","","","","76","L","3","","","149","main_expt",""
"","bandit","229","575345","0.0-191.0-0.0","36440179","wem/bandit_party_2","A2NL38BFEE3BVY","either","3","119","","","","","","","0","0","1","0.3004406684","","0.6","0.4","0.2","0.8","","","","","0.3206822378","0.3004406684","0.2088091358","0.7182774931","","","","","","","","","","74","J","1","","","150","main_expt",""
"","bandit","230","576915","0.0-192.0-0.0","36440179","wem/bandit_party_2","A2NL38BFEE3BVY","either","3","29","","","","","","","0","1","0","","0.2670014618","0.6","0.4","0.2","0.8","0.3380172956","0.2769981479","0.2670014618","0.8028216805","","","","","","","","","","","","","","75","K","2","","","151","main_expt",""
"","bandit","231","579126","0.0-193.0-0.0","36440179","wem/bandit_party_2","A2NL38BFEE3BVY","either","3","680","","","","","","","0","0","1","0.3100930243","","0.6","0.4","0.2","0.8","","","","","0.2461440624","0.40565407","0.3100930243","0.8634692279","","","","","","","","","","75","K","2","","","152","main_expt",""
"","bandit","232","581775","0.0-194.0-0.0","36440179","wem/bandit_party_2","A2NL38BFEE3BVY","either","3","1109","","","","","","","0","0","1","0.1852716423","","0.6","0.4","0.2","0.8","","","","","0.1852716423","0.3829351634","0.3796096158","0.7719190238","","","","","","","","","","72","H","0","img/none_selected.jpg","","153","main_expt",""
"","bandit","233","583645","0.0-195.0-0.0","36440179","wem/bandit_party_2","A2NL38BFEE3BVY","either","3","329","","","","","","","0","1","0","","0.4912137185","0.6","0.4","0.2","0.8","0.1660439368","0.4912137185","0.2265028128","0.8343429945","","","","","","","","","","","","","","74","J","1","","","154","main_expt",""
"","bandit","234","585654","0.0-196.0-0.0","36440179","wem/bandit_party_2","A2NL38BFEE3BVY","either","3","475","","","","","","","0","0","1","","0.5312535156","0.6","0.4","0.2","0.8","0.2241607793","0.5312535156","0.2135741777","0.7908731232","","","","","","","","","","","","","","74","J","1","","","155","main_expt",""
"","bandit","235","588085","0.0-197.0-0.0","36440179","wem/bandit_party_2","A2NL38BFEE3BVY","either","3","891","","","","","","","0","0","1","0.7848911391","","0.6","0.4","0.2","0.8","","","","","0.1566338899","0.5747898199","0.1338357519","0.7848911391","","","","","","","","","","76","L","3","","","156","main_expt",""
"","bandit","236","592031","0.0-198.0-0.0","36440179","wem/bandit_party_2","A2NL38BFEE3BVY","either","3","2411","","","","","","","0","0","1","","0.1344370697","0.6","0.4","0.2","0.8","0.1839373886","0.5948125822","0.1344370697","0.7467155263","","","","","","","","","","","","","","75","K","2","","","157","main_expt",""
"","bandit","237","593938","0.0-199.0-0.0","36440179","wem/bandit_party_2","A2NL38BFEE3BVY","either","3","370","","","","","","","0","1","0","","0.6533804049","0.6","0.4","0.2","0.8","0.155802242","0.6533804049","0.1217930933","0.7413618202","","","","","","","","","","","","","","74","J","1","","","158","main_expt",""
"","bandit","238","597778","0.0-200.0-0.0","36440179","wem/bandit_party_2","A2NL38BFEE3BVY","either","3","2295","","","","","","","1","0","0","0.5777198579","","0.6","0.4","0.2","0.8","","","","","0.2304237345","0.5777198579","0.08524485746","0.6882043704","","","","","","","","","","74","J","1","","","159","main_expt",""
"","bandit","239","599755","0.0-201.0-0.0","36440179","wem/bandit_party_2","A2NL38BFEE3BVY","either","3","424","","","","","","","0","1","0","","0.6777741118","0.6","0.4","0.2","0.8","0.2242026456","0.6777741118","0.07332219892","0.7253096401","","","","","","","","","","","","","","74","J","1","","","160","main_expt",""
"","bandit","240","601775","0.0-202.0-0.0","36440179","wem/bandit_party_2","A2NL38BFEE3BVY","either","3","370","","","","","","","0","1","0","","0.6249074267","0.6","0.4","0.2","0.8","0.2708915048","0.6249074267","0.1063489691","0.6989182833","","","","","","","","","","","","","","74","J","1","","","161","main_expt",""
"","bandit","241","603832","0.0-203.0-0.0","36440179","wem/bandit_party_2","A2NL38BFEE3BVY","either","3","506","","","","","","","0","0","1","","0.6755041601","0.6","0.4","0.2","0.8","0.2921592604","0.6755041601","0.09670310095","0.7679575172","","","","","","","","","","","","","","74","J","1","","","162","main_expt",""
"","bandit","242","605376","0.0-204.0-0.0","36440179","wem/bandit_party_2","A2NL38BFEE3BVY","either","3","2","","","","","","","0","0","1","0.2050535257","","0.6","0.4","0.2","0.8","","","","","0.2050535257","0.6461818487","0.1266359811","0.6877390752","","","","","","","","","","72","H","0","img/none_selected.jpg","","163","main_expt",""
"","bandit","243","607639","0.0-205.0-0.0","36440179","wem/bandit_party_2","A2NL38BFEE3BVY","either","3","709","","","","","","","1","0","0","0.6957575266","","0.6","0.4","0.2","0.8","","","","","0.1998759094","0.76368027","0.1212611996","0.6957575266","","","","","","","","","","76","L","3","","","164","main_expt",""
"","bandit","244","609533","0.0-206.0-0.0","36440179","wem/bandit_party_2","A2NL38BFEE3BVY","either","3","337","","","","","","","1","0","0","0.6760148625","","0.6","0.4","0.2","0.8","","","","","0.1821974317","0.8400099296","0.1917887173","0.6760148625","","","","","","","","","","76","L","3","","","165","main_expt",""
"","bandit","245","611721","0.0-207.0-0.0","36440179","wem/bandit_party_2","A2NL38BFEE3BVY","either","3","636","","","","","","","1","0","0","0.6463317238","","0.6","0.4","0.2","0.8","","","","","0.2916844583","0.8573275969","0.1560613016","0.6463317238","","","","","","","","","","76","L","3","","","166","main_expt",""
"","bandit","246","613852","0.0-208.0-0.0","36440179","wem/bandit_party_2","A2NL38BFEE3BVY","either","3","601","","","","","","","1","0","0","0.5613055562","","0.6","0.4","0.2","0.8","","","","","0.3087465624","0.7735369509","0.2214887095","0.5613055562","","","","","","","","","","76","L","3","","","167","main_expt",""
"","bandit","247","616603","0.0-209.0-0.0","36440179","wem/bandit_party_2","A2NL38BFEE3BVY","either","3","1205","","","","","","","0","1","0","","0.5586162784","0.6","0.4","0.2","0.8","0.3896626528","0.8091314607","0.3463453368","0.5586162784","","","","","","","","","","","","","","76","L","3","","","168","main_expt",""
"","bandit","248","618674","0.0-210.0-0.0","36440179","wem/bandit_party_2","A2NL38BFEE3BVY","either","3","541","","","","","","","1","0","0","0.597448185","","0.6","0.4","0.2","0.8","","","","","0.4458805252","0.8364166478","0.3222551453","0.597448185","","","","","","","","","","76","L","3","","","169","main_expt",""
"","bandit","249","621164","0.0-211.0-0.0","36440179","wem/bandit_party_2","A2NL38BFEE3BVY","either","3","962","","","","","","","0","0","1","0.5351242352","","0.6","0.4","0.2","0.8","","","","","0.4844269655","0.7867883415","0.2556410415","0.5351242352","","","","","","","","","","76","L","3","","","170","main_expt",""
"","bandit","250","624427","0.0-212.0-0.0","36440179","wem/bandit_party_2","A2NL38BFEE3BVY","either","3","1723","","","","","","","0","0","1","","0.2248109201","0.6","0.4","0.2","0.8","0.4858642724","0.8728822524","0.2248109201","0.4819966971","","","","","","","","","","","","","","75","K","2","","","171","main_expt",""
"","bandit","251","626280","0.0-213.0-0.0","36440179","wem/bandit_party_2","A2NL38BFEE3BVY","either","3","300","","","","","","","0","1","0","","0.7804912391","0.6","0.4","0.2","0.8","0.5060245996","0.7804912391","0.3468742366","0.4038669266","","","","","","","","","","","","","","74","J","1","","","172","main_expt",""
"","bandit","252","629141","0.0-214.0-0.0","36440179","wem/bandit_party_2","A2NL38BFEE3BVY","either","3","1319","","","","","","","0","1","0","","0.7728490534","0.6","0.4","0.2","0.8","0.5413528159","0.7728490534","0.234408543","0.3102533384","","","","","","","","","","","","","","74","J","1","","","173","main_expt",""
"","bandit","253","631820","0.0-215.0-0.0","36440179","wem/bandit_party_2","A2NL38BFEE3BVY","either","3","1122","","","","","","","0","0","1","","0.814185781","0.6","0.4","0.2","0.8","0.6505326818","0.814185781","0.1404050277","0.3818943333","","","","","","","","","","","","","","74","J","1","","","174","main_expt",""
"","bandit","254","633844","0.0-216.0-0.0","36440179","wem/bandit_party_2","A2NL38BFEE3BVY","either","3","472","","","","","","","0","0","1","","0.6470977149","0.6","0.4","0.2","0.8","0.6470977149","0.8010682597","0.1081611795","0.2893198216","","","","","","","","","","","","","","72","H","0","img/none_selected.jpg","","175","main_expt",""
"","bandit","255","638077","0.0-217.0-0.0","36440179","wem/bandit_party_2","A2NL38BFEE3BVY","either","3","2691","","","","","","","0","1","0","","0.226416223","0.6","0.4","0.2","0.8","0.6844229635","0.7083228223","0.0730283124","0.226416223","","","","","","","","","","","","","","76","L","3","","","176","main_expt",""
"","bandit","256","639961","0.0-218.0-0.0","36440179","wem/bandit_party_2","A2NL38BFEE3BVY","either","3","354","","","","","","","1","0","0","0.2786676386","","0.6","0.4","0.2","0.8","","","","","0.6883244284","0.7408938443","0.07044941978","0.2786676386","","","","","","","","","","76","L","3","","","177","main_expt",""
"","bandit","257","643392","0.0-219.0-0.0","36440179","wem/bandit_party_2","A2NL38BFEE3BVY","either","3","1885","","","","","","","0","0","1","0.2279078815","","0.6","0.4","0.2","0.8","","","","","0.6098590842","0.6621187214","0.06886985111","0.2279078815","","","","","","","","","","76","L","3","","","178","main_expt",""
"","bandit","258","647057","0.0-220.0-0.0","36440179","wem/bandit_party_2","A2NL38BFEE3BVY","either","3","2141","","","","","","","1","0","0","0.6765487854","","0.6","0.4","0.2","0.8","","","","","0.5924449164","0.6765487854","0.07254371148","0.1690126781","","","","","","","","","","74","J","1","","","179","main_expt",""
"","bandit","259","649779","0.0-221.0-0.0","36440179","wem/bandit_party_2","A2NL38BFEE3BVY","either","3","1181","","","","","","","1","0","0","0.7276027883","","0.6","0.4","0.2","0.8","","","","","0.4915111467","0.7276027883","0.055057054","0.1356066944","","","","","","","","","","74","J","1","","","180","main_expt",""
"","bandit","260","652719","0.0-222.0-0.0","36440179","wem/bandit_party_2","A2NL38BFEE3BVY","either","3","1410","","","","","","","1","0","0","0.7083410305","","0.6","0.4","0.2","0.8","","","","","0.4713933083","0.7083410305","0.1187845962","0.1889441784","","","","","","","","","","74","J","1","","","181","main_expt",""
"","bandit","261","654867","0.0-223.0-0.0","36440179","wem/bandit_party_2","A2NL38BFEE3BVY","either","3","591","","","","","","","0","0","1","0.6489729838","","0.6","0.4","0.2","0.8","","","","","0.500114893","0.6489729838","0.1304227184","0.2163976064","","","","","","","","","","74","J","1","","","182","main_expt",""
"","bandit","262","656831","0.0-224.0-0.0","36440179","wem/bandit_party_2","A2NL38BFEE3BVY","either","3","431","","","","","","","0","0","1","","0.1374638341","0.6","0.4","0.2","0.8","0.4949273894","0.6956751073","0.1374638341","0.1902524086","","","","","","","","","","","","","","75","K","2","","","183","main_expt",""
"","bandit","263","659123","0.0-225.0-0.0","36440179","wem/bandit_party_2","A2NL38BFEE3BVY","either","3","756","","","","","","","0","0","1","0.4271361476","","0.6","0.4","0.2","0.8","","","","","0.4271361476","0.6066537109","0.1914365344","0.2265805791","","","","","","","","","","72","H","0","img/none_selected.jpg","","184","main_expt",""
"","bandit","264","664453","0.0-226.0-0.0","36440179","wem/bandit_party_2","A2NL38BFEE3BVY","either","3","3783","","","","","","","0","0","1","0.4558255176","","0.6","0.4","0.2","0.8","","","","","0.4558255176","0.6337362372","0.1939872458","0.1843452782","","","","","","","","","","72","H","0","img/none_selected.jpg","","185","main_expt",""
"","bandit","265","667453","0.0-227.0-0.0","36440179","wem/bandit_party_2","A2NL38BFEE3BVY","either","3","1353","","","","","","","0","0","1","","0.2219937035","0.6","0.4","0.2","0.8","0.4031301461","0.5908962551","0.2219937035","0.1898387663","","","","","","","","","","","","","","75","K","2","","","186","main_expt",""
"","bandit","266","669689","0.0-228.0-0.0","36440179","wem/bandit_party_2","A2NL38BFEE3BVY","either","3","668","","","","","","","0","1","0","","0.7651761031","0.6","0.4","0.2","0.8","0.3993697366","0.7651761031","0.2024523472","0.210498268","","","","","","","","","","","","","","74","J","1","","","187","main_expt",""
"","bandit","267","671824","0.0-229.0-0.0","36440179","wem/bandit_party_2","A2NL38BFEE3BVY","either","3","585","","","","","","","0","1","0","","0.7928336054","0.6","0.4","0.2","0.8","0.4478687375","0.7928336054","0.1930401344","0.2368649008","","","","","","","","","","","","","","74","J","1","","","188","main_expt",""
"","bandit","268","674517","0.0-230.0-0.0","36440179","wem/bandit_party_2","A2NL38BFEE3BVY","either","3","1133","","","","","","","0","1","0","","0.8917358491","0.6","0.4","0.2","0.8","0.3699601256","0.8917358491","0.3255404916","0.291591963","","","","","","","","","","","","","","74","J","1","","","189","main_expt",""
"","bandit","269","676524","0.0-231.0-0.0","36440179","wem/bandit_party_2","A2NL38BFEE3BVY","either","3","435","","","","","","","1","0","0","0.898448025","","0.6","0.4","0.2","0.8","","","","","0.3723251068","0.898448025","0.2364063212","0.4411779124","","","","","","","","","","74","J","1","","","190","main_expt",""
"","bandit","270","678961","0.0-232.0-0.0","36440179","wem/bandit_party_2","A2NL38BFEE3BVY","either","3","876","","","","","","","1","0","0","0.9186708851","","0.6","0.4","0.2","0.8","","","","","0.3309849287","0.9186708851","0.2662767285","0.3968704403","","","","","","","","","","74","J","1","","","191","main_expt",""
"","bandit","271","681053","0.0-233.0-0.0","36440179","wem/bandit_party_2","A2NL38BFEE3BVY","either","3","548","","","","","","","0","1","0","","0.9314477517","0.6","0.4","0.2","0.8","0.2865625263","0.9314477517","0.2815174114","0.4512817608","","","","","","","","","","","","","","74","J","1","","","192","main_expt",""
"","bandit","272","683585","0.0-234.0-0.0","36440179","wem/bandit_party_2","A2NL38BFEE3BVY","either","3","981","","","","","","","0","1","0","","0.9090465067","0.6","0.4","0.2","0.8","0.2862811746","0.9090465067","0.3461293965","0.4788006455","","","","","","","","","","","","","","74","J","1","","","193","main_expt",""
"","bandit","273","685963","0.0-235.0-0.0","36440179","wem/bandit_party_2","A2NL38BFEE3BVY","either","3","831","","","","","","","0","1","0","","0.8762249788","0.6","0.4","0.2","0.8","0.2785288642","0.8762249788","0.3303735913","0.4651889587","","","","","","","","","","","","","","74","J","1","","","194","main_expt",""
"","bandit","274","687927","0.0-236.0-0.0","36440179","wem/bandit_party_2","A2NL38BFEE3BVY","either","3","422","","","","","","","0","1","0","","0.8623185747","0.6","0.4","0.2","0.8","0.2283941808","0.8623185747","0.3194565039","0.4718629942","","","","","","","","","","","","","","74","J","1","","","195","main_expt",""
"","bandit","275","690618","0.0-237.0-0.0","36440179","wem/bandit_party_2","A2NL38BFEE3BVY","either","3","1145","","","","","","","1","0","0","0.7745977574","","0.6","0.4","0.2","0.8","","","","","0.214282227","0.7745977574","0.4103944464","0.3825708332","","","","","","","","","","74","J","1","","","196","main_expt",""
"","bandit","276","694176","0.0-238.0-0.0","36440179","wem/bandit_party_2","A2NL38BFEE3BVY","either","3","2006","","","","","","","1","0","0","0.7723069829","","0.6","0.4","0.2","0.8","","","","","0.1422959513","0.7723069829","0.4445726534","0.4530864699","","","","","","","","","","74","J","1","","","197","main_expt",""
"","bandit","277","696251","0.0-239.0-0.0","36440179","wem/bandit_party_2","A2NL38BFEE3BVY","either","3","530","","","","","","","1","0","0","0.7084082875","","0.6","0.4","0.2","0.8","","","","","0.1126324943","0.7084082875","0.4351718099","0.4337652667","","","","","","","","","","74","J","1","","","198","main_expt",""
"","bandit","278","699285","0.0-240.0-0.0","36440179","wem/bandit_party_2","A2NL38BFEE3BVY","either","3","1493","","","","","","","1","0","0","0.7016883558","","0.6","0.4","0.2","0.8","","","","","0.1144166609","0.7016883558","0.4641294157","0.4138332966","","","","","","","","","","74","J","1","","","199","main_expt",""
"","bandit","279","702310","0.0-241.0-0.0","36440179","wem/bandit_party_2","A2NL38BFEE3BVY","either","3","1472","","","","","","","0","0","1","","0.6504384346","0.6","0.4","0.2","0.8","0.1518003708","0.6504384346","0.4468687069","0.5005175686","","","","","","","","","","","","","","74","J","1","","","200","main_expt",""
"","bandit","280","704525","0.0-242.0-0.0","36440179","wem/bandit_party_2","A2NL38BFEE3BVY","either","3","674","","","","","","","0","1","0","","0.5087435212","0.6","0.4","0.2","0.8","0.1974433607","0.7904945102","0.5087435212","0.5122642399","","","","","","","","","","","","","","75","K","2","","","201","main_expt",""
"","bandit","281","707872","0.0-243.0-0.0","36440179","wem/bandit_party_2","A2NL38BFEE3BVY","either","3","1803","","","","","","","0","1","0","","0.4992132835","0.6","0.4","0.2","0.8","0.2000842809","0.7039472437","0.4992132835","0.5414597976","","","","","","","","","","","","","","75","K","2","","","202","main_expt",""
"","bandit","282","712537","0.0-244.0-0.0","36440179","wem/bandit_party_2","A2NL38BFEE3BVY","either","3","3110","","","","","","","0","0","1","","0.4859842053","0.6","0.4","0.2","0.8","0.1715580826","0.7478807213","0.4859842053","0.4993649945","","","","","","","","","","","","","","75","K","2","","","203","main_expt",""
"","bandit","283","716684","0.0-245.0-0.0","36440179","wem/bandit_party_2","A2NL38BFEE3BVY","either","3","2596","","","","","","","0","0","1","","0.4056752737","0.6","0.4","0.2","0.8","0.3028604286","0.7346150791","0.6162755314","0.4056752737","","","","","","","","","","","","","","76","L","3","","","204","main_expt",""
"","bandit","284","724758","0.0-246.0-0.0","36440179","wem/bandit_party_2","A2NL38BFEE3BVY","either","3","6524","","","","","","","0","1","0","","0.3714949669","0.6","0.4","0.2","0.8","0.3714949669","0.7240623961","0.6204906845","0.4174768156","","","","","","","","","","","","","","72","H","0","img/none_selected.jpg","","205","main_expt",""
"","bandit","285","726814","0.0-247.0-0.0","36440179","wem/bandit_party_2","A2NL38BFEE3BVY","either","3","522","","","","","","","0","0","1","0.3034865557","","0.6","0.4","0.2","0.8","","","","","0.3034865557","0.733657826","0.6390595606","0.4364097613","","","","","","","","","","72","H","0","img/none_selected.jpg","","206","main_expt",""
"","bandit","286","728715","0.0-248.0-0.0","36440179","wem/bandit_party_2","A2NL38BFEE3BVY","either","3","361","","","","","","","0","0","1","","0.4666062126","0.6","0.4","0.2","0.8","0.2688105372","0.6797091947","0.6022157482","0.4666062126","","","","","","","","","","","","","","76","L","3","","","207","main_expt",""
"","bandit","287","730939","0.0-249.0-0.0","36440179","wem/bandit_party_2","A2NL38BFEE3BVY","either","3","691","","","","","","","0","1","0","","0.6598502583","0.6","0.4","0.2","0.8","0.2240001326","0.472157919","0.6598502583","0.4594719295","","","","","","","","","","","","","","75","K","2","","","208","main_expt",""
"","bandit","288","733872","0.0-250.0-0.0","36440179","wem/bandit_party_2","A2NL38BFEE3BVY","either","3","1093","","","","","","","0","0","1","","0.6329069529","0.6","0.4","0.2","0.8","0.3284172364","0.4993955773","0.6329069529","0.5415101973","","","","","","","","","","","","","","75","K","2","","","209","main_expt",""
"","bandit","289","736188","0.0-251.0-0.0","36440179","wem/bandit_party_2","A2NL38BFEE3BVY","either","3","751","","","","","","","0","0","1","","0.3923888982","0.6","0.4","0.2","0.8","0.3178667136","0.3923888982","0.5418549626","0.5627952802","","","","","","","","","","","","","","74","J","1","","","210","main_expt",""
"","bandit","290","740168","0.0-252.0-0.0","36440179","wem/bandit_party_2","A2NL38BFEE3BVY","either","3","2426","","","","","","","1","0","0","0.5779033475","","0.6","0.4","0.2","0.8","","","","","0.278360526","0.4183885941","0.7265410197","0.5779033475","","","","","","","","","","76","L","3","","","211","main_expt",""
"","bandit","291","745128","0.0-253.0-0.0","36440179","wem/bandit_party_2","A2NL38BFEE3BVY","either","3","3414","","","","","","","1","0","0","0.6169713091","","0.6","0.4","0.2","0.8","","","","","0.2720231684","0.5367383083","0.6550819281","0.6169713091","","","","","","","","","","76","L","3","","","212","main_expt",""
"","bandit","292","747013","0.0-254.0-0.0","36440179","wem/bandit_party_2","A2NL38BFEE3BVY","either","3","350","","","","","","","0","0","1","0.5688165975","","0.6","0.4","0.2","0.8","","","","","0.3445332441","0.5779451767","0.5812500281","0.5688165975","","","","","","","","","","76","L","3","","","213","main_expt",""
"","bandit","293","748589","0.0-255.0-0.0","36440179","wem/bandit_party_2","A2NL38BFEE3BVY","either","3","31","","","","","","","0","0","1","","0.6912727382","0.6","0.4","0.2","0.8","0.331154659","0.5615700258","0.6912727382","0.5354690829","","","","","","","","","","","","","","75","K","2","","","214","main_expt",""
"","bandit","294","750434","0.0-256.0-0.0","36440179","wem/bandit_party_2","A2NL38BFEE3BVY","either","3","306","","","","","","","0","0","1","0.5361399643","","0.6","0.4","0.2","0.8","","","","","0.3168016653","0.5361399643","0.695573978","0.4395706401","","","","","","","","","","74","J","1","","","215","main_expt",""
"","bandit","295","752425","0.0-257.0-0.0","36440179","wem/bandit_party_2","A2NL38BFEE3BVY","either","3","450","","","","","","","0","0","1","0.2870858596","","0.6","0.4","0.2","0.8","","","","","0.2870858596","0.620750855","0.6531454011","0.4522294324","","","","","","","","","","72","H","0","img/none_selected.jpg","","216","main_expt",""
"","bandit","296","754371","0.0-258.0-0.0","36440179","wem/bandit_party_2","A2NL38BFEE3BVY","either","3","398","","","","","","","0","0","1","0.4141575353","","0.6","0.4","0.2","0.8","","","","","0.2877345098","0.4812239037","0.6459690495","0.4141575353","","","","","","","","","","76","L","3","","","217","main_expt",""
"","bandit","297","756249","0.0-259.0-0.0","36440179","wem/bandit_party_2","A2NL38BFEE3BVY","either","3","339","","","","","","","0","0","1","","0.3608492067","0.6","0.4","0.2","0.8","0.3608492067","0.4028497994","0.6679944541","0.3009722504","","","","","","","","","","","","","","72","H","0","img/none_selected.jpg","","218","main_expt",""
"","bandit","298","757889","0.0-260.0-0.0","36440179","wem/bandit_party_2","A2NL38BFEE3BVY","either","3","96","","","","","","","1","0","0","0.4441021312","","0.6","0.4","0.2","0.8","","","","","0.4380407461","0.4441021312","0.7159195147","0.2706893249","","","","","","","","","","74","J","1","","","219","main_expt",""
"","bandit","299","759605","0.0-261.0-0.0","36440179","wem/bandit_party_2","A2NL38BFEE3BVY","either","3","163","","","","","","","0","0","1","","0.4867825248","0.6","0.4","0.2","0.8","0.4769938592","0.4867825248","0.6874484601","0.3821277721","","","","","","","","","","","","","","74","J","1","","","220","main_expt",""
"","bandit","300","761735","0.0-262.0-0.0","36440179","wem/bandit_party_2","A2NL38BFEE3BVY","either","3","586","","","","","","","1","0","0","0.5428062785","","0.6","0.4","0.2","0.8","","","","","0.4612627877","0.5428062785","0.6528128226","0.4534214389","","","","","","","","","","74","J","1","","","221","main_expt",""
"","bandit","301","763818","0.0-263.0-0.0","36440179","wem/bandit_party_2","A2NL38BFEE3BVY","either","3","536","","","","","","","0","1","0","","0.5993321864","0.6","0.4","0.2","0.8","0.4192901336","0.5993321864","0.6836467719","0.6049712458","","","","","","","","","","","","","","74","J","1","","","222","main_expt",""
"","bandit","302","765999","0.0-264.0-0.0","36440179","wem/bandit_party_2","A2NL38BFEE3BVY","either","3","644","","","","","","","0","0","1","0.4920604154","","0.6","0.4","0.2","0.8","","","","","0.5559965486","0.4920604154","0.7820879334","0.6389506418","","","","","","","","","","74","J","1","","","223","main_expt",""
"","bandit","303","767959","0.0-265.0-0.0","36440179","wem/bandit_party_2","A2NL38BFEE3BVY","either","3","408","","","","","","","0","1","0","","0.763226653","0.6","0.4","0.2","0.8","0.6687933923","0.5344282052","0.763226653","0.6677375732","","","","","","","","","","","","","","75","K","2","","","224","main_expt",""
"","bandit","304","771279","0.0-266.0-0.0","36440179","wem/bandit_party_2","A2NL38BFEE3BVY","either","3","1783","","","","","","","1","0","0","0.6931961842","","0.6","0.4","0.2","0.8","","","","","0.5954484576","0.5583452501","0.6931961842","0.7706853934","","","","","","","","","","75","K","2","","","225","main_expt",""
"","bandit","305","775915","0.0-267.0-0.0","36440179","wem/bandit_party_2","A2NL38BFEE3BVY","either","3","3079","","","","","","","0","0","1","","0.6633974694","0.6","0.4","0.2","0.8","0.6152447968","0.5126042404","0.6633974694","0.7624197083","","","","","","","","","","","","","","75","K","2","","","226","main_expt",""
"","bandit","306","777880","0.0-268.0-0.0","36440179","wem/bandit_party_2","A2NL38BFEE3BVY","either","3","436","","","","","","","1","0","0","0.7287840805","","0.6","0.4","0.2","0.8","","","","","0.6597553912","0.5720595628","0.6567175756","0.7287840805","","","","","","","","","","76","L","3","","","227","main_expt",""
"","bandit","307","780420","0.0-269.0-0.0","36440179","wem/bandit_party_2","A2NL38BFEE3BVY","either","3","981","","","","","","","1","0","0","0.7993891034","","0.6","0.4","0.2","0.8","","","","","0.594895186","0.6134710885","0.6052730858","0.7993891034","","","","","","","","","","76","L","3","","","228","main_expt",""
"","bandit","308","782904","0.0-270.0-0.0","36440179","wem/bandit_party_2","A2NL38BFEE3BVY","either","3","944","","","","","","","1","0","0","0.8374027748","","0.6","0.4","0.2","0.8","","","","","0.5722559027","0.5669106804","0.5548990383","0.8374027748","","","","","","","","","","76","L","3","","","229","main_expt",""
"","bandit","309","785228","0.0-271.0-0.0","36440179","wem/bandit_party_2","A2NL38BFEE3BVY","either","3","763","","","","","","","0","0","1","0.8414873787","","0.6","0.4","0.2","0.8","","","","","0.5409090622","0.6286782819","0.6017114108","0.8414873787","","","","","","","","","","76","L","3","","","230","main_expt",""
"","bandit","310","787158","0.0-272.0-0.0","36440179","wem/bandit_party_2","A2NL38BFEE3BVY","either","3","357","","","","","","","1","0","0","0.518727512","","0.6","0.4","0.2","0.8","","","","","0.518727512","0.5594948871","0.5525336349","0.8531648874","","","","","","","","","","72","H","0","img/none_selected.jpg","","231","main_expt",""
"","bandit","311","794303","0.0-273.0-0.0","36440179","wem/bandit_party_2","A2NL38BFEE3BVY","either","3","5576","","","","","","","0","0","1","","0.4493361955","0.6","0.4","0.2","0.8","0.5200298571","0.5817998964","0.4493361955","0.8813812612","","","","","","","","","","","","","","75","K","2","","","232","main_expt",""
"","bandit","312","800993","0.0-274.0-0.0","36440179","wem/bandit_party_2","A2NL38BFEE3BVY","either","3","5117","","","","","","","0","1","0","","0.5971875981","0.6","0.4","0.2","0.8","0.4564343731","0.5971875981","0.5280832246","0.8916766345","","","","","","","","","","","","","","74","J","1","","","233","main_expt",""
"","bandit","313","802605","0.0-275.0-0.0","36440179","wem/bandit_party_2","A2NL38BFEE3BVY","either","3","53","","","","","","","0","0","1","0.5227237997","","0.6","0.4","0.2","0.8","","","","","0.4168065644","0.5227237997","0.6814540918","0.842820862","","","","","","","","","","74","J","1","","","234","main_expt",""
"","bandit","314","805476","0.0-276.0-0.0","36440179","wem/bandit_party_2","A2NL38BFEE3BVY","either","3","1309","","","","","","","0","0","1","","0.5518959403","0.6","0.4","0.2","0.8","0.4340770274","0.6231997156","0.5518959403","0.7856269381","","","","","","","","","","","","","","75","K","2","","","235","main_expt",""
"","bandit","315","808012","0.0-277.0-0.0","36440179","wem/bandit_party_2","A2NL38BFEE3BVY","either","3","999","","","","","","","1","0","0","0.4489205242","","0.6","0.4","0.2","0.8","","","","","0.4489205242","0.558272317","0.4965619817","0.8092971262","","","","","","","","","","72","H","0","img/none_selected.jpg","","236","main_expt",""
"","bandit","316","810345","0.0-278.0-0.0","36440179","wem/bandit_party_2","A2NL38BFEE3BVY","either","3","802","","","","","","","0","1","0","","0.4838648791","0.6","0.4","0.2","0.8","0.4838648791","0.6118965497","0.4762879104","0.8125536838","","","","","","","","","","","","","","72","H","0","img/none_selected.jpg","","237","main_expt",""
