"consent","trial_type","trial_index","time_elapsed","internal_node_id","subjID","study","MID","cond","drift","rt","responses","button_pressed","key_press","like","value","connected","gems","bombs","no_reward","GemPrChosen","BombPrChosen","GainOverPainPr_0","GainOverPainPr_1","GainOverPainPr_2","GainOverPainPr_3","LosePr_0","LosePr_1","LosePr_2","LosePr_3","WinPr_0","WinPr_1","WinPr_2","WinPr_3","Q0","Q1","Q2","gender","age","ethnicity","label","expt_phase","target","respCharCode","respKey","respChoiceNum","respChoice","practice","trial_counter","trial_label","Q0_index"
"GDM/GDM_behavioral_consent_30min_online.html","consent","0","41713","0.0-0.0","37210040","wem/bandit_party_2","A1YH304YEW06BV","either","8","","","","","","","","","","","","","","","","","","","","","","","","","","","","","","","","","","","","","","","","",""
"","survey-text","1","48188","0.0-1.0","37210040","wem/bandit_party_2","A1YH304YEW06BV","either","8","5408","{""Q0"":""A1YH304YEW06BV""}","","","","","","","","","","","","","","","","","","","","","","","","","","","","","","","","","","","","","","",""
"","button-response","2","53761","0.0-2.0","37210040","wem/bandit_party_2","A1YH304YEW06BV","either","8","4524","","1","","","","","","","","","","","","","","","","","","","","","","","","","","","","","","","","","","","","","",""
"","text-replacement","3","68763","0.0-3.0","37210040","wem/bandit_party_2","A1YH304YEW06BV","either","8","13981","","","32","","","","","","","","","","","","","","","","","","","","","","","","","","","","","","","","","","","","",""
"","text-replacement","4","84841","0.0-4.0","37210040","wem/bandit_party_2","A1YH304YEW06BV","either","8","16065","","","32","","","","","","","","","","","","","","","","","","","","","","","","","","","","","","","","","","","","",""
"","identification","5","95504","0.0-6.0-0.0","37210040","wem/bandit_party_2","A1YH304YEW06BV","either","8","10505","","","","4","3","3","","","","","","","","","","","","","","","","","","","","","","","","pre","identification_pre","the Democratic Party","","","","","","","",""
"","identification","6","106101","0.0-6.0-1.0","37210040","wem/bandit_party_2","A1YH304YEW06BV","either","8","9430","","","","2","3","1","","","","","","","","","","","","","","","","","","","","","","","","pre","identification_pre","the Republican Party","","","","","","","",""
"","text-replacement","7","117536","0.0-7.0","37210040","wem/bandit_party_2","A1YH304YEW06BV","either","8","10403","","","32","","","","","","","","","","","","","","","","","","","","","","","","","","","","","","","","","","","","",""
"","text-replacement","8","126648","0.0-8.0","37210040","wem/bandit_party_2","A1YH304YEW06BV","either","8","9097","","","32","","","","","","","","","","","","","","","","","","","","","","","","","","","","","","","","","","","","",""
"","text-replacement","9","139666","0.0-9.0","37210040","wem/bandit_party_2","A1YH304YEW06BV","either","8","13001","","","32","","","","","","","","","","","","","","","","","","","","","","","","","","","","","","","","","","","","",""
"","text-replacement","10","145552","0.0-10.0","37210040","wem/bandit_party_2","A1YH304YEW06BV","either","8","5873","","","32","","","","","","","","","","","","","","","","","","","","","","","","","","","","","","","","","","","","",""
"","text-replacement","11","152391","0.0-11.0","37210040","wem/bandit_party_2","A1YH304YEW06BV","either","8","6826","","","32","","","","","","","","","","","","","","","","","","","","","","","","","","","","","","","","","","","","",""
"","bandit","12","159454","0.0-12.0-0.0","37210040","wem/bandit_party_2","A1YH304YEW06BV","either","8","5449","","","","","","","0","0","1","0","0","","","","","0","","","","0","","","","","","","","","","","","","74","J","0","img/none_selected_demo.jpg","true","0","",""
"","bandit","13","163000","0.0-13.0-0.0","37210040","wem/bandit_party_2","A1YH304YEW06BV","either","8","1991","","","","","","","0","0","1","0","0","","","","","0","","","","0","","","","","","","","","","","","","75","K","0","img/none_selected_demo.jpg","true","0","",""
"","text-replacement","14","172109","0.0-14.0","37210040","wem/bandit_party_2","A1YH304YEW06BV","either","8","9100","","","32","","","","","","","","","","","","","","","","","","","","","","","","","","","","","","","","","","","","",""
"","text-replacement","15","178240","0.0-15.0","37210040","wem/bandit_party_2","A1YH304YEW06BV","either","8","6117","","","32","","","","","","","","","","","","","","","","","","","","","","","","","","","","","","","","","","","","",""
"","text-replacement","16","186527","0.0-16.0","37210040","wem/bandit_party_2","A1YH304YEW06BV","either","8","8272","","","32","","","","","","","","","","","","","","","","","","","","","","","","","","","","","","","","","","","","",""
"","text-replacement","17","191656","0.0-17.0","37210040","wem/bandit_party_2","A1YH304YEW06BV","either","8","5117","","","32","","","","","","","","","","","","","","","","","","","","","","","","","","","","","","","","","","","","",""
"","bandit","18","194859","0.0-18.0-0.0","37210040","wem/bandit_party_2","A1YH304YEW06BV","either","8","1619","","","","","","","0","0","1","0.2","","0.5","0.5","","","","","","","0.8","0.2","","","","","","","","","","","","75","K","1","","true","0","80_20_practice",""
"","bandit","19","199163","0.0-18.0-1.0","37210040","wem/bandit_party_2","A1YH304YEW06BV","either","8","2735","","","","","","","0","0","1","","0.2","0.5","0.5","","","0.8","0.2","","","","","","","","","","","","","","","","75","K","1","","true","0","80_20_practice",""
"","bandit","20","200964","0.0-18.0-2.0","37210040","wem/bandit_party_2","A1YH304YEW06BV","either","8","235","","","","","","","0","1","0","","0.8","0.5","0.5","","","0.8","0.2","","","","","","","","","","","","","","","","74","J","0","img/none_selected_demo.jpg","true","0","80_20_practice",""
"","bandit","21","203268","0.0-18.0-3.0","37210040","wem/bandit_party_2","A1YH304YEW06BV","either","8","732","","","","","","","0","0","1","0.8","","0.5","0.5","","","","","","","0.8","0.2","","","","","","","","","","","","74","J","0","img/none_selected_demo.jpg","true","0","80_20_practice",""
"","bandit","22","205897","0.0-18.0-4.0","37210040","wem/bandit_party_2","A1YH304YEW06BV","either","8","1046","","","","","","","1","0","0","0.8","","0.5","0.5","","","","","","","0.8","0.2","","","","","","","","","","","","74","J","0","img/none_selected_demo.jpg","true","0","80_20_practice",""
"","bandit","23","208156","0.0-18.0-5.0","37210040","wem/bandit_party_2","A1YH304YEW06BV","either","8","667","","","","","","","1","0","0","0.2","","0.5","0.5","","","","","","","0.8","0.2","","","","","","","","","","","","75","K","1","","true","0","80_20_practice",""
"","bandit","24","210754","0.0-18.0-6.0","37210040","wem/bandit_party_2","A1YH304YEW06BV","either","8","1023","","","","","","","0","1","0","","0.2","0.5","0.5","","","0.8","0.2","","","","","","","","","","","","","","","","75","K","1","","true","0","80_20_practice",""
"","bandit","25","212926","0.0-18.0-7.0","37210040","wem/bandit_party_2","A1YH304YEW06BV","either","8","604","","","","","","","0","1","0","","0.8","0.5","0.5","","","0.8","0.2","","","","","","","","","","","","","","","","74","J","0","img/none_selected_demo.jpg","true","0","80_20_practice",""
"","bandit","26","215004","0.0-18.0-8.0","37210040","wem/bandit_party_2","A1YH304YEW06BV","either","8","503","","","","","","","0","0","1","","0.8","0.5","0.5","","","0.8","0.2","","","","","","","","","","","","","","","","74","J","0","img/none_selected_demo.jpg","true","0","80_20_practice",""
"","bandit","27","217003","0.0-18.0-9.0","37210040","wem/bandit_party_2","A1YH304YEW06BV","either","8","424","","","","","","","0","1","0","","0.8","0.5","0.5","","","0.8","0.2","","","","","","","","","","","","","","","","74","J","0","img/none_selected_demo.jpg","true","0","80_20_practice",""
"","bandit","28","218997","0.0-18.0-10.0","37210040","wem/bandit_party_2","A1YH304YEW06BV","either","8","420","","","","","","","0","0","1","","0.2","0.5","0.5","","","0.8","0.2","","","","","","","","","","","","","","","","75","K","1","","true","0","80_20_practice",""
"","bandit","29","221050","0.0-18.0-11.0","37210040","wem/bandit_party_2","A1YH304YEW06BV","either","8","496","","","","","","","0","1","0","","0.8","0.5","0.5","","","0.8","0.2","","","","","","","","","","","","","","","","74","J","0","img/none_selected_demo.jpg","true","0","80_20_practice",""
"","bandit","30","222944","0.0-18.0-12.0","37210040","wem/bandit_party_2","A1YH304YEW06BV","either","8","320","","","","","","","0","0","1","","0.2","0.5","0.5","","","0.8","0.2","","","","","","","","","","","","","","","","75","K","1","","true","0","80_20_practice",""
"","bandit","31","225060","0.0-18.0-13.0","37210040","wem/bandit_party_2","A1YH304YEW06BV","either","8","540","","","","","","","1","0","0","0.2","","0.5","0.5","","","","","","","0.8","0.2","","","","","","","","","","","","75","K","1","","true","0","80_20_practice",""
"","bandit","32","227458","0.0-18.0-14.0","37210040","wem/bandit_party_2","A1YH304YEW06BV","either","8","830","","","","","","","0","1","0","","0.8","0.5","0.5","","","0.8","0.2","","","","","","","","","","","","","","","","74","J","0","img/none_selected_demo.jpg","true","0","80_20_practice",""
"","bandit","33","229472","0.0-18.0-15.0","37210040","wem/bandit_party_2","A1YH304YEW06BV","either","8","442","","","","","","","0","0","1","0.2","","0.5","0.5","","","","","","","0.8","0.2","","","","","","","","","","","","75","K","1","","true","0","80_20_practice",""
"","bandit","34","232437","0.0-18.0-16.0","37210040","wem/bandit_party_2","A1YH304YEW06BV","either","8","1388","","","","","","","0","1","0","","0.8","0.5","0.5","","","0.8","0.2","","","","","","","","","","","","","","","","74","J","0","img/none_selected_demo.jpg","true","0","80_20_practice",""
"","bandit","35","234572","0.0-18.0-17.0","37210040","wem/bandit_party_2","A1YH304YEW06BV","either","8","549","","","","","","","1","0","0","0.8","","0.5","0.5","","","","","","","0.8","0.2","","","","","","","","","","","","74","J","0","img/none_selected_demo.jpg","true","0","80_20_practice",""
"","bandit","36","236753","0.0-18.0-18.0","37210040","wem/bandit_party_2","A1YH304YEW06BV","either","8","606","","","","","","","0","1","0","","0.8","0.5","0.5","","","0.8","0.2","","","","","","","","","","","","","","","","74","J","0","img/none_selected_demo.jpg","true","0","80_20_practice",""
"","bandit","37","239199","0.0-18.0-19.0","37210040","wem/bandit_party_2","A1YH304YEW06BV","either","8","872","","","","","","","0","1","0","","0.2","0.5","0.5","","","0.8","0.2","","","","","","","","","","","","","","","","75","K","1","","true","0","80_20_practice",""
"","text-replacement","38","246412","0.0-19.0","37210040","wem/bandit_party_2","A1YH304YEW06BV","either","8","7195","","","32","","","","","","","","","","","","","","","","","","","","","","","","","","","","","","","","","","","","",""
"","bandit","39","251677","0.0-20.0-0.0","37210040","wem/bandit_party_2","A1YH304YEW06BV","either","8","3665","","","","","","","1","0","0","1","0","","","","","0","1","","","1","0","","","","","","","","","","","","74","J","0","img/none_selected_demo.jpg","true","0","",""
"","text-replacement","40","259622","0.0-21.0","37210040","wem/bandit_party_2","A1YH304YEW06BV","either","8","7926","","","32","","","","","","","","","","","","","","","","","","","","","","","","","","","","","","","","","","","","",""
"","text-replacement","41","263197","0.0-22.0","37210040","wem/bandit_party_2","A1YH304YEW06BV","either","8","3558","","","32","","","","","","","","","","","","","","","","","","","","","","","","","","","","","","","","","","","","",""
"","text-replacement","42","267117","0.0-23.0","37210040","wem/bandit_party_2","A1YH304YEW06BV","either","8","3905","","","32","","","","","","","","","","","","","","","","","","","","","","","","","","","","","","","","","","","","",""
"","text-replacement","43","271467","0.0-24.0","37210040","wem/bandit_party_2","A1YH304YEW06BV","either","8","4335","","","32","","","","","","","","","","","","","","","","","","","","","","","","","","","","","","","","","","","","",""
"","text-replacement","44","279774","0.0-25.0","37210040","wem/bandit_party_2","A1YH304YEW06BV","either","8","8291","","","32","","","","","","","","","","","","","","","","","","","","","","","","","","","","","","","","","","","","",""
"","text-replacement","45","284495","0.0-26.0","37210040","wem/bandit_party_2","A1YH304YEW06BV","either","8","4706","","","32","","","","","","","","","","","","","","","","","","","","","","","","","","","","","","","","","","","","",""
"","text-replacement","46","291903","0.0-27.0","37210040","wem/bandit_party_2","A1YH304YEW06BV","either","8","7393","","","32","","","","","","","","","","","","","","","","","","","","","","","","","","","","","","","","","","","","",""
"","text-replacement","47","296829","0.0-28.0","37210040","wem/bandit_party_2","A1YH304YEW06BV","either","8","4912","","","32","","","","","","","","","","","","","","","","","","","","","","","","","","","","","","","","","","","","",""
"","text-replacement","48","304284","0.0-29.0","37210040","wem/bandit_party_2","A1YH304YEW06BV","either","8","7439","","","32","","","","","","","","","","","","","","","","","","","","","","","","","","","","","","","","","","","","",""
"","text-replacement","49","307613","0.0-30.0","37210040","wem/bandit_party_2","A1YH304YEW06BV","either","8","3314","","","32","","","","","","","","","","","","","","","","","","","","","","","","","","","","","","","","","","","","",""
"","text-replacement","50","312670","0.0-31.0","37210040","wem/bandit_party_2","A1YH304YEW06BV","either","8","5041","","","32","","","","","","","","","","","","","","","","","","","","","","","","","","","","","","","","","","","","",""
"","bandit","51","317860","0.0-32.0-0.0","37210040","wem/bandit_party_2","A1YH304YEW06BV","either","8","3587","","","","","","","0","0","1","","0.2","0.5","0.5","0.5","0.5","0.8","0.2","0.6","0.2","","","","","","","","","","","","","","74","J","1","","true","0","full_practice",""
"","bandit","52","320961","0.0-32.0-1.0","37210040","wem/bandit_party_2","A1YH304YEW06BV","either","8","1522","","","","","","","0","0","1","0.2","","0.5","0.5","0.5","0.5","","","","","0.8","0.2","0.6","0.2","","","","","","","","","","76","L","3","","true","0","full_practice",""
"","bandit","53","323135","0.0-32.0-2.0","37210040","wem/bandit_party_2","A1YH304YEW06BV","either","8","597","","","","","","","0","1","0","","0.8","0.5","0.5","0.5","0.5","0.8","0.2","0.6","0.2","","","","","","","","","","","","","","72","H","0","img/none_selected.jpg","true","0","full_practice",""
"","bandit","54","325157","0.0-32.0-3.0","37210040","wem/bandit_party_2","A1YH304YEW06BV","either","8","428","","","","","","","0","1","0","","0.6","0.5","0.5","0.5","0.5","0.8","0.2","0.6","0.2","","","","","","","","","","","","","","75","K","2","","true","0","full_practice",""
"","bandit","55","327218","0.0-32.0-4.0","37210040","wem/bandit_party_2","A1YH304YEW06BV","either","8","464","","","","","","","0","0","1","0.2","","0.5","0.5","0.5","0.5","","","","","0.8","0.2","0.6","0.2","","","","","","","","","","74","J","1","","true","0","full_practice",""
"","bandit","56","328891","0.0-32.0-5.0","37210040","wem/bandit_party_2","A1YH304YEW06BV","either","8","100","","","","","","","1","0","0","0.8","","0.5","0.5","0.5","0.5","","","","","0.8","0.2","0.6","0.2","","","","","","","","","","72","H","0","img/none_selected.jpg","true","0","full_practice",""
"","bandit","57","330954","0.0-32.0-6.0","37210040","wem/bandit_party_2","A1YH304YEW06BV","either","8","499","","","","","","","0","0","1","0.6","","0.5","0.5","0.5","0.5","","","","","0.8","0.2","0.6","0.2","","","","","","","","","","75","K","2","","true","0","full_practice",""
"","bandit","58","332859","0.0-32.0-7.0","37210040","wem/bandit_party_2","A1YH304YEW06BV","either","8","323","","","","","","","1","0","0","0.2","","0.5","0.5","0.5","0.5","","","","","0.8","0.2","0.6","0.2","","","","","","","","","","76","L","3","","true","0","full_practice",""
"","bandit","59","335715","0.0-32.0-8.0","37210040","wem/bandit_party_2","A1YH304YEW06BV","either","8","1256","","","","","","","0","1","0","","0.2","0.5","0.5","0.5","0.5","0.8","0.2","0.6","0.2","","","","","","","","","","","","","","74","J","1","","true","0","full_practice",""
"","bandit","60","337512","0.0-32.0-9.0","37210040","wem/bandit_party_2","A1YH304YEW06BV","either","8","221","","","","","","","0","1","0","","0.8","0.5","0.5","0.5","0.5","0.8","0.2","0.6","0.2","","","","","","","","","","","","","","72","H","0","img/none_selected.jpg","true","0","full_practice",""
"","bandit","61","339722","0.0-32.0-10.0","37210040","wem/bandit_party_2","A1YH304YEW06BV","either","8","631","","","","","","","0","0","1","0.2","","0.5","0.5","0.5","0.5","","","","","0.8","0.2","0.6","0.2","","","","","","","","","","76","L","3","","true","0","full_practice",""
"","bandit","62","341352","0.0-32.0-11.0","37210040","wem/bandit_party_2","A1YH304YEW06BV","either","8","59","","","","","","","0","1","0","","0.8","0.5","0.5","0.5","0.5","0.8","0.2","0.6","0.2","","","","","","","","","","","","","","72","H","0","img/none_selected.jpg","true","0","full_practice",""
"","bandit","63","343385","0.0-32.0-12.0","37210040","wem/bandit_party_2","A1YH304YEW06BV","either","8","431","","","","","","","0","0","1","","0.2","0.5","0.5","0.5","0.5","0.8","0.2","0.6","0.2","","","","","","","","","","","","","","74","J","1","","true","0","full_practice",""
"","bandit","64","344987","0.0-32.0-13.0","37210040","wem/bandit_party_2","A1YH304YEW06BV","either","8","35","","","","","","","0","1","0","","0.6","0.5","0.5","0.5","0.5","0.8","0.2","0.6","0.2","","","","","","","","","","","","","","75","K","2","","true","0","full_practice",""
"","bandit","65","346875","0.0-32.0-14.0","37210040","wem/bandit_party_2","A1YH304YEW06BV","either","8","288","","","","","","","0","1","0","","0.8","0.5","0.5","0.5","0.5","0.8","0.2","0.6","0.2","","","","","","","","","","","","","","72","H","0","img/none_selected.jpg","true","0","full_practice",""
"","bandit","66","348846","0.0-32.0-15.0","37210040","wem/bandit_party_2","A1YH304YEW06BV","either","8","383","","","","","","","0","1","0","","0.2","0.5","0.5","0.5","0.5","0.8","0.2","0.6","0.2","","","","","","","","","","","","","","76","L","3","","true","0","full_practice",""
"","bandit","67","350735","0.0-32.0-16.0","37210040","wem/bandit_party_2","A1YH304YEW06BV","either","8","296","","","","","","","0","0","1","0.2","","0.5","0.5","0.5","0.5","","","","","0.8","0.2","0.6","0.2","","","","","","","","","","74","J","1","","true","0","full_practice",""
"","bandit","68","352406","0.0-32.0-17.0","37210040","wem/bandit_party_2","A1YH304YEW06BV","either","8","96","","","","","","","1","0","0","0.8","","0.5","0.5","0.5","0.5","","","","","0.8","0.2","0.6","0.2","","","","","","","","","","72","H","0","img/none_selected.jpg","true","0","full_practice",""
"","bandit","69","354049","0.0-32.0-18.0","37210040","wem/bandit_party_2","A1YH304YEW06BV","either","8","88","","","","","","","0","1","0","","0.6","0.5","0.5","0.5","0.5","0.8","0.2","0.6","0.2","","","","","","","","","","","","","","75","K","2","","true","0","full_practice",""
"","bandit","70","355768","0.0-32.0-19.0","37210040","wem/bandit_party_2","A1YH304YEW06BV","either","8","133","","","","","","","1","0","0","0.2","","0.5","0.5","0.5","0.5","","","","","0.8","0.2","0.6","0.2","","","","","","","","","","74","J","1","","true","0","full_practice",""
"","text","71","361351","0.0-33.0","37210040","wem/bandit_party_2","A1YH304YEW06BV","either","8","5548","","","32","","","","","","","","","","","","","","","","","","","","","","","","","","","","","","","","","","","","",""
"","text-replacement","72","384115","0.0-34.0","37210040","wem/bandit_party_2","A1YH304YEW06BV","either","8","21701","","","32","","","","","","","","","","","","","","","","","","","","","","","","","","","","","","","","","","","","",""
"","text-replacement","73","401438","0.0-35.0","37210040","wem/bandit_party_2","A1YH304YEW06BV","either","8","17303","","","32","","","","","","","","","","","","","","","","","","","","","","","","","","","","","","","","","","","","",""
"","text-replacement","74","410694","0.0-36.0","37210040","wem/bandit_party_2","A1YH304YEW06BV","either","8","9232","","","32","","","","","","","","","","","","","","","","","","","","","","","","","","","","","","","","","","","","",""
"","text-replacement","75","420711","0.0-37.0","37210040","wem/bandit_party_2","A1YH304YEW06BV","either","8","9995","","","32","","","","","","","","","","","","","","","","","","","","","","","","","","","","","","","","","","","","",""
"","text-replacement","76","429277","0.0-38.0","37210040","wem/bandit_party_2","A1YH304YEW06BV","either","8","8543","","","32","","","","","","","","","","","","","","","","","","","","","","","","","","","","","","","","","","","","",""
"","survey-multi-choice-replacement","77","437822","0.0-39.0-0.0","37210040","wem/bandit_party_2","A1YH304YEW06BV","either","8","8467","","","","","","","","","","","","","","","","","","","","","","","","Money will be added to the pool for <span style='color:blue;'>DEMOCRATS</span>","","","","","","","attn_check","","","","","","","","","0"
"","survey-multi-choice-replacement","78","447824","0.0-40.0-0.0","37210040","wem/bandit_party_2","A1YH304YEW06BV","either","8","8915","","","","","","","","","","","","","","","","","","","","","","","","Equal amounts of money will be added to the pool for <span style='color:blue;'>DEMOCRATS</span> and subtracted from the pool for <span style='color:red;'>REPUBLICANS</span>","","","","","","","attn_check","","","","","","","","","2"
"","survey-multi-choice-replacement","79","455247","0.0-41.0-0.0","37210040","wem/bandit_party_2","A1YH304YEW06BV","either","8","6340","","","","","","","","","","","","","","","","","","","","","","","","No money will be added to either pool","","","","","","","attn_check","","","","","","","","","3"
"","bandit","80","460196","0.0-42.0-0.0","37210040","wem/bandit_party_2","A1YH304YEW06BV","either","8","2347","","","","","","","0","0","1","0.3040937467","","0.6","0.8","0.2","0.4","","","","","0.6337563202","0.3040937467","0.4468950172","0.2428949588","","","","","","","","","","74","J","1","","","1","main_expt",""
"","bandit","81","462246","0.0-43.0-0.0","37210040","wem/bandit_party_2","A1YH304YEW06BV","either","8","483","","","","","","","1","0","0","0.7380673114","","0.6","0.8","0.2","0.4","","","","","0.7380673114","0.2687625136","0.3846124694","0.248961424","","","","","","","","","","72","H","0","img/none_selected.jpg","","2","main_expt",""
"","bandit","82","464986","0.0-44.0-0.0","37210040","wem/bandit_party_2","A1YH304YEW06BV","either","8","1158","","","","","","","0","1","0","","0.3885967974","0.6","0.8","0.2","0.4","0.7715549737","0.3017919557","0.3885967974","0.1878604038","","","","","","","","","","","","","","75","K","2","","","3","main_expt",""
"","bandit","83","467566","0.0-45.0-0.0","37210040","wem/bandit_party_2","A1YH304YEW06BV","either","8","989","","","","","","","0","0","1","","0.2891644394","0.6","0.8","0.2","0.4","0.8257013646","0.3388517529","0.2891644394","0.1194049449","","","","","","","","","","","","","","75","K","2","","","4","main_expt",""
"","bandit","84","469514","0.0-46.0-0.0","37210040","wem/bandit_party_2","A1YH304YEW06BV","either","8","366","","","","","","","0","0","1","0.8617886559","","0.6","0.8","0.2","0.4","","","","","0.8617886559","0.389096829","0.2654579937","0.197046458","","","","","","","","","","72","H","0","img/none_selected.jpg","","5","main_expt",""
"","bandit","85","471500","0.0-47.0-0.0","37210040","wem/bandit_party_2","A1YH304YEW06BV","either","8","419","","","","","","","0","0","1","","0.2312720201","0.6","0.8","0.2","0.4","0.8452125903","0.4799636182","0.355160999","0.2312720201","","","","","","","","","","","","","","76","L","3","","","6","main_expt",""
"","bandit","86","473403","0.0-48.0-0.0","37210040","wem/bandit_party_2","A1YH304YEW06BV","either","8","320","","","","","","","0","1","0","","0.5316557606","0.6","0.8","0.2","0.4","0.8765288384","0.5316557606","0.4733904832","0.3255591742","","","","","","","","","","","","","","74","J","1","","","7","main_expt",""
"","bandit","87","475831","0.0-49.0-0.0","37210040","wem/bandit_party_2","A1YH304YEW06BV","either","8","856","","","","","","","0","0","1","0.4900136729","","0.6","0.8","0.2","0.4","","","","","0.8625068071","0.4935712437","0.4900136729","0.163151729","","","","","","","","","","75","K","2","","","8","main_expt",""
"","bandit","88","477834","0.0-50.0-0.0","37210040","wem/bandit_party_2","A1YH304YEW06BV","either","8","407","","","","","","","0","1","0","","0.8385781597","0.6","0.8","0.2","0.4","0.8385781597","0.5400450001","0.4543552171","0.1671639775","","","","","","","","","","","","","","72","H","0","img/none_selected.jpg","","9","main_expt",""
"","bandit","89","480298","0.0-51.0-0.0","37210040","wem/bandit_party_2","A1YH304YEW06BV","either","8","889","","","","","","","0","1","0","","0.4523920981","0.6","0.8","0.2","0.4","0.833356221","0.6510952772","0.4523920981","0.1315225434","","","","","","","","","","","","","","75","K","2","","","10","main_expt",""
"","bandit","90","482441","0.0-52.0-0.0","37210040","wem/bandit_party_2","A1YH304YEW06BV","either","8","557","","","","","","","0","0","1","0.1287002637","","0.6","0.8","0.2","0.4","","","","","0.9030756702","0.6117649901","0.4053083118","0.1287002637","","","","","","","","","","76","L","3","","","11","main_expt",""
"","bandit","91","484159","0.0-53.0-0.0","37210040","wem/bandit_party_2","A1YH304YEW06BV","either","8","139","","","","","","","1","0","0","0.6360746298","","0.6","0.8","0.2","0.4","","","","","0.9129290363","0.6360746298","0.4059907931","0.1026596936","","","","","","","","","","74","J","1","","","12","main_expt",""
"","bandit","92","486136","0.0-54.0-0.0","37210040","wem/bandit_party_2","A1YH304YEW06BV","either","8","381","","","","","","","1","0","0","0.8638417716","","0.6","0.8","0.2","0.4","","","","","0.8638417716","0.5673960652","0.2934167972","0.1287514256","","","","","","","","","","72","H","0","img/none_selected.jpg","","13","main_expt",""
"","bandit","93","488259","0.0-55.0-0.0","37210040","wem/bandit_party_2","A1YH304YEW06BV","either","8","523","","","","","","","0","0","1","0.787806988","","0.6","0.8","0.2","0.4","","","","","0.787806988","0.6747725803","0.3260927596","0.1786171179","","","","","","","","","","72","H","0","img/none_selected.jpg","","14","main_expt",""
"","bandit","94","489948","0.0-56.0-0.0","37210040","wem/bandit_party_2","A1YH304YEW06BV","either","8","120","","","","","","","0","1","0","","0.3355382734","0.6","0.8","0.2","0.4","0.7254212376","0.6277188345","0.3355382734","0.1459410532","","","","","","","","","","","","","","75","K","2","","","15","main_expt",""
"","bandit","95","491808","0.0-57.0-0.0","37210040","wem/bandit_party_2","A1YH304YEW06BV","either","8","261","","","","","","","0","1","0","","0.3040928121","0.6","0.8","0.2","0.4","0.7238415528","0.5435568235","0.3040928121","0.2255600906","","","","","","","","","","","","","","75","K","2","","","16","main_expt",""
"","bandit","96","494298","0.0-58.0-0.0","37210040","wem/bandit_party_2","A1YH304YEW06BV","either","8","910","","","","","","","0","0","1","0.2052013943","","0.6","0.8","0.2","0.4","","","","","0.7796243455","0.4180161478","0.2730366263","0.2052013943","","","","","","","","","","76","L","3","","","17","main_expt",""
"","bandit","97","496311","0.0-59.0-0.0","37210040","wem/bandit_party_2","A1YH304YEW06BV","either","8","417","","","","","","","0","0","1","0.4961111773","","0.6","0.8","0.2","0.4","","","","","0.6928902724","0.4961111773","0.4105298721","0.1780354615","","","","","","","","","","74","J","1","","","18","main_expt",""
"","bandit","98","498152","0.0-60.0-0.0","37210040","wem/bandit_party_2","A1YH304YEW06BV","either","8","249","","","","","","","1","0","0","0.7658630901","","0.6","0.8","0.2","0.4","","","","","0.7658630901","0.445530788","0.3586923344","0.1576496117","","","","","","","","","","72","H","0","img/none_selected.jpg","","19","main_expt",""
"","bandit","99","500436","0.0-61.0-0.0","37210040","wem/bandit_party_2","A1YH304YEW06BV","either","8","711","","","","","","","0","0","1","0.3220075653","","0.6","0.8","0.2","0.4","","","","","0.7584200513","0.3443163705","0.3220075653","0.1618752313","","","","","","","","","","75","K","2","","","20","main_expt",""
"","bandit","100","502044","0.0-62.0-0.0","37210040","wem/bandit_party_2","A1YH304YEW06BV","either","8","18","","","","","","","0","0","1","","0.2729660799","0.6","0.8","0.2","0.4","0.7727038765","0.3012808647","0.2729660799","0.2152187387","","","","","","","","","","","","","","75","K","2","","","21","main_expt",""
"","bandit","101","503789","0.0-63.0-0.0","37210040","wem/bandit_party_2","A1YH304YEW06BV","either","8","158","","","","","","","1","0","0","0.8152565923","","0.6","0.8","0.2","0.4","","","","","0.8152565923","0.2882062485","0.2712352107","0.3547982299","","","","","","","","","","72","H","0","img/none_selected.jpg","","22","main_expt",""
"","bandit","102","505562","0.0-64.0-0.0","37210040","wem/bandit_party_2","A1YH304YEW06BV","either","8","201","","","","","","","1","0","0","0.7537075358","","0.6","0.8","0.2","0.4","","","","","0.7537075358","0.2113421372","0.3390855774","0.323805638","","","","","","","","","","72","H","0","img/none_selected.jpg","","23","main_expt",""
"","bandit","103","507881","0.0-65.0-0.0","37210040","wem/bandit_party_2","A1YH304YEW06BV","either","8","722","","","","","","","0","0","1","","0.2201805416","0.6","0.8","0.2","0.4","0.7108822858","0.2201805416","0.3483259141","0.3588909826","","","","","","","","","","","","","","74","J","1","","","24","main_expt",""
"","bandit","104","510415","0.0-66.0-0.0","37210040","wem/bandit_party_2","A1YH304YEW06BV","either","8","952","","","","","","","1","0","0","0.6930515954","","0.6","0.8","0.2","0.4","","","","","0.6930515954","0.2580956466","0.3416976173","0.3885553436","","","","","","","","","","72","H","0","img/none_selected.jpg","","25","main_expt",""
"","bandit","105","512935","0.0-67.0-0.0","37210040","wem/bandit_party_2","A1YH304YEW06BV","either","8","948","","","","","","","0","0","1","","0.4243476322","0.6","0.8","0.2","0.4","0.6905393417","0.2153432854","0.4243476322","0.4871556374","","","","","","","","","","","","","","75","K","2","","","26","main_expt",""
"","bandit","106","515697","0.0-68.0-0.0","37210040","wem/bandit_party_2","A1YH304YEW06BV","either","8","1193","","","","","","","0","0","1","","0.4934119911","0.6","0.8","0.2","0.4","0.7531652131","0.1727955236","0.5257754898","0.4934119911","","","","","","","","","","","","","","76","L","3","","","27","main_expt",""
"","bandit","107","518591","0.0-69.0-0.0","37210040","wem/bandit_party_2","A1YH304YEW06BV","either","8","1322","","","","","","","1","0","0","0.4322092846","","0.6","0.8","0.2","0.4","","","","","0.8001777041","0.1894296703","0.5246232361","0.4322092846","","","","","","","","","","76","L","3","","","28","main_expt",""
"","bandit","108","521024","0.0-70.0-0.0","37210040","wem/bandit_party_2","A1YH304YEW06BV","either","8","842","","","","","","","0","1","0","","0.8118404327","0.6","0.8","0.2","0.4","0.8118404327","0.2128919211","0.375994784","0.3459113699","","","","","","","","","","","","","","72","H","0","img/none_selected.jpg","","29","main_expt",""
"","bandit","109","523300","0.0-71.0-0.0","37210040","wem/bandit_party_2","A1YH304YEW06BV","either","8","695","","","","","","","0","0","1","0.2936890161","","0.6","0.8","0.2","0.4","","","","","0.7839534503","0.206056468","0.2936890161","0.280789843","","","","","","","","","","75","K","2","","","30","main_expt",""
"","bandit","110","525614","0.0-72.0-0.0","37210040","wem/bandit_party_2","A1YH304YEW06BV","either","8","719","","","","","","","0","1","0","","0.8066372971","0.6","0.8","0.2","0.4","0.8066372971","0.1725623241","0.2878812258","0.2613810438","","","","","","","","","","","","","","72","H","0","img/none_selected.jpg","","31","main_expt",""
"","bandit","111","528208","0.0-73.0-0.0","37210040","wem/bandit_party_2","A1YH304YEW06BV","either","8","994","","","","","","","0","0","1","","0.1629883914","0.6","0.8","0.2","0.4","0.8049259064","0.1629883914","0.2451492808","0.3821585683","","","","","","","","","","","","","","74","J","1","","","32","main_expt",""
"","bandit","112","530403","0.0-74.0-0.0","37210040","wem/bandit_party_2","A1YH304YEW06BV","either","8","612","","","","","","","0","1","0","","0.2714925976","0.6","0.8","0.2","0.4","0.7891664673","0.2107911223","0.2802113289","0.2714925976","","","","","","","","","","","","","","76","L","3","","","33","main_expt",""
"","bandit","113","532714","0.0-75.0-0.0","37210040","wem/bandit_party_2","A1YH304YEW06BV","either","8","716","","","","","","","1","0","0","0.7854278051","","0.6","0.8","0.2","0.4","","","","","0.7854278051","0.1025901997","0.2892342718","0.2755575364","","","","","","","","","","72","H","0","img/none_selected.jpg","","34","main_expt",""
"","bandit","114","534674","0.0-76.0-0.0","37210040","wem/bandit_party_2","A1YH304YEW06BV","either","8","385","","","","","","","0","0","1","0.2486893666","","0.6","0.8","0.2","0.4","","","","","0.7260182018","0.1289879153","0.2486893666","0.2697856654","","","","","","","","","","75","K","2","","","35","main_expt",""
"","bandit","115","536779","0.0-77.0-0.0","37210040","wem/bandit_party_2","A1YH304YEW06BV","either","8","534","","","","","","","0","0","1","0.2483646443","","0.6","0.8","0.2","0.4","","","","","0.7910957192","0.1645491317","0.3536408983","0.2483646443","","","","","","","","","","76","L","3","","","36","main_expt",""
"","bandit","116","538719","0.0-78.0-0.0","37210040","wem/bandit_party_2","A1YH304YEW06BV","either","8","375","","","","","","","0","1","0","","0.7996551039","0.6","0.8","0.2","0.4","0.7996551039","0.1698046746","0.2493566902","0.2103950957","","","","","","","","","","","","","","72","H","0","img/none_selected.jpg","","37","main_expt",""
"","bandit","117","540650","0.0-79.0-0.0","37210040","wem/bandit_party_2","A1YH304YEW06BV","either","8","343","","","","","","","0","0","1","0.2281502886","","0.6","0.8","0.2","0.4","","","","","0.6717479894","0.2281502886","0.2948354516","0.2128944509","","","","","","","","","","74","J","1","","","38","main_expt",""
"","bandit","118","542552","0.0-80.0-0.0","37210040","wem/bandit_party_2","A1YH304YEW06BV","either","8","310","","","","","","","0","0","1","0.3373274679","","0.6","0.8","0.2","0.4","","","","","0.7121128808","0.1561271762","0.3373274679","0.2965153327","","","","","","","","","","75","K","2","","","39","main_expt",""
"","bandit","119","544184","0.0-81.0-0.0","37210040","wem/bandit_party_2","A1YH304YEW06BV","either","8","48","","","","","","","1","0","0","0.7157410044","","0.6","0.8","0.2","0.4","","","","","0.7157410044","0.1543620621","0.4138768052","0.4447532253","","","","","","","","","","72","H","0","img/none_selected.jpg","","40","main_expt",""
"","bandit","120","546177","0.0-82.0-0.0","37210040","wem/bandit_party_2","A1YH304YEW06BV","either","8","390","","","","","","","0","1","0","","0.5330008696","0.6","0.8","0.2","0.4","0.681196038","0.2271499981","0.438096834","0.5330008696","","","","","","","","","","","","","","76","L","3","","","41","main_expt",""
"","bandit","121","548278","0.0-83.0-0.0","37210040","wem/bandit_party_2","A1YH304YEW06BV","either","8","516","","","","","","","0","0","1","0.6504320647","","0.6","0.8","0.2","0.4","","","","","0.6504320647","0.2882452936","0.4185173612","0.573861049","","","","","","","","","","72","H","0","img/none_selected.jpg","","42","main_expt",""
"","bandit","122","550075","0.0-84.0-0.0","37210040","wem/bandit_party_2","A1YH304YEW06BV","either","8","235","","","","","","","0","0","1","","0.298522686","0.6","0.8","0.2","0.4","0.7369830744","0.298522686","0.3796335567","0.6654349765","","","","","","","","","","","","","","74","J","1","","","43","main_expt",""
"","bandit","123","551924","0.0-85.0-0.0","37210040","wem/bandit_party_2","A1YH304YEW06BV","either","8","251","","","","","","","0","0","1","0.691198465","","0.6","0.8","0.2","0.4","","","","","0.6797935378","0.3188886026","0.31766129","0.691198465","","","","","","","","","","76","L","3","","","44","main_expt",""
"","bandit","124","553544","0.0-86.0-0.0","37210040","wem/bandit_party_2","A1YH304YEW06BV","either","8","36","","","","","","","0","1","0","","0.4047397141","0.6","0.8","0.2","0.4","0.6507473666","0.2705760174","0.4047397141","0.7652674903","","","","","","","","","","","","","","75","K","2","","","45","main_expt",""
"","bandit","125","555548","0.0-87.0-0.0","37210040","wem/bandit_party_2","A1YH304YEW06BV","either","8","409","","","","","","","0","1","0","","0.4961613307","0.6","0.8","0.2","0.4","0.6334510787","0.2506880939","0.4961613307","0.8065230058","","","","","","","","","","","","","","75","K","2","","","46","main_expt",""
"","bandit","126","557653","0.0-88.0-0.0","37210040","wem/bandit_party_2","A1YH304YEW06BV","either","8","508","","","","","","","1","0","0","0.6143175143","","0.6","0.8","0.2","0.4","","","","","0.6143175143","0.2491585872","0.4624468315","0.7774474893","","","","","","","","","","72","H","0","img/none_selected.jpg","","47","main_expt",""
"","bandit","127","559645","0.0-89.0-0.0","37210040","wem/bandit_party_2","A1YH304YEW06BV","either","8","403","","","","","","","0","1","0","","0.7693176975","0.6","0.8","0.2","0.4","0.6404512611","0.1997021219","0.4886537242","0.7693176975","","","","","","","","","","","","","","76","L","3","","","48","main_expt",""
"","bandit","128","561448","0.0-90.0-0.0","37210040","wem/bandit_party_2","A1YH304YEW06BV","either","8","174","","","","","","","0","0","1","0.2119577724","","0.6","0.8","0.2","0.4","","","","","0.6758621215","0.2119577724","0.4270302022","0.807419373","","","","","","","","","","74","J","1","","","49","main_expt",""
"","bandit","129","563777","0.0-91.0-0.0","37210040","wem/bandit_party_2","A1YH304YEW06BV","either","8","729","","","","","","","0","1","0","","0.8562769227","0.6","0.8","0.2","0.4","0.6873234502","0.2615271711","0.5151345658","0.8562769227","","","","","","","","","","","","","","76","L","3","","","50","main_expt",""
"","bandit","130","566081","0.0-92.0-0.0","37210040","wem/bandit_party_2","A1YH304YEW06BV","either","8","723","","","","","","","0","0","1","0.2764427577","","0.6","0.8","0.2","0.4","","","","","0.7776044395","0.2764427577","0.5134524181","0.8705114925","","","","","","","","","","74","J","1","","","51","main_expt",""
"","bandit","131","568229","0.0-93.0-0.0","37210040","wem/bandit_party_2","A1YH304YEW06BV","either","8","576","","","","","","","0","1","0","","0.8403410939","0.6","0.8","0.2","0.4","0.8403410939","0.3833776697","0.4842684999","0.9310361031","","","","","","","","","","","","","","72","H","0","img/none_selected.jpg","","52","main_expt",""
"","bandit","132","570391","0.0-94.0-0.0","37210040","wem/bandit_party_2","A1YH304YEW06BV","either","8","577","","","","","","","0","1","0","","0.4412850773","0.6","0.8","0.2","0.4","0.8151983534","0.4356502318","0.4412850773","0.905794742","","","","","","","","","","","","","","75","K","2","","","53","main_expt",""
"","bandit","133","572533","0.0-95.0-0.0","37210040","wem/bandit_party_2","A1YH304YEW06BV","either","8","552","","","","","","","0","0","1","","0.8081222638","0.6","0.8","0.2","0.4","0.8081222638","0.4120588364","0.4397693946","0.9391541593","","","","","","","","","","","","","","72","H","0","img/none_selected.jpg","","54","main_expt",""
"","bandit","134","574638","0.0-96.0-0.0","37210040","wem/bandit_party_2","A1YH304YEW06BV","either","8","508","","","","","","","1","0","0","0.9596285882","","0.6","0.8","0.2","0.4","","","","","0.742009976","0.2714296105","0.3928202278","0.9596285882","","","","","","","","","","76","L","3","","","55","main_expt",""
"","bandit","135","576628","0.0-97.0-0.0","37210040","wem/bandit_party_2","A1YH304YEW06BV","either","8","403","","","","","","","0","0","1","","0.2122311877","0.6","0.8","0.2","0.4","0.7065076074","0.2122311877","0.4593665993","0.9565658233","","","","","","","","","","","","","","74","J","1","","","56","main_expt",""
"","bandit","136","578289","0.0-98.0-0.0","37210040","wem/bandit_party_2","A1YH304YEW06BV","either","8","78","","","","","","","0","1","0","","0.4006145211","0.6","0.8","0.2","0.4","0.6860695476","0.2282278588","0.4006145211","0.9681540372","","","","","","","","","","","","","","75","K","2","","","57","main_expt",""
"","bandit","137","580447","0.0-99.0-0.0","37210040","wem/bandit_party_2","A1YH304YEW06BV","either","8","583","","","","","","","0","0","1","","0.4597890412","0.6","0.8","0.2","0.4","0.742301155","0.1392076118","0.4597890412","0.9207083952","","","","","","","","","","","","","","75","K","2","","","58","main_expt",""
"","bandit","138","582160","0.0-100.0-0.0","37210040","wem/bandit_party_2","A1YH304YEW06BV","either","8","123","","","","","","","0","0","1","0.5291004622","","0.6","0.8","0.2","0.4","","","","","0.5291004622","0.1706239206","0.4232266093","0.9178227258","","","","","","","","","","72","H","0","img/none_selected.jpg","","59","main_expt",""
"","bandit","139","583815","0.0-101.0-0.0","37210040","wem/bandit_party_2","A1YH304YEW06BV","either","8","73","","","","","","","1","0","0","0.8951285427","","0.6","0.8","0.2","0.4","","","","","0.6348838793","0.1674269281","0.3565880291","0.8951285427","","","","","","","","","","76","L","3","","","60","main_expt",""
"","bandit","140","585858","0.0-102.0-0.0","37210040","wem/bandit_party_2","A1YH304YEW06BV","either","8","476","","","","","","","0","1","0","","0.8506814954","0.6","0.8","0.2","0.4","0.6796423313","0.2182313474","0.3663276413","0.8506814954","","","","","","","","","","","","","","76","L","3","","","61","main_expt",""
"","bandit","141","587902","0.0-103.0-0.0","37210040","wem/bandit_party_2","A1YH304YEW06BV","either","8","477","","","","","","","0","0","1","0.2949218256","","0.6","0.8","0.2","0.4","","","","","0.6928172916","0.2949218256","0.3193005293","0.8513854559","","","","","","","","","","74","J","1","","","62","main_expt",""
"","bandit","142","589941","0.0-104.0-0.0","37210040","wem/bandit_party_2","A1YH304YEW06BV","either","8","460","","","","","","","1","0","0","0.6996506825","","0.6","0.8","0.2","0.4","","","","","0.6996506825","0.3170222383","0.1562068481","0.8927579502","","","","","","","","","","72","H","0","img/none_selected.jpg","","63","main_expt",""
"","bandit","143","592052","0.0-105.0-0.0","37210040","wem/bandit_party_2","A1YH304YEW06BV","either","8","521","","","","","","","0","1","0","","0.2300477965","0.6","0.8","0.2","0.4","0.7294442249","0.3033511374","0.2300477965","0.9217936765","","","","","","","","","","","","","","75","K","2","","","64","main_expt",""
"","bandit","144","594155","0.0-106.0-0.0","37210040","wem/bandit_party_2","A1YH304YEW06BV","either","8","509","","","","","","","0","1","0","","0.2869838185","0.6","0.8","0.2","0.4","0.6605354899","0.3973690147","0.2869838185","0.9357047413","","","","","","","","","","","","","","75","K","2","","","65","main_expt",""
"","bandit","145","596468","0.0-107.0-0.0","37210040","wem/bandit_party_2","A1YH304YEW06BV","either","8","709","","","","","","","1","0","0","0.4320294497","","0.6","0.8","0.2","0.4","","","","","0.6959621059","0.4320294497","0.3287476356","0.910343843","","","","","","","","","","74","J","1","","","66","main_expt",""
"","bandit","146","598564","0.0-108.0-0.0","37210040","wem/bandit_party_2","A1YH304YEW06BV","either","8","511","","","","","","","0","1","0","","0.9022080512","0.6","0.8","0.2","0.4","0.653899752","0.3208465419","0.3018365728","0.9022080512","","","","","","","","","","","","","","76","L","3","","","67","main_expt",""
"","bandit","147","600942","0.0-109.0-0.0","37210040","wem/bandit_party_2","A1YH304YEW06BV","either","8","793","","","","","","","0","0","1","0.6517851336","","0.6","0.8","0.2","0.4","","","","","0.6517851336","0.3570730799","0.3208616414","0.8492414063","","","","","","","","","","72","H","0","img/none_selected.jpg","","68","main_expt",""
"","bandit","148","602845","0.0-110.0-0.0","37210040","wem/bandit_party_2","A1YH304YEW06BV","either","8","305","","","","","","","0","1","0","","0.768219052","0.6","0.8","0.2","0.4","0.7011615004","0.3451514791","0.386863802","0.768219052","","","","","","","","","","","","","","76","L","3","","","69","main_expt",""
"","bandit","149","604789","0.0-111.0-0.0","37210040","wem/bandit_party_2","A1YH304YEW06BV","either","8","329","","","","","","","0","0","1","0.3127714871","","0.6","0.8","0.2","0.4","","","","","0.6278947594","0.3127714871","0.3628244161","0.7996218848","","","","","","","","","","74","J","1","","","70","main_expt",""
"","bandit","150","606484","0.0-112.0-0.0","37210040","wem/bandit_party_2","A1YH304YEW06BV","either","8","106","","","","","","","0","0","1","","0.2969295023","0.6","0.8","0.2","0.4","0.688517509","0.3855297895","0.2969295023","0.9130189757","","","","","","","","","","","","","","75","K","2","","","71","main_expt",""
"","bandit","151","608850","0.0-113.0-0.0","37210040","wem/bandit_party_2","A1YH304YEW06BV","either","8","785","","","","","","","0","0","1","0.3555010044","","0.6","0.8","0.2","0.4","","","","","0.6125440106","0.3555010044","0.3512325323","0.9016843832","","","","","","","","","","74","J","1","","","72","main_expt",""
"","bandit","152","610806","0.0-114.0-0.0","37210040","wem/bandit_party_2","A1YH304YEW06BV","either","8","353","","","","","","","0","1","0","","0.9166584401","0.6","0.8","0.2","0.4","0.4884410468","0.3278360739","0.3845321254","0.9166584401","","","","","","","","","","","","","","76","L","3","","","73","main_expt",""
"","bandit","153","612998","0.0-115.0-0.0","37210040","wem/bandit_party_2","A1YH304YEW06BV","either","8","591","","","","","","","1","0","0","0.5800760741","","0.6","0.8","0.2","0.4","","","","","0.5800760741","0.3275161349","0.3760614253","0.8699410266","","","","","","","","","","72","H","0","img/none_selected.jpg","","74","main_expt",""
"","bandit","154","615071","0.0-116.0-0.0","37210040","wem/bandit_party_2","A1YH304YEW06BV","either","8","504","","","","","","","0","0","1","","0.370831352","0.6","0.8","0.2","0.4","0.6614390465","0.3454333807","0.370831352","0.8192171788","","","","","","","","","","","","","","75","K","2","","","75","main_expt",""
"","bandit","155","617236","0.0-117.0-0.0","37210040","wem/bandit_party_2","A1YH304YEW06BV","either","8","599","","","","","","","1","0","0","0.4008199491","","0.6","0.8","0.2","0.4","","","","","0.6861570843","0.4213924804","0.4008199491","0.8990587115","","","","","","","","","","75","K","2","","","76","main_expt",""
"","bandit","156","619691","0.0-118.0-0.0","37210040","wem/bandit_party_2","A1YH304YEW06BV","either","8","860","","","","","","","0","0","1","0.439510692","","0.6","0.8","0.2","0.4","","","","","0.5980737028","0.439510692","0.3928984844","0.9062137116","","","","","","","","","","74","J","1","","","77","main_expt",""
"","bandit","157","622352","0.0-119.0-0.0","37210040","wem/bandit_party_2","A1YH304YEW06BV","either","8","1073","","","","","","","0","1","0","","0.9215914722","0.6","0.8","0.2","0.4","0.6754083514","0.4419424199","0.4709058574","0.9215914722","","","","","","","","","","","","","","76","L","3","","","78","main_expt",""
"","bandit","158","624655","0.0-120.0-0.0","37210040","wem/bandit_party_2","A1YH304YEW06BV","either","8","707","","","","","","","0","0","1","","0.7012934339","0.6","0.8","0.2","0.4","0.7012934339","0.5056762283","0.4971614577","0.895443078","","","","","","","","","","","","","","72","H","0","img/none_selected.jpg","","79","main_expt",""
"","bandit","159","626734","0.0-121.0-0.0","37210040","wem/bandit_party_2","A1YH304YEW06BV","either","8","496","","","","","","","1","0","0","0.7789772955","","0.6","0.8","0.2","0.4","","","","","0.7067798052","0.4558190996","0.4828267768","0.7789772955","","","","","","","","","","76","L","3","","","80","main_expt",""
"","bandit","160","629178","0.0-122.0-0.0","37210040","wem/bandit_party_2","A1YH304YEW06BV","either","8","850","","","","","","","0","0","1","0.4280570329","","0.6","0.8","0.2","0.4","","","","","0.7259433061","0.4774921548","0.4280570329","0.755426824","","","","","","","","","","75","K","2","","","81","main_expt",""
"","bandit","161","631414","0.0-123.0-0.0","37210040","wem/bandit_party_2","A1YH304YEW06BV","either","8","651","","","","","","","0","0","1","0.3611036613","","0.6","0.8","0.2","0.4","","","","","0.7022130872","0.3611036613","0.486136241","0.8356426425","","","","","","","","","","74","J","1","","","82","main_expt",""
"","bandit","162","633640","0.0-124.0-0.0","37210040","wem/bandit_party_2","A1YH304YEW06BV","either","8","634","","","","","","","0","0","1","","0.8783145762","0.6","0.8","0.2","0.4","0.75927227","0.3341354767","0.3539143083","0.8783145762","","","","","","","","","","","","","","76","L","3","","","83","main_expt",""
"","bandit","163","635798","0.0-125.0-0.0","37210040","wem/bandit_party_2","A1YH304YEW06BV","either","8","552","","","","","","","0","1","0","","0.8556046088","0.6","0.8","0.2","0.4","0.8556046088","0.288479151","0.374811954","0.9087743635","","","","","","","","","","","","","","72","H","0","img/none_selected.jpg","","84","main_expt",""
"","bandit","164","637967","0.0-126.0-0.0","37210040","wem/bandit_party_2","A1YH304YEW06BV","either","8","566","","","","","","","0","0","1","0.7835234447","","0.6","0.8","0.2","0.4","","","","","0.7835234447","0.3061923995","0.4518264681","0.8632011641","","","","","","","","","","72","H","0","img/none_selected.jpg","","85","main_expt",""
"","bandit","165","640062","0.0-127.0-0.0","37210040","wem/bandit_party_2","A1YH304YEW06BV","either","8","501","","","","","","","0","1","0","","0.3370204437","0.6","0.8","0.2","0.4","0.7037548709","0.3370204437","0.461936863","0.8341253046","","","","","","","","","","","","","","74","J","1","","","86","main_expt",""
"","bandit","166","642265","0.0-128.0-0.0","37210040","wem/bandit_party_2","A1YH304YEW06BV","either","8","618","","","","","","","0","0","1","","0.8728746981","0.6","0.8","0.2","0.4","0.6903674631","0.3900809043","0.3681660755","0.8728746981","","","","","","","","","","","","","","76","L","3","","","87","main_expt",""
"","bandit","167","644146","0.0-129.0-0.0","37210040","wem/bandit_party_2","A1YH304YEW06BV","either","8","265","","","","","","","0","0","1","","0.3788462328","0.6","0.8","0.2","0.4","0.5883284312","0.4296615172","0.3788462328","0.8408980459","","","","","","","","","","","","","","75","K","2","","","88","main_expt",""
"","bandit","168","645915","0.0-130.0-0.0","37210040","wem/bandit_party_2","A1YH304YEW06BV","either","8","193","","","","","","","1","0","0","0.8585781628","","0.6","0.8","0.2","0.4","","","","","0.5258490985","0.4636560077","0.3316952272","0.8585781628","","","","","","","","","","76","L","3","","","89","main_expt",""
"","bandit","169","647726","0.0-131.0-0.0","37210040","wem/bandit_party_2","A1YH304YEW06BV","either","8","238","","","","","","","0","1","0","","0.6395041767","0.6","0.8","0.2","0.4","0.6395041767","0.4463585346","0.438068917","0.925840658","","","","","","","","","","","","","","72","H","0","img/none_selected.jpg","","90","main_expt",""
"","bandit","170","649467","0.0-132.0-0.0","37210040","wem/bandit_party_2","A1YH304YEW06BV","either","8","160","","","","","","","1","0","0","0.4734463503","","0.6","0.8","0.2","0.4","","","","","0.6931091445","0.4734463503","0.5158843935","0.9201841885","","","","","","","","","","74","J","1","","","91","main_expt",""
"","bandit","171","651534","0.0-133.0-0.0","37210040","wem/bandit_party_2","A1YH304YEW06BV","either","8","466","","","","","","","0","1","0","","0.8508076908","0.6","0.8","0.2","0.4","0.6725373887","0.5248255385","0.5182757575","0.8508076908","","","","","","","","","","","","","","76","L","3","","","92","main_expt",""
"","bandit","172","653636","0.0-134.0-0.0","37210040","wem/bandit_party_2","A1YH304YEW06BV","either","8","500","","","","","","","0","0","1","0.3386726181","","0.6","0.8","0.2","0.4","","","","","0.7388835399","0.3386726181","0.5498130742","0.8106711147","","","","","","","","","","74","J","1","","","93","main_expt",""
"","bandit","173","655376","0.0-135.0-0.0","37210040","wem/bandit_party_2","A1YH304YEW06BV","either","8","137","","","","","","","1","0","0","0.697373586","","0.6","0.8","0.2","0.4","","","","","0.697373586","0.3718894848","0.6049407638","0.8543263914","","","","","","","","","","72","H","0","img/none_selected.jpg","","94","main_expt",""
"","bandit","174","657283","0.0-136.0-0.0","37210040","wem/bandit_party_2","A1YH304YEW06BV","either","8","310","","","","","","","0","1","0","","0.6604115927","0.6","0.8","0.2","0.4","0.7550322224","0.4005278521","0.6604115927","0.8387782901","","","","","","","","","","","","","","75","K","2","","","95","main_expt",""
"","bandit","175","659296","0.0-137.0-0.0","37210040","wem/bandit_party_2","A1YH304YEW06BV","either","8","429","","","","","","","0","1","0","","0.8208071174","0.6","0.8","0.2","0.4","0.6576962358","0.3694595514","0.7003847986","0.8208071174","","","","","","","","","","","","","","76","L","3","","","96","main_expt",""
"","bandit","176","661824","0.0-138.0-0.0","37210040","wem/bandit_party_2","A1YH304YEW06BV","either","8","935","","","","","","","0","0","1","0.3186037095","","0.6","0.8","0.2","0.4","","","","","0.6802484638","0.3186037095","0.6793148949","0.765358829","","","","","","","","","","74","J","1","","","97","main_expt",""
"","bandit","177","663567","0.0-139.0-0.0","37210040","wem/bandit_party_2","A1YH304YEW06BV","either","8","156","","","","","","","0","0","1","0.7042077447","","0.6","0.8","0.2","0.4","","","","","0.7042077447","0.2786717818","0.6204607354","0.7823463211","","","","","","","","","","72","H","0","img/none_selected.jpg","","98","main_expt",""
"","bandit","178","665436","0.0-140.0-0.0","37210040","wem/bandit_party_2","A1YH304YEW06BV","either","8","272","","","","","","","1","0","0","0.6166262367","","0.6","0.8","0.2","0.4","","","","","0.7355617892","0.32929866","0.6166262367","0.7523003034","","","","","","","","","","75","K","2","","","99","main_expt",""
"","bandit","179","667514","0.0-141.0-0.0","37210040","wem/bandit_party_2","A1YH304YEW06BV","either","8","482","","","","","","","1","0","0","0.7174790615","","0.6","0.8","0.2","0.4","","","","","0.7117411671","0.3115323478","0.5347115766","0.7174790615","","","","","","","","","","76","L","3","","","100","main_expt",""
"","bandit","180","669522","0.0-142.0-0.0","37210040","wem/bandit_party_2","A1YH304YEW06BV","either","8","405","","","","","","","0","0","1","0.4221749579","","0.6","0.8","0.2","0.4","","","","","0.7263903312","0.4221749579","0.3418016043","0.7660578318","","","","","","","","","","74","J","1","","","101","main_expt",""
"","bandit","181","671454","0.0-143.0-0.0","37210040","wem/bandit_party_2","A1YH304YEW06BV","either","8","339","","","","","","","0","1","0","","0.7357346189","0.6","0.8","0.2","0.4","0.7357346189","0.2718078598","0.2550922237","0.7201180075","","","","","","","","","","","","","","72","H","0","img/none_selected.jpg","","102","main_expt",""
"","bandit","182","673769","0.0-144.0-0.0","37210040","wem/bandit_party_2","A1YH304YEW06BV","either","8","728","","","","","","","0","1","0","","0.7026134783","0.6","0.8","0.2","0.4","0.7026134783","0.3011307106","0.3181696353","0.8452780714","","","","","","","","","","","","","","72","H","0","img/none_selected.jpg","","103","main_expt",""
"","bandit","183","676089","0.0-145.0-0.0","37210040","wem/bandit_party_2","A1YH304YEW06BV","either","8","742","","","","","","","1","0","0","0.7236924273","","0.6","0.8","0.2","0.4","","","","","0.8073666152","0.3659291838","0.3383579412","0.7236924273","","","","","","","","","","76","L","3","","","104","main_expt",""
"","bandit","184","678235","0.0-146.0-0.0","37210040","wem/bandit_party_2","A1YH304YEW06BV","either","8","527","","","","","","","0","0","1","","0.743719778","0.6","0.8","0.2","0.4","0.824483439","0.3499435223","0.2354673658","0.743719778","","","","","","","","","","","","","","76","L","3","","","105","main_expt",""
"","bandit","185","680533","0.0-147.0-0.0","37210040","wem/bandit_party_2","A1YH304YEW06BV","either","8","709","","","","","","","0","0","1","0.3602262465","","0.6","0.8","0.2","0.4","","","","","0.9208810438","0.3602262465","0.159398249","0.7985687284","","","","","","","","","","74","J","1","","","106","main_expt",""
"","bandit","186","682471","0.0-148.0-0.0","37210040","wem/bandit_party_2","A1YH304YEW06BV","either","8","350","","","","","","","0","0","1","","0.1295169146","0.6","0.8","0.2","0.4","0.8911910097","0.3252215163","0.1295169146","0.799345197","","","","","","","","","","","","","","75","K","2","","","107","main_expt",""
"","bandit","187","684628","0.0-149.0-0.0","37210040","wem/bandit_party_2","A1YH304YEW06BV","either","8","549","","","","","","","1","0","0","0.8450149587","","0.6","0.8","0.2","0.4","","","","","0.8450149587","0.2812406992","0.07754053308","0.8681690713","","","","","","","","","","72","H","0","img/none_selected.jpg","","108","main_expt",""
"","bandit","188","686843","0.0-150.0-0.0","37210040","wem/bandit_party_2","A1YH304YEW06BV","either","8","621","","","","","","","0","1","0","","0.868327257","0.6","0.8","0.2","0.4","0.868327257","0.2559497519","0.06591215473","0.8556732204","","","","","","","","","","","","","","72","H","0","img/none_selected.jpg","","109","main_expt",""
"","bandit","189","689629","0.0-151.0-0.0","37210040","wem/bandit_party_2","A1YH304YEW06BV","either","8","1211","","","","","","","0","0","1","","0.1189546392","0.6","0.8","0.2","0.4","0.8868335222","0.2817400418","0.1189546392","0.8669893864","","","","","","","","","","","","","","75","K","2","","","110","main_expt",""
"","bandit","190","691539","0.0-152.0-0.0","37210040","wem/bandit_party_2","A1YH304YEW06BV","either","8","329","","","","","","","0","0","1","0.2773620367","","0.6","0.8","0.2","0.4","","","","","0.8770728171","0.2773620367","0.09523351692","0.799383849","","","","","","","","","","74","J","1","","","111","main_expt",""
"","bandit","191","693776","0.0-153.0-0.0","37210040","wem/bandit_party_2","A1YH304YEW06BV","either","8","638","","","","","","","0","1","0","","0.859799476","0.6","0.8","0.2","0.4","0.8481710002","0.2833316415","0.107489667","0.859799476","","","","","","","","","","","","","","76","L","3","","","112","main_expt",""
"","bandit","192","696254","0.0-154.0-0.0","37210040","wem/bandit_party_2","A1YH304YEW06BV","either","8","874","","","","","","","0","1","0","","0.7932436089","0.6","0.8","0.2","0.4","0.8573528835","0.3433702059","0.1026187258","0.7932436089","","","","","","","","","","","","","","76","L","3","","","113","main_expt",""
"","bandit","193","698405","0.0-155.0-0.0","37210040","wem/bandit_party_2","A1YH304YEW06BV","either","8","575","","","","","","","0","0","1","0.8291807482","","0.6","0.8","0.2","0.4","","","","","0.8291807482","0.4828882278","0.1044839951","0.849407262","","","","","","","","","","72","H","0","img/none_selected.jpg","","114","main_expt",""
"","bandit","194","700637","0.0-156.0-0.0","37210040","wem/bandit_party_2","A1YH304YEW06BV","either","8","664","","","","","","","0","0","1","0.1213931844","","0.6","0.8","0.2","0.4","","","","","0.761972944","0.54932579","0.1213931844","0.8882716547","","","","","","","","","","75","K","2","","","115","main_expt",""
"","bandit","195","702944","0.0-157.0-0.0","37210040","wem/bandit_party_2","A1YH304YEW06BV","either","8","696","","","","","","","1","0","0","0.6971345968","","0.6","0.8","0.2","0.4","","","","","0.786197192","0.6971345968","0.1184144227","0.8741354715","","","","","","","","","","74","J","1","","","116","main_expt",""
"","bandit","196","705159","0.0-158.0-0.0","37210040","wem/bandit_party_2","A1YH304YEW06BV","either","8","619","","","","","","","0","0","1","","0.8083823922","0.6","0.8","0.2","0.4","0.7834453561","0.5396272374","0.1983931569","0.8083823922","","","","","","","","","","","","","","76","L","3","","","117","main_expt",""
"","bandit","197","707314","0.0-159.0-0.0","37210040","wem/bandit_party_2","A1YH304YEW06BV","either","8","561","","","","","","","0","0","1","0.6742380839","","0.6","0.8","0.2","0.4","","","","","0.6742380839","0.5544567993","0.2840039584","0.868525306","","","","","","","","","","72","H","0","img/none_selected.jpg","","118","main_expt",""
"","bandit","198","709358","0.0-160.0-0.0","37210040","wem/bandit_party_2","A1YH304YEW06BV","either","8","479","","","","","","","1","0","0","0.5504896642","","0.6","0.8","0.2","0.4","","","","","0.7350700153","0.5504896642","0.3563325119","0.8386471998","","","","","","","","","","74","J","1","","","119","main_expt",""
"","bandit","199","711419","0.0-161.0-0.0","37210040","wem/bandit_party_2","A1YH304YEW06BV","either","8","479","","","","","","","0","0","1","","0.5812137135","0.6","0.8","0.2","0.4","0.70601835","0.5812137135","0.5682387565","0.8103559508","","","","","","","","","","","","","","74","J","1","","","120","main_expt",""
"","bandit","200","713640","0.0-162.0-0.0","37210040","wem/bandit_party_2","A1YH304YEW06BV","either","8","629","","","","","","","0","0","1","","0.5189107771","0.6","0.8","0.2","0.4","0.7347719752","0.6033058466","0.5189107771","0.8193015173","","","","","","","","","","","","","","75","K","2","","","121","main_expt",""
"","bandit","201","715673","0.0-163.0-0.0","37210040","wem/bandit_party_2","A1YH304YEW06BV","either","8","439","","","","","","","1","0","0","0.8025146027","","0.6","0.8","0.2","0.4","","","","","0.8270923978","0.6102220397","0.4428493372","0.8025146027","","","","","","","","","","76","L","3","","","122","main_expt",""
"","bandit","202","717681","0.0-164.0-0.0","37210040","wem/bandit_party_2","A1YH304YEW06BV","either","8","418","","","","","","","1","0","0","0.7980631313","","0.6","0.8","0.2","0.4","","","","","0.7980631313","0.6108151959","0.472724465","0.8121847492","","","","","","","","","","72","H","0","img/none_selected.jpg","","123","main_expt",""
"","bandit","203","719753","0.0-165.0-0.0","37210040","wem/bandit_party_2","A1YH304YEW06BV","either","8","482","","","","","","","0","1","0","","0.8299418439","0.6","0.8","0.2","0.4","0.7369852887","0.7117385939","0.4799585558","0.8299418439","","","","","","","","","","","","","","76","L","3","","","124","main_expt",""
"","bandit","204","722052","0.0-166.0-0.0","37210040","wem/bandit_party_2","A1YH304YEW06BV","either","8","672","","","","","","","0","1","0","","0.825688343","0.6","0.8","0.2","0.4","0.7465944313","0.7554186078","0.5080184993","0.825688343","","","","","","","","","","","","","","76","L","3","","","125","main_expt",""
"","bandit","205","724292","0.0-167.0-0.0","37210040","wem/bandit_party_2","A1YH304YEW06BV","either","8","643","","","","","","","1","0","0","0.7596834852","","0.6","0.8","0.2","0.4","","","","","0.7596834852","0.8855751833","0.4555098289","0.8372054396","","","","","","","","","","72","H","0","img/none_selected.jpg","","126","main_expt",""
"","bandit","206","725905","0.0-168.0-0.0","37210040","wem/bandit_party_2","A1YH304YEW06BV","either","8","14","","","","","","","1","0","0","0.7398299979","","0.6","0.8","0.2","0.4","","","","","0.7398299979","0.8003015049","0.5475411796","0.7906689898","","","","","","","","","","72","H","0","img/none_selected.jpg","","127","main_expt",""
"","bandit","207","727916","0.0-169.0-0.0","37210040","wem/bandit_party_2","A1YH304YEW06BV","either","8","386","","","","","","","0","1","0","","0.8403113951","0.6","0.8","0.2","0.4","0.7764866849","0.8403113951","0.612647382","0.8008571507","","","","","","","","","","","","","","74","J","1","","","128","main_expt",""
"","bandit","208","730452","0.0-170.0-0.0","37210040","wem/bandit_party_2","A1YH304YEW06BV","either","8","945","","","","","","","0","0","1","","0.7128970287","0.6","0.8","0.2","0.4","0.6435675963","0.8826872071","0.7128970287","0.7829297973","","","","","","","","","","","","","","75","K","2","","","129","main_expt",""
"","bandit","209","733123","0.0-171.0-0.0","37210040","wem/bandit_party_2","A1YH304YEW06BV","either","8","1085","","","","","","","0","0","1","0.7309911721","","0.6","0.8","0.2","0.4","","","","","0.7030252038","0.8641000085","0.7309911721","0.6898445721","","","","","","","","","","75","K","2","","","130","main_expt",""
"","bandit","210","735761","0.0-172.0-0.0","37210040","wem/bandit_party_2","A1YH304YEW06BV","either","8","1014","","","","","","","0","0","1","0.8752037592","","0.6","0.8","0.2","0.4","","","","","0.6829232191","0.8752037592","0.73180147","0.5864867529","","","","","","","","","","74","J","1","","","131","main_expt",""
"","bandit","211","737911","0.0-173.0-0.0","37210040","wem/bandit_party_2","A1YH304YEW06BV","either","8","573","","","","","","","0","1","0","","0.560122833","0.6","0.8","0.2","0.4","0.7406452387","0.8279556795","0.8467134838","0.560122833","","","","","","","","","","","","","","76","L","3","","","132","main_expt",""
"","bandit","212","740161","0.0-174.0-0.0","37210040","wem/bandit_party_2","A1YH304YEW06BV","either","8","618","","","","","","","0","0","1","","0.6666234363","0.6","0.8","0.2","0.4","0.6666234363","0.8194722428","0.8481264083","0.48439517","","","","","","","","","","","","","","72","H","0","img/none_selected.jpg","","133","main_expt",""
"","bandit","213","742315","0.0-175.0-0.0","37210040","wem/bandit_party_2","A1YH304YEW06BV","either","8","553","","","","","","","1","0","0","0.680542061","","0.6","0.8","0.2","0.4","","","","","0.680542061","0.8037084922","0.8771050955","0.3919863126","","","","","","","","","","72","H","0","img/none_selected.jpg","","134","main_expt",""
"","bandit","214","744377","0.0-176.0-0.0","37210040","wem/bandit_party_2","A1YH304YEW06BV","either","8","472","","","","","","","0","1","0","","0.9103241533","0.6","0.8","0.2","0.4","0.7006187635","0.8155916457","0.9103241533","0.5174750093","","","","","","","","","","","","","","75","K","2","","","135","main_expt",""
"","bandit","215","746428","0.0-177.0-0.0","37210040","wem/bandit_party_2","A1YH304YEW06BV","either","8","468","","","","","","","0","0","1","","0.4264762493","0.6","0.8","0.2","0.4","0.6936815578","0.8281957705","0.9126032517","0.4264762493","","","","","","","","","","","","","","76","L","3","","","136","main_expt",""
"","bandit","216","748561","0.0-178.0-0.0","37210040","wem/bandit_party_2","A1YH304YEW06BV","either","8","522","","","","","","","0","1","0","","0.7055403129","0.6","0.8","0.2","0.4","0.6531428085","0.7055403129","0.8983360858","0.5351999402","","","","","","","","","","","","","","74","J","1","","","137","main_expt",""
"","bandit","217","750608","0.0-179.0-0.0","37210040","wem/bandit_party_2","A1YH304YEW06BV","either","8","459","","","","","","","0","1","0","","0.8851370462","0.6","0.8","0.2","0.4","0.6769758131","0.6884351598","0.8851370462","0.4758748922","","","","","","","","","","","","","","75","K","2","","","138","main_expt",""
"","bandit","218","753008","0.0-180.0-0.0","37210040","wem/bandit_party_2","A1YH304YEW06BV","either","8","820","","","","","","","0","1","0","","0.7649589049","0.6","0.8","0.2","0.4","0.7649589049","0.6090423031","0.8662270416","0.4039793023","","","","","","","","","","","","","","72","H","0","img/none_selected.jpg","","139","main_expt",""
"","bandit","219","755218","0.0-181.0-0.0","37210040","wem/bandit_party_2","A1YH304YEW06BV","either","8","612","","","","","","","1","0","0","0.7000077187","","0.6","0.8","0.2","0.4","","","","","0.7674202191","0.7000077187","0.8345767194","0.384774136","","","","","","","","","","74","J","1","","","140","main_expt",""
"","bandit","220","757672","0.0-182.0-0.0","37210040","wem/bandit_party_2","A1YH304YEW06BV","either","8","843","","","","","","","0","1","0","","0.327254859","0.6","0.8","0.2","0.4","0.8575114448","0.6643185619","0.8783670964","0.327254859","","","","","","","","","","","","","","76","L","3","","","141","main_expt",""
"","bandit","221","760026","0.0-183.0-0.0","37210040","wem/bandit_party_2","A1YH304YEW06BV","either","8","732","","","","","","","1","0","0","0.8134430427","","0.6","0.8","0.2","0.4","","","","","0.8134430427","0.7079845674","0.8895828315","0.4536641492","","","","","","","","","","72","H","0","img/none_selected.jpg","","142","main_expt",""
"","bandit","222","762308","0.0-184.0-0.0","37210040","wem/bandit_party_2","A1YH304YEW06BV","either","8","650","","","","","","","0","1","0","","0.9053928798","0.6","0.8","0.2","0.4","0.8345505038","0.6624187643","0.9053928798","0.4348486293","","","","","","","","","","","","","","75","K","2","","","143","main_expt",""
"","bandit","223","764433","0.0-185.0-0.0","37210040","wem/bandit_party_2","A1YH304YEW06BV","either","8","539","","","","","","","0","1","0","","0.6779247185","0.6","0.8","0.2","0.4","0.7482817554","0.6779247185","0.9033088386","0.4086594597","","","","","","","","","","","","","","74","J","1","","","144","main_expt",""
"","bandit","224","766582","0.0-186.0-0.0","37210040","wem/bandit_party_2","A1YH304YEW06BV","either","8","544","","","","","","","0","0","1","","0.8572864227","0.6","0.8","0.2","0.4","0.7400387939","0.7216102374","0.8572864227","0.4420772456","","","","","","","","","","","","","","75","K","2","","","145","main_expt",""
"","bandit","225","768808","0.0-187.0-0.0","37210040","wem/bandit_party_2","A1YH304YEW06BV","either","8","626","","","","","","","0","1","0","","0.508741462","0.6","0.8","0.2","0.4","0.795971973","0.7837267619","0.8687508917","0.508741462","","","","","","","","","","","","","","76","L","3","","","146","main_expt",""
"","bandit","226","771423","0.0-188.0-0.0","37210040","wem/bandit_party_2","A1YH304YEW06BV","either","8","992","","","","","","","1","0","0","0.7503502301","","0.6","0.8","0.2","0.4","","","","","0.7503502301","0.7652264833","0.8657621525","0.4624398998","","","","","","","","","","72","H","0","img/none_selected.jpg","","147","main_expt",""
"","bandit","227","773648","0.0-189.0-0.0","37210040","wem/bandit_party_2","A1YH304YEW06BV","either","8","613","","","","","","","1","0","0","0.8200474043","","0.6","0.8","0.2","0.4","","","","","0.8200474043","0.7358716413","0.8362891365","0.4062589849","","","","","","","","","","72","H","0","img/none_selected.jpg","","148","main_expt",""
"","bandit","228","775970","0.0-190.0-0.0","37210040","wem/bandit_party_2","A1YH304YEW06BV","either","8","720","","","","","","","0","1","0","","0.7129200786","0.6","0.8","0.2","0.4","0.8509010271","0.7129200786","0.8144386017","0.4895331913","","","","","","","","","","","","","","74","J","1","","","149","main_expt",""
"","bandit","229","778318","0.0-191.0-0.0","37210040","wem/bandit_party_2","A1YH304YEW06BV","either","8","749","","","","","","","0","1","0","","0.6948055455","0.6","0.8","0.2","0.4","0.8298908313","0.705531668","0.6948055455","0.4704746919","","","","","","","","","","","","","","75","K","2","","","150","main_expt",""
"","bandit","230","781487","0.0-192.0-0.0","37210040","wem/bandit_party_2","A1YH304YEW06BV","either","8","1601","","","","","","","0","1","0","","0.4725745774","0.6","0.8","0.2","0.4","0.7362749002","0.5744604188","0.6231991314","0.4725745774","","","","","","","","","","","","","","76","L","3","","","151","main_expt",""
"","bandit","231","783685","0.0-193.0-0.0","37210040","wem/bandit_party_2","A1YH304YEW06BV","either","8","611","","","","","","","0","0","1","","0.4943906398","0.6","0.8","0.2","0.4","0.7601791643","0.5372669321","0.7045057733","0.4943906398","","","","","","","","","","","","","","76","L","3","","","152","main_expt",""
"","bandit","232","786448","0.0-194.0-0.0","37210040","wem/bandit_party_2","A1YH304YEW06BV","either","8","1181","","","","","","","1","0","0","0.7590648118","","0.6","0.8","0.2","0.4","","","","","0.7590648118","0.5447545218","0.5331338622","0.4639524782","","","","","","","","","","72","H","0","img/none_selected.jpg","","153","main_expt",""
"","bandit","233","788356","0.0-195.0-0.0","37210040","wem/bandit_party_2","A1YH304YEW06BV","either","8","304","","","","","","","0","1","0","","0.5096720896","0.6","0.8","0.2","0.4","0.7805387907","0.4191749193","0.5096720896","0.3935792086","","","","","","","","","","","","","","75","K","2","","","154","main_expt",""
"","bandit","234","790203","0.0-196.0-0.0","37210040","wem/bandit_party_2","A1YH304YEW06BV","either","8","240","","","","","","","0","0","1","","0.4269770229","0.6","0.8","0.2","0.4","0.8450805748","0.4269770229","0.4719011365","0.4127348605","","","","","","","","","","","","","","74","J","1","","","155","main_expt",""
"","bandit","235","792060","0.0-197.0-0.0","37210040","wem/bandit_party_2","A1YH304YEW06BV","either","8","294","","","","","","","0","0","1","","0.4589862704","0.6","0.8","0.2","0.4","0.8513110265","0.4589862704","0.5818713095","0.3697675558","","","","","","","","","","","","","","74","J","1","","","156","main_expt",""
"","bandit","236","794536","0.0-198.0-0.0","37210040","wem/bandit_party_2","A1YH304YEW06BV","either","8","882","","","","","","","1","0","0","0.5804022203","","0.6","0.8","0.2","0.4","","","","","0.8226236001","0.5370818316","0.5804022203","0.3604398023","","","","","","","","","","75","K","2","","","157","main_expt",""
"","bandit","237","798959","0.0-199.0-0.0","37210040","wem/bandit_party_2","A1YH304YEW06BV","either","8","2823","","","","","","","0","0","1","","0.4773166223","0.6","0.8","0.2","0.4","0.8843141367","0.4757376888","0.4773166223","0.4061750625","","","","","","","","","","","","","","75","K","2","","","158","main_expt",""
"","bandit","238","801084","0.0-200.0-0.0","37210040","wem/bandit_party_2","A1YH304YEW06BV","either","8","560","","","","","","","0","0","1","","0.8078798749","0.6","0.8","0.2","0.4","0.8078798749","0.4887287223","0.419048585","0.4696417586","","","","","","","","","","","","","","72","H","0","img/none_selected.jpg","","159","main_expt",""
"","bandit","239","803055","0.0-201.0-0.0","37210040","wem/bandit_party_2","A1YH304YEW06BV","either","8","372","","","","","","","0","1","0","","0.4659569923","0.6","0.8","0.2","0.4","0.7689164465","0.4588489809","0.4672574386","0.4659569923","","","","","","","","","","","","","","76","L","3","","","160","main_expt",""
"","bandit","240","805126","0.0-202.0-0.0","37210040","wem/bandit_party_2","A1YH304YEW06BV","either","8","486","","","","","","","0","1","0","","0.3947207546","0.6","0.8","0.2","0.4","0.7863156869","0.4920004413","0.5612985374","0.3947207546","","","","","","","","","","","","","","76","L","3","","","161","main_expt",""
"","bandit","241","807233","0.0-203.0-0.0","37210040","wem/bandit_party_2","A1YH304YEW06BV","either","8","491","","","","","","","0","0","1","0.5389881207","","0.6","0.8","0.2","0.4","","","","","0.8098475403","0.5389881207","0.5288680036","0.2460097942","","","","","","","","","","74","J","1","","","162","main_expt",""
"","bandit","242","809298","0.0-204.0-0.0","37210040","wem/bandit_party_2","A1YH304YEW06BV","either","8","466","","","","","","","0","1","0","","0.6096883849","0.6","0.8","0.2","0.4","0.8222712862","0.6040136001","0.6096883849","0.3603606056","","","","","","","","","","","","","","75","K","2","","","163","main_expt",""
"","bandit","243","811231","0.0-205.0-0.0","37210040","wem/bandit_party_2","A1YH304YEW06BV","either","8","361","","","","","","","0","0","1","0.2507209727","","0.6","0.8","0.2","0.4","","","","","0.7876031225","0.623756827","0.4868922288","0.2507209727","","","","","","","","","","76","L","3","","","164","main_expt",""
"","bandit","244","813734","0.0-206.0-0.0","37210040","wem/bandit_party_2","A1YH304YEW06BV","either","8","907","","","","","","","0","0","1","","0.2162043423","0.6","0.8","0.2","0.4","0.7435052823","0.6164515281","0.4055552053","0.2162043423","","","","","","","","","","","","","","76","L","3","","","165","main_expt",""
"","bandit","245","816246","0.0-207.0-0.0","37210040","wem/bandit_party_2","A1YH304YEW06BV","either","8","896","","","","","","","1","0","0","0.4748236382","","0.6","0.8","0.2","0.4","","","","","0.6545739251","0.4660222187","0.4748236382","0.2573409732","","","","","","","","","","75","K","2","","","166","main_expt",""
"","bandit","246","818577","0.0-208.0-0.0","37210040","wem/bandit_party_2","A1YH304YEW06BV","either","8","689","","","","","","","1","0","0","0.3336058786","","0.6","0.8","0.2","0.4","","","","","0.6645907447","0.3336058786","0.4725242185","0.4016088623","","","","","","","","","","74","J","1","","","167","main_expt",""
"","bandit","247","820668","0.0-209.0-0.0","37210040","wem/bandit_party_2","A1YH304YEW06BV","either","8","497","","","","","","","0","0","1","","0.4775208721","0.6","0.8","0.2","0.4","0.7243751722","0.2887723434","0.4775208721","0.5522858252","","","","","","","","","","","","","","75","K","2","","","168","main_expt",""
"","bandit","248","822563","0.0-210.0-0.0","37210040","wem/bandit_party_2","A1YH304YEW06BV","either","8","299","","","","","","","0","1","0","","0.6453105543","0.6","0.8","0.2","0.4","0.6453105543","0.3357056981","0.4682732781","0.5461138513","","","","","","","","","","","","","","72","H","0","img/none_selected.jpg","","169","main_expt",""
"","bandit","249","824581","0.0-211.0-0.0","37210040","wem/bandit_party_2","A1YH304YEW06BV","either","8","428","","","","","","","1","0","0","0.4402798015","","0.6","0.8","0.2","0.4","","","","","0.5334010147","0.4179693295","0.4246621539","0.4402798015","","","","","","","","","","76","L","3","","","170","main_expt",""
"","bandit","250","826749","0.0-212.0-0.0","37210040","wem/bandit_party_2","A1YH304YEW06BV","either","8","586","","","","","","","1","0","0","0.450294849","","0.6","0.8","0.2","0.4","","","","","0.498122785","0.3050406521","0.2843380906","0.450294849","","","","","","","","","","76","L","3","","","171","main_expt",""
"","bandit","251","831096","0.0-213.0-0.0","37210040","wem/bandit_party_2","A1YH304YEW06BV","either","8","2761","","","","","","","0","1","0","","0.6475755847","0.6","0.8","0.2","0.4","0.4356988635","0.3364500029","0.2668952485","0.6475755847","","","","","","","","","","","","","","76","L","3","","","172","main_expt",""
"","bandit","252","833144","0.0-214.0-0.0","37210040","wem/bandit_party_2","A1YH304YEW06BV","either","8","424","","","","","","","0","0","1","0.3964199688","","0.6","0.8","0.2","0.4","","","","","0.3964199688","0.421339117","0.3802819164","0.6095255177","","","","","","","","","","72","H","0","img/none_selected.jpg","","173","main_expt",""
"","bandit","253","835450","0.0-215.0-0.0","37210040","wem/bandit_party_2","A1YH304YEW06BV","either","8","685","","","","","","","1","0","0","0.4913704717","","0.6","0.8","0.2","0.4","","","","","0.3194345802","0.4913704717","0.4042455133","0.5003628493","","","","","","","","","","74","J","1","","","174","main_expt",""
"","bandit","254","837875","0.0-216.0-0.0","37210040","wem/bandit_party_2","A1YH304YEW06BV","either","8","827","","","","","","","0","1","0","","0.4393989914","0.6","0.8","0.2","0.4","0.2865230234","0.5882611891","0.4393989914","0.5576212716","","","","","","","","","","","","","","75","K","2","","","175","main_expt",""
"","bandit","255","840256","0.0-217.0-0.0","37210040","wem/bandit_party_2","A1YH304YEW06BV","either","8","784","","","","","","","1","0","0","0.6313830356","","0.6","0.8","0.2","0.4","","","","","0.3352692614","0.6313830356","0.4705173801","0.6230679906","","","","","","","","","","74","J","1","","","176","main_expt",""
"","bandit","256","842335","0.0-218.0-0.0","37210040","wem/bandit_party_2","A1YH304YEW06BV","either","8","502","","","","","","","0","1","0","","0.3389264817","0.6","0.8","0.2","0.4","0.3389264817","0.5531265137","0.4698597734","0.6501784685","","","","","","","","","","","","","","72","H","0","img/none_selected.jpg","","177","main_expt",""
"","bandit","257","844732","0.0-219.0-0.0","37210040","wem/bandit_party_2","A1YH304YEW06BV","either","8","800","","","","","","","0","0","1","","0.3570804947","0.6","0.8","0.2","0.4","0.3709673039","0.4621004187","0.3570804947","0.6334155083","","","","","","","","","","","","","","75","K","2","","","178","main_expt",""
"","bandit","258","852246","0.0-220.0-0.0","37210040","wem/bandit_party_2","A1YH304YEW06BV","either","8","5915","","","","","","","1","0","0","0.512884041","","0.6","0.8","0.2","0.4","","","","","0.2940579202","0.512884041","0.3441184995","0.7548338289","","","","","","","","","","74","J","1","","","179","main_expt",""
"","bandit","259","854342","0.0-221.0-0.0","37210040","wem/bandit_party_2","A1YH304YEW06BV","either","8","508","","","","","","","0","1","0","","0.3646136501","0.6","0.8","0.2","0.4","0.3218724025","0.506744284","0.3646136501","0.8074073351","","","","","","","","","","","","","","75","K","2","","","180","main_expt",""
"","bandit","260","857004","0.0-222.0-0.0","37210040","wem/bandit_party_2","A1YH304YEW06BV","either","8","1053","","","","","","","0","0","1","","0.3777688814","0.6","0.8","0.2","0.4","0.3633286182","0.4556494723","0.3777688814","0.780721516","","","","","","","","","","","","","","75","K","2","","","181","main_expt",""
"","bandit","261","858843","0.0-223.0-0.0","37210040","wem/bandit_party_2","A1YH304YEW06BV","either","8","221","","","","","","","0","0","1","0.3324048704","","0.6","0.8","0.2","0.4","","","","","0.3324048704","0.4494525508","0.4578236703","0.7647415088","","","","","","","","","","72","H","0","img/none_selected.jpg","","182","main_expt",""
"","bandit","262","860756","0.0-224.0-0.0","37210040","wem/bandit_party_2","A1YH304YEW06BV","either","8","318","","","","","","","0","0","1","","0.7349307529","0.6","0.8","0.2","0.4","0.3092830871","0.5189143621","0.4244895098","0.7349307529","","","","","","","","","","","","","","76","L","3","","","183","main_expt",""
"","bandit","263","863024","0.0-225.0-0.0","37210040","wem/bandit_party_2","A1YH304YEW06BV","either","8","633","","","","","","","1","0","0","0.5167606333","","0.6","0.8","0.2","0.4","","","","","0.3905692936","0.5167606333","0.3566779322","0.8298088288","","","","","","","","","","74","J","1","","","184","main_expt",""
"","bandit","264","865296","0.0-226.0-0.0","37210040","wem/bandit_party_2","A1YH304YEW06BV","either","8","633","","","","","","","0","1","0","","0.4626192444","0.6","0.8","0.2","0.4","0.4626192444","0.5270237034","0.3737416658","0.7894193193","","","","","","","","","","","","","","72","H","0","img/none_selected.jpg","","185","main_expt",""
"","bandit","265","867085","0.0-227.0-0.0","37210040","wem/bandit_party_2","A1YH304YEW06BV","either","8","192","","","","","","","0","0","1","0.5556036571","","0.6","0.8","0.2","0.4","","","","","0.6061762586","0.5556036571","0.3120176694","0.7665022487","","","","","","","","","","74","J","1","","","186","main_expt",""
"","bandit","266","869323","0.0-228.0-0.0","37210040","wem/bandit_party_2","A1YH304YEW06BV","either","8","644","","","","","","","0","0","1","","0.4134691065","0.6","0.8","0.2","0.4","0.530958695","0.5865134094","0.4134691065","0.7394266891","","","","","","","","","","","","","","75","K","2","","","187","main_expt",""
"","bandit","267","872191","0.0-229.0-0.0","37210040","wem/bandit_party_2","A1YH304YEW06BV","either","8","1287","","","","","","","0","1","0","","0.6567361442","0.6","0.8","0.2","0.4","0.380024655","0.5034866795","0.4637770407","0.6567361442","","","","","","","","","","","","","","76","L","3","","","188","main_expt",""
"","bandit","268","874314","0.0-230.0-0.0","37210040","wem/bandit_party_2","A1YH304YEW06BV","either","8","542","","","","","","","1","0","0","0.6572443956","","0.6","0.8","0.2","0.4","","","","","0.4563575644","0.5761715841","0.5739034088","0.6572443956","","","","","","","","","","76","L","3","","","189","main_expt",""
"","bandit","269","876814","0.0-231.0-0.0","37210040","wem/bandit_party_2","A1YH304YEW06BV","either","8","906","","","","","","","0","0","1","","0.4540853102","0.6","0.8","0.2","0.4","0.4540853102","0.5325489933","0.5859504021","0.6735764162","","","","","","","","","","","","","","72","H","0","img/none_selected.jpg","","190","main_expt",""
"","bandit","270","881704","0.0-232.0-0.0","37210040","wem/bandit_party_2","A1YH304YEW06BV","either","8","3316","","","","","","","0","0","1","","0.4328006462","0.6","0.8","0.2","0.4","0.4328006462","0.5614919892","0.5325822721","0.5997518312","","","","","","","","","","","","","","72","H","0","img/none_selected.jpg","","191","main_expt",""
"","bandit","271","884281","0.0-233.0-0.0","37210040","wem/bandit_party_2","A1YH304YEW06BV","either","8","966","","","","","","","0","0","1","","0.4622441745","0.6","0.8","0.2","0.4","0.4979354652","0.5972832049","0.4622441745","0.6582178794","","","","","","","","","","","","","","75","K","2","","","192","main_expt",""
"","bandit","272","887327","0.0-234.0-0.0","37210040","wem/bandit_party_2","A1YH304YEW06BV","either","8","1447","","","","","","","1","0","0","0.6997951875","","0.6","0.8","0.2","0.4","","","","","0.4887187701","0.6997951875","0.4765036663","0.7246172867","","","","","","","","","","74","J","1","","","193","main_expt",""
"","bandit","273","891278","0.0-235.0-0.0","37210040","wem/bandit_party_2","A1YH304YEW06BV","either","8","2372","","","","","","","0","1","0","","0.7721250451","0.6","0.8","0.2","0.4","0.4993882896","0.7511051992","0.4504155567","0.7721250451","","","","","","","","","","","","","","76","L","3","","","194","main_expt",""
"","bandit","274","893306","0.0-236.0-0.0","37210040","wem/bandit_party_2","A1YH304YEW06BV","either","8","438","","","","","","","0","0","1","0.8366496483","","0.6","0.8","0.2","0.4","","","","","0.5011331455","0.8281457055","0.4354252764","0.8366496483","","","","","","","","","","76","L","3","","","195","main_expt",""
"","bandit","275","903980","0.0-237.0-0.0","37210040","wem/bandit_party_2","A1YH304YEW06BV","either","8","9076","","","","","","","0","0","1","","0.4170899215","0.6","0.8","0.2","0.4","0.4487960683","0.8248544968","0.4170899215","0.8484646997","","","","","","","","","","","","","","75","K","2","","","196","main_expt",""
"","bandit","276","905646","0.0-238.0-0.0","37210040","wem/bandit_party_2","A1YH304YEW06BV","either","8","73","","","","","","","1","0","0","0.8532714289","","0.6","0.8","0.2","0.4","","","","","0.3975590019","0.8532714289","0.4149059055","0.8734060335","","","","","","","","","","74","J","1","","","197","main_expt",""
"","bandit","277","907555","0.0-239.0-0.0","37210040","wem/bandit_party_2","A1YH304YEW06BV","either","8","313","","","","","","","0","0","1","0.4161601929","","0.6","0.8","0.2","0.4","","","","","0.4161601929","0.7587337752","0.4737306044","0.8515360685","","","","","","","","","","72","H","0","img/none_selected.jpg","","198","main_expt",""
"","bandit","278","909330","0.0-240.0-0.0","37210040","wem/bandit_party_2","A1YH304YEW06BV","either","8","156","","","","","","","0","1","0","","0.8805923715","0.6","0.8","0.2","0.4","0.4483979408","0.8124408481","0.4541760911","0.8805923715","","","","","","","","","","","","","","76","L","3","","","199","main_expt",""
"","bandit","279","911196","0.0-241.0-0.0","37210040","wem/bandit_party_2","A1YH304YEW06BV","either","8","278","","","","","","","0","1","0","","0.3964714959","0.6","0.8","0.2","0.4","0.5303380975","0.7935778268","0.3964714959","0.9645818821","","","","","","","","","","","","","","75","K","2","","","200","main_expt",""
"","bandit","280","913160","0.0-242.0-0.0","37210040","wem/bandit_party_2","A1YH304YEW06BV","either","8","354","","","","","","","0","0","1","0.9689478708","","0.6","0.8","0.2","0.4","","","","","0.4014045657","0.736942723","0.3815447649","0.9689478708","","","","","","","","","","76","L","3","","","201","main_expt",""
"","bandit","281","915199","0.0-243.0-0.0","37210040","wem/bandit_party_2","A1YH304YEW06BV","either","8","447","","","","","","","0","0","1","0.7001951276","","0.6","0.8","0.2","0.4","","","","","0.5115169607","0.7001951276","0.3726367513","0.9678291885","","","","","","","","","","74","J","1","","","202","main_expt",""
"","bandit","282","917184","0.0-244.0-0.0","37210040","wem/bandit_party_2","A1YH304YEW06BV","either","8","411","","","","","","","1","0","0","0.5026191452","","0.6","0.8","0.2","0.4","","","","","0.5026191452","0.7209300446","0.3062653216","0.9633244117","","","","","","","","","","72","H","0","img/none_selected.jpg","","203","main_expt",""
"","bandit","283","919008","0.0-245.0-0.0","37210040","wem/bandit_party_2","A1YH304YEW06BV","either","8","221","","","","","","","0","0","1","0.2848501254","","0.6","0.8","0.2","0.4","","","","","0.4736298566","0.8574132932","0.2848501254","0.9730812582","","","","","","","","","","75","K","2","","","204","main_expt",""
"","bandit","284","921030","0.0-246.0-0.0","37210040","wem/bandit_party_2","A1YH304YEW06BV","either","8","457","","","","","","","1","0","0","0.3457586416","","0.6","0.8","0.2","0.4","","","","","0.6121858428","0.9038760074","0.3457586416","0.9521206422","","","","","","","","","","75","K","2","","","205","main_expt",""
"","bandit","285","923131","0.0-247.0-0.0","37210040","wem/bandit_party_2","A1YH304YEW06BV","either","8","504","","","","","","","0","1","0","","0.9614764056","0.6","0.8","0.2","0.4","0.6377028942","0.9273356803","0.4609097875","0.9614764056","","","","","","","","","","","","","","76","L","3","","","206","main_expt",""
"","bandit","286","925985","0.0-248.0-0.0","37210040","wem/bandit_party_2","A1YH304YEW06BV","either","8","1257","","","","","","","1","0","0","0.9502037039","","0.6","0.8","0.2","0.4","","","","","0.5700483165","0.9502037039","0.4980316736","0.9625830716","","","","","","","","","","74","J","1","","","207","main_expt",""
"","bandit","287","939780","0.0-249.0-0.0","37210040","wem/bandit_party_2","A1YH304YEW06BV","either","8","12178","","","","","","","0","0","1","0.4537691537","","0.6","0.8","0.2","0.4","","","","","0.624428721","0.944094639","0.4537691537","0.9359306517","","","","","","","","","","75","K","2","","","208","main_expt",""
"","bandit","288","941673","0.0-250.0-0.0","37210040","wem/bandit_party_2","A1YH304YEW06BV","either","8","289","","","","","","","0","0","1","0.9070839441","","0.6","0.8","0.2","0.4","","","","","0.4861871301","0.9070839441","0.4475842875","0.9632917203","","","","","","","","","","74","J","1","","","209","main_expt",""
"","bandit","289","944408","0.0-251.0-0.0","37210040","wem/bandit_party_2","A1YH304YEW06BV","either","8","1136","","","","","","","1","0","0","0.9633226214","","0.6","0.8","0.2","0.4","","","","","0.3956361612","0.8960653589","0.4803454055","0.9633226214","","","","","","","","","","76","L","3","","","210","main_expt",""
"","bandit","290","946359","0.0-252.0-0.0","37210040","wem/bandit_party_2","A1YH304YEW06BV","either","8","339","","","","","","","0","1","0","","0.9719781217","0.6","0.8","0.2","0.4","0.3599204452","0.9155455821","0.4126443349","0.9719781217","","","","","","","","","","","","","","76","L","3","","","211","main_expt",""
"","bandit","291","948573","0.0-253.0-0.0","37210040","wem/bandit_party_2","A1YH304YEW06BV","either","8","601","","","","","","","0","0","1","","0.3349000901","0.6","0.8","0.2","0.4","0.3349000901","0.9087954588","0.3384802849","0.9700781686","","","","","","","","","","","","","","72","H","0","img/none_selected.jpg","","212","main_expt",""
"","bandit","292","950308","0.0-254.0-0.0","37210040","wem/bandit_party_2","A1YH304YEW06BV","either","8","142","","","","","","","0","0","1","","0.3039242722","0.6","0.8","0.2","0.4","0.3183344176","0.8528540962","0.3039242722","0.971165811","","","","","","","","","","","","","","75","K","2","","","213","main_expt",""
"","bandit","293","952588","0.0-255.0-0.0","37210040","wem/bandit_party_2","A1YH304YEW06BV","either","8","678","","","","","","","0","1","0","","0.9627117","0.6","0.8","0.2","0.4","0.2390758011","0.8506041988","0.4541530846","0.9627117","","","","","","","","","","","","","","76","L","3","","","214","main_expt",""
"","bandit","294","954667","0.0-256.0-0.0","37210040","wem/bandit_party_2","A1YH304YEW06BV","either","8","458","","","","","","","1","0","0","0.8001829978","","0.6","0.8","0.2","0.4","","","","","0.1997060473","0.8001829978","0.5101749692","0.9552130497","","","","","","","","","","74","J","1","","","215","main_expt",""
"","bandit","295","956946","0.0-257.0-0.0","37210040","wem/bandit_party_2","A1YH304YEW06BV","either","8","680","","","","","","","1","0","0","0.733614842","","0.6","0.8","0.2","0.4","","","","","0.2326539104","0.733614842","0.5580520347","0.9220350188","","","","","","","","","","74","J","1","","","216","main_expt",""
"","bandit","296","959096","0.0-258.0-0.0","37210040","wem/bandit_party_2","A1YH304YEW06BV","either","8","546","","","","","","","1","0","0","0.8736667029","","0.6","0.8","0.2","0.4","","","","","0.2319826337","0.7479737912","0.4368451062","0.8736667029","","","","","","","","","","76","L","3","","","217","main_expt",""
"","bandit","297","961494","0.0-259.0-0.0","37210040","wem/bandit_party_2","A1YH304YEW06BV","either","8","802","","","","","","","0","0","1","","0.3143382807","0.6","0.8","0.2","0.4","0.3143382807","0.7713398237","0.3963441813","0.7602784417","","","","","","","","","","","","","","72","H","0","img/none_selected.jpg","","218","main_expt",""
"","bandit","298","963478","0.0-260.0-0.0","37210040","wem/bandit_party_2","A1YH304YEW06BV","either","8","373","","","","","","","1","0","0","0.7643050859","","0.6","0.8","0.2","0.4","","","","","0.3304972923","0.8077055691","0.4809426617","0.7643050859","","","","","","","","","","76","L","3","","","219","main_expt",""
"","bandit","299","965549","0.0-261.0-0.0","37210040","wem/bandit_party_2","A1YH304YEW06BV","either","8","483","","","","","","","0","1","0","","0.7778114837","0.6","0.8","0.2","0.4","0.2866104843","0.7778114837","0.397759556","0.7793587236","","","","","","","","","","","","","","74","J","1","","","220","main_expt",""
"","bandit","300","967732","0.0-262.0-0.0","37210040","wem/bandit_party_2","A1YH304YEW06BV","either","8","583","","","","","","","0","0","1","","0.4087677593","0.6","0.8","0.2","0.4","0.3602561646","0.7214198583","0.4087677593","0.82086311","","","","","","","","","","","","","","75","K","2","","","221","main_expt",""
"","bandit","301","969828","0.0-263.0-0.0","37210040","wem/bandit_party_2","A1YH304YEW06BV","either","8","494","","","","","","","1","0","0","0.8091526303","","0.6","0.8","0.2","0.4","","","","","0.3228749062","0.8091526303","0.4561280915","0.8543662658","","","","","","","","","","74","J","1","","","222","main_expt",""
"","bandit","302","972227","0.0-264.0-0.0","37210040","wem/bandit_party_2","A1YH304YEW06BV","either","8","789","","","","","","","0","0","1","","0.2549485676","0.6","0.8","0.2","0.4","0.2549485676","0.8240838469","0.4419858618","0.8599459829","","","","","","","","","","","","","","72","H","0","img/none_selected.jpg","","223","main_expt",""
"","bandit","303","974457","0.0-265.0-0.0","37210040","wem/bandit_party_2","A1YH304YEW06BV","either","8","604","","","","","","","1","0","0","0.8747991669","","0.6","0.8","0.2","0.4","","","","","0.2389333491","0.7670685714","0.494409337","0.8747991669","","","","","","","","","","76","L","3","","","224","main_expt",""
"","bandit","304","977180","0.0-266.0-0.0","37210040","wem/bandit_party_2","A1YH304YEW06BV","either","8","1114","","","","","","","0","0","1","0.8775689376","","0.6","0.8","0.2","0.4","","","","","0.1517307125","0.8775689376","0.3713348049","0.7910409491","","","","","","","","","","74","J","1","","","225","main_expt",""
"","bandit","305","978838","0.0-267.0-0.0","37210040","wem/bandit_party_2","A1YH304YEW06BV","either","8","57","","","","","","","0","0","1","","0.4013452417","0.6","0.8","0.2","0.4","0.1002450003","0.8846504348","0.4013452417","0.7212928749","","","","","","","","","","","","","","75","K","2","","","226","main_expt",""
"","bandit","306","980460","0.0-268.0-0.0","37210040","wem/bandit_party_2","A1YH304YEW06BV","either","8","43","","","","","","","0","0","1","","0.7090989562","0.6","0.8","0.2","0.4","0.1049945928","0.851087938","0.393451628","0.7090989562","","","","","","","","","","","","","","76","L","3","","","227","main_expt",""
"","bandit","307","982289","0.0-269.0-0.0","37210040","wem/bandit_party_2","A1YH304YEW06BV","either","8","222","","","","","","","0","0","1","0.03915988122","","0.6","0.8","0.2","0.4","","","","","0.03915988122","0.9074720337","0.4175844788","0.6606736223","","","","","","","","","","72","H","0","img/none_selected.jpg","","228","main_expt",""
"","bandit","308","984644","0.0-270.0-0.0","37210040","wem/bandit_party_2","A1YH304YEW06BV","either","8","743","","","","","","","0","0","1","","0.03767516843","0.6","0.8","0.2","0.4","0.03767516843","0.872332114","0.408368909","0.6893924153","","","","","","","","","","","","","","72","H","0","img/none_selected.jpg","","229","main_expt",""
"","bandit","309","986896","0.0-271.0-0.0","37210040","wem/bandit_party_2","A1YH304YEW06BV","either","8","646","","","","","","","1","0","0","0.7967167456","","0.6","0.8","0.2","0.4","","","","","0.05804790214","0.7967167456","0.4777699032","0.6067604319","","","","","","","","","","74","J","1","","","230","main_expt",""
"","bandit","310","989099","0.0-272.0-0.0","37210040","wem/bandit_party_2","A1YH304YEW06BV","either","8","622","","","","","","","1","0","0","0.7760618079","","0.6","0.8","0.2","0.4","","","","","0.04963095007","0.7760618079","0.4935442242","0.5037419277","","","","","","","","","","74","J","1","","","231","main_expt",""
"","bandit","311","992544","0.0-273.0-0.0","37210040","wem/bandit_party_2","A1YH304YEW06BV","either","8","1866","","","","","","","0","0","1","","0.4889590317","0.6","0.8","0.2","0.4","0.03759782928","0.7765467853","0.4889590317","0.4339479185","","","","","","","","","","","","","","75","K","2","","","232","main_expt",""
"","bandit","312","994569","0.0-274.0-0.0","37210040","wem/bandit_party_2","A1YH304YEW06BV","either","8","410","","","","","","","0","1","0","","0.5212294662","0.6","0.8","0.2","0.4","0.03147013274","0.7895219362","0.5212294662","0.4525546635","","","","","","","","","","","","","","75","K","2","","","233","main_expt",""
"","bandit","313","1001851","0.0-275.0-0.0","37210040","wem/bandit_party_2","A1YH304YEW06BV","either","8","5668","","","","","","","0","1","0","","0.4420617392","0.6","0.8","0.2","0.4","0.03547440544","0.7491899586","0.4420617392","0.3680080929","","","","","","","","","","","","","","75","K","2","","","234","main_expt",""
"","bandit","314","1003966","0.0-276.0-0.0","37210040","wem/bandit_party_2","A1YH304YEW06BV","either","8","522","","","","","","","0","0","1","","0.4816955248","0.6","0.8","0.2","0.4","0.04486782706","0.7397351474","0.4816955248","0.3416373547","","","","","","","","","","","","","","75","K","2","","","235","main_expt",""
"","bandit","315","1005589","0.0-277.0-0.0","37210040","wem/bandit_party_2","A1YH304YEW06BV","either","8","28","","","","","","","0","0","1","","0.3722877153","0.6","0.8","0.2","0.4","0.03122339122","0.6587673302","0.3028121716","0.3722877153","","","","","","","","","","","","","","76","L","3","","","236","main_expt",""
"","bandit","316","1007494","0.0-278.0-0.0","37210040","wem/bandit_party_2","A1YH304YEW06BV","either","8","305","","","","","","","0","0","1","0.04191117605","","0.6","0.8","0.2","0.4","","","","","0.04191117605","0.7534934878","0.3802502189","0.3081002542","","","","","","","","","","72","H","0","img/none_selected.jpg","","237","main_expt",""
