"consent","trial_type","trial_index","time_elapsed","internal_node_id","subjID","study","MID","cond","drift","rt","responses","button_pressed","key_press","like","value","connected","gems","bombs","no_reward","GemPrChosen","BombPrChosen","GainOverPainPr_0","GainOverPainPr_1","GainOverPainPr_2","GainOverPainPr_3","LosePr_0","LosePr_1","LosePr_2","LosePr_3","WinPr_0","WinPr_1","WinPr_2","WinPr_3","Q0","Q1","Q2","gender","age","ethnicity","label","expt_phase","target","respCharCode","respKey","respChoiceNum","respChoice","practice","trial_counter","trial_label","Q0_index"
"GDM/GDM_behavioral_consent_30min_online.html","consent","0","5122","0.0-0.0","37423446","wem/bandit_party_2","A1KET5Z038NMWD","either","4","","","","","","","","","","","","","","","","","","","","","","","","","","","","","","","","","","","","","","","","",""
"","survey-text","1","7913","0.0-1.0","37423446","wem/bandit_party_2","A1KET5Z038NMWD","either","4","1769","{""Q0"":""A1KET5Z038NMWD""}","","","","","","","","","","","","","","","","","","","","","","","","","","","","","","","","","","","","","","",""
"","button-response","2","10523","0.0-2.0","37423446","wem/bandit_party_2","A1KET5Z038NMWD","either","4","1605","","2","","","","","","","","","","","","","","","","","","","","","","","","","","","","","","","","","","","","","",""
"","text-replacement","3","14018","0.0-3.0","37423446","wem/bandit_party_2","A1KET5Z038NMWD","either","4","2483","","","32","","","","","","","","","","","","","","","","","","","","","","","","","","","","","","","","","","","","",""
"","text-replacement","4","15445","0.0-4.0","37423446","wem/bandit_party_2","A1KET5Z038NMWD","either","4","1425","","","32","","","","","","","","","","","","","","","","","","","","","","","","","","","","","","","","","","","","",""
"","text-replacement","5","16116","0.0-5.0-0.0","37423446","wem/bandit_party_2","A1KET5Z038NMWD","either","4","670","","","32","","","","","","","","","","","","","","","","","","","","","","","","","","","","","","","","","","","","",""
"","identification","6","19628","0.0-6.0-0.0","37423446","wem/bandit_party_2","A1KET5Z038NMWD","either","4","3501","","","","0","0","0","","","","","","","","","","","","","","","","","","","","","","","","pre","identification_pre","the Republican Party","","","","","","","",""
"","identification","7","23313","0.0-6.0-1.0","37423446","wem/bandit_party_2","A1KET5Z038NMWD","either","4","2672","","","","0","0","0","","","","","","","","","","","","","","","","","","","","","","","","pre","identification_pre","the Democratic Party","","","","","","","",""
"","text-replacement","8","25667","0.0-7.0","37423446","wem/bandit_party_2","A1KET5Z038NMWD","either","4","1351","","","32","","","","","","","","","","","","","","","","","","","","","","","","","","","","","","","","","","","","",""
"","text-replacement","9","26225","0.0-8.0","37423446","wem/bandit_party_2","A1KET5Z038NMWD","either","4","556","","","32","","","","","","","","","","","","","","","","","","","","","","","","","","","","","","","","","","","","",""
"","text-replacement","10","26665","0.0-9.0","37423446","wem/bandit_party_2","A1KET5Z038NMWD","either","4","438","","","32","","","","","","","","","","","","","","","","","","","","","","","","","","","","","","","","","","","","",""
"","text-replacement","11","27519","0.0-10.0","37423446","wem/bandit_party_2","A1KET5Z038NMWD","either","4","853","","","32","","","","","","","","","","","","","","","","","","","","","","","","","","","","","","","","","","","","",""
"","text-replacement","12","29838","0.0-11.0","37423446","wem/bandit_party_2","A1KET5Z038NMWD","either","4","2317","","","32","","","","","","","","","","","","","","","","","","","","","","","","","","","","","","","","","","","","",""
"","bandit","13","33438","0.0-12.0-0.0","37423446","wem/bandit_party_2","A1KET5Z038NMWD","either","4","2093","","","","","","","0","0","1","0","0","","","","","0","","","","0","","","","","","","","","","","","","74","J","0","img/none_selected_demo.jpg","true","0","",""
"","bandit","14","36117","0.0-13.0-0.0","37423446","wem/bandit_party_2","A1KET5Z038NMWD","either","4","1174","","","","","","","0","0","1","0","0","","","","","0","","","","0","","","","","","","","","","","","","75","K","0","img/none_selected_demo.jpg","true","0","",""
"","text-replacement","15","40424","0.0-14.0","37423446","wem/bandit_party_2","A1KET5Z038NMWD","either","4","4305","","","32","","","","","","","","","","","","","","","","","","","","","","","","","","","","","","","","","","","","",""
"","text-replacement","16","44312","0.0-15.0","37423446","wem/bandit_party_2","A1KET5Z038NMWD","either","4","3888","","","32","","","","","","","","","","","","","","","","","","","","","","","","","","","","","","","","","","","","",""
"","text-replacement","17","45903","0.0-16.0","37423446","wem/bandit_party_2","A1KET5Z038NMWD","either","4","1589","","","32","","","","","","","","","","","","","","","","","","","","","","","","","","","","","","","","","","","","",""
"","text-replacement","18","47946","0.0-17.0","37423446","wem/bandit_party_2","A1KET5Z038NMWD","either","4","2041","","","32","","","","","","","","","","","","","","","","","","","","","","","","","","","","","","","","","","","","",""
"","bandit","19","50858","0.0-18.0-0.0","37423446","wem/bandit_party_2","A1KET5Z038NMWD","either","4","1407","","","","","","","0","1","0","","0.8","0.5","0.5","","","0.8","0.2","","","","","","","","","","","","","","","","74","J","0","img/none_selected_demo.jpg","true","0","80_20_practice",""
"","bandit","20","52992","0.0-18.0-1.0","37423446","wem/bandit_party_2","A1KET5Z038NMWD","either","4","626","","","","","","","0","0","1","","0.8","0.5","0.5","","","0.8","0.2","","","","","","","","","","","","","","","","74","J","0","img/none_selected_demo.jpg","true","0","80_20_practice",""
"","bandit","21","55216","0.0-18.0-2.0","37423446","wem/bandit_party_2","A1KET5Z038NMWD","either","4","720","","","","","","","0","1","0","","0.8","0.5","0.5","","","0.8","0.2","","","","","","","","","","","","","","","","74","J","0","img/none_selected_demo.jpg","true","0","80_20_practice",""
"","bandit","22","57296","0.0-18.0-3.0","37423446","wem/bandit_party_2","A1KET5Z038NMWD","either","4","574","","","","","","","0","0","1","0.8","","0.5","0.5","","","","","","","0.8","0.2","","","","","","","","","","","","74","J","0","img/none_selected_demo.jpg","true","0","80_20_practice",""
"","bandit","23","59159","0.0-18.0-4.0","37423446","wem/bandit_party_2","A1KET5Z038NMWD","either","4","358","","","","","","","1","0","0","0.8","","0.5","0.5","","","","","","","0.8","0.2","","","","","","","","","","","","74","J","0","img/none_selected_demo.jpg","true","0","80_20_practice",""
"","bandit","24","61001","0.0-18.0-5.0","37423446","wem/bandit_party_2","A1KET5Z038NMWD","either","4","334","","","","","","","1","0","0","0.8","","0.5","0.5","","","","","","","0.8","0.2","","","","","","","","","","","","74","J","0","img/none_selected_demo.jpg","true","0","80_20_practice",""
"","bandit","25","62879","0.0-18.0-6.0","37423446","wem/bandit_party_2","A1KET5Z038NMWD","either","4","373","","","","","","","0","1","0","","0.8","0.5","0.5","","","0.8","0.2","","","","","","","","","","","","","","","","74","J","0","img/none_selected_demo.jpg","true","0","80_20_practice",""
"","bandit","26","64670","0.0-18.0-7.0","37423446","wem/bandit_party_2","A1KET5Z038NMWD","either","4","286","","","","","","","0","1","0","","0.8","0.5","0.5","","","0.8","0.2","","","","","","","","","","","","","","","","74","J","0","img/none_selected_demo.jpg","true","0","80_20_practice",""
"","bandit","27","66551","0.0-18.0-8.0","37423446","wem/bandit_party_2","A1KET5Z038NMWD","either","4","376","","","","","","","0","1","0","","0.8","0.5","0.5","","","0.8","0.2","","","","","","","","","","","","","","","","74","J","0","img/none_selected_demo.jpg","true","0","80_20_practice",""
"","bandit","28","68321","0.0-18.0-9.0","37423446","wem/bandit_party_2","A1KET5Z038NMWD","either","4","266","","","","","","","0","1","0","","0.8","0.5","0.5","","","0.8","0.2","","","","","","","","","","","","","","","","74","J","0","img/none_selected_demo.jpg","true","0","80_20_practice",""
"","bandit","29","70139","0.0-18.0-10.0","37423446","wem/bandit_party_2","A1KET5Z038NMWD","either","4","314","","","","","","","0","1","0","","0.8","0.5","0.5","","","0.8","0.2","","","","","","","","","","","","","","","","74","J","0","img/none_selected_demo.jpg","true","0","80_20_practice",""
"","bandit","30","71916","0.0-18.0-11.0","37423446","wem/bandit_party_2","A1KET5Z038NMWD","either","4","273","","","","","","","0","1","0","","0.8","0.5","0.5","","","0.8","0.2","","","","","","","","","","","","","","","","74","J","0","img/none_selected_demo.jpg","true","0","80_20_practice",""
"","bandit","31","73720","0.0-18.0-12.0","37423446","wem/bandit_party_2","A1KET5Z038NMWD","either","4","298","","","","","","","0","1","0","","0.8","0.5","0.5","","","0.8","0.2","","","","","","","","","","","","","","","","74","J","0","img/none_selected_demo.jpg","true","0","80_20_practice",""
"","bandit","32","75500","0.0-18.0-13.0","37423446","wem/bandit_party_2","A1KET5Z038NMWD","either","4","275","","","","","","","0","1","0","","0.8","0.5","0.5","","","0.8","0.2","","","","","","","","","","","","","","","","74","J","0","img/none_selected_demo.jpg","true","0","80_20_practice",""
"","bandit","33","77264","0.0-18.0-14.0","37423446","wem/bandit_party_2","A1KET5Z038NMWD","either","4","258","","","","","","","1","0","0","0.8","","0.5","0.5","","","","","","","0.8","0.2","","","","","","","","","","","","74","J","0","img/none_selected_demo.jpg","true","0","80_20_practice",""
"","bandit","34","79168","0.0-18.0-15.0","37423446","wem/bandit_party_2","A1KET5Z038NMWD","either","4","398","","","","","","","1","0","0","0.2","","0.5","0.5","","","","","","","0.8","0.2","","","","","","","","","","","","75","K","1","","true","0","80_20_practice",""
"","bandit","35","80919","0.0-18.0-16.0","37423446","wem/bandit_party_2","A1KET5Z038NMWD","either","4","246","","","","","","","0","1","0","","0.2","0.5","0.5","","","0.8","0.2","","","","","","","","","","","","","","","","75","K","1","","true","0","80_20_practice",""
"","bandit","36","82741","0.0-18.0-17.0","37423446","wem/bandit_party_2","A1KET5Z038NMWD","either","4","317","","","","","","","1","0","0","0.2","","0.5","0.5","","","","","","","0.8","0.2","","","","","","","","","","","","75","K","1","","true","0","80_20_practice",""
"","bandit","37","84527","0.0-18.0-18.0","37423446","wem/bandit_party_2","A1KET5Z038NMWD","either","4","281","","","","","","","0","0","1","0.2","","0.5","0.5","","","","","","","0.8","0.2","","","","","","","","","","","","75","K","1","","true","0","80_20_practice",""
"","bandit","38","86337","0.0-18.0-19.0","37423446","wem/bandit_party_2","A1KET5Z038NMWD","either","4","302","","","","","","","0","1","0","","0.2","0.5","0.5","","","0.8","0.2","","","","","","","","","","","","","","","","75","K","1","","true","0","80_20_practice",""
"","text-replacement","39","90559","0.0-19.0","37423446","wem/bandit_party_2","A1KET5Z038NMWD","either","4","4220","","","32","","","","","","","","","","","","","","","","","","","","","","","","","","","","","","","","","","","","",""
"","bandit","40","93595","0.0-20.0-0.0","37423446","wem/bandit_party_2","A1KET5Z038NMWD","either","4","1530","","","","","","","1","0","0","1","0","","","","","0","1","","","1","0","","","","","","","","","","","","74","J","0","img/none_selected_demo.jpg","true","0","",""
"","text-replacement","41","98045","0.0-21.0","37423446","wem/bandit_party_2","A1KET5Z038NMWD","either","4","4449","","","32","","","","","","","","","","","","","","","","","","","","","","","","","","","","","","","","","","","","",""
"","text-replacement","42","108414","0.0-22.0","37423446","wem/bandit_party_2","A1KET5Z038NMWD","either","4","10368","","","32","","","","","","","","","","","","","","","","","","","","","","","","","","","","","","","","","","","","",""
"","text-replacement","43","110533","0.0-23.0","37423446","wem/bandit_party_2","A1KET5Z038NMWD","either","4","2117","","","32","","","","","","","","","","","","","","","","","","","","","","","","","","","","","","","","","","","","",""
"","text-replacement","44","112416","0.0-24.0","37423446","wem/bandit_party_2","A1KET5Z038NMWD","either","4","1881","","","32","","","","","","","","","","","","","","","","","","","","","","","","","","","","","","","","","","","","",""
"","text-replacement","45","116679","0.0-25.0","37423446","wem/bandit_party_2","A1KET5Z038NMWD","either","4","4261","","","32","","","","","","","","","","","","","","","","","","","","","","","","","","","","","","","","","","","","",""
"","text-replacement","46","119252","0.0-26.0","37423446","wem/bandit_party_2","A1KET5Z038NMWD","either","4","2571","","","32","","","","","","","","","","","","","","","","","","","","","","","","","","","","","","","","","","","","",""
"","text-replacement","47","121473","0.0-27.0","37423446","wem/bandit_party_2","A1KET5Z038NMWD","either","4","2219","","","32","","","","","","","","","","","","","","","","","","","","","","","","","","","","","","","","","","","","",""
"","text-replacement","48","125229","0.0-28.0","37423446","wem/bandit_party_2","A1KET5Z038NMWD","either","4","3755","","","32","","","","","","","","","","","","","","","","","","","","","","","","","","","","","","","","","","","","",""
"","text-replacement","49","129403","0.0-29.0","37423446","wem/bandit_party_2","A1KET5Z038NMWD","either","4","4172","","","32","","","","","","","","","","","","","","","","","","","","","","","","","","","","","","","","","","","","",""
"","text-replacement","50","131213","0.0-30.0","37423446","wem/bandit_party_2","A1KET5Z038NMWD","either","4","1807","","","32","","","","","","","","","","","","","","","","","","","","","","","","","","","","","","","","","","","","",""
"","text-replacement","51","133339","0.0-31.0","37423446","wem/bandit_party_2","A1KET5Z038NMWD","either","4","2125","","","32","","","","","","","","","","","","","","","","","","","","","","","","","","","","","","","","","","","","",""
"","bandit","52","135668","0.0-32.0-0.0","37423446","wem/bandit_party_2","A1KET5Z038NMWD","either","4","822","","","","","","","1","0","0","0.8","","0.5","0.5","0.5","0.5","","","","","0.8","0.2","0.6","0.2","","","","","","","","","","72","H","0","img/none_selected.jpg","true","0","full_practice",""
"","bandit","53","138621","0.0-32.0-1.0","37423446","wem/bandit_party_2","A1KET5Z038NMWD","either","4","1448","","","","","","","0","0","1","0.2","","0.5","0.5","0.5","0.5","","","","","0.8","0.2","0.6","0.2","","","","","","","","","","76","L","3","","true","0","full_practice",""
"","bandit","54","140423","0.0-32.0-2.0","37423446","wem/bandit_party_2","A1KET5Z038NMWD","either","4","296","","","","","","","0","1","0","","0.2","0.5","0.5","0.5","0.5","0.8","0.2","0.6","0.2","","","","","","","","","","","","","","76","L","3","","true","0","full_practice",""
"","bandit","55","142246","0.0-32.0-3.0","37423446","wem/bandit_party_2","A1KET5Z038NMWD","either","4","318","","","","","","","0","0","1","0.2","","0.5","0.5","0.5","0.5","","","","","0.8","0.2","0.6","0.2","","","","","","","","","","76","L","3","","true","0","full_practice",""
"","bandit","56","144057","0.0-32.0-4.0","37423446","wem/bandit_party_2","A1KET5Z038NMWD","either","4","307","","","","","","","0","0","1","0.2","","0.5","0.5","0.5","0.5","","","","","0.8","0.2","0.6","0.2","","","","","","","","","","76","L","3","","true","0","full_practice",""
"","bandit","57","145860","0.0-32.0-5.0","37423446","wem/bandit_party_2","A1KET5Z038NMWD","either","4","299","","","","","","","1","0","0","0.8","","0.5","0.5","0.5","0.5","","","","","0.8","0.2","0.6","0.2","","","","","","","","","","72","H","0","img/none_selected.jpg","true","0","full_practice",""
"","bandit","58","147673","0.0-32.0-6.0","37423446","wem/bandit_party_2","A1KET5Z038NMWD","either","4","307","","","","","","","1","0","0","0.8","","0.5","0.5","0.5","0.5","","","","","0.8","0.2","0.6","0.2","","","","","","","","","","72","H","0","img/none_selected.jpg","true","0","full_practice",""
"","bandit","59","149517","0.0-32.0-7.0","37423446","wem/bandit_party_2","A1KET5Z038NMWD","either","4","336","","","","","","","1","0","0","0.8","","0.5","0.5","0.5","0.5","","","","","0.8","0.2","0.6","0.2","","","","","","","","","","72","H","0","img/none_selected.jpg","true","0","full_practice",""
"","bandit","60","151307","0.0-32.0-8.0","37423446","wem/bandit_party_2","A1KET5Z038NMWD","either","4","287","","","","","","","1","0","0","0.2","","0.5","0.5","0.5","0.5","","","","","0.8","0.2","0.6","0.2","","","","","","","","","","74","J","1","","true","0","full_practice",""
"","bandit","61","153088","0.0-32.0-9.0","37423446","wem/bandit_party_2","A1KET5Z038NMWD","either","4","276","","","","","","","0","0","1","0.2","","0.5","0.5","0.5","0.5","","","","","0.8","0.2","0.6","0.2","","","","","","","","","","74","J","1","","true","0","full_practice",""
"","bandit","62","154833","0.0-32.0-10.0","37423446","wem/bandit_party_2","A1KET5Z038NMWD","either","4","241","","","","","","","0","1","0","","0.2","0.5","0.5","0.5","0.5","0.8","0.2","0.6","0.2","","","","","","","","","","","","","","74","J","1","","true","0","full_practice",""
"","bandit","63","156611","0.0-32.0-11.0","37423446","wem/bandit_party_2","A1KET5Z038NMWD","either","4","274","","","","","","","0","0","1","","0.2","0.5","0.5","0.5","0.5","0.8","0.2","0.6","0.2","","","","","","","","","","","","","","74","J","1","","true","0","full_practice",""
"","bandit","64","158406","0.0-32.0-12.0","37423446","wem/bandit_party_2","A1KET5Z038NMWD","either","4","290","","","","","","","0","0","1","0.2","","0.5","0.5","0.5","0.5","","","","","0.8","0.2","0.6","0.2","","","","","","","","","","74","J","1","","true","0","full_practice",""
"","bandit","65","160190","0.0-32.0-13.0","37423446","wem/bandit_party_2","A1KET5Z038NMWD","either","4","280","","","","","","","1","0","0","0.8","","0.5","0.5","0.5","0.5","","","","","0.8","0.2","0.6","0.2","","","","","","","","","","72","H","0","img/none_selected.jpg","true","0","full_practice",""
"","bandit","66","162007","0.0-32.0-14.0","37423446","wem/bandit_party_2","A1KET5Z038NMWD","either","4","313","","","","","","","0","1","0","","0.8","0.5","0.5","0.5","0.5","0.8","0.2","0.6","0.2","","","","","","","","","","","","","","72","H","0","img/none_selected.jpg","true","0","full_practice",""
"","bandit","67","163797","0.0-32.0-15.0","37423446","wem/bandit_party_2","A1KET5Z038NMWD","either","4","285","","","","","","","0","1","0","","0.8","0.5","0.5","0.5","0.5","0.8","0.2","0.6","0.2","","","","","","","","","","","","","","72","H","0","img/none_selected.jpg","true","0","full_practice",""
"","bandit","68","165627","0.0-32.0-16.0","37423446","wem/bandit_party_2","A1KET5Z038NMWD","either","4","326","","","","","","","1","0","0","0.8","","0.5","0.5","0.5","0.5","","","","","0.8","0.2","0.6","0.2","","","","","","","","","","72","H","0","img/none_selected.jpg","true","0","full_practice",""
"","bandit","69","167370","0.0-32.0-17.0","37423446","wem/bandit_party_2","A1KET5Z038NMWD","either","4","238","","","","","","","1","0","0","0.8","","0.5","0.5","0.5","0.5","","","","","0.8","0.2","0.6","0.2","","","","","","","","","","72","H","0","img/none_selected.jpg","true","0","full_practice",""
"","bandit","70","169418","0.0-32.0-18.0","37423446","wem/bandit_party_2","A1KET5Z038NMWD","either","4","542","","","","","","","0","1","0","","0.6","0.5","0.5","0.5","0.5","0.8","0.2","0.6","0.2","","","","","","","","","","","","","","75","K","2","","true","0","full_practice",""
"","bandit","71","171644","0.0-32.0-19.0","37423446","wem/bandit_party_2","A1KET5Z038NMWD","either","4","719","","","","","","","0","0","1","0.6","","0.5","0.5","0.5","0.5","","","","","0.8","0.2","0.6","0.2","","","","","","","","","","75","K","2","","true","0","full_practice",""
"","text","72","178211","0.0-33.0","37423446","wem/bandit_party_2","A1KET5Z038NMWD","either","4","6561","","","32","","","","","","","","","","","","","","","","","","","","","","","","","","","","","","","","","","","","",""
"","text-replacement","73","186936","0.0-34.0","37423446","wem/bandit_party_2","A1KET5Z038NMWD","either","4","7722","","","32","","","","","","","","","","","","","","","","","","","","","","","","","","","","","","","","","","","","",""
"","text-replacement","74","194401","0.0-35.0","37423446","wem/bandit_party_2","A1KET5Z038NMWD","either","4","7461","","","32","","","","","","","","","","","","","","","","","","","","","","","","","","","","","","","","","","","","",""
"","text-replacement","75","197966","0.0-36.0","37423446","wem/bandit_party_2","A1KET5Z038NMWD","either","4","3563","","","32","","","","","","","","","","","","","","","","","","","","","","","","","","","","","","","","","","","","",""
"","text-replacement","76","201277","0.0-37.0","37423446","wem/bandit_party_2","A1KET5Z038NMWD","either","4","3309","","","32","","","","","","","","","","","","","","","","","","","","","","","","","","","","","","","","","","","","",""
"","text-replacement","77","202809","0.0-38.0","37423446","wem/bandit_party_2","A1KET5Z038NMWD","either","4","1531","","","32","","","","","","","","","","","","","","","","","","","","","","","","","","","","","","","","","","","","",""
"","survey-multi-choice-replacement","78","208091","0.0-39.0-0.0","37423446","wem/bandit_party_2","A1KET5Z038NMWD","either","4","5274","","","","","","","","","","","","","","","","","","","","","","","","Money will be added to the pool for <span style='color:red;'>REPUBLICANS</span>","","","","","","","attn_check","","","","","","","","","0"
"","survey-multi-choice-replacement","79","214878","0.0-40.0-0.0","37423446","wem/bandit_party_2","A1KET5Z038NMWD","either","4","5779","","","","","","","","","","","","","","","","","","","","","","","","Equal amounts of money will be added to the pool for <span style='color:red;'>REPUBLICANS</span> and subtracted from the pool for <span style='color:blue;'>DEMOCRATS</span>","","","","","","","attn_check","","","","","","","","","2"
"","survey-multi-choice-replacement","80","217827","0.0-41.0-0.0","37423446","wem/bandit_party_2","A1KET5Z038NMWD","either","4","1940","","","","","","","","","","","","","","","","","","","","","","","","No money will be added to either pool","","","","","","","attn_check","","","","","","","","","3"
"","bandit","81","222088","0.0-42.0-0.0","37423446","wem/bandit_party_2","A1KET5Z038NMWD","either","4","1754","","","","","","","0","1","0","","0.9858900825","0.2","0.6","0.4","0.8","0.9858900825","0.8209843215","0.7267404998","0.2887693562","","","","","","","","","","","","","","72","H","0","img/none_selected.jpg","","1","main_expt",""
"","bandit","82","223955","0.0-43.0-0.0","37423446","wem/bandit_party_2","A1KET5Z038NMWD","either","4","359","","","","","","","0","1","0","","0.9854924354","0.2","0.6","0.4","0.8","0.9854924354","0.8179122382","0.7034907646","0.2986217167","","","","","","","","","","","","","","72","H","0","img/none_selected.jpg","","2","main_expt",""
"","bandit","83","225811","0.0-44.0-0.0","37423446","wem/bandit_party_2","A1KET5Z038NMWD","either","4","348","","","","","","","0","1","0","","0.9789624529","0.2","0.6","0.4","0.8","0.9789624529","0.8301291561","0.6574847675","0.261346942","","","","","","","","","","","","","","72","H","0","img/none_selected.jpg","","3","main_expt",""
"","bandit","84","227618","0.0-45.0-0.0","37423446","wem/bandit_party_2","A1KET5Z038NMWD","either","4","296","","","","","","","0","1","0","","0.9565345184","0.2","0.6","0.4","0.8","0.9565345184","0.8219157537","0.5092805277","0.2757740293","","","","","","","","","","","","","","72","H","0","img/none_selected.jpg","","4","main_expt",""
"","bandit","85","229501","0.0-46.0-0.0","37423446","wem/bandit_party_2","A1KET5Z038NMWD","either","4","378","","","","","","","1","0","0","0.941194936","","0.2","0.6","0.4","0.8","","","","","0.941194936","0.7759220463","0.5952926025","0.3329857669","","","","","","","","","","72","H","0","img/none_selected.jpg","","5","main_expt",""
"","bandit","86","231348","0.0-47.0-0.0","37423446","wem/bandit_party_2","A1KET5Z038NMWD","either","4","342","","","","","","","0","1","0","","0.9305219143","0.2","0.6","0.4","0.8","0.9305219143","0.7495930044","0.6160758637","0.331878758","","","","","","","","","","","","","","72","H","0","img/none_selected.jpg","","6","main_expt",""
"","bandit","87","233413","0.0-48.0-0.0","37423446","wem/bandit_party_2","A1KET5Z038NMWD","either","4","557","","","","","","","0","0","1","","0.937738562","0.2","0.6","0.4","0.8","0.937738562","0.7078030286","0.6381806331","0.3863389794","","","","","","","","","","","","","","72","H","0","img/none_selected.jpg","","7","main_expt",""
"","bandit","88","237194","0.0-49.0-0.0","37423446","wem/bandit_party_2","A1KET5Z038NMWD","either","4","2275","","","","","","","0","1","0","","0.8269671957","0.2","0.6","0.4","0.8","0.8269671957","0.689407674","0.7047831713","0.4242016385","","","","","","","","","","","","","","72","H","0","img/none_selected.jpg","","8","main_expt",""
"","bandit","89","239113","0.0-50.0-0.0","37423446","wem/bandit_party_2","A1KET5Z038NMWD","either","4","410","","","","","","","0","0","1","","0.7696709776","0.2","0.6","0.4","0.8","0.7696709776","0.7848236408","0.6222923336","0.379169242","","","","","","","","","","","","","","72","H","0","img/none_selected.jpg","","9","main_expt",""
"","bandit","90","240981","0.0-51.0-0.0","37423446","wem/bandit_party_2","A1KET5Z038NMWD","either","4","359","","","","","","","0","0","1","","0.7313552403","0.2","0.6","0.4","0.8","0.7313552403","0.791363481","0.5629201009","0.40569916","","","","","","","","","","","","","","72","H","0","img/none_selected.jpg","","10","main_expt",""
"","bandit","91","242903","0.0-52.0-0.0","37423446","wem/bandit_party_2","A1KET5Z038NMWD","either","4","415","","","","","","","1","0","0","0.7800632456","","0.2","0.6","0.4","0.8","","","","","0.8129169819","0.7800632456","0.644159789","0.4188021694","","","","","","","","","","74","J","1","","","11","main_expt",""
"","bandit","92","244735","0.0-53.0-0.0","37423446","wem/bandit_party_2","A1KET5Z038NMWD","either","4","326","","","","","","","0","0","1","0.7559884596","","0.2","0.6","0.4","0.8","","","","","0.7611571711","0.7559884596","0.6840372722","0.3689559917","","","","","","","","","","74","J","1","","","12","main_expt",""
"","bandit","93","246587","0.0-54.0-0.0","37423446","wem/bandit_party_2","A1KET5Z038NMWD","either","4","346","","","","","","","1","0","0","0.7695577991","","0.2","0.6","0.4","0.8","","","","","0.7628417147","0.7695577991","0.6236151953","0.4584943612","","","","","","","","","","74","J","1","","","13","main_expt",""
"","bandit","94","248396","0.0-55.0-0.0","37423446","wem/bandit_party_2","A1KET5Z038NMWD","either","4","303","","","","","","","0","0","1","","0.5388331182","0.2","0.6","0.4","0.8","0.7436451733","0.8509931145","0.5388331182","0.455083938","","","","","","","","","","","","","","75","K","2","","","14","main_expt",""
"","bandit","95","250852","0.0-56.0-0.0","37423446","wem/bandit_party_2","A1KET5Z038NMWD","either","4","950","","","","","","","0","0","1","","0.4802769188","0.2","0.6","0.4","0.8","0.8256008488","0.7745856811","0.4802769188","0.5360112786","","","","","","","","","","","","","","75","K","2","","","15","main_expt",""
"","bandit","96","252584","0.0-57.0-0.0","37423446","wem/bandit_party_2","A1KET5Z038NMWD","either","4","226","","","","","","","1","0","0","0.4791571541","","0.2","0.6","0.4","0.8","","","","","0.7683027423","0.7576521113","0.4688000192","0.4791571541","","","","","","","","","","76","L","3","","","16","main_expt",""
"","bandit","97","254750","0.0-58.0-0.0","37423446","wem/bandit_party_2","A1KET5Z038NMWD","either","4","661","","","","","","","0","0","1","0.5263630166","","0.2","0.6","0.4","0.8","","","","","0.7857675768","0.8099558365","0.6000602573","0.5263630166","","","","","","","","","","76","L","3","","","17","main_expt",""
"","bandit","98","256562","0.0-59.0-0.0","37423446","wem/bandit_party_2","A1KET5Z038NMWD","either","4","304","","","","","","","0","1","0","","0.7303419725","0.2","0.6","0.4","0.8","0.7303419725","0.7535280451","0.6046592687","0.543945959","","","","","","","","","","","","","","72","H","0","img/none_selected.jpg","","18","main_expt",""
"","bandit","99","258511","0.0-60.0-0.0","37423446","wem/bandit_party_2","A1KET5Z038NMWD","either","4","443","","","","","","","0","0","1","","0.7243255268","0.2","0.6","0.4","0.8","0.7243255268","0.7206444799","0.6177236116","0.4579801682","","","","","","","","","","","","","","72","H","0","img/none_selected.jpg","","19","main_expt",""
"","bandit","100","260303","0.0-61.0-0.0","37423446","wem/bandit_party_2","A1KET5Z038NMWD","either","4","286","","","","","","","0","1","0","","0.7691283854","0.2","0.6","0.4","0.8","0.7691283854","0.6388551968","0.5484637992","0.5439896582","","","","","","","","","","","","","","72","H","0","img/none_selected.jpg","","20","main_expt",""
"","bandit","101","262299","0.0-62.0-0.0","37423446","wem/bandit_party_2","A1KET5Z038NMWD","either","4","490","","","","","","","0","1","0","","0.7068464658","0.2","0.6","0.4","0.8","0.7068464658","0.4956822649","0.6646151354","0.5796019833","","","","","","","","","","","","","","72","H","0","img/none_selected.jpg","","21","main_expt",""
"","bandit","102","264346","0.0-63.0-0.0","37423446","wem/bandit_party_2","A1KET5Z038NMWD","either","4","541","","","","","","","0","1","0","","0.7407239748","0.2","0.6","0.4","0.8","0.7407239748","0.4316307404","0.7223938077","0.5885929095","","","","","","","","","","","","","","72","H","0","img/none_selected.jpg","","22","main_expt",""
"","bandit","103","266238","0.0-64.0-0.0","37423446","wem/bandit_party_2","A1KET5Z038NMWD","either","4","387","","","","","","","0","0","1","","0.7300920021","0.2","0.6","0.4","0.8","0.7300920021","0.4158022912","0.7548690184","0.4899642796","","","","","","","","","","","","","","72","H","0","img/none_selected.jpg","","23","main_expt",""
"","bandit","104","268059","0.0-65.0-0.0","37423446","wem/bandit_party_2","A1KET5Z038NMWD","either","4","315","","","","","","","1","0","0","0.7074307303","","0.2","0.6","0.4","0.8","","","","","0.7074307303","0.4099928258","0.7794954679","0.4984159311","","","","","","","","","","72","H","0","img/none_selected.jpg","","24","main_expt",""
"","bandit","105","270086","0.0-66.0-0.0","37423446","wem/bandit_party_2","A1KET5Z038NMWD","either","4","521","","","","","","","0","1","0","","0.6228099684","0.2","0.6","0.4","0.8","0.6228099684","0.4303724308","0.8029664172","0.5885503773","","","","","","","","","","","","","","72","H","0","img/none_selected.jpg","","25","main_expt",""
"","bandit","106","271958","0.0-67.0-0.0","37423446","wem/bandit_party_2","A1KET5Z038NMWD","either","4","366","","","","","","","0","0","1","","0.5588879168","0.2","0.6","0.4","0.8","0.5588879168","0.3291624114","0.6980766755","0.6978100054","","","","","","","","","","","","","","72","H","0","img/none_selected.jpg","","26","main_expt",""
"","bandit","107","273800","0.0-68.0-0.0","37423446","wem/bandit_party_2","A1KET5Z038NMWD","either","4","336","","","","","","","0","0","1","0.5033257713","","0.2","0.6","0.4","0.8","","","","","0.5033257713","0.3795789415","0.7021498626","0.6442468271","","","","","","","","","","72","H","0","img/none_selected.jpg","","27","main_expt",""
"","bandit","108","275607","0.0-69.0-0.0","37423446","wem/bandit_party_2","A1KET5Z038NMWD","either","4","301","","","","","","","0","1","0","","0.7802436781","0.2","0.6","0.4","0.8","0.4915102133","0.3208573938","0.7802436781","0.7399213538","","","","","","","","","","","","","","75","K","2","","","28","main_expt",""
"","bandit","109","277384","0.0-70.0-0.0","37423446","wem/bandit_party_2","A1KET5Z038NMWD","either","4","271","","","","","","","0","0","1","0.6907923131","","0.2","0.6","0.4","0.8","","","","","0.4291187576","0.3352919619","0.6907923131","0.7520253205","","","","","","","","","","75","K","2","","","29","main_expt",""
"","bandit","110","279281","0.0-71.0-0.0","37423446","wem/bandit_party_2","A1KET5Z038NMWD","either","4","390","","","","","","","0","0","1","","0.6771306444","0.2","0.6","0.4","0.8","0.5379907803","0.3452717309","0.6771306444","0.7528469829","","","","","","","","","","","","","","75","K","2","","","30","main_expt",""
"","bandit","111","281084","0.0-72.0-0.0","37423446","wem/bandit_party_2","A1KET5Z038NMWD","either","4","298","","","","","","","0","1","0","","0.7130915948","0.2","0.6","0.4","0.8","0.646046857","0.2967094522","0.7130915948","0.7571908429","","","","","","","","","","","","","","75","K","2","","","31","main_expt",""
"","bandit","112","282904","0.0-73.0-0.0","37423446","wem/bandit_party_2","A1KET5Z038NMWD","either","4","312","","","","","","","1","0","0","0.6849190202","","0.2","0.6","0.4","0.8","","","","","0.5608885347","0.255781972","0.6849190202","0.7530934884","","","","","","","","","","75","K","2","","","32","main_expt",""
"","bandit","113","284712","0.0-74.0-0.0","37423446","wem/bandit_party_2","A1KET5Z038NMWD","either","4","303","","","","","","","0","1","0","","0.7392612035","0.2","0.6","0.4","0.8","0.5952322697","0.2703771925","0.7392612035","0.7163673585","","","","","","","","","","","","","","75","K","2","","","33","main_expt",""
"","bandit","114","286576","0.0-75.0-0.0","37423446","wem/bandit_party_2","A1KET5Z038NMWD","either","4","353","","","","","","","0","1","0","","0.7026009082","0.2","0.6","0.4","0.8","0.6206609301","0.3572673824","0.7026009082","0.6817248107","","","","","","","","","","","","","","75","K","2","","","34","main_expt",""
"","bandit","115","288421","0.0-76.0-0.0","37423446","wem/bandit_party_2","A1KET5Z038NMWD","either","4","340","","","","","","","0","0","1","","0.632003728","0.2","0.6","0.4","0.8","0.6223058769","0.3237575066","0.632003728","0.6903641832","","","","","","","","","","","","","","75","K","2","","","35","main_expt",""
"","bandit","116","290092","0.0-77.0-0.0","37423446","wem/bandit_party_2","A1KET5Z038NMWD","either","4","164","","","","","","","0","1","0","","0.3724209237","0.2","0.6","0.4","0.8","0.7304722347","0.3724209237","0.7266912659","0.6953747248","","","","","","","","","","","","","","74","J","1","","","36","main_expt",""
"","bandit","117","291897","0.0-78.0-0.0","37423446","wem/bandit_party_2","A1KET5Z038NMWD","either","4","300","","","","","","","0","0","1","","0.3848591071","0.2","0.6","0.4","0.8","0.6789706255","0.3848591071","0.5512211225","0.7552078918","","","","","","","","","","","","","","74","J","1","","","37","main_expt",""
"","bandit","118","293704","0.0-79.0-0.0","37423446","wem/bandit_party_2","A1KET5Z038NMWD","either","4","301","","","","","","","0","0","1","0.4026628424","","0.2","0.6","0.4","0.8","","","","","0.6758320082","0.4026628424","0.5888446875","0.7095976639","","","","","","","","","","74","J","1","","","38","main_expt",""
"","bandit","119","296041","0.0-80.0-0.0","37423446","wem/bandit_party_2","A1KET5Z038NMWD","either","4","831","","","","","","","1","0","0","0.7813817897","","0.2","0.6","0.4","0.8","","","","","0.753286291","0.460229008","0.7349010221","0.7813817897","","","","","","","","","","76","L","3","","","39","main_expt",""
"","bandit","120","298004","0.0-81.0-0.0","37423446","wem/bandit_party_2","A1KET5Z038NMWD","either","4","457","","","","","","","0","0","1","0.7604460558","","0.2","0.6","0.4","0.8","","","","","0.7527041006","0.3392787789","0.6715391024","0.7604460558","","","","","","","","","","76","L","3","","","40","main_expt",""
"","bandit","121","299839","0.0-82.0-0.0","37423446","wem/bandit_party_2","A1KET5Z038NMWD","either","4","330","","","","","","","1","0","0","0.7588214983","","0.2","0.6","0.4","0.8","","","","","0.7900808451","0.2983701942","0.688235262","0.7588214983","","","","","","","","","","76","L","3","","","41","main_expt",""
"","bandit","122","301648","0.0-83.0-0.0","37423446","wem/bandit_party_2","A1KET5Z038NMWD","either","4","302","","","","","","","0","0","1","0.8204813903","","0.2","0.6","0.4","0.8","","","","","0.7261157662","0.2390858253","0.750516412","0.8204813903","","","","","","","","","","76","L","3","","","42","main_expt",""
"","bandit","123","303475","0.0-84.0-0.0","37423446","wem/bandit_party_2","A1KET5Z038NMWD","either","4","322","","","","","","","0","1","0","","0.772887471","0.2","0.6","0.4","0.8","0.772887471","0.1877526289","0.775378891","0.8310219988","","","","","","","","","","","","","","72","H","0","img/none_selected.jpg","","43","main_expt",""
"","bandit","124","305449","0.0-85.0-0.0","37423446","wem/bandit_party_2","A1KET5Z038NMWD","either","4","467","","","","","","","0","0","1","","0.7359848823","0.2","0.6","0.4","0.8","0.7359848823","0.2713877418","0.5983035632","0.8165903167","","","","","","","","","","","","","","72","H","0","img/none_selected.jpg","","44","main_expt",""
"","bandit","125","307389","0.0-86.0-0.0","37423446","wem/bandit_party_2","A1KET5Z038NMWD","either","4","434","","","","","","","0","0","1","","0.6223954065","0.2","0.6","0.4","0.8","0.6223954065","0.2600408605","0.6453890447","0.6765015189","","","","","","","","","","","","","","72","H","0","img/none_selected.jpg","","45","main_expt",""
"","bandit","126","309571","0.0-87.0-0.0","37423446","wem/bandit_party_2","A1KET5Z038NMWD","either","4","675","","","","","","","0","0","1","","0.5963379238","0.2","0.6","0.4","0.8","0.5963379238","0.2435580982","0.4979639723","0.6613510417","","","","","","","","","","","","","","72","H","0","img/none_selected.jpg","","46","main_expt",""
"","bandit","127","311386","0.0-88.0-0.0","37423446","wem/bandit_party_2","A1KET5Z038NMWD","either","4","308","","","","","","","0","1","0","","0.6161308884","0.2","0.6","0.4","0.8","0.6161308884","0.3258971046","0.4475739324","0.7373034573","","","","","","","","","","","","","","72","H","0","img/none_selected.jpg","","47","main_expt",""
"","bandit","128","313176","0.0-89.0-0.0","37423446","wem/bandit_party_2","A1KET5Z038NMWD","either","4","284","","","","","","","1","0","0","0.2934977076","","0.2","0.6","0.4","0.8","","","","","0.6354722558","0.2934977076","0.570942939","0.6580913366","","","","","","","","","","74","J","1","","","48","main_expt",""
"","bandit","129","315040","0.0-90.0-0.0","37423446","wem/bandit_party_2","A1KET5Z038NMWD","either","4","359","","","","","","","0","0","1","0.3381222087","","0.2","0.6","0.4","0.8","","","","","0.5941747261","0.3381222087","0.5943858444","0.6518545324","","","","","","","","","","74","J","1","","","49","main_expt",""
"","bandit","130","316968","0.0-91.0-0.0","37423446","wem/bandit_party_2","A1KET5Z038NMWD","either","4","423","","","","","","","0","1","0","","0.4149653651","0.2","0.6","0.4","0.8","0.5510631732","0.4149653651","0.72156704","0.6362385309","","","","","","","","","","","","","","74","J","1","","","50","main_expt",""
"","bandit","131","318832","0.0-92.0-0.0","37423446","wem/bandit_party_2","A1KET5Z038NMWD","either","4","356","","","","","","","0","0","1","","0.315936401","0.2","0.6","0.4","0.8","0.5580995271","0.315936401","0.6453884322","0.6673370403","","","","","","","","","","","","","","74","J","1","","","51","main_expt",""
"","bandit","132","320754","0.0-93.0-0.0","37423446","wem/bandit_party_2","A1KET5Z038NMWD","either","4","416","","","","","","","1","0","0","0.34776451","","0.2","0.6","0.4","0.8","","","","","0.4492126091","0.34776451","0.635653338","0.6614759556","","","","","","","","","","74","J","1","","","52","main_expt",""
"","bandit","133","322719","0.0-94.0-0.0","37423446","wem/bandit_party_2","A1KET5Z038NMWD","either","4","457","","","","","","","0","1","0","","0.4600129001","0.2","0.6","0.4","0.8","0.4600129001","0.2946288454","0.5700640027","0.5099009019","","","","","","","","","","","","","","72","H","0","img/none_selected.jpg","","53","main_expt",""
"","bandit","134","324715","0.0-95.0-0.0","37423446","wem/bandit_party_2","A1KET5Z038NMWD","either","4","491","","","","","","","0","1","0","","0.4005354829","0.2","0.6","0.4","0.8","0.4005354829","0.3757560715","0.4535518587","0.5323874036","","","","","","","","","","","","","","72","H","0","img/none_selected.jpg","","54","main_expt",""
"","bandit","135","327541","0.0-96.0-0.0","37423446","wem/bandit_party_2","A1KET5Z038NMWD","either","4","1321","","","","","","","0","0","1","","0.3305694417","0.2","0.6","0.4","0.8","0.3305694417","0.3258455482","0.4271895083","0.5410243768","","","","","","","","","","","","","","72","H","0","img/none_selected.jpg","","55","main_expt",""
"","bandit","136","333380","0.0-97.0-0.0","37423446","wem/bandit_party_2","A1KET5Z038NMWD","either","4","4332","","","","","","","0","1","0","","0.3443449075","0.2","0.6","0.4","0.8","0.3443449075","0.4350401219","0.3506641683","0.5594159285","","","","","","","","","","","","","","72","H","0","img/none_selected.jpg","","56","main_expt",""
"","bandit","137","335834","0.0-98.0-0.0","37423446","wem/bandit_party_2","A1KET5Z038NMWD","either","4","949","","","","","","","0","0","1","0.3719720486","","0.2","0.6","0.4","0.8","","","","","0.3719720486","0.3707313189","0.3266461122","0.5057935102","","","","","","","","","","72","H","0","img/none_selected.jpg","","57","main_expt",""
"","bandit","138","337614","0.0-99.0-0.0","37423446","wem/bandit_party_2","A1KET5Z038NMWD","either","4","274","","","","","","","0","0","1","","0.2230753252","0.2","0.6","0.4","0.8","0.2230753252","0.5588799977","0.3024401834","0.4921421838","","","","","","","","","","","","","","72","H","0","img/none_selected.jpg","","58","main_expt",""
"","bandit","139","339358","0.0-100.0-0.0","37423446","wem/bandit_party_2","A1KET5Z038NMWD","either","4","238","","","","","","","0","1","0","","0.6863198467","0.2","0.6","0.4","0.8","0.2255195526","0.6863198467","0.4306619987","0.4740341295","","","","","","","","","","","","","","74","J","1","","","59","main_expt",""
"","bandit","140","341240","0.0-101.0-0.0","37423446","wem/bandit_party_2","A1KET5Z038NMWD","either","4","375","","","","","","","0","0","1","0.6998437478","","0.2","0.6","0.4","0.8","","","","","0.2150487889","0.6998437478","0.4710521126","0.4853159436","","","","","","","","","","74","J","1","","","60","main_expt",""
"","bandit","141","343032","0.0-102.0-0.0","37423446","wem/bandit_party_2","A1KET5Z038NMWD","either","4","288","","","","","","","0","1","0","","0.7027468204","0.2","0.6","0.4","0.8","0.2670703017","0.7027468204","0.4797168847","0.4843563089","","","","","","","","","","","","","","74","J","1","","","61","main_expt",""
"","bandit","142","344823","0.0-103.0-0.0","37423446","wem/bandit_party_2","A1KET5Z038NMWD","either","4","283","","","","","","","0","1","0","","0.7461433662","0.2","0.6","0.4","0.8","0.1622034337","0.7461433662","0.441351191","0.4970562682","","","","","","","","","","","","","","74","J","1","","","62","main_expt",""
"","bandit","143","346648","0.0-104.0-0.0","37423446","wem/bandit_party_2","A1KET5Z038NMWD","either","4","319","","","","","","","0","0","1","","0.7956877632","0.2","0.6","0.4","0.8","0.1872430185","0.7956877632","0.6405696824","0.4870743105","","","","","","","","","","","","","","74","J","1","","","63","main_expt",""
"","bandit","144","348485","0.0-105.0-0.0","37423446","wem/bandit_party_2","A1KET5Z038NMWD","either","4","331","","","","","","","0","1","0","","0.7533911137","0.2","0.6","0.4","0.8","0.1921602407","0.7533911137","0.5093225209","0.5297884171","","","","","","","","","","","","","","74","J","1","","","64","main_expt",""
"","bandit","145","350941","0.0-106.0-0.0","37423446","wem/bandit_party_2","A1KET5Z038NMWD","either","4","949","","","","","","","0","0","1","","0.5510281753","0.2","0.6","0.4","0.8","0.1747679693","0.8407665504","0.5190422554","0.5510281753","","","","","","","","","","","","","","76","L","3","","","65","main_expt",""
"","bandit","146","352748","0.0-107.0-0.0","37423446","wem/bandit_party_2","A1KET5Z038NMWD","either","4","301","","","","","","","0","0","1","0.6548378986","","0.2","0.6","0.4","0.8","","","","","0.149475979","0.8392190168","0.4367989657","0.6548378986","","","","","","","","","","76","L","3","","","66","main_expt",""
"","bandit","147","354512","0.0-108.0-0.0","37423446","wem/bandit_party_2","A1KET5Z038NMWD","either","4","259","","","","","","","0","1","0","","0.7873643744","0.2","0.6","0.4","0.8","0.1340316754","0.7998105719","0.4515976155","0.7873643744","","","","","","","","","","","","","","76","L","3","","","67","main_expt",""
"","bandit","148","356591","0.0-109.0-0.0","37423446","wem/bandit_party_2","A1KET5Z038NMWD","either","4","571","","","","","","","1","0","0","0.8374830125","","0.2","0.6","0.4","0.8","","","","","0.1635100664","0.8055175736","0.4605235732","0.8374830125","","","","","","","","","","76","L","3","","","68","main_expt",""
"","bandit","149","358455","0.0-110.0-0.0","37423446","wem/bandit_party_2","A1KET5Z038NMWD","either","4","359","","","","","","","0","0","1","","0.7948054761","0.2","0.6","0.4","0.8","0.1227365859","0.9157616325","0.3799115548","0.7948054761","","","","","","","","","","","","","","76","L","3","","","69","main_expt",""
"","bandit","150","360299","0.0-111.0-0.0","37423446","wem/bandit_party_2","A1KET5Z038NMWD","either","4","337","","","","","","","1","0","0","0.8257183208","","0.2","0.6","0.4","0.8","","","","","0.1248437045","0.9575411193","0.4215965018","0.8257183208","","","","","","","","","","76","L","3","","","70","main_expt",""
"","bandit","151","362150","0.0-112.0-0.0","37423446","wem/bandit_party_2","A1KET5Z038NMWD","either","4","344","","","","","","","1","0","0","0.7378076352","","0.2","0.6","0.4","0.8","","","","","0.1153860856","0.9604429572","0.4069040491","0.7378076352","","","","","","","","","","76","L","3","","","71","main_expt",""
"","bandit","152","364100","0.0-113.0-0.0","37423446","wem/bandit_party_2","A1KET5Z038NMWD","either","4","444","","","","","","","1","0","0","0.7402058239","","0.2","0.6","0.4","0.8","","","","","0.1355011504","0.9598545795","0.4396577013","0.7402058239","","","","","","","","","","76","L","3","","","72","main_expt",""
"","bandit","153","365926","0.0-114.0-0.0","37423446","wem/bandit_party_2","A1KET5Z038NMWD","either","4","320","","","","","","","0","1","0","","0.05996807606","0.2","0.6","0.4","0.8","0.05996807606","0.944667289","0.6562772762","0.6976791507","","","","","","","","","","","","","","72","H","0","img/none_selected.jpg","","73","main_expt",""
"","bandit","154","368140","0.0-115.0-0.0","37423446","wem/bandit_party_2","A1KET5Z038NMWD","either","4","707","","","","","","","0","0","1","","0.05405538329","0.2","0.6","0.4","0.8","0.05405538329","0.9226304804","0.6973429816","0.7918365236","","","","","","","","","","","","","","72","H","0","img/none_selected.jpg","","74","main_expt",""
"","bandit","155","370256","0.0-116.0-0.0","37423446","wem/bandit_party_2","A1KET5Z038NMWD","either","4","609","","","","","","","0","0","1","","0.02989929625","0.2","0.6","0.4","0.8","0.02989929625","0.9398646798","0.7736122178","0.7822783488","","","","","","","","","","","","","","72","H","0","img/none_selected.jpg","","75","main_expt",""
"","bandit","156","372288","0.0-117.0-0.0","37423446","wem/bandit_party_2","A1KET5Z038NMWD","either","4","526","","","","","","","0","0","1","","0.0563551135","0.2","0.6","0.4","0.8","0.0563551135","0.9344412274","0.8130420724","0.7290889389","","","","","","","","","","","","","","72","H","0","img/none_selected.jpg","","76","main_expt",""
"","bandit","157","374147","0.0-118.0-0.0","37423446","wem/bandit_party_2","A1KET5Z038NMWD","either","4","353","","","","","","","0","0","1","","0.0510075381","0.2","0.6","0.4","0.8","0.0510075381","0.9512527415","0.8182773084","0.7903383215","","","","","","","","","","","","","","72","H","0","img/none_selected.jpg","","77","main_expt",""
"","bandit","158","375740","0.0-119.0-0.0","37423446","wem/bandit_party_2","A1KET5Z038NMWD","either","4","87","","","","","","","1","0","0","0.945324638","","0.2","0.6","0.4","0.8","","","","","0.07280641377","0.945324638","0.910984946","0.8093770606","","","","","","","","","","74","J","1","","","78","main_expt",""
"","bandit","159","377576","0.0-120.0-0.0","37423446","wem/bandit_party_2","A1KET5Z038NMWD","either","4","330","","","","","","","0","1","0","","0.9313693401","0.2","0.6","0.4","0.8","0.06591604593","0.9313693401","0.9303795674","0.7310189459","","","","","","","","","","","","","","74","J","1","","","79","main_expt",""
"","bandit","160","379480","0.0-121.0-0.0","37423446","wem/bandit_party_2","A1KET5Z038NMWD","either","4","397","","","","","","","1","0","0","0.9272018461","","0.2","0.6","0.4","0.8","","","","","0.02790121052","0.9272018461","0.9581515868","0.7915113188","","","","","","","","","","74","J","1","","","80","main_expt",""
"","bandit","161","381390","0.0-122.0-0.0","37423446","wem/bandit_party_2","A1KET5Z038NMWD","either","4","403","","","","","","","1","0","0","0.9340165544","","0.2","0.6","0.4","0.8","","","","","0.03997429631","0.9340165544","0.9107397581","0.8463201033","","","","","","","","","","74","J","1","","","81","main_expt",""
"","bandit","162","383235","0.0-123.0-0.0","37423446","wem/bandit_party_2","A1KET5Z038NMWD","either","4","339","","","","","","","1","0","0","0.9778602254","","0.2","0.6","0.4","0.8","","","","","0.03692483048","0.9778602254","0.9531247327","0.9043915002","","","","","","","","","","74","J","1","","","82","main_expt",""
"","bandit","163","385206","0.0-124.0-0.0","37423446","wem/bandit_party_2","A1KET5Z038NMWD","either","4","465","","","","","","","1","0","0","0.9593015187","","0.2","0.6","0.4","0.8","","","","","0.04167024954","0.9593015187","0.91574064","0.922294541","","","","","","","","","","74","J","1","","","83","main_expt",""
"","bandit","164","387070","0.0-125.0-0.0","37423446","wem/bandit_party_2","A1KET5Z038NMWD","either","4","357","","","","","","","0","1","0","","0.9398758864","0.2","0.6","0.4","0.8","0.03449326924","0.9398758864","0.9287460716","0.9079954767","","","","","","","","","","","","","","74","J","1","","","84","main_expt",""
"","bandit","165","389595","0.0-126.0-0.0","37423446","wem/bandit_party_2","A1KET5Z038NMWD","either","4","1016","","","","","","","1","0","0","0.9256746213","","0.2","0.6","0.4","0.8","","","","","0.07382848834","0.9256746213","0.9817994773","0.92293493","","","","","","","","","","74","J","1","","","85","main_expt",""
"","bandit","166","391729","0.0-127.0-0.0","37423446","wem/bandit_party_2","A1KET5Z038NMWD","either","4","626","","","","","","","1","0","0","0.8910640916","","0.2","0.6","0.4","0.8","","","","","0.08839198485","0.8910640916","0.9651028603","0.8831043051","","","","","","","","","","74","J","1","","","86","main_expt",""
"","bandit","167","393590","0.0-128.0-0.0","37423446","wem/bandit_party_2","A1KET5Z038NMWD","either","4","355","","","","","","","1","0","0","0.8729480744","","0.2","0.6","0.4","0.8","","","","","0.08767612821","0.8729480744","0.9364705545","0.876749115","","","","","","","","","","74","J","1","","","87","main_expt",""
"","bandit","168","395810","0.0-129.0-0.0","37423446","wem/bandit_party_2","A1KET5Z038NMWD","either","4","713","","","","","","","0","1","0","","0.9235767634","0.2","0.6","0.4","0.8","0.1606359608","0.8780151739","0.9235767634","0.9189432589","","","","","","","","","","","","","","75","K","2","","","88","main_expt",""
"","bandit","169","397670","0.0-130.0-0.0","37423446","wem/bandit_party_2","A1KET5Z038NMWD","either","4","354","","","","","","","0","1","0","","0.9375107972","0.2","0.6","0.4","0.8","0.2051996915","0.8856980863","0.9375107972","0.8770582065","","","","","","","","","","","","","","75","K","2","","","89","main_expt",""
"","bandit","170","399507","0.0-131.0-0.0","37423446","wem/bandit_party_2","A1KET5Z038NMWD","either","4","331","","","","","","","0","1","0","","0.9201099193","0.2","0.6","0.4","0.8","0.1757431166","0.8828292745","0.9201099193","0.9303780437","","","","","","","","","","","","","","75","K","2","","","90","main_expt",""
"","bandit","171","401383","0.0-132.0-0.0","37423446","wem/bandit_party_2","A1KET5Z038NMWD","either","4","369","","","","","","","1","0","0","0.9416722714","","0.2","0.6","0.4","0.8","","","","","0.3470073597","0.9016480115","0.9416722714","0.8870296602","","","","","","","","","","75","K","2","","","91","main_expt",""
"","bandit","172","403230","0.0-133.0-0.0","37423446","wem/bandit_party_2","A1KET5Z038NMWD","either","4","340","","","","","","","1","0","0","0.943817784","","0.2","0.6","0.4","0.8","","","","","0.4969118024","0.9077272713","0.943817784","0.8466670433","","","","","","","","","","75","K","2","","","92","main_expt",""
"","bandit","173","405041","0.0-134.0-0.0","37423446","wem/bandit_party_2","A1KET5Z038NMWD","either","4","304","","","","","","","0","1","0","","0.9078517942","0.2","0.6","0.4","0.8","0.5773598144","0.875936713","0.9078517942","0.850017275","","","","","","","","","","","","","","75","K","2","","","93","main_expt",""
"","bandit","174","406880","0.0-135.0-0.0","37423446","wem/bandit_party_2","A1KET5Z038NMWD","either","4","331","","","","","","","1","0","0","0.8983200186","","0.2","0.6","0.4","0.8","","","","","0.5513550223","0.8089346838","0.8983200186","0.6893652978","","","","","","","","","","75","K","2","","","94","main_expt",""
"","bandit","175","408673","0.0-136.0-0.0","37423446","wem/bandit_party_2","A1KET5Z038NMWD","either","4","286","","","","","","","0","1","0","","0.8744309931","0.2","0.6","0.4","0.8","0.5461825447","0.7472177953","0.8744309931","0.6025630118","","","","","","","","","","","","","","75","K","2","","","95","main_expt",""
"","bandit","176","410534","0.0-137.0-0.0","37423446","wem/bandit_party_2","A1KET5Z038NMWD","either","4","356","","","","","","","0","1","0","","0.8894212924","0.2","0.6","0.4","0.8","0.5564841108","0.631257407","0.8894212924","0.5565182624","","","","","","","","","","","","","","75","K","2","","","96","main_expt",""
"","bandit","177","412333","0.0-138.0-0.0","37423446","wem/bandit_party_2","A1KET5Z038NMWD","either","4","290","","","","","","","1","0","0","0.891162681","","0.2","0.6","0.4","0.8","","","","","0.6513715187","0.7474787878","0.891162681","0.4820287155","","","","","","","","","","75","K","2","","","97","main_expt",""
"","bandit","178","414127","0.0-139.0-0.0","37423446","wem/bandit_party_2","A1KET5Z038NMWD","either","4","288","","","","","","","1","0","0","0.8495400438","","0.2","0.6","0.4","0.8","","","","","0.7004254565","0.7753317291","0.8495400438","0.4599621431","","","","","","","","","","75","K","2","","","98","main_expt",""
"","bandit","179","416135","0.0-140.0-0.0","37423446","wem/bandit_party_2","A1KET5Z038NMWD","either","4","502","","","","","","","1","0","0","0.7088399779","","0.2","0.6","0.4","0.8","","","","","0.6473310623","0.7088399779","0.8671572546","0.4109144258","","","","","","","","","","74","J","1","","","99","main_expt",""
"","bandit","180","417930","0.0-141.0-0.0","37423446","wem/bandit_party_2","A1KET5Z038NMWD","either","4","286","","","","","","","1","0","0","0.7328055719","","0.2","0.6","0.4","0.8","","","","","0.6160818326","0.7328055719","0.8312294914","0.3466085394","","","","","","","","","","74","J","1","","","100","main_expt",""
"","bandit","181","419775","0.0-142.0-0.0","37423446","wem/bandit_party_2","A1KET5Z038NMWD","either","4","337","","","","","","","1","0","0","0.8183789849","","0.2","0.6","0.4","0.8","","","","","0.6963675268","0.8183789849","0.8135240708","0.3712289037","","","","","","","","","","74","J","1","","","101","main_expt",""
"","bandit","182","421568","0.0-143.0-0.0","37423446","wem/bandit_party_2","A1KET5Z038NMWD","either","4","286","","","","","","","1","0","0","0.7854635714","","0.2","0.6","0.4","0.8","","","","","0.6339579424","0.7854635714","0.8556055773","0.3626324234","","","","","","","","","","74","J","1","","","102","main_expt",""
"","bandit","183","423341","0.0-144.0-0.0","37423446","wem/bandit_party_2","A1KET5Z038NMWD","either","4","266","","","","","","","0","0","1","","0.8481411385","0.2","0.6","0.4","0.8","0.6908430899","0.8481411385","0.7632006143","0.2748825764","","","","","","","","","","","","","","74","J","1","","","103","main_expt",""
"","bandit","184","425115","0.0-145.0-0.0","37423446","wem/bandit_party_2","A1KET5Z038NMWD","either","4","267","","","","","","","0","0","1","","0.6866318891","0.2","0.6","0.4","0.8","0.6866318891","0.8129446485","0.8273213265","0.2381725209","","","","","","","","","","","","","","72","H","0","img/none_selected.jpg","","104","main_expt",""
"","bandit","185","426880","0.0-146.0-0.0","37423446","wem/bandit_party_2","A1KET5Z038NMWD","either","4","258","","","","","","","1","0","0","0.6749941214","","0.2","0.6","0.4","0.8","","","","","0.6749941214","0.7898688037","0.7930501456","0.1939551764","","","","","","","","","","72","H","0","img/none_selected.jpg","","105","main_expt",""
"","bandit","186","428690","0.0-147.0-0.0","37423446","wem/bandit_party_2","A1KET5Z038NMWD","either","4","304","","","","","","","0","1","0","","0.7300347885","0.2","0.6","0.4","0.8","0.7300347885","0.7810744832","0.7186603115","0.1884153881","","","","","","","","","","","","","","72","H","0","img/none_selected.jpg","","106","main_expt",""
"","bandit","187","430514","0.0-148.0-0.0","37423446","wem/bandit_party_2","A1KET5Z038NMWD","either","4","317","","","","","","","0","1","0","","0.8133516847","0.2","0.6","0.4","0.8","0.8133516847","0.7837395221","0.7155595947","0.1011451677","","","","","","","","","","","","","","72","H","0","img/none_selected.jpg","","107","main_expt",""
"","bandit","188","432473","0.0-149.0-0.0","37423446","wem/bandit_party_2","A1KET5Z038NMWD","either","4","452","","","","","","","0","1","0","","0.8009432675","0.2","0.6","0.4","0.8","0.8009432675","0.787971135","0.7654707556","0.1500242655","","","","","","","","","","","","","","72","H","0","img/none_selected.jpg","","108","main_expt",""
"","bandit","189","434304","0.0-150.0-0.0","37423446","wem/bandit_party_2","A1KET5Z038NMWD","either","4","325","","","","","","","1","0","0","0.7379370491","","0.2","0.6","0.4","0.8","","","","","0.7379370491","0.6866525704","0.6288612937","0.1285750889","","","","","","","","","","72","H","0","img/none_selected.jpg","","109","main_expt",""
"","bandit","190","436116","0.0-151.0-0.0","37423446","wem/bandit_party_2","A1KET5Z038NMWD","either","4","304","","","","","","","0","0","1","","0.7379992527","0.2","0.6","0.4","0.8","0.7379992527","0.5824748378","0.6309058105","0.06279291231","","","","","","","","","","","","","","72","H","0","img/none_selected.jpg","","110","main_expt",""
"","bandit","191","437926","0.0-152.0-0.0","37423446","wem/bandit_party_2","A1KET5Z038NMWD","either","4","303","","","","","","","0","0","1","0.7464430213","","0.2","0.6","0.4","0.8","","","","","0.7464430213","0.659702805","0.6218965746","0.07144278273","","","","","","","","","","72","H","0","img/none_selected.jpg","","111","main_expt",""
"","bandit","192","439711","0.0-153.0-0.0","37423446","wem/bandit_party_2","A1KET5Z038NMWD","either","4","278","","","","","","","0","0","1","","0.7736339118","0.2","0.6","0.4","0.8","0.7736339118","0.5111205641","0.6741482942","0.06013221683","","","","","","","","","","","","","","72","H","0","img/none_selected.jpg","","112","main_expt",""
"","bandit","193","441226","0.0-154.0-0.0","37423446","wem/bandit_party_2","A1KET5Z038NMWD","either","4","9","","","","","","","0","0","1","0.1442356489","","0.2","0.6","0.4","0.8","","","","","0.8480767854","0.4852392648","0.7405202534","0.1442356489","","","","","","","","","","76","L","3","","","113","main_expt",""
"","bandit","194","444021","0.0-155.0-0.0","37423446","wem/bandit_party_2","A1KET5Z038NMWD","either","4","1289","","","","","","","0","0","1","","0.1733870882","0.2","0.6","0.4","0.8","0.8016933152","0.3531287621","0.743157628","0.1733870882","","","","","","","","","","","","","","76","L","3","","","114","main_expt",""
"","bandit","195","445908","0.0-156.0-0.0","37423446","wem/bandit_party_2","A1KET5Z038NMWD","either","4","381","","","","","","","0","0","1","0.2198725907","","0.2","0.6","0.4","0.8","","","","","0.8200260584","0.4090792957","0.7732583829","0.2198725907","","","","","","","","","","76","L","3","","","115","main_expt",""
"","bandit","196","447711","0.0-157.0-0.0","37423446","wem/bandit_party_2","A1KET5Z038NMWD","either","4","296","","","","","","","1","0","0","0.6224016225","","0.2","0.6","0.4","0.8","","","","","0.7761954976","0.4927933112","0.6224016225","0.2116870815","","","","","","","","","","75","K","2","","","116","main_expt",""
"","bandit","197","449554","0.0-158.0-0.0","37423446","wem/bandit_party_2","A1KET5Z038NMWD","either","4","337","","","","","","","0","0","1","","0.6784399158","0.2","0.6","0.4","0.8","0.7722233998","0.4255499736","0.6784399158","0.1293815938","","","","","","","","","","","","","","75","K","2","","","117","main_expt",""
"","bandit","198","451493","0.0-159.0-0.0","37423446","wem/bandit_party_2","A1KET5Z038NMWD","either","4","432","","","","","","","1","0","0","0.7499631032","","0.2","0.6","0.4","0.8","","","","","0.8049831996","0.4073726931","0.7499631032","0.1442073762","","","","","","","","","","75","K","2","","","118","main_expt",""
"","bandit","199","453369","0.0-160.0-0.0","37423446","wem/bandit_party_2","A1KET5Z038NMWD","either","4","370","","","","","","","0","1","0","","0.6258432538","0.2","0.6","0.4","0.8","0.8469405197","0.5447318884","0.6258432538","0.2098334931","","","","","","","","","","","","","","75","K","2","","","119","main_expt",""
"","bandit","200","455167","0.0-161.0-0.0","37423446","wem/bandit_party_2","A1KET5Z038NMWD","either","4","290","","","","","","","0","1","0","","0.5602994123","0.2","0.6","0.4","0.8","0.783925966","0.5336717705","0.5602994123","0.243218138","","","","","","","","","","","","","","75","K","2","","","120","main_expt",""
"","bandit","201","457013","0.0-162.0-0.0","37423446","wem/bandit_party_2","A1KET5Z038NMWD","either","4","340","","","","","","","0","1","0","","0.5850644561","0.2","0.6","0.4","0.8","0.8031476983","0.5621279662","0.5850644561","0.1595445902","","","","","","","","","","","","","","75","K","2","","","121","main_expt",""
"","bandit","202","459626","0.0-163.0-0.0","37423446","wem/bandit_party_2","A1KET5Z038NMWD","either","4","1105","","","","","","","1","0","0","0.6205732407","","0.2","0.6","0.4","0.8","","","","","0.776878313","0.5664238538","0.6205732407","0.1939767007","","","","","","","","","","75","K","2","","","122","main_expt",""
"","bandit","203","461905","0.0-164.0-0.0","37423446","wem/bandit_party_2","A1KET5Z038NMWD","either","4","773","","","","","","","1","0","0","0.7954206102","","0.2","0.6","0.4","0.8","","","","","0.7695343448","0.6501842916","0.7954206102","0.2265728871","","","","","","","","","","75","K","2","","","123","main_expt",""
"","bandit","204","464411","0.0-165.0-0.0","37423446","wem/bandit_party_2","A1KET5Z038NMWD","either","4","999","","","","","","","1","0","0","0.5413703051","","0.2","0.6","0.4","0.8","","","","","0.6154230174","0.5413703051","0.881213352","0.2027469411","","","","","","","","","","74","J","1","","","124","main_expt",""
"","bandit","205","466307","0.0-166.0-0.0","37423446","wem/bandit_party_2","A1KET5Z038NMWD","either","4","389","","","","","","","1","0","0","0.5191338098","","0.2","0.6","0.4","0.8","","","","","0.4710930195","0.5191338098","0.8598562332","0.1506135949","","","","","","","","","","74","J","1","","","125","main_expt",""
"","bandit","206","468506","0.0-167.0-0.0","37423446","wem/bandit_party_2","A1KET5Z038NMWD","either","4","690","","","","","","","0","0","1","","0.6232591378","0.2","0.6","0.4","0.8","0.5258886302","0.6232591378","0.867144728","0.1875851228","","","","","","","","","","","","","","74","J","1","","","126","main_expt",""
"","bandit","207","470619","0.0-168.0-0.0","37423446","wem/bandit_party_2","A1KET5Z038NMWD","either","4","607","","","","","","","1","0","0","0.601333273","","0.2","0.6","0.4","0.8","","","","","0.3996486754","0.601333273","0.8677917819","0.2106184636","","","","","","","","","","74","J","1","","","127","main_expt",""
"","bandit","208","472684","0.0-169.0-0.0","37423446","wem/bandit_party_2","A1KET5Z038NMWD","either","4","556","","","","","","","1","0","0","0.6312294041","","0.2","0.6","0.4","0.8","","","","","0.3557241191","0.6312294041","0.8194058857","0.1276240755","","","","","","","","","","74","J","1","","","128","main_expt",""
"","bandit","209","474654","0.0-170.0-0.0","37423446","wem/bandit_party_2","A1KET5Z038NMWD","either","4","459","","","","","","","0","0","1","0.6655034733","","0.2","0.6","0.4","0.8","","","","","0.2432070908","0.6655034733","0.813940224","0.2163335705","","","","","","","","","","74","J","1","","","129","main_expt",""
"","bandit","210","476461","0.0-171.0-0.0","37423446","wem/bandit_party_2","A1KET5Z038NMWD","either","4","299","","","","","","","0","1","0","","0.7296764962","0.2","0.6","0.4","0.8","0.1722843937","0.6882303755","0.7296764962","0.2448863899","","","","","","","","","","","","","","75","K","2","","","130","main_expt",""
"","bandit","211","478331","0.0-172.0-0.0","37423446","wem/bandit_party_2","A1KET5Z038NMWD","either","4","363","","","","","","","0","0","1","","0.614258276","0.2","0.6","0.4","0.8","0.1336027919","0.6772884453","0.614258276","0.3447645787","","","","","","","","","","","","","","75","K","2","","","131","main_expt",""
"","bandit","212","480213","0.0-173.0-0.0","37423446","wem/bandit_party_2","A1KET5Z038NMWD","either","4","375","","","","","","","0","0","1","","0.5349540706","0.2","0.6","0.4","0.8","0.1351629047","0.6773684555","0.5349540706","0.3622527956","","","","","","","","","","","","","","75","K","2","","","132","main_expt",""
"","bandit","213","482032","0.0-174.0-0.0","37423446","wem/bandit_party_2","A1KET5Z038NMWD","either","4","312","","","","","","","0","0","1","","0.5449090787","0.2","0.6","0.4","0.8","0.2495029","0.7437755928","0.5449090787","0.2961885878","","","","","","","","","","","","","","75","K","2","","","133","main_expt",""
"","bandit","214","484154","0.0-175.0-0.0","37423446","wem/bandit_party_2","A1KET5Z038NMWD","either","4","614","","","","","","","0","0","1","","0.2118512663","0.2","0.6","0.4","0.8","0.2118512663","0.7423545867","0.5037108559","0.2932126781","","","","","","","","","","","","","","72","H","0","img/none_selected.jpg","","134","main_expt",""
"","bandit","215","486127","0.0-176.0-0.0","37423446","wem/bandit_party_2","A1KET5Z038NMWD","either","4","466","","","","","","","0","0","1","","0.2474577379","0.2","0.6","0.4","0.8","0.2474577379","0.7462440124","0.5131336393","0.2836439675","","","","","","","","","","","","","","72","H","0","img/none_selected.jpg","","135","main_expt",""
"","bandit","216","488792","0.0-177.0-0.0","37423446","wem/bandit_party_2","A1KET5Z038NMWD","either","4","1153","","","","","","","0","0","1","","0.1496333288","0.2","0.6","0.4","0.8","0.1496333288","0.6372772774","0.5847952324","0.1985775905","","","","","","","","","","","","","","72","H","0","img/none_selected.jpg","","136","main_expt",""
"","bandit","217","490525","0.0-178.0-0.0","37423446","wem/bandit_party_2","A1KET5Z038NMWD","either","4","227","","","","","","","0","0","1","0.2655975","","0.2","0.6","0.4","0.8","","","","","0.164835495","0.6587707878","0.5191620222","0.2655975","","","","","","","","","","76","L","3","","","137","main_expt",""
"","bandit","218","494243","0.0-179.0-0.0","37423446","wem/bandit_party_2","A1KET5Z038NMWD","either","4","2211","","","","","","","0","0","1","","0.4066298912","0.2","0.6","0.4","0.8","0.1629561883","0.6545472314","0.3830682141","0.4066298912","","","","","","","","","","","","","","76","L","3","","","138","main_expt",""
"","bandit","219","495939","0.0-180.0-0.0","37423446","wem/bandit_party_2","A1KET5Z038NMWD","either","4","190","","","","","","","0","0","1","0.5773899651","","0.2","0.6","0.4","0.8","","","","","0.1162724323","0.5773899651","0.3036015776","0.4537429859","","","","","","","","","","74","J","1","","","139","main_expt",""
"","bandit","220","497760","0.0-181.0-0.0","37423446","wem/bandit_party_2","A1KET5Z038NMWD","either","4","314","","","","","","","0","1","0","","0.5786924042","0.2","0.6","0.4","0.8","0.1262651596","0.5786924042","0.2541790234","0.410026376","","","","","","","","","","","","","","74","J","1","","","140","main_expt",""
"","bandit","221","499567","0.0-182.0-0.0","37423446","wem/bandit_party_2","A1KET5Z038NMWD","either","4","298","","","","","","","1","0","0","0.4589731036","","0.2","0.6","0.4","0.8","","","","","0.1258799353","0.4589731036","0.1899663758","0.3978668086","","","","","","","","","","74","J","1","","","141","main_expt",""
"","bandit","222","501409","0.0-183.0-0.0","37423446","wem/bandit_party_2","A1KET5Z038NMWD","either","4","333","","","","","","","0","1","0","","0.3667804619","0.2","0.6","0.4","0.8","0.1220135665","0.3667804619","0.214868544","0.4096738096","","","","","","","","","","","","","","74","J","1","","","142","main_expt",""
"","bandit","223","503240","0.0-184.0-0.0","37423446","wem/bandit_party_2","A1KET5Z038NMWD","either","4","325","","","","","","","0","0","1","0.3563831379","","0.2","0.6","0.4","0.8","","","","","0.1600355681","0.3563831379","0.1549416237","0.5422751762","","","","","","","","","","74","J","1","","","143","main_expt",""
"","bandit","224","505075","0.0-185.0-0.0","37423446","wem/bandit_party_2","A1KET5Z038NMWD","either","4","327","","","","","","","0","0","1","0.3675361202","","0.2","0.6","0.4","0.8","","","","","0.103653669","0.3675361202","0.2142728447","0.6045197677","","","","","","","","","","74","J","1","","","144","main_expt",""
"","bandit","225","506879","0.0-186.0-0.0","37423446","wem/bandit_party_2","A1KET5Z038NMWD","either","4","297","","","","","","","0","1","0","","0.3266856562","0.2","0.6","0.4","0.8","0.1417267119","0.3266856562","0.2166472609","0.6140727406","","","","","","","","","","","","","","74","J","1","","","145","main_expt",""
"","bandit","226","508759","0.0-187.0-0.0","37423446","wem/bandit_party_2","A1KET5Z038NMWD","either","4","371","","","","","","","1","0","0","0.2815179259","","0.2","0.6","0.4","0.8","","","","","0.1508894681","0.2815179259","0.2446047688","0.5553742365","","","","","","","","","","74","J","1","","","146","main_expt",""
"","bandit","227","510591","0.0-188.0-0.0","37423446","wem/bandit_party_2","A1KET5Z038NMWD","either","4","324","","","","","","","1","0","0","0.3560244833","","0.2","0.6","0.4","0.8","","","","","0.1207147728","0.3560244833","0.3011136322","0.52787167","","","","","","","","","","74","J","1","","","147","main_expt",""
"","bandit","228","512451","0.0-189.0-0.0","37423446","wem/bandit_party_2","A1KET5Z038NMWD","either","4","353","","","","","","","0","0","1","","0.1362234148","0.2","0.6","0.4","0.8","0.1362234148","0.3585854149","0.2519777133","0.5053851794","","","","","","","","","","","","","","72","H","0","img/none_selected.jpg","","148","main_expt",""
"","bandit","229","514303","0.0-190.0-0.0","37423446","wem/bandit_party_2","A1KET5Z038NMWD","either","4","344","","","","","","","0","0","1","0.1244444975","","0.2","0.6","0.4","0.8","","","","","0.1244444975","0.284478414","0.2996109941","0.5431256022","","","","","","","","","","72","H","0","img/none_selected.jpg","","149","main_expt",""
"","bandit","230","516141","0.0-191.0-0.0","37423446","wem/bandit_party_2","A1KET5Z038NMWD","either","4","332","","","","","","","0","0","1","","0.1109305632","0.2","0.6","0.4","0.8","0.1109305632","0.2617238314","0.2963563975","0.422574086","","","","","","","","","","","","","","72","H","0","img/none_selected.jpg","","150","main_expt",""
"","bandit","231","518584","0.0-192.0-0.0","37423446","wem/bandit_party_2","A1KET5Z038NMWD","either","4","935","","","","","","","0","0","1","","0.4327396174","0.2","0.6","0.4","0.8","0.11412436","0.2709462114","0.4327396174","0.3907227364","","","","","","","","","","","","","","75","K","2","","","151","main_expt",""
"","bandit","232","520403","0.0-193.0-0.0","37423446","wem/bandit_party_2","A1KET5Z038NMWD","either","4","309","","","","","","","1","0","0","0.4303068123","","0.2","0.6","0.4","0.8","","","","","0.1469045903","0.2993716907","0.4303068123","0.5580814469","","","","","","","","","","75","K","2","","","152","main_expt",""
"","bandit","233","522487","0.0-194.0-0.0","37423446","wem/bandit_party_2","A1KET5Z038NMWD","either","4","577","","","","","","","0","1","0","","0.455197397","0.2","0.6","0.4","0.8","0.1633028487","0.2733354782","0.455197397","0.51223936","","","","","","","","","","","","","","75","K","2","","","153","main_expt",""
"","bandit","234","525305","0.0-195.0-0.0","37423446","wem/bandit_party_2","A1KET5Z038NMWD","either","4","1310","","","","","","","1","0","0","0.6184454144","","0.2","0.6","0.4","0.8","","","","","0.1340882311","0.3264007987","0.6184454144","0.4811601507","","","","","","","","","","75","K","2","","","154","main_expt",""
"","bandit","235","527471","0.0-196.0-0.0","37423446","wem/bandit_party_2","A1KET5Z038NMWD","either","4","659","","","","","","","0","0","1","0.5833601464","","0.2","0.6","0.4","0.8","","","","","0.1041462846","0.204433578","0.5833601464","0.575425417","","","","","","","","","","75","K","2","","","155","main_expt",""
"","bandit","236","529265","0.0-197.0-0.0","37423446","wem/bandit_party_2","A1KET5Z038NMWD","either","4","287","","","","","","","0","0","1","0.646897734","","0.2","0.6","0.4","0.8","","","","","0.08564190031","0.07451572188","0.646897734","0.6109018817","","","","","","","","","","75","K","2","","","156","main_expt",""
"","bandit","237","531001","0.0-198.0-0.0","37423446","wem/bandit_party_2","A1KET5Z038NMWD","either","4","229","","","","","","","0","0","1","","0.1251686374","0.2","0.6","0.4","0.8","0.06977116317","0.1251686374","0.6912470103","0.6812883852","","","","","","","","","","","","","","74","J","1","","","157","main_expt",""
"","bandit","238","532774","0.0-199.0-0.0","37423446","wem/bandit_party_2","A1KET5Z038NMWD","either","4","265","","","","","","","0","0","1","","0.1292052795","0.2","0.6","0.4","0.8","0.1504927074","0.1292052795","0.7865398282","0.73777041","","","","","","","","","","","","","","74","J","1","","","158","main_expt",""
"","bandit","239","534652","0.0-200.0-0.0","37423446","wem/bandit_party_2","A1KET5Z038NMWD","either","4","370","","","","","","","0","0","1","0.1200050714","","0.2","0.6","0.4","0.8","","","","","0.1429264201","0.1200050714","0.7220910122","0.8388849062","","","","","","","","","","74","J","1","","","159","main_expt",""
"","bandit","240","536471","0.0-201.0-0.0","37423446","wem/bandit_party_2","A1KET5Z038NMWD","either","4","311","","","","","","","0","0","1","","0.1156014834","0.2","0.6","0.4","0.8","0.1832893837","0.1156014834","0.710563805","0.8006667519","","","","","","","","","","","","","","74","J","1","","","160","main_expt",""
"","bandit","241","538273","0.0-202.0-0.0","37423446","wem/bandit_party_2","A1KET5Z038NMWD","either","4","296","","","","","","","1","0","0","0.1425751263","","0.2","0.6","0.4","0.8","","","","","0.2337310763","0.1425751263","0.6205281072","0.7406956812","","","","","","","","","","74","J","1","","","161","main_expt",""
"","bandit","242","540097","0.0-203.0-0.0","37423446","wem/bandit_party_2","A1KET5Z038NMWD","either","4","316","","","","","","","0","0","1","0.2108345254","","0.2","0.6","0.4","0.8","","","","","0.2326198937","0.2108345254","0.5246840185","0.775259894","","","","","","","","","","74","J","1","","","162","main_expt",""
"","bandit","243","541842","0.0-204.0-0.0","37423446","wem/bandit_party_2","A1KET5Z038NMWD","either","4","238","","","","","","","0","0","1","","0.1664621688","0.2","0.6","0.4","0.8","0.1584290897","0.1664621688","0.569340372","0.6539471222","","","","","","","","","","","","","","74","J","1","","","163","main_expt",""
"","bandit","244","543611","0.0-205.0-0.0","37423446","wem/bandit_party_2","A1KET5Z038NMWD","either","4","261","","","","","","","0","1","0","","0.1741279052","0.2","0.6","0.4","0.8","0.1417900361","0.1741279052","0.5688323765","0.7914062868","","","","","","","","","","","","","","74","J","1","","","164","main_expt",""
"","bandit","245","545414","0.0-206.0-0.0","37423446","wem/bandit_party_2","A1KET5Z038NMWD","either","4","296","","","","","","","1","0","0","0.1891196979","","0.2","0.6","0.4","0.8","","","","","0.08849486786","0.1891196979","0.5195648955","0.8415061218","","","","","","","","","","74","J","1","","","165","main_expt",""
"","bandit","246","547194","0.0-207.0-0.0","37423446","wem/bandit_party_2","A1KET5Z038NMWD","either","4","270","","","","","","","1","0","0","0.3016440744","","0.2","0.6","0.4","0.8","","","","","0.1010416226","0.3016440744","0.536500984","0.9084068317","","","","","","","","","","74","J","1","","","166","main_expt",""
"","bandit","247","549034","0.0-208.0-0.0","37423446","wem/bandit_party_2","A1KET5Z038NMWD","either","4","332","","","","","","","0","0","1","0.3427468607","","0.2","0.6","0.4","0.8","","","","","0.1506776516","0.3427468607","0.4243381616","0.8857506799","","","","","","","","","","74","J","1","","","167","main_expt",""
"","bandit","248","550849","0.0-209.0-0.0","37423446","wem/bandit_party_2","A1KET5Z038NMWD","either","4","308","","","","","","","0","0","1","0.3759001064","","0.2","0.6","0.4","0.8","","","","","0.2532220847","0.3759001064","0.4877327119","0.9247721234","","","","","","","","","","74","J","1","","","168","main_expt",""
"","bandit","249","552679","0.0-210.0-0.0","37423446","wem/bandit_party_2","A1KET5Z038NMWD","either","4","321","","","","","","","0","0","1","0.2223654062","","0.2","0.6","0.4","0.8","","","","","0.2223654062","0.3824832387","0.5096331713","0.8870410368","","","","","","","","","","72","H","0","img/none_selected.jpg","","169","main_expt",""
"","bandit","250","554601","0.0-211.0-0.0","37423446","wem/bandit_party_2","A1KET5Z038NMWD","either","4","414","","","","","","","0","1","0","","0.2161840498","0.2","0.6","0.4","0.8","0.2161840498","0.3257043992","0.6111595203","0.8782412079","","","","","","","","","","","","","","72","H","0","img/none_selected.jpg","","170","main_expt",""
"","bandit","251","556546","0.0-212.0-0.0","37423446","wem/bandit_party_2","A1KET5Z038NMWD","either","4","436","","","","","","","1","0","0","0.1996440145","","0.2","0.6","0.4","0.8","","","","","0.1996440145","0.2943589708","0.5888321224","0.7978982074","","","","","","","","","","72","H","0","img/none_selected.jpg","","171","main_expt",""
"","bandit","252","558364","0.0-213.0-0.0","37423446","wem/bandit_party_2","A1KET5Z038NMWD","either","4","308","","","","","","","0","0","1","","0.275753823","0.2","0.6","0.4","0.8","0.275753823","0.4298537702","0.6295404033","0.7896885826","","","","","","","","","","","","","","72","H","0","img/none_selected.jpg","","172","main_expt",""
"","bandit","253","560168","0.0-214.0-0.0","37423446","wem/bandit_party_2","A1KET5Z038NMWD","either","4","295","","","","","","","0","0","1","","0.2850946521","0.2","0.6","0.4","0.8","0.2850946521","0.4196262671","0.5976712981","0.7771385218","","","","","","","","","","","","","","72","H","0","img/none_selected.jpg","","173","main_expt",""
"","bandit","254","563062","0.0-215.0-0.0","37423446","wem/bandit_party_2","A1KET5Z038NMWD","either","4","1386","","","","","","","0","0","1","","0.2836726952","0.2","0.6","0.4","0.8","0.2836726952","0.4056978145","0.5936331925","0.8412209493","","","","","","","","","","","","","","72","H","0","img/none_selected.jpg","","174","main_expt",""
"","bandit","255","564869","0.0-216.0-0.0","37423446","wem/bandit_party_2","A1KET5Z038NMWD","either","4","299","","","","","","","0","0","1","","0.27413619","0.2","0.6","0.4","0.8","0.27413619","0.3323311207","0.544145328","0.8433491626","","","","","","","","","","","","","","72","H","0","img/none_selected.jpg","","175","main_expt",""
"","bandit","256","566676","0.0-217.0-0.0","37423446","wem/bandit_party_2","A1KET5Z038NMWD","either","4","299","","","","","","","0","1","0","","0.2369491767","0.2","0.6","0.4","0.8","0.2369491767","0.3087900888","0.3584947592","0.778586436","","","","","","","","","","","","","","72","H","0","img/none_selected.jpg","","176","main_expt",""
"","bandit","257","568484","0.0-218.0-0.0","37423446","wem/bandit_party_2","A1KET5Z038NMWD","either","4","299","","","","","","","1","0","0","0.3440943848","","0.2","0.6","0.4","0.8","","","","","0.3440943848","0.3898613412","0.436171931","0.7488794252","","","","","","","","","","72","H","0","img/none_selected.jpg","","177","main_expt",""
"","bandit","258","570280","0.0-219.0-0.0","37423446","wem/bandit_party_2","A1KET5Z038NMWD","either","4","288","","","","","","","0","0","1","","0.3529135521","0.2","0.6","0.4","0.8","0.3529135521","0.5236321052","0.5193680035","0.7738581751","","","","","","","","","","","","","","72","H","0","img/none_selected.jpg","","178","main_expt",""
"","bandit","259","572106","0.0-220.0-0.0","37423446","wem/bandit_party_2","A1KET5Z038NMWD","either","4","314","","","","","","","0","1","0","","0.3787243664","0.2","0.6","0.4","0.8","0.3787243664","0.2955080601","0.3957798075","0.7527820287","","","","","","","","","","","","","","72","H","0","img/none_selected.jpg","","179","main_expt",""
"","bandit","260","573933","0.0-221.0-0.0","37423446","wem/bandit_party_2","A1KET5Z038NMWD","either","4","312","","","","","","","0","1","0","","0.3092677326","0.2","0.6","0.4","0.8","0.3092677326","0.3174151272","0.4249873197","0.8022950929","","","","","","","","","","","","","","72","H","0","img/none_selected.jpg","","180","main_expt",""
"","bandit","261","575752","0.0-222.0-0.0","37423446","wem/bandit_party_2","A1KET5Z038NMWD","either","4","306","","","","","","","0","0","1","","0.3701559146","0.2","0.6","0.4","0.8","0.3701559146","0.3560995969","0.4260342439","0.7505347306","","","","","","","","","","","","","","72","H","0","img/none_selected.jpg","","181","main_expt",""
"","bandit","262","577589","0.0-223.0-0.0","37423446","wem/bandit_party_2","A1KET5Z038NMWD","either","4","329","","","","","","","0","0","1","","0.2672844749","0.2","0.6","0.4","0.8","0.2672844749","0.4649908644","0.4305619521","0.603349844","","","","","","","","","","","","","","72","H","0","img/none_selected.jpg","","182","main_expt",""
"","bandit","263","579428","0.0-224.0-0.0","37423446","wem/bandit_party_2","A1KET5Z038NMWD","either","4","332","","","","","","","0","0","1","0.3046315644","","0.2","0.6","0.4","0.8","","","","","0.3046315644","0.4588174784","0.4638513582","0.6464544124","","","","","","","","","","72","H","0","img/none_selected.jpg","","183","main_expt",""
"","bandit","264","581241","0.0-225.0-0.0","37423446","wem/bandit_party_2","A1KET5Z038NMWD","either","4","304","","","","","","","0","0","1","0.3507685813","","0.2","0.6","0.4","0.8","","","","","0.3507685813","0.509799977","0.5084330557","0.6606024443","","","","","","","","","","72","H","0","img/none_selected.jpg","","184","main_expt",""
"","bandit","265","583024","0.0-226.0-0.0","37423446","wem/bandit_party_2","A1KET5Z038NMWD","either","4","273","","","","","","","0","0","1","0.3250269766","","0.2","0.6","0.4","0.8","","","","","0.3250269766","0.4557178443","0.5853778332","0.7034535028","","","","","","","","","","72","H","0","img/none_selected.jpg","","185","main_expt",""
"","bandit","266","584843","0.0-227.0-0.0","37423446","wem/bandit_party_2","A1KET5Z038NMWD","either","4","310","","","","","","","0","0","1","","0.3636669497","0.2","0.6","0.4","0.8","0.3636669497","0.3250172706","0.5009207633","0.7672503758","","","","","","","","","","","","","","72","H","0","img/none_selected.jpg","","186","main_expt",""
"","bandit","267","586703","0.0-228.0-0.0","37423446","wem/bandit_party_2","A1KET5Z038NMWD","either","4","352","","","","","","","0","1","0","","0.4095027401","0.2","0.6","0.4","0.8","0.4095027401","0.2982192525","0.4376492532","0.7505037824","","","","","","","","","","","","","","72","H","0","img/none_selected.jpg","","187","main_expt",""
"","bandit","268","588536","0.0-229.0-0.0","37423446","wem/bandit_party_2","A1KET5Z038NMWD","either","4","323","","","","","","","0","0","1","0.3356624093","","0.2","0.6","0.4","0.8","","","","","0.3356624093","0.2647713636","0.317868257","0.7458261356","","","","","","","","","","72","H","0","img/none_selected.jpg","","188","main_expt",""
"","bandit","269","590400","0.0-230.0-0.0","37423446","wem/bandit_party_2","A1KET5Z038NMWD","either","4","355","","","","","","","0","1","0","","0.3717951419","0.2","0.6","0.4","0.8","0.3717951419","0.2798663258","0.3700786551","0.747965221","","","","","","","","","","","","","","72","H","0","img/none_selected.jpg","","189","main_expt",""
"","bandit","270","592216","0.0-231.0-0.0","37423446","wem/bandit_party_2","A1KET5Z038NMWD","either","4","308","","","","","","","0","0","1","","0.3266606931","0.2","0.6","0.4","0.8","0.3266606931","0.2146362806","0.3423477616","0.7459095382","","","","","","","","","","","","","","72","H","0","img/none_selected.jpg","","190","main_expt",""
"","bandit","271","594076","0.0-232.0-0.0","37423446","wem/bandit_party_2","A1KET5Z038NMWD","either","4","351","","","","","","","0","0","1","","0.4206899072","0.2","0.6","0.4","0.8","0.4206899072","0.3132783624","0.2488230813","0.6299055833","","","","","","","","","","","","","","72","H","0","img/none_selected.jpg","","191","main_expt",""
"","bandit","272","596007","0.0-233.0-0.0","37423446","wem/bandit_party_2","A1KET5Z038NMWD","either","4","424","","","","","","","0","0","1","","0.4982817076","0.2","0.6","0.4","0.8","0.4982817076","0.2488083766","0.2193108308","0.688533977","","","","","","","","","","","","","","72","H","0","img/none_selected.jpg","","192","main_expt",""
"","bandit","273","597927","0.0-234.0-0.0","37423446","wem/bandit_party_2","A1KET5Z038NMWD","either","4","412","","","","","","","0","0","1","0.4820211017","","0.2","0.6","0.4","0.8","","","","","0.4820211017","0.225611763","0.4057276106","0.7176496952","","","","","","","","","","72","H","0","img/none_selected.jpg","","193","main_expt",""
"","bandit","274","599782","0.0-235.0-0.0","37423446","wem/bandit_party_2","A1KET5Z038NMWD","either","4","347","","","","","","","0","0","1","0.3826056333","","0.2","0.6","0.4","0.8","","","","","0.5373891537","0.2159393038","0.3826056333","0.746212457","","","","","","","","","","75","K","2","","","194","main_expt",""
"","bandit","275","601833","0.0-236.0-0.0","37423446","wem/bandit_party_2","A1KET5Z038NMWD","either","4","542","","","","","","","0","0","1","0.4922935908","","0.2","0.6","0.4","0.8","","","","","0.3890275207","0.3112228701","0.4922935908","0.6800784202","","","","","","","","","","75","K","2","","","195","main_expt",""
"","bandit","276","603964","0.0-237.0-0.0","37423446","wem/bandit_party_2","A1KET5Z038NMWD","either","4","622","","","","","","","0","0","1","","0.5475793877","0.2","0.6","0.4","0.8","0.4329462643","0.3249051539","0.5475793877","0.5986295964","","","","","","","","","","","","","","75","K","2","","","196","main_expt",""
"","bandit","277","605995","0.0-238.0-0.0","37423446","wem/bandit_party_2","A1KET5Z038NMWD","either","4","522","","","","","","","0","0","1","0.6069385875","","0.2","0.6","0.4","0.8","","","","","0.416825946","0.2985018541","0.6069385875","0.5323622673","","","","","","","","","","75","K","2","","","197","main_expt",""
"","bandit","278","607935","0.0-239.0-0.0","37423446","wem/bandit_party_2","A1KET5Z038NMWD","either","4","432","","","","","","","1","0","0","0.4946816555","","0.2","0.6","0.4","0.8","","","","","0.4063336836","0.3109366799","0.4946816555","0.5348043844","","","","","","","","","","75","K","2","","","198","main_expt",""
"","bandit","279","609731","0.0-240.0-0.0","37423446","wem/bandit_party_2","A1KET5Z038NMWD","either","4","287","","","","","","","0","0","1","","0.479635203","0.2","0.6","0.4","0.8","0.361264989","0.3143364341","0.479635203","0.4534403339","","","","","","","","","","","","","","75","K","2","","","199","main_expt",""
"","bandit","280","611562","0.0-241.0-0.0","37423446","wem/bandit_party_2","A1KET5Z038NMWD","either","4","323","","","","","","","1","0","0","0.4969837249","","0.2","0.6","0.4","0.8","","","","","0.4700223374","0.3176919365","0.4969837249","0.4185876589","","","","","","","","","","75","K","2","","","200","main_expt",""
"","bandit","281","613442","0.0-242.0-0.0","37423446","wem/bandit_party_2","A1KET5Z038NMWD","either","4","372","","","","","","","0","0","1","","0.4548125401","0.2","0.6","0.4","0.8","0.4751543938","0.2848283651","0.4548125401","0.3812211227","","","","","","","","","","","","","","75","K","2","","","201","main_expt",""
"","bandit","282","615465","0.0-243.0-0.0","37423446","wem/bandit_party_2","A1KET5Z038NMWD","either","4","513","","","","","","","1","0","0","0.5767771981","","0.2","0.6","0.4","0.8","","","","","0.4044794657","0.2439676923","0.5767771981","0.4414728031","","","","","","","","","","75","K","2","","","202","main_expt",""
"","bandit","283","617591","0.0-244.0-0.0","37423446","wem/bandit_party_2","A1KET5Z038NMWD","either","4","618","","","","","","","1","0","0","0.6118171827","","0.2","0.6","0.4","0.8","","","","","0.3321077444","0.2582922662","0.6118171827","0.3698030662","","","","","","","","","","75","K","2","","","203","main_expt",""
"","bandit","284","619432","0.0-245.0-0.0","37423446","wem/bandit_party_2","A1KET5Z038NMWD","either","4","330","","","","","","","0","1","0","","0.5373194108","0.2","0.6","0.4","0.8","0.3697340749","0.3799793739","0.5373194108","0.4899087748","","","","","","","","","","","","","","75","K","2","","","204","main_expt",""
"","bandit","285","622003","0.0-246.0-0.0","37423446","wem/bandit_party_2","A1KET5Z038NMWD","either","4","1062","","","","","","","0","0","1","","0.5501461309","0.2","0.6","0.4","0.8","0.3998168993","0.4441528059","0.5501461309","0.4310108402","","","","","","","","","","","","","","75","K","2","","","205","main_expt",""
"","bandit","286","625275","0.0-247.0-0.0","37423446","wem/bandit_party_2","A1KET5Z038NMWD","either","4","1764","","","","","","","0","0","1","0.5094027242","","0.2","0.6","0.4","0.8","","","","","0.4929909192","0.4468516792","0.5094027242","0.3912115078","","","","","","","","","","75","K","2","","","206","main_expt",""
"","bandit","287","627161","0.0-248.0-0.0","37423446","wem/bandit_party_2","A1KET5Z038NMWD","either","4","377","","","","","","","0","0","1","","0.399366085","0.2","0.6","0.4","0.8","0.4960693894","0.399366085","0.6449696869","0.3195818707","","","","","","","","","","","","","","74","J","1","","","207","main_expt",""
"","bandit","288","629202","0.0-249.0-0.0","37423446","wem/bandit_party_2","A1KET5Z038NMWD","either","4","532","","","","","","","0","0","1","0.4206610772","","0.2","0.6","0.4","0.8","","","","","0.3912862986","0.4206610772","0.549996868","0.2378171997","","","","","","","","","","74","J","1","","","208","main_expt",""
"","bandit","289","631091","0.0-250.0-0.0","37423446","wem/bandit_party_2","A1KET5Z038NMWD","either","4","382","","","","","","","1","0","0","0.5145499259","","0.2","0.6","0.4","0.8","","","","","0.4218938049","0.5145499259","0.5258833792","0.2339104391","","","","","","","","","","74","J","1","","","209","main_expt",""
"","bandit","290","632905","0.0-251.0-0.0","37423446","wem/bandit_party_2","A1KET5Z038NMWD","either","4","304","","","","","","","1","0","0","0.3497539355","","0.2","0.6","0.4","0.8","","","","","0.6003160005","0.3497539355","0.5453980868","0.2506558306","","","","","","","","","","74","J","1","","","210","main_expt",""
"","bandit","291","636274","0.0-252.0-0.0","37423446","wem/bandit_party_2","A1KET5Z038NMWD","either","4","1858","","","","","","","0","0","1","","0.3335821388","0.2","0.6","0.4","0.8","0.5481562991","0.3335821388","0.5370950561","0.3466578502","","","","","","","","","","","","","","74","J","1","","","211","main_expt",""
"","bandit","292","638277","0.0-253.0-0.0","37423446","wem/bandit_party_2","A1KET5Z038NMWD","either","4","492","","","","","","","0","0","1","","0.2778022227","0.2","0.6","0.4","0.8","0.6210595125","0.2778022227","0.5774996514","0.4162959965","","","","","","","","","","","","","","74","J","1","","","212","main_expt",""
"","bandit","293","640363","0.0-254.0-0.0","37423446","wem/bandit_party_2","A1KET5Z038NMWD","either","4","575","","","","","","","1","0","0","0.2949104287","","0.2","0.6","0.4","0.8","","","","","0.7732161257","0.2949104287","0.4826056363","0.545788555","","","","","","","","","","74","J","1","","","213","main_expt",""
"","bandit","294","642721","0.0-255.0-0.0","37423446","wem/bandit_party_2","A1KET5Z038NMWD","either","4","848","","","","","","","0","0","1","0.2443343027","","0.2","0.6","0.4","0.8","","","","","0.7689771773","0.2443343027","0.4913277851","0.6077749924","","","","","","","","","","74","J","1","","","214","main_expt",""
"","bandit","295","644637","0.0-256.0-0.0","37423446","wem/bandit_party_2","A1KET5Z038NMWD","either","4","406","","","","","","","0","0","1","0.2232989174","","0.2","0.6","0.4","0.8","","","","","0.6841712945","0.2232989174","0.5415006571","0.4883429648","","","","","","","","","","74","J","1","","","215","main_expt",""
"","bandit","296","647084","0.0-257.0-0.0","37423446","wem/bandit_party_2","A1KET5Z038NMWD","either","4","939","","","","","","","0","0","1","","0.2918619336","0.2","0.6","0.4","0.8","0.7019934296","0.2918619336","0.5198015267","0.3309854328","","","","","","","","","","","","","","74","J","1","","","216","main_expt",""
"","bandit","297","650278","0.0-258.0-0.0","37423446","wem/bandit_party_2","A1KET5Z038NMWD","either","4","1685","","","","","","","0","0","1","0.3571058798","","0.2","0.6","0.4","0.8","","","","","0.7537099884","0.3571058798","0.545097872","0.3310528633","","","","","","","","","","74","J","1","","","217","main_expt",""
"","bandit","298","652339","0.0-259.0-0.0","37423446","wem/bandit_party_2","A1KET5Z038NMWD","either","4","553","","","","","","","0","0","1","0.4147218791","","0.2","0.6","0.4","0.8","","","","","0.8428980993","0.3738303097","0.5776025334","0.4147218791","","","","","","","","","","76","L","3","","","218","main_expt",""
"","bandit","299","654197","0.0-260.0-0.0","37423446","wem/bandit_party_2","A1KET5Z038NMWD","either","4","349","","","","","","","0","0","1","0.3402104323","","0.2","0.6","0.4","0.8","","","","","0.8007326434","0.4832874948","0.5616346574","0.3402104323","","","","","","","","","","76","L","3","","","219","main_expt",""
"","bandit","300","656617","0.0-261.0-0.0","37423446","wem/bandit_party_2","A1KET5Z038NMWD","either","4","911","","","","","","","0","0","1","0.3448871422","","0.2","0.6","0.4","0.8","","","","","0.8518850648","0.475455537","0.6261942659","0.3448871422","","","","","","","","","","76","L","3","","","220","main_expt",""
"","bandit","301","661267","0.0-262.0-0.0","37423446","wem/bandit_party_2","A1KET5Z038NMWD","either","4","3142","","","","","","","0","0","1","0.4438284365","","0.2","0.6","0.4","0.8","","","","","0.8488451861","0.3849790123","0.6533416475","0.4438284365","","","","","","","","","","76","L","3","","","221","main_expt",""
"","bandit","302","664134","0.0-263.0-0.0","37423446","wem/bandit_party_2","A1KET5Z038NMWD","either","4","1358","","","","","","","0","1","0","","0.8202185963","0.2","0.6","0.4","0.8","0.8202185963","0.2708628555","0.6780524799","0.3768672835","","","","","","","","","","","","","","72","H","0","img/none_selected.jpg","","222","main_expt",""
"","bandit","303","675706","0.0-264.0-0.0","37423446","wem/bandit_party_2","A1KET5Z038NMWD","either","4","10063","","","","","","","0","1","0","","0.839196386","0.2","0.6","0.4","0.8","0.839196386","0.3886191555","0.638470603","0.4599748191","","","","","","","","","","","","","","72","H","0","img/none_selected.jpg","","223","main_expt",""
"","bandit","304","677495","0.0-265.0-0.0","37423446","wem/bandit_party_2","A1KET5Z038NMWD","either","4","280","","","","","","","1","0","0","0.8340435664","","0.2","0.6","0.4","0.8","","","","","0.8340435664","0.3352763987","0.560582988","0.5868274652","","","","","","","","","","72","H","0","img/none_selected.jpg","","224","main_expt",""
"","bandit","305","680447","0.0-266.0-0.0","37423446","wem/bandit_party_2","A1KET5Z038NMWD","either","4","1443","","","","","","","0","1","0","","0.8229669419","0.2","0.6","0.4","0.8","0.8229669419","0.3948846532","0.5004803289","0.510759767","","","","","","","","","","","","","","72","H","0","img/none_selected.jpg","","225","main_expt",""
"","bandit","306","683823","0.0-267.0-0.0","37423446","wem/bandit_party_2","A1KET5Z038NMWD","either","4","1866","","","","","","","0","1","0","","0.8326575293","0.2","0.6","0.4","0.8","0.8326575293","0.385279681","0.5109709899","0.6026028704","","","","","","","","","","","","","","72","H","0","img/none_selected.jpg","","226","main_expt",""
"","bandit","307","686290","0.0-268.0-0.0","37423446","wem/bandit_party_2","A1KET5Z038NMWD","either","4","958","","","","","","","0","1","0","","0.8904476858","0.2","0.6","0.4","0.8","0.8904476858","0.3296530349","0.4271661703","0.588132951","","","","","","","","","","","","","","72","H","0","img/none_selected.jpg","","227","main_expt",""
"","bandit","308","690176","0.0-269.0-0.0","37423446","wem/bandit_party_2","A1KET5Z038NMWD","either","4","2375","","","","","","","0","1","0","","0.8877596604","0.2","0.6","0.4","0.8","0.8877596604","0.4227788413","0.374673526","0.5754590721","","","","","","","","","","","","","","72","H","0","img/none_selected.jpg","","228","main_expt",""
"","bandit","309","692242","0.0-270.0-0.0","37423446","wem/bandit_party_2","A1KET5Z038NMWD","either","4","557","","","","","","","1","0","0","0.8647697669","","0.2","0.6","0.4","0.8","","","","","0.8647697669","0.4470353227","0.393435759","0.6311951266","","","","","","","","","","72","H","0","img/none_selected.jpg","","229","main_expt",""
"","bandit","310","696915","0.0-271.0-0.0","37423446","wem/bandit_party_2","A1KET5Z038NMWD","either","4","3164","","","","","","","1","0","0","0.8704214291","","0.2","0.6","0.4","0.8","","","","","0.8704214291","0.2986819632","0.3299431778","0.6164228117","","","","","","","","","","72","H","0","img/none_selected.jpg","","230","main_expt",""
"","bandit","311","698907","0.0-272.0-0.0","37423446","wem/bandit_party_2","A1KET5Z038NMWD","either","4","483","","","","","","","0","0","1","","0.8598686354","0.2","0.6","0.4","0.8","0.8598686354","0.4508866759","0.3477061432","0.5943568022","","","","","","","","","","","","","","72","H","0","img/none_selected.jpg","","231","main_expt",""
"","bandit","312","701922","0.0-273.0-0.0","37423446","wem/bandit_party_2","A1KET5Z038NMWD","either","4","1506","","","","","","","0","1","0","","0.7939027672","0.2","0.6","0.4","0.8","0.7939027672","0.5125968159","0.3430234075","0.6032910051","","","","","","","","","","","","","","72","H","0","img/none_selected.jpg","","232","main_expt",""
"","bandit","313","705555","0.0-274.0-0.0","37423446","wem/bandit_party_2","A1KET5Z038NMWD","either","4","2124","","","","","","","0","1","0","","0.7930400566","0.2","0.6","0.4","0.8","0.7930400566","0.6020802482","0.2812772396","0.7225660168","","","","","","","","","","","","","","72","H","0","img/none_selected.jpg","","233","main_expt",""
"","bandit","314","711107","0.0-275.0-0.0","37423446","wem/bandit_party_2","A1KET5Z038NMWD","either","4","4043","","","","","","","0","1","0","","0.7549101179","0.2","0.6","0.4","0.8","0.7549101179","0.5927943616","0.2049555934","0.6718439238","","","","","","","","","","","","","","72","H","0","img/none_selected.jpg","","234","main_expt",""
