"consent","trial_type","trial_index","time_elapsed","internal_node_id","subjID","study","MID","cond","drift","rt","responses","button_pressed","key_press","like","value","connected","gems","bombs","no_reward","GemPrChosen","BombPrChosen","GainOverPainPr_0","GainOverPainPr_1","GainOverPainPr_2","GainOverPainPr_3","LosePr_0","LosePr_1","LosePr_2","LosePr_3","WinPr_0","WinPr_1","WinPr_2","WinPr_3","Q0","Q1","Q2","gender","age","ethnicity","label","expt_phase","target","respCharCode","respKey","respChoiceNum","respChoice","practice","trial_counter","trial_label","Q0_index","view_history"
"GDM/GDM_behavioral_consent_30min_online.html","consent","0","10341","0.0-0.0","37730360","wem/bandit_party_2","A3RLZJOHLHQ95F","either","2","","","","","","","","","","","","","","","","","","","","","","","","","","","","","","","","","","","","","","","","","",""
"","survey-text","1","14572","0.0-1.0","37730360","wem/bandit_party_2","A3RLZJOHLHQ95F","either","2","3206","{""Q0"":""A3RLZJOHLHQ95F""}","","","","","","","","","","","","","","","","","","","","","","","","","","","","","","","","","","","","","","","",""
"","button-response","2","17327","0.0-2.0","37730360","wem/bandit_party_2","A3RLZJOHLHQ95F","either","2","1747","","1","","","","","","","","","","","","","","","","","","","","","","","","","","","","","","","","","","","","","","",""
"","text-replacement","3","26600","0.0-3.0","37730360","wem/bandit_party_2","A3RLZJOHLHQ95F","either","2","8250","","","32","","","","","","","","","","","","","","","","","","","","","","","","","","","","","","","","","","","","","",""
"","text-replacement","4","30783","0.0-4.0","37730360","wem/bandit_party_2","A3RLZJOHLHQ95F","either","2","4183","","","32","","","","","","","","","","","","","","","","","","","","","","","","","","","","","","","","","","","","","",""
"","identification","5","37667","0.0-6.0-0.0","37730360","wem/bandit_party_2","A3RLZJOHLHQ95F","either","2","6860","","","","5","5","5","","","","","","","","","","","","","","","","","","","","","","","","pre","identification_pre","the Democratic Party","","","","","","","","",""
"","identification","6","44174","0.0-6.0-1.0","37730360","wem/bandit_party_2","A3RLZJOHLHQ95F","either","2","5479","","","","1","0","0","","","","","","","","","","","","","","","","","","","","","","","","pre","identification_pre","the Republican Party","","","","","","","","",""
"","text-replacement","7","66586","0.0-7.0","37730360","wem/bandit_party_2","A3RLZJOHLHQ95F","either","2","21408","","","32","","","","","","","","","","","","","","","","","","","","","","","","","","","","","","","","","","","","","",""
"","text-replacement","8","73097","0.0-8.0","37730360","wem/bandit_party_2","A3RLZJOHLHQ95F","either","2","6503","","","32","","","","","","","","","","","","","","","","","","","","","","","","","","","","","","","","","","","","","",""
"","text-replacement","9","76753","0.0-9.0","37730360","wem/bandit_party_2","A3RLZJOHLHQ95F","either","2","3652","","","32","","","","","","","","","","","","","","","","","","","","","","","","","","","","","","","","","","","","","",""
"","text-replacement","10","122335","0.0-10.0","37730360","wem/bandit_party_2","A3RLZJOHLHQ95F","either","2","45578","","","32","","","","","","","","","","","","","","","","","","","","","","","","","","","","","","","","","","","","","",""
"","text-replacement","11","125500","0.0-11.0","37730360","wem/bandit_party_2","A3RLZJOHLHQ95F","either","2","3161","","","32","","","","","","","","","","","","","","","","","","","","","","","","","","","","","","","","","","","","","",""
"","bandit","12","128543","0.0-12.0-0.0","37730360","wem/bandit_party_2","A3RLZJOHLHQ95F","either","2","1524","","","","","","","0","0","1","0","0","","","","","0","","","","0","","","","","","","","","","","","","74","J","0","img/none_selected_demo.jpg","true","0","","",""
"","bandit","13","131346","0.0-13.0-0.0","37730360","wem/bandit_party_2","A3RLZJOHLHQ95F","either","2","1292","","","","","","","0","0","1","0","0","","","","","0","","","","0","","","","","","","","","","","","","75","K","0","img/none_selected_demo.jpg","true","0","","",""
"","text-replacement","14","135326","0.0-14.0","37730360","wem/bandit_party_2","A3RLZJOHLHQ95F","either","2","3978","","","32","","","","","","","","","","","","","","","","","","","","","","","","","","","","","","","","","","","","","",""
"","text-replacement","15","137564","0.0-15.0","37730360","wem/bandit_party_2","A3RLZJOHLHQ95F","either","2","2233","","","32","","","","","","","","","","","","","","","","","","","","","","","","","","","","","","","","","","","","","",""
"","text-replacement","16","140391","0.0-16.0","37730360","wem/bandit_party_2","A3RLZJOHLHQ95F","either","2","2820","","","32","","","","","","","","","","","","","","","","","","","","","","","","","","","","","","","","","","","","","",""
"","text-replacement","17","142258","0.0-17.0","37730360","wem/bandit_party_2","A3RLZJOHLHQ95F","either","2","1863","","","32","","","","","","","","","","","","","","","","","","","","","","","","","","","","","","","","","","","","","",""
"","bandit","18","145430","0.0-18.0-0.0","37730360","wem/bandit_party_2","A3RLZJOHLHQ95F","either","2","1659","","","","","","","1","0","0","0.8","","0.5","0.5","","","","","","","0.8","0.2","","","","","","","","","","","","74","J","0","img/none_selected_demo.jpg","true","0","80_20_practice","",""
"","bandit","19","148216","0.0-18.0-1.0","37730360","wem/bandit_party_2","A3RLZJOHLHQ95F","either","2","1272","","","","","","","0","0","1","0.2","","0.5","0.5","","","","","","","0.8","0.2","","","","","","","","","","","","75","K","1","","true","0","80_20_practice","",""
"","bandit","20","152441","0.0-18.0-2.0","37730360","wem/bandit_party_2","A3RLZJOHLHQ95F","either","2","2715","","","","","","","1","0","0","0.8","","0.5","0.5","","","","","","","0.8","0.2","","","","","","","","","","","","74","J","0","img/none_selected_demo.jpg","true","0","80_20_practice","",""
"","bandit","21","155260","0.0-18.0-3.0","37730360","wem/bandit_party_2","A3RLZJOHLHQ95F","either","2","1306","","","","","","","0","0","1","","0.8","0.5","0.5","","","0.8","0.2","","","","","","","","","","","","","","","","74","J","0","img/none_selected_demo.jpg","true","0","80_20_practice","",""
"","bandit","22","158006","0.0-18.0-4.0","37730360","wem/bandit_party_2","A3RLZJOHLHQ95F","either","2","1231","","","","","","","0","0","1","","0.2","0.5","0.5","","","0.8","0.2","","","","","","","","","","","","","","","","75","K","1","","true","0","80_20_practice","",""
"","bandit","23","160092","0.0-18.0-5.0","37730360","wem/bandit_party_2","A3RLZJOHLHQ95F","either","2","574","","","","","","","0","1","0","","0.8","0.5","0.5","","","0.8","0.2","","","","","","","","","","","","","","","","74","J","0","img/none_selected_demo.jpg","true","0","80_20_practice","",""
"","bandit","24","162836","0.0-18.0-6.0","37730360","wem/bandit_party_2","A3RLZJOHLHQ95F","either","2","1232","","","","","","","0","1","0","","0.8","0.5","0.5","","","0.8","0.2","","","","","","","","","","","","","","","","74","J","0","img/none_selected_demo.jpg","true","0","80_20_practice","",""
"","bandit","25","164822","0.0-18.0-7.0","37730360","wem/bandit_party_2","A3RLZJOHLHQ95F","either","2","475","","","","","","","0","0","1","","0.2","0.5","0.5","","","0.8","0.2","","","","","","","","","","","","","","","","75","K","1","","true","0","80_20_practice","",""
"","bandit","26","167001","0.0-18.0-8.0","37730360","wem/bandit_party_2","A3RLZJOHLHQ95F","either","2","670","","","","","","","1","0","0","0.8","","0.5","0.5","","","","","","","0.8","0.2","","","","","","","","","","","","74","J","0","img/none_selected_demo.jpg","true","0","80_20_practice","",""
"","bandit","27","169682","0.0-18.0-9.0","37730360","wem/bandit_party_2","A3RLZJOHLHQ95F","either","2","1166","","","","","","","0","0","1","","0.2","0.5","0.5","","","0.8","0.2","","","","","","","","","","","","","","","","75","K","1","","true","0","80_20_practice","",""
"","bandit","28","171977","0.0-18.0-10.0","37730360","wem/bandit_party_2","A3RLZJOHLHQ95F","either","2","782","","","","","","","1","0","0","0.8","","0.5","0.5","","","","","","","0.8","0.2","","","","","","","","","","","","74","J","0","img/none_selected_demo.jpg","true","0","80_20_practice","",""
"","bandit","29","174468","0.0-18.0-11.0","37730360","wem/bandit_party_2","A3RLZJOHLHQ95F","either","2","973","","","","","","","1","0","0","0.8","","0.5","0.5","","","","","","","0.8","0.2","","","","","","","","","","","","74","J","0","img/none_selected_demo.jpg","true","0","80_20_practice","",""
"","bandit","30","176598","0.0-18.0-12.0","37730360","wem/bandit_party_2","A3RLZJOHLHQ95F","either","2","621","","","","","","","0","1","0","","0.8","0.5","0.5","","","0.8","0.2","","","","","","","","","","","","","","","","74","J","0","img/none_selected_demo.jpg","true","0","80_20_practice","",""
"","bandit","31","178502","0.0-18.0-13.0","37730360","wem/bandit_party_2","A3RLZJOHLHQ95F","either","2","392","","","","","","","0","0","1","0.2","","0.5","0.5","","","","","","","0.8","0.2","","","","","","","","","","","","75","K","1","","true","0","80_20_practice","",""
"","bandit","32","180448","0.0-18.0-14.0","37730360","wem/bandit_party_2","A3RLZJOHLHQ95F","either","2","431","","","","","","","0","0","1","0.2","","0.5","0.5","","","","","","","0.8","0.2","","","","","","","","","","","","75","K","1","","true","0","80_20_practice","",""
"","bandit","33","182549","0.0-18.0-15.0","37730360","wem/bandit_party_2","A3RLZJOHLHQ95F","either","2","592","","","","","","","0","0","1","","0.2","0.5","0.5","","","0.8","0.2","","","","","","","","","","","","","","","","75","K","1","","true","0","80_20_practice","",""
"","bandit","34","184529","0.0-18.0-16.0","37730360","wem/bandit_party_2","A3RLZJOHLHQ95F","either","2","471","","","","","","","0","0","1","","0.2","0.5","0.5","","","0.8","0.2","","","","","","","","","","","","","","","","75","K","1","","true","0","80_20_practice","",""
"","bandit","35","186369","0.0-18.0-17.0","37730360","wem/bandit_party_2","A3RLZJOHLHQ95F","either","2","329","","","","","","","1","0","0","0.8","","0.5","0.5","","","","","","","0.8","0.2","","","","","","","","","","","","74","J","0","img/none_selected_demo.jpg","true","0","80_20_practice","",""
"","bandit","36","188692","0.0-18.0-18.0","37730360","wem/bandit_party_2","A3RLZJOHLHQ95F","either","2","811","","","","","","","0","1","0","","0.8","0.5","0.5","","","0.8","0.2","","","","","","","","","","","","","","","","74","J","0","img/none_selected_demo.jpg","true","0","80_20_practice","",""
"","bandit","37","190567","0.0-18.0-19.0","37730360","wem/bandit_party_2","A3RLZJOHLHQ95F","either","2","363","","","","","","","0","0","1","","0.2","0.5","0.5","","","0.8","0.2","","","","","","","","","","","","","","","","75","K","1","","true","0","80_20_practice","",""
"","text-replacement","38","195655","0.0-19.0","37730360","wem/bandit_party_2","A3RLZJOHLHQ95F","either","2","5084","","","32","","","","","","","","","","","","","","","","","","","","","","","","","","","","","","","","","","","","","",""
"","bandit","39","198445","0.0-20.0-0.0","37730360","wem/bandit_party_2","A3RLZJOHLHQ95F","either","2","1278","","","","","","","1","0","0","1","0","","","","","0","1","","","1","0","","","","","","","","","","","","74","J","0","img/none_selected_demo.jpg","true","0","","",""
"","text-replacement","40","201766","0.0-21.0","37730360","wem/bandit_party_2","A3RLZJOHLHQ95F","either","2","3317","","","32","","","","","","","","","","","","","","","","","","","","","","","","","","","","","","","","","","","","","",""
"","text-replacement","41","205159","0.0-22.0","37730360","wem/bandit_party_2","A3RLZJOHLHQ95F","either","2","3388","","","32","","","","","","","","","","","","","","","","","","","","","","","","","","","","","","","","","","","","","",""
"","text-replacement","42","208198","0.0-23.0","37730360","wem/bandit_party_2","A3RLZJOHLHQ95F","either","2","3036","","","32","","","","","","","","","","","","","","","","","","","","","","","","","","","","","","","","","","","","","",""
"","text-replacement","43","210213","0.0-24.0","37730360","wem/bandit_party_2","A3RLZJOHLHQ95F","either","2","2011","","","32","","","","","","","","","","","","","","","","","","","","","","","","","","","","","","","","","","","","","",""
"","text-replacement","44","214857","0.0-25.0","37730360","wem/bandit_party_2","A3RLZJOHLHQ95F","either","2","4636","","","32","","","","","","","","","","","","","","","","","","","","","","","","","","","","","","","","","","","","","",""
"","text-replacement","45","216505","0.0-26.0","37730360","wem/bandit_party_2","A3RLZJOHLHQ95F","either","2","1644","","","32","","","","","","","","","","","","","","","","","","","","","","","","","","","","","","","","","","","","","",""
"","text-replacement","46","220819","0.0-27.0","37730360","wem/bandit_party_2","A3RLZJOHLHQ95F","either","2","4309","","","32","","","","","","","","","","","","","","","","","","","","","","","","","","","","","","","","","","","","","",""
"","text-replacement","47","223770","0.0-28.0","37730360","wem/bandit_party_2","A3RLZJOHLHQ95F","either","2","2944","","","32","","","","","","","","","","","","","","","","","","","","","","","","","","","","","","","","","","","","","",""
"","text-replacement","48","226511","0.0-29.0","37730360","wem/bandit_party_2","A3RLZJOHLHQ95F","either","2","2741","","","32","","","","","","","","","","","","","","","","","","","","","","","","","","","","","","","","","","","","","",""
"","text-replacement","49","227856","0.0-30.0","37730360","wem/bandit_party_2","A3RLZJOHLHQ95F","either","2","1337","","","32","","","","","","","","","","","","","","","","","","","","","","","","","","","","","","","","","","","","","",""
"","text-replacement","50","386968","0.0-31.0","37730360","wem/bandit_party_2","A3RLZJOHLHQ95F","either","2","159112","","","32","","","","","","","","","","","","","","","","","","","","","","","","","","","","","","","","","","","","","",""
"","bandit","51","389225","0.0-32.0-0.0","37730360","wem/bandit_party_2","A3RLZJOHLHQ95F","either","2","738","","","","","","","1","0","0","0.8","","0.5","0.5","0.5","0.5","","","","","0.8","0.2","0.6","0.2","","","","","","","","","","72","H","0","img/none_selected.jpg","true","0","full_practice","",""
"","bandit","52","391175","0.0-32.0-1.0","37730360","wem/bandit_party_2","A3RLZJOHLHQ95F","either","2","434","","","","","","","0","1","0","","0.8","0.5","0.5","0.5","0.5","0.8","0.2","0.6","0.2","","","","","","","","","","","","","","72","H","0","img/none_selected.jpg","true","0","full_practice","",""
"","bandit","53","393012","0.0-32.0-2.0","37730360","wem/bandit_party_2","A3RLZJOHLHQ95F","either","2","325","","","","","","","0","0","1","0.6","","0.5","0.5","0.5","0.5","","","","","0.8","0.2","0.6","0.2","","","","","","","","","","75","K","2","","true","0","full_practice","",""
"","bandit","54","394997","0.0-32.0-3.0","37730360","wem/bandit_party_2","A3RLZJOHLHQ95F","either","2","471","","","","","","","0","0","1","0.2","","0.5","0.5","0.5","0.5","","","","","0.8","0.2","0.6","0.2","","","","","","","","","","76","L","3","","true","0","full_practice","",""
"","bandit","55","396883","0.0-32.0-4.0","37730360","wem/bandit_party_2","A3RLZJOHLHQ95F","either","2","368","","","","","","","0","0","1","0.2","","0.5","0.5","0.5","0.5","","","","","0.8","0.2","0.6","0.2","","","","","","","","","","76","L","3","","true","0","full_practice","",""
"","bandit","56","398824","0.0-32.0-5.0","37730360","wem/bandit_party_2","A3RLZJOHLHQ95F","either","2","428","","","","","","","0","0","1","","0.6","0.5","0.5","0.5","0.5","0.8","0.2","0.6","0.2","","","","","","","","","","","","","","75","K","2","","true","0","full_practice","",""
"","bandit","57","401208","0.0-32.0-6.0","37730360","wem/bandit_party_2","A3RLZJOHLHQ95F","either","2","869","","","","","","","0","1","0","","0.2","0.5","0.5","0.5","0.5","0.8","0.2","0.6","0.2","","","","","","","","","","","","","","74","J","1","","true","0","full_practice","",""
"","bandit","58","403112","0.0-32.0-7.0","37730360","wem/bandit_party_2","A3RLZJOHLHQ95F","either","2","388","","","","","","","0","0","1","","0.2","0.5","0.5","0.5","0.5","0.8","0.2","0.6","0.2","","","","","","","","","","","","","","74","J","1","","true","0","full_practice","",""
"","bandit","59","404708","0.0-32.0-8.0","37730360","wem/bandit_party_2","A3RLZJOHLHQ95F","either","2","83","","","","","","","0","0","1","","0.2","0.5","0.5","0.5","0.5","0.8","0.2","0.6","0.2","","","","","","","","","","","","","","74","J","1","","true","0","full_practice","",""
"","bandit","60","406717","0.0-32.0-9.0","37730360","wem/bandit_party_2","A3RLZJOHLHQ95F","either","2","493","","","","","","","0","0","1","","0.2","0.5","0.5","0.5","0.5","0.8","0.2","0.6","0.2","","","","","","","","","","","","","","74","J","1","","true","0","full_practice","",""
"","bandit","61","408744","0.0-32.0-10.0","37730360","wem/bandit_party_2","A3RLZJOHLHQ95F","either","2","517","","","","","","","0","0","1","","0.8","0.5","0.5","0.5","0.5","0.8","0.2","0.6","0.2","","","","","","","","","","","","","","72","H","0","img/none_selected.jpg","true","0","full_practice","",""
"","bandit","62","410493","0.0-32.0-11.0","37730360","wem/bandit_party_2","A3RLZJOHLHQ95F","either","2","236","","","","","","","0","1","0","","0.8","0.5","0.5","0.5","0.5","0.8","0.2","0.6","0.2","","","","","","","","","","","","","","72","H","0","img/none_selected.jpg","true","0","full_practice","",""
"","bandit","63","412436","0.0-32.0-12.0","37730360","wem/bandit_party_2","A3RLZJOHLHQ95F","either","2","432","","","","","","","0","0","1","","0.8","0.5","0.5","0.5","0.5","0.8","0.2","0.6","0.2","","","","","","","","","","","","","","72","H","0","img/none_selected.jpg","true","0","full_practice","",""
"","bandit","64","414739","0.0-32.0-13.0","37730360","wem/bandit_party_2","A3RLZJOHLHQ95F","either","2","793","","","","","","","0","0","1","0.2","","0.5","0.5","0.5","0.5","","","","","0.8","0.2","0.6","0.2","","","","","","","","","","74","J","1","","true","0","full_practice","",""
"","bandit","65","416684","0.0-32.0-14.0","37730360","wem/bandit_party_2","A3RLZJOHLHQ95F","either","2","428","","","","","","","0","0","1","","0.6","0.5","0.5","0.5","0.5","0.8","0.2","0.6","0.2","","","","","","","","","","","","","","75","K","2","","true","0","full_practice","",""
"","bandit","66","418239","0.0-32.0-15.0","37730360","wem/bandit_party_2","A3RLZJOHLHQ95F","either","2","44","","","","","","","0","0","1","0.2","","0.5","0.5","0.5","0.5","","","","","0.8","0.2","0.6","0.2","","","","","","","","","","76","L","3","","true","0","full_practice","",""
"","bandit","67","420883","0.0-32.0-16.0","37730360","wem/bandit_party_2","A3RLZJOHLHQ95F","either","2","1132","","","","","","","0","1","0","","0.6","0.5","0.5","0.5","0.5","0.8","0.2","0.6","0.2","","","","","","","","","","","","","","75","K","2","","true","0","full_practice","",""
"","bandit","68","422917","0.0-32.0-17.0","37730360","wem/bandit_party_2","A3RLZJOHLHQ95F","either","2","518","","","","","","","0","1","0","","0.6","0.5","0.5","0.5","0.5","0.8","0.2","0.6","0.2","","","","","","","","","","","","","","75","K","2","","true","0","full_practice","",""
"","bandit","69","424891","0.0-32.0-18.0","37730360","wem/bandit_party_2","A3RLZJOHLHQ95F","either","2","462","","","","","","","1","0","0","0.6","","0.5","0.5","0.5","0.5","","","","","0.8","0.2","0.6","0.2","","","","","","","","","","75","K","2","","true","0","full_practice","",""
"","bandit","70","427042","0.0-32.0-19.0","37730360","wem/bandit_party_2","A3RLZJOHLHQ95F","either","2","637","","","","","","","0","0","1","","0.6","0.5","0.5","0.5","0.5","0.8","0.2","0.6","0.2","","","","","","","","","","","","","","75","K","2","","true","0","full_practice","",""
"","text","71","429851","0.0-33.0","37730360","wem/bandit_party_2","A3RLZJOHLHQ95F","either","2","2789","","","32","","","","","","","","","","","","","","","","","","","","","","","","","","","","","","","","","","","","","",""
"","text-replacement","72","442650","0.0-34.0","37730360","wem/bandit_party_2","A3RLZJOHLHQ95F","either","2","11793","","","32","","","","","","","","","","","","","","","","","","","","","","","","","","","","","","","","","","","","","",""
"","text-replacement","73","449403","0.0-35.0","37730360","wem/bandit_party_2","A3RLZJOHLHQ95F","either","2","6748","","","32","","","","","","","","","","","","","","","","","","","","","","","","","","","","","","","","","","","","","",""
"","text-replacement","74","452808","0.0-36.0","37730360","wem/bandit_party_2","A3RLZJOHLHQ95F","either","2","3397","","","32","","","","","","","","","","","","","","","","","","","","","","","","","","","","","","","","","","","","","",""
"","text-replacement","75","455012","0.0-37.0","37730360","wem/bandit_party_2","A3RLZJOHLHQ95F","either","2","2200","","","32","","","","","","","","","","","","","","","","","","","","","","","","","","","","","","","","","","","","","",""
"","text-replacement","76","456436","0.0-38.0","37730360","wem/bandit_party_2","A3RLZJOHLHQ95F","either","2","1419","","","32","","","","","","","","","","","","","","","","","","","","","","","","","","","","","","","","","","","","","",""
"","survey-multi-choice-replacement","77","461576","0.0-39.0-0.0","37730360","wem/bandit_party_2","A3RLZJOHLHQ95F","either","2","5124","","","","","","","","","","","","","","","","","","","","","","","","Money will be added to the pool for <span style='color:blue;'>DEMOCRATS</span>","","","","","","","attn_check","","","","","","","","","0",""
"","survey-multi-choice-replacement","78","466313","0.0-40.0-0.0","37730360","wem/bandit_party_2","A3RLZJOHLHQ95F","either","2","3724","","","","","","","","","","","","","","","","","","","","","","","","Money will be subtracted from the pool for <span style='color:red;'>REPUBLICANS</span>","","","","","","","attn_check","","","","","","","","","1",""
"","instructions","79","468832","0.0-40.0-1.0-0.0","37730360","wem/bandit_party_2","A3RLZJOHLHQ95F","either","2","1509","","","","","","","","","","","","","","","","","","","","","","","","","","","","","","","","","","","","","","","","","[{""page_index"":0,""viewing_time"":1509}]"
"","survey-multi-choice-replacement","80","475948","0.0-40.1-0.1","37730360","wem/bandit_party_2","A3RLZJOHLHQ95F","either","2","6103","","","","","","","","","","","","","","","","","","","","","","","","Equal amounts of money will be added to the pool for <span style='color:blue;'>DEMOCRATS</span> and subtracted from the pool for <span style='color:red;'>REPUBLICANS</span>","","","","","","","attn_check","","","","","","","","","2",""
"","survey-multi-choice-replacement","81","480297","0.0-41.0-0.0","37730360","wem/bandit_party_2","A3RLZJOHLHQ95F","either","2","3330","","","","","","","","","","","","","","","","","","","","","","","","No money will be added to either pool","","","","","","","attn_check","","","","","","","","","3",""
"","bandit","82","485328","0.0-42.0-0.0","37730360","wem/bandit_party_2","A3RLZJOHLHQ95F","either","2","2508","","","","","","","1","0","0","0.9925337928","","0.6","0.2","0.8","0.4","","","","","0.9925337928","0.7092854079","0.4841938304","0.7961415707","","","","","","","","","","72","H","0","img/none_selected.jpg","","1","main_expt","",""
"","bandit","83","487444","0.0-43.0-0.0","37730360","wem/bandit_party_2","A3RLZJOHLHQ95F","either","2","596","","","","","","","1","0","0","0.9909612399","","0.6","0.2","0.8","0.4","","","","","0.9909612399","0.7343230146","0.5300888233","0.7739630809","","","","","","","","","","72","H","0","img/none_selected.jpg","","2","main_expt","",""
"","bandit","84","489521","0.0-44.0-0.0","37730360","wem/bandit_party_2","A3RLZJOHLHQ95F","either","2","565","","","","","","","1","0","0","0.9875934203","","0.6","0.2","0.8","0.4","","","","","0.9875934203","0.7616266478","0.4747636274","0.807852523","","","","","","","","","","72","H","0","img/none_selected.jpg","","3","main_expt","",""
"","bandit","85","492656","0.0-45.0-0.0","37730360","wem/bandit_party_2","A3RLZJOHLHQ95F","either","2","1617","","","","","","","1","0","0","0.7555889459","","0.6","0.2","0.8","0.4","","","","","0.9782241123","0.7555889459","0.4841015375","0.7922386472","","","","","","","","","","74","J","1","","","4","main_expt","",""
"","bandit","86","494604","0.0-46.0-0.0","37730360","wem/bandit_party_2","A3RLZJOHLHQ95F","either","2","430","","","","","","","0","1","0","","0.733520678","0.6","0.2","0.8","0.4","0.9756627961","0.733520678","0.5545204825","0.865094385","","","","","","","","","","","","","","74","J","1","","","5","main_expt","",""
"","bandit","87","497465","0.0-47.0-0.0","37730360","wem/bandit_party_2","A3RLZJOHLHQ95F","either","2","1345","","","","","","","1","0","0","0.6032406034","","0.6","0.2","0.8","0.4","","","","","0.967089612","0.6705264102","0.6032406034","0.800956518","","","","","","","","","","75","K","2","","","6","main_expt","",""
"","bandit","88","499617","0.0-48.0-0.0","37730360","wem/bandit_party_2","A3RLZJOHLHQ95F","either","2","631","","","","","","","0","0","1","0.6629125932","","0.6","0.2","0.8","0.4","","","","","0.9581374084","0.6395389268","0.6629125932","0.826484282","","","","","","","","","","75","K","2","","","7","main_expt","",""
"","bandit","89","501691","0.0-49.0-0.0","37730360","wem/bandit_party_2","A3RLZJOHLHQ95F","either","2","560","","","","","","","1","0","0","0.6179372523","","0.6","0.2","0.8","0.4","","","","","0.9470057872","0.6463283336","0.6179372523","0.8721258401","","","","","","","","","","75","K","2","","","8","main_expt","",""
"","bandit","90","503607","0.0-50.0-0.0","37730360","wem/bandit_party_2","A3RLZJOHLHQ95F","either","2","407","","","","","","","0","0","1","0.7126464358","","0.6","0.2","0.8","0.4","","","","","0.9776699295","0.5257156782","0.7126464358","0.9123847657","","","","","","","","","","75","K","2","","","9","main_expt","",""
"","bandit","91","505536","0.0-51.0-0.0","37730360","wem/bandit_party_2","A3RLZJOHLHQ95F","either","2","412","","","","","","","0","1","0","","0.8996742502","0.6","0.2","0.8","0.4","0.9728878591","0.4763364632","0.7356985298","0.8996742502","","","","","","","","","","","","","","76","L","3","","","10","main_expt","",""
"","bandit","92","507533","0.0-52.0-0.0","37730360","wem/bandit_party_2","A3RLZJOHLHQ95F","either","2","488","","","","","","","0","0","1","0.768711937","","0.6","0.2","0.8","0.4","","","","","0.9593139104","0.4284616273","0.768711937","0.9131723876","","","","","","","","","","75","K","2","","","11","main_expt","",""
"","bandit","93","509512","0.0-53.0-0.0","37730360","wem/bandit_party_2","A3RLZJOHLHQ95F","either","2","459","","","","","","","0","0","1","","0.3846657661","0.6","0.2","0.8","0.4","0.9498917819","0.3846657661","0.775032537","0.8766857583","","","","","","","","","","","","","","74","J","1","","","12","main_expt","",""
"","bandit","94","511477","0.0-54.0-0.0","37730360","wem/bandit_party_2","A3RLZJOHLHQ95F","either","2","451","","","","","","","0","0","1","0.4534267517","","0.6","0.2","0.8","0.4","","","","","0.9541602679","0.4534267517","0.8005481332","0.8395211377","","","","","","","","","","74","J","1","","","13","main_expt","",""
"","bandit","95","513538","0.0-55.0-0.0","37730360","wem/bandit_party_2","A3RLZJOHLHQ95F","either","2","547","","","","","","","0","1","0","","0.5781166702","0.6","0.2","0.8","0.4","0.9457654821","0.5781166702","0.8437703121","0.8716273459","","","","","","","","","","","","","","74","J","1","","","14","main_expt","",""
"","bandit","96","515543","0.0-56.0-0.0","37730360","wem/bandit_party_2","A3RLZJOHLHQ95F","either","2","495","","","","","","","1","0","0","0.961431504","","0.6","0.2","0.8","0.4","","","","","0.961431504","0.6683268695","0.7878475566","0.8884181174","","","","","","","","","","72","H","0","img/none_selected.jpg","","15","main_expt","",""
"","bandit","97","517510","0.0-57.0-0.0","37730360","wem/bandit_party_2","A3RLZJOHLHQ95F","either","2","454","","","","","","","1","0","0","0.9614480804","","0.6","0.2","0.8","0.4","","","","","0.9614480804","0.6948649322","0.7873795395","0.9144873871","","","","","","","","","","72","H","0","img/none_selected.jpg","","16","main_expt","",""
"","bandit","98","519394","0.0-58.0-0.0","37730360","wem/bandit_party_2","A3RLZJOHLHQ95F","either","2","369","","","","","","","0","1","0","","0.981184269","0.6","0.2","0.8","0.4","0.981184269","0.7674725463","0.8084550093","0.915766025","","","","","","","","","","","","","","72","H","0","img/none_selected.jpg","","17","main_expt","",""
"","bandit","99","521640","0.0-59.0-0.0","37730360","wem/bandit_party_2","A3RLZJOHLHQ95F","either","2","730","","","","","","","1","0","0","0.9861919244","","0.6","0.2","0.8","0.4","","","","","0.9861919244","0.7706733977","0.8436933745","0.9357816117","","","","","","","","","","72","H","0","img/none_selected.jpg","","18","main_expt","",""
"","bandit","100","523805","0.0-60.0-0.0","37730360","wem/bandit_party_2","A3RLZJOHLHQ95F","either","2","647","","","","","","","1","0","0","0.986789567","","0.6","0.2","0.8","0.4","","","","","0.986789567","0.7396491891","0.8059530903","0.9482019282","","","","","","","","","","72","H","0","img/none_selected.jpg","","19","main_expt","",""
"","bandit","101","525859","0.0-61.0-0.0","37730360","wem/bandit_party_2","A3RLZJOHLHQ95F","either","2","540","","","","","","","0","1","0","","0.986183881","0.6","0.2","0.8","0.4","0.986183881","0.6712916173","0.7839513496","0.9433726768","","","","","","","","","","","","","","72","H","0","img/none_selected.jpg","","20","main_expt","",""
"","bandit","102","527732","0.0-62.0-0.0","37730360","wem/bandit_party_2","A3RLZJOHLHQ95F","either","2","359","","","","","","","1","0","0","0.9887099493","","0.6","0.2","0.8","0.4","","","","","0.9887099493","0.6728887443","0.7841815244","0.9488284628","","","","","","","","","","72","H","0","img/none_selected.jpg","","21","main_expt","",""
"","bandit","103","530116","0.0-63.0-0.0","37730360","wem/bandit_party_2","A3RLZJOHLHQ95F","either","2","867","","","","","","","0","1","0","","0.992558567","0.6","0.2","0.8","0.4","0.992558567","0.7838502077","0.8256278583","0.9500515088","","","","","","","","","","","","","","72","H","0","img/none_selected.jpg","","22","main_expt","",""
"","bandit","104","532549","0.0-64.0-0.0","37730360","wem/bandit_party_2","A3RLZJOHLHQ95F","either","2","918","","","","","","","0","1","0","","0.8711917965","0.6","0.2","0.8","0.4","0.9906074595","0.8711917965","0.7043778873","0.9645760881","","","","","","","","","","","","","","74","J","1","","","23","main_expt","",""
"","bandit","105","534529","0.0-65.0-0.0","37730360","wem/bandit_party_2","A3RLZJOHLHQ95F","either","2","465","","","","","","","1","0","0","0.9828703082","","0.6","0.2","0.8","0.4","","","","","0.9828703082","0.861124964","0.7662705475","0.946785539","","","","","","","","","","72","H","0","img/none_selected.jpg","","24","main_expt","",""
"","bandit","106","536999","0.0-66.0-0.0","37730360","wem/bandit_party_2","A3RLZJOHLHQ95F","either","2","956","","","","","","","1","0","0","0.984618899","","0.6","0.2","0.8","0.4","","","","","0.984618899","0.8551403996","0.6915147264","0.9229473608","","","","","","","","","","72","H","0","img/none_selected.jpg","","25","main_expt","",""
"","bandit","107","538925","0.0-67.0-0.0","37730360","wem/bandit_party_2","A3RLZJOHLHQ95F","either","2","409","","","","","","","0","1","0","","0.8959771014","0.6","0.2","0.8","0.4","0.9780938917","0.8959771014","0.6844606422","0.8729820127","","","","","","","","","","","","","","74","J","1","","","26","main_expt","",""
"","bandit","108","540775","0.0-68.0-0.0","37730360","wem/bandit_party_2","A3RLZJOHLHQ95F","either","2","336","","","","","","","0","1","0","","0.9634866904","0.6","0.2","0.8","0.4","0.9634866904","0.8786292531","0.7953701942","0.859067388","","","","","","","","","","","","","","72","H","0","img/none_selected.jpg","","27","main_expt","",""
"","bandit","109","542717","0.0-69.0-0.0","37730360","wem/bandit_party_2","A3RLZJOHLHQ95F","either","2","426","","","","","","","0","1","0","","0.8920593834","0.6","0.2","0.8","0.4","0.946494378","0.8920593834","0.622657036","0.836267867","","","","","","","","","","","","","","74","J","1","","","28","main_expt","",""
"","bandit","110","544983","0.0-70.0-0.0","37730360","wem/bandit_party_2","A3RLZJOHLHQ95F","either","2","751","","","","","","","0","0","1","0.5757463716","","0.6","0.2","0.8","0.4","","","","","0.9338647731","0.8234517222","0.5757463716","0.7158546556","","","","","","","","","","75","K","2","","","29","main_expt","",""
"","bandit","111","547336","0.0-71.0-0.0","37730360","wem/bandit_party_2","A3RLZJOHLHQ95F","either","2","836","","","","","","","0","1","0","","0.7262950886","0.6","0.2","0.8","0.4","0.9354801528","0.7963444676","0.6048158844","0.7262950886","","","","","","","","","","","","","","76","L","3","","","30","main_expt","",""
"","bandit","112","549467","0.0-72.0-0.0","37730360","wem/bandit_party_2","A3RLZJOHLHQ95F","either","2","615","","","","","","","0","1","0","","0.9323861487","0.6","0.2","0.8","0.4","0.9323861487","0.6847131082","0.4831208743","0.7049485024","","","","","","","","","","","","","","72","H","0","img/none_selected.jpg","","31","main_expt","",""
"","bandit","113","551444","0.0-73.0-0.0","37730360","wem/bandit_party_2","A3RLZJOHLHQ95F","either","2","461","","","","","","","1","0","0","0.7745616343","","0.6","0.2","0.8","0.4","","","","","0.9159531952","0.7745616343","0.4413454117","0.6294605358","","","","","","","","","","74","J","1","","","32","main_expt","",""
"","bandit","114","573096","0.0-74.0-0.0","37730360","wem/bandit_party_2","A3RLZJOHLHQ95F","either","2","20135","","","","","","","1","0","0","0.9501333659","","0.6","0.2","0.8","0.4","","","","","0.9501333659","0.8111568365","0.589686364","0.7097184707","","","","","","","","","","72","H","0","img/none_selected.jpg","","33","main_expt","",""
"","bandit","115","575202","0.0-75.0-0.0","37730360","wem/bandit_party_2","A3RLZJOHLHQ95F","either","2","585","","","","","","","0","1","0","","0.9485118263","0.6","0.2","0.8","0.4","0.9485118263","0.7291364049","0.5789977489","0.6324728327","","","","","","","","","","","","","","72","H","0","img/none_selected.jpg","","34","main_expt","",""
"","bandit","116","577084","0.0-76.0-0.0","37730360","wem/bandit_party_2","A3RLZJOHLHQ95F","either","2","362","","","","","","","0","0","1","","0.959491173","0.6","0.2","0.8","0.4","0.959491173","0.7920219322","0.5605822786","0.6809104991","","","","","","","","","","","","","","72","H","0","img/none_selected.jpg","","35","main_expt","",""
"","bandit","117","578981","0.0-77.0-0.0","37730360","wem/bandit_party_2","A3RLZJOHLHQ95F","either","2","378","","","","","","","1","0","0","0.9523687656","","0.6","0.2","0.8","0.4","","","","","0.9523687656","0.7889809596","0.3330948712","0.5745256001","","","","","","","","","","72","H","0","img/none_selected.jpg","","36","main_expt","",""
"","bandit","118","581175","0.0-78.0-0.0","37730360","wem/bandit_party_2","A3RLZJOHLHQ95F","either","2","677","","","","","","","0","1","0","","0.9504344127","0.6","0.2","0.8","0.4","0.9504344127","0.8060385269","0.2430176499","0.6249275122","","","","","","","","","","","","","","72","H","0","img/none_selected.jpg","","37","main_expt","",""
"","bandit","119","583417","0.0-79.0-0.0","37730360","wem/bandit_party_2","A3RLZJOHLHQ95F","either","2","728","","","","","","","0","1","0","","0.7188782676","0.6","0.2","0.8","0.4","0.9321408283","0.7188782676","0.3106083343","0.5582777804","","","","","","","","","","","","","","74","J","1","","","38","main_expt","",""
"","bandit","120","585442","0.0-80.0-0.0","37730360","wem/bandit_party_2","A3RLZJOHLHQ95F","either","2","507","","","","","","","0","1","0","","0.7387945131","0.6","0.2","0.8","0.4","0.9135525369","0.7387945131","0.3239447463","0.6619895395","","","","","","","","","","","","","","74","J","1","","","39","main_expt","",""
"","bandit","121","587347","0.0-81.0-0.0","37730360","wem/bandit_party_2","A3RLZJOHLHQ95F","either","2","389","","","","","","","0","1","0","","0.2946631509","0.6","0.2","0.8","0.4","0.8840916364","0.7478035428","0.2946631509","0.6522152691","","","","","","","","","","","","","","75","K","2","","","40","main_expt","",""
"","bandit","122","589253","0.0-82.0-0.0","37730360","wem/bandit_party_2","A3RLZJOHLHQ95F","either","2","384","","","","","","","0","1","0","","0.8747037504","0.6","0.2","0.8","0.4","0.8747037504","0.7802386085","0.193597671","0.6714070371","","","","","","","","","","","","","","72","H","0","img/none_selected.jpg","","41","main_expt","",""
"","bandit","123","591263","0.0-83.0-0.0","37730360","wem/bandit_party_2","A3RLZJOHLHQ95F","either","2","487","","","","","","","1","0","0","0.7994277013","","0.6","0.2","0.8","0.4","","","","","0.826315498","0.7994277013","0.1834529884","0.6390104416","","","","","","","","","","74","J","1","","","42","main_expt","",""
"","bandit","124","593256","0.0-84.0-0.0","37730360","wem/bandit_party_2","A3RLZJOHLHQ95F","either","2","472","","","","","","","0","1","0","","0.8718069658","0.6","0.2","0.8","0.4","0.7681371561","0.8718069658","0.1558663495","0.6318841448","","","","","","","","","","","","","","74","J","1","","","43","main_expt","",""
"","bandit","125","595217","0.0-85.0-0.0","37730360","wem/bandit_party_2","A3RLZJOHLHQ95F","either","2","448","","","","","","","1","0","0","0.7584360225","","0.6","0.2","0.8","0.4","","","","","0.7584360225","0.7725207311","0.1573065196","0.5708139437","","","","","","","","","","72","H","0","img/none_selected.jpg","","44","main_expt","",""
"","bandit","126","597096","0.0-86.0-0.0","37730360","wem/bandit_party_2","A3RLZJOHLHQ95F","either","2","364","","","","","","","1","0","0","0.816959585","","0.6","0.2","0.8","0.4","","","","","0.816959585","0.8399140445","0.1743203636","0.5703812278","","","","","","","","","","72","H","0","img/none_selected.jpg","","45","main_expt","",""
"","bandit","127","599348","0.0-87.0-0.0","37730360","wem/bandit_party_2","A3RLZJOHLHQ95F","either","2","734","","","","","","","0","1","0","","0.4520700595","0.6","0.2","0.8","0.4","0.7571269921","0.7830678696","0.1234040722","0.4520700595","","","","","","","","","","","","","","76","L","3","","","46","main_expt","",""
"","bandit","128","601303","0.0-88.0-0.0","37730360","wem/bandit_party_2","A3RLZJOHLHQ95F","either","2","440","","","","","","","0","0","1","","0.1592846429","0.6","0.2","0.8","0.4","0.7086567283","0.8255209912","0.1592846429","0.4953600952","","","","","","","","","","","","","","75","K","2","","","47","main_expt","",""
"","bandit","129","603474","0.0-89.0-0.0","37730360","wem/bandit_party_2","A3RLZJOHLHQ95F","either","2","653","","","","","","","1","0","0","0.6428227569","","0.6","0.2","0.8","0.4","","","","","0.6428227569","0.7728754614","0.1880090658","0.4912921637","","","","","","","","","","72","H","0","img/none_selected.jpg","","48","main_expt","",""
"","bandit","130","605451","0.0-90.0-0.0","37730360","wem/bandit_party_2","A3RLZJOHLHQ95F","either","2","462","","","","","","","1","0","0","0.7004196772","","0.6","0.2","0.8","0.4","","","","","0.7004196772","0.8607162984","0.3190576765","0.4694413912","","","","","","","","","","72","H","0","img/none_selected.jpg","","49","main_expt","",""
"","bandit","131","608096","0.0-91.0-0.0","37730360","wem/bandit_party_2","A3RLZJOHLHQ95F","either","2","1131","","","","","","","0","0","1","","0.277770718","0.6","0.2","0.8","0.4","0.6418514465","0.8526113732","0.277770718","0.5835687148","","","","","","","","","","","","","","75","K","2","","","50","main_expt","",""
"","bandit","132","609985","0.0-92.0-0.0","37730360","wem/bandit_party_2","A3RLZJOHLHQ95F","either","2","371","","","","","","","0","1","0","","0.8630835666","0.6","0.2","0.8","0.4","0.6322169777","0.8630835666","0.3304163056","0.581499138","","","","","","","","","","","","","","74","J","1","","","51","main_expt","",""
"","bandit","133","611974","0.0-93.0-0.0","37730360","wem/bandit_party_2","A3RLZJOHLHQ95F","either","2","474","","","","","","","0","0","1","0.6160259873","","0.6","0.2","0.8","0.4","","","","","0.6160259873","0.8689990829","0.3074301744","0.6521379128","","","","","","","","","","72","H","0","img/none_selected.jpg","","52","main_expt","",""
"","bandit","134","614254","0.0-94.0-0.0","37730360","wem/bandit_party_2","A3RLZJOHLHQ95F","either","2","765","","","","","","","0","1","0","","0.5743957808","0.6","0.2","0.8","0.4","0.6635838846","0.8829627288","0.3292402402","0.5743957808","","","","","","","","","","","","","","76","L","3","","","53","main_expt","",""
"","bandit","135","616148","0.0-95.0-0.0","37730360","wem/bandit_party_2","A3RLZJOHLHQ95F","either","2","376","","","","","","","1","0","0","0.7334380463","","0.6","0.2","0.8","0.4","","","","","0.7334380463","0.8577096669","0.3701383524","0.4765250731","","","","","","","","","","72","H","0","img/none_selected.jpg","","54","main_expt","",""
"","bandit","136","618294","0.0-96.0-0.0","37730360","wem/bandit_party_2","A3RLZJOHLHQ95F","either","2","630","","","","","","","0","1","0","","0.6625049704","0.6","0.2","0.8","0.4","0.6625049704","0.7951355038","0.4023440482","0.472038817","","","","","","","","","","","","","","72","H","0","img/none_selected.jpg","","55","main_expt","",""
"","bandit","137","620551","0.0-97.0-0.0","37730360","wem/bandit_party_2","A3RLZJOHLHQ95F","either","2","741","","","","","","","0","1","0","","0.7832403428","0.6","0.2","0.8","0.4","0.6244126183","0.7832403428","0.3320470731","0.6060805283","","","","","","","","","","","","","","74","J","1","","","56","main_expt","",""
"","bandit","138","622469","0.0-98.0-0.0","37730360","wem/bandit_party_2","A3RLZJOHLHQ95F","either","2","401","","","","","","","1","0","0","0.693445159","","0.6","0.2","0.8","0.4","","","","","0.693445159","0.7165346004","0.3398704556","0.5733746242","","","","","","","","","","72","H","0","img/none_selected.jpg","","57","main_expt","",""
"","bandit","139","624531","0.0-99.0-0.0","37730360","wem/bandit_party_2","A3RLZJOHLHQ95F","either","2","548","","","","","","","1","0","0","0.6603141298","","0.6","0.2","0.8","0.4","","","","","0.6603141298","0.7840704931","0.3171476707","0.5268086549","","","","","","","","","","72","H","0","img/none_selected.jpg","","58","main_expt","",""
"","bandit","140","626788","0.0-100.0-0.0","37730360","wem/bandit_party_2","A3RLZJOHLHQ95F","either","2","740","","","","","","","1","0","0","0.6435133917","","0.6","0.2","0.8","0.4","","","","","0.6435133917","0.7166558068","0.1868584885","0.5298916697","","","","","","","","","","72","H","0","img/none_selected.jpg","","59","main_expt","",""
"","bandit","141","628576","0.0-101.0-0.0","37730360","wem/bandit_party_2","A3RLZJOHLHQ95F","either","2","272","","","","","","","0","0","1","","0.6720075741","0.6","0.2","0.8","0.4","0.6720075741","0.6505055492","0.2163153633","0.5547432704","","","","","","","","","","","","","","72","H","0","img/none_selected.jpg","","60","main_expt","",""
"","bandit","142","630870","0.0-102.0-0.0","37730360","wem/bandit_party_2","A3RLZJOHLHQ95F","either","2","776","","","","","","","0","1","0","","0.2086512551","0.6","0.2","0.8","0.4","0.6703611074","0.6465946667","0.2086512551","0.5407031957","","","","","","","","","","","","","","75","K","2","","","61","main_expt","",""
"","bandit","143","632720","0.0-103.0-0.0","37730360","wem/bandit_party_2","A3RLZJOHLHQ95F","either","2","330","","","","","","","0","1","0","","0.709990362","0.6","0.2","0.8","0.4","0.64477312","0.709990362","0.2250062338","0.6993449034","","","","","","","","","","","","","","74","J","1","","","62","main_expt","",""
"","bandit","144","634681","0.0-104.0-0.0","37730360","wem/bandit_party_2","A3RLZJOHLHQ95F","either","2","442","","","","","","","1","0","0","0.6342967703","","0.6","0.2","0.8","0.4","","","","","0.509049177","0.7542168012","0.2739380208","0.6342967703","","","","","","","","","","76","L","3","","","63","main_expt","",""
"","bandit","145","636808","0.0-105.0-0.0","37730360","wem/bandit_party_2","A3RLZJOHLHQ95F","either","2","609","","","","","","","0","0","1","0.5961490325","","0.6","0.2","0.8","0.4","","","","","0.5535424332","0.7660604158","0.3449536465","0.5961490325","","","","","","","","","","76","L","3","","","64","main_expt","",""
"","bandit","146","638869","0.0-106.0-0.0","37730360","wem/bandit_party_2","A3RLZJOHLHQ95F","either","2","547","","","","","","","0","0","1","","0.5771190674","0.6","0.2","0.8","0.4","0.6608621899","0.7572602099","0.34640195","0.5771190674","","","","","","","","","","","","","","76","L","3","","","65","main_expt","",""
"","bandit","147","640802","0.0-107.0-0.0","37730360","wem/bandit_party_2","A3RLZJOHLHQ95F","either","2","411","","","","","","","0","0","1","0.4765921407","","0.6","0.2","0.8","0.4","","","","","0.6535341977","0.686926195","0.5266288285","0.4765921407","","","","","","","","","","76","L","3","","","66","main_expt","",""
"","bandit","148","642813","0.0-108.0-0.0","37730360","wem/bandit_party_2","A3RLZJOHLHQ95F","either","2","492","","","","","","","0","0","1","0.6592628399","","0.6","0.2","0.8","0.4","","","","","0.6592628399","0.7334195653","0.5588671697","0.5714361875","","","","","","","","","","72","H","0","img/none_selected.jpg","","67","main_expt","",""
"","bandit","149","644702","0.0-109.0-0.0","37730360","wem/bandit_party_2","A3RLZJOHLHQ95F","either","2","374","","","","","","","0","1","0","","0.6231829193","0.6","0.2","0.8","0.4","0.6735013879","0.6114245881","0.6097536784","0.6231829193","","","","","","","","","","","","","","76","L","3","","","68","main_expt","",""
"","bandit","150","646819","0.0-110.0-0.0","37730360","wem/bandit_party_2","A3RLZJOHLHQ95F","either","2","596","","","","","","","0","1","0","","0.5130256365","0.6","0.2","0.8","0.4","0.7209687993","0.6460921668","0.533457584","0.5130256365","","","","","","","","","","","","","","76","L","3","","","69","main_expt","",""
"","bandit","151","648729","0.0-111.0-0.0","37730360","wem/bandit_party_2","A3RLZJOHLHQ95F","either","2","394","","","","","","","0","0","1","0.4124750721","","0.6","0.2","0.8","0.4","","","","","0.690528825","0.6700702736","0.4124750721","0.5167166","","","","","","","","","","75","K","2","","","70","main_expt","",""
"","bandit","152","650556","0.0-112.0-0.0","37730360","wem/bandit_party_2","A3RLZJOHLHQ95F","either","2","312","","","","","","","0","1","0","","0.6388012411","0.6","0.2","0.8","0.4","0.6453310316","0.6388012411","0.4486526525","0.6448170737","","","","","","","","","","","","","","74","J","1","","","71","main_expt","",""
"","bandit","153","652545","0.0-113.0-0.0","37730360","wem/bandit_party_2","A3RLZJOHLHQ95F","either","2","470","","","","","","","0","1","0","","0.6046900378","0.6","0.2","0.8","0.4","0.8140348339","0.6046900378","0.4313602212","0.5640434706","","","","","","","","","","","","","","74","J","1","","","72","main_expt","",""
"","bandit","154","654427","0.0-114.0-0.0","37730360","wem/bandit_party_2","A3RLZJOHLHQ95F","either","2","368","","","","","","","0","1","0","","0.820931829","0.6","0.2","0.8","0.4","0.820931829","0.6062428704","0.3639072561","0.6296110197","","","","","","","","","","","","","","72","H","0","img/none_selected.jpg","","73","main_expt","",""
"","bandit","155","656275","0.0-115.0-0.0","37730360","wem/bandit_party_2","A3RLZJOHLHQ95F","either","2","332","","","","","","","1","0","0","0.8096233945","","0.6","0.2","0.8","0.4","","","","","0.8096233945","0.6237194739","0.2882181569","0.6730210969","","","","","","","","","","72","H","0","img/none_selected.jpg","","74","main_expt","",""
"","bandit","156","658263","0.0-116.0-0.0","37730360","wem/bandit_party_2","A3RLZJOHLHQ95F","either","2","471","","","","","","","0","1","0","","0.7615001707","0.6","0.2","0.8","0.4","0.7615001707","0.5971007372","0.3561187133","0.5720403827","","","","","","","","","","","","","","72","H","0","img/none_selected.jpg","","75","main_expt","",""
"","bandit","157","660200","0.0-117.0-0.0","37730360","wem/bandit_party_2","A3RLZJOHLHQ95F","either","2","421","","","","","","","0","0","1","","0.5810032438","0.6","0.2","0.8","0.4","0.8147365981","0.5810032438","0.4480894403","0.6303512149","","","","","","","","","","","","","","74","J","1","","","76","main_expt","",""
"","bandit","158","662239","0.0-118.0-0.0","37730360","wem/bandit_party_2","A3RLZJOHLHQ95F","either","2","520","","","","","","","1","0","0","0.8926338818","","0.6","0.2","0.8","0.4","","","","","0.8926338818","0.5792233978","0.3220850356","0.5531797874","","","","","","","","","","72","H","0","img/none_selected.jpg","","77","main_expt","",""
"","bandit","159","664084","0.0-119.0-0.0","37730360","wem/bandit_party_2","A3RLZJOHLHQ95F","either","2","328","","","","","","","0","1","0","","0.8669072201","0.6","0.2","0.8","0.4","0.8669072201","0.692511921","0.3281133775","0.5449672882","","","","","","","","","","","","","","72","H","0","img/none_selected.jpg","","78","main_expt","",""
"","bandit","160","666078","0.0-120.0-0.0","37730360","wem/bandit_party_2","A3RLZJOHLHQ95F","either","2","475","","","","","","","0","1","0","","0.7019625083","0.6","0.2","0.8","0.4","0.9114006046","0.7019625083","0.3814329202","0.4484013318","","","","","","","","","","","","","","74","J","1","","","79","main_expt","",""
"","bandit","161","668024","0.0-121.0-0.0","37730360","wem/bandit_party_2","A3RLZJOHLHQ95F","either","2","426","","","","","","","0","1","0","","0.9268398106","0.6","0.2","0.8","0.4","0.9268398106","0.6785675641","0.3512572076","0.5041425745","","","","","","","","","","","","","","72","H","0","img/none_selected.jpg","","80","main_expt","",""
"","bandit","162","670136","0.0-122.0-0.0","37730360","wem/bandit_party_2","A3RLZJOHLHQ95F","either","2","592","","","","","","","0","1","0","","0.7101061672","0.6","0.2","0.8","0.4","0.9582858862","0.7101061672","0.3624285329","0.3462078978","","","","","","","","","","","","","","74","J","1","","","81","main_expt","",""
"","bandit","163","672046","0.0-123.0-0.0","37730360","wem/bandit_party_2","A3RLZJOHLHQ95F","either","2","390","","","","","","","0","0","1","0.3111883408","","0.6","0.2","0.8","0.4","","","","","0.9590071975","0.7217376576","0.3111883408","0.3226795418","","","","","","","","","","75","K","2","","","82","main_expt","",""
"","bandit","164","674075","0.0-124.0-0.0","37730360","wem/bandit_party_2","A3RLZJOHLHQ95F","either","2","507","","","","","","","0","0","1","0.3023868023","","0.6","0.2","0.8","0.4","","","","","0.9379973093","0.6437777395","0.243162563","0.3023868023","","","","","","","","","","76","L","3","","","83","main_expt","",""
"","bandit","165","675995","0.0-125.0-0.0","37730360","wem/bandit_party_2","A3RLZJOHLHQ95F","either","2","404","","","","","","","0","0","1","0.4040419094","","0.6","0.2","0.8","0.4","","","","","0.9411979228","0.6533183273","0.347146949","0.4040419094","","","","","","","","","","76","L","3","","","84","main_expt","",""
"","bandit","166","677941","0.0-126.0-0.0","37730360","wem/bandit_party_2","A3RLZJOHLHQ95F","either","2","430","","","","","","","0","1","0","","0.4716136817","0.6","0.2","0.8","0.4","0.9441700551","0.7469548387","0.4416309426","0.4716136817","","","","","","","","","","","","","","76","L","3","","","85","main_expt","",""
"","bandit","167","679827","0.0-127.0-0.0","37730360","wem/bandit_party_2","A3RLZJOHLHQ95F","either","2","364","","","","","","","0","0","1","","0.4455883603","0.6","0.2","0.8","0.4","0.9323605113","0.7366570046","0.4523797492","0.4455883603","","","","","","","","","","","","","","76","L","3","","","86","main_expt","",""
"","bandit","168","681694","0.0-128.0-0.0","37730360","wem/bandit_party_2","A3RLZJOHLHQ95F","either","2","343","","","","","","","1","0","0","0.5952575165","","0.6","0.2","0.8","0.4","","","","","0.8871332711","0.7142428019","0.4621103264","0.5952575165","","","","","","","","","","76","L","3","","","87","main_expt","",""
"","bandit","169","683572","0.0-129.0-0.0","37730360","wem/bandit_party_2","A3RLZJOHLHQ95F","either","2","361","","","","","","","0","1","0","","0.5333825583","0.6","0.2","0.8","0.4","0.8520973281","0.7057172343","0.3800084876","0.5333825583","","","","","","","","","","","","","","76","L","3","","","88","main_expt","",""
"","bandit","170","685427","0.0-130.0-0.0","37730360","wem/bandit_party_2","A3RLZJOHLHQ95F","either","2","334","","","","","","","0","0","1","0.2354372355","","0.6","0.2","0.8","0.4","","","","","0.7882210871","0.7289934888","0.2354372355","0.4583166828","","","","","","","","","","75","K","2","","","89","main_expt","",""
"","bandit","171","687383","0.0-131.0-0.0","37730360","wem/bandit_party_2","A3RLZJOHLHQ95F","either","2","439","","","","","","","0","0","1","0.2978482647","","0.6","0.2","0.8","0.4","","","","","0.720110267","0.7475354559","0.2978482647","0.4782349553","","","","","","","","","","75","K","2","","","90","main_expt","",""
"","bandit","172","689247","0.0-132.0-0.0","37730360","wem/bandit_party_2","A3RLZJOHLHQ95F","either","2","345","","","","","","","1","0","0","0.3723871884","","0.6","0.2","0.8","0.4","","","","","0.7390342074","0.6316706059","0.3723871884","0.464138054","","","","","","","","","","75","K","2","","","91","main_expt","",""
"","bandit","173","691141","0.0-133.0-0.0","37730360","wem/bandit_party_2","A3RLZJOHLHQ95F","either","2","378","","","","","","","0","0","1","0.5400298203","","0.6","0.2","0.8","0.4","","","","","0.8135224625","0.6957908828","0.5400298203","0.5084128334","","","","","","","","","","75","K","2","","","92","main_expt","",""
"","bandit","174","693030","0.0-134.0-0.0","37730360","wem/bandit_party_2","A3RLZJOHLHQ95F","either","2","377","","","","","","","1","0","0","0.6812665662","","0.6","0.2","0.8","0.4","","","","","0.7814404678","0.6812665662","0.5134744583","0.5211356389","","","","","","","","","","74","J","1","","","93","main_expt","",""
"","bandit","175","694830","0.0-135.0-0.0","37730360","wem/bandit_party_2","A3RLZJOHLHQ95F","either","2","283","","","","","","","1","0","0","0.6412933588","","0.6","0.2","0.8","0.4","","","","","0.7672416568","0.6412933588","0.4101580275","0.4554037602","","","","","","","","","","74","J","1","","","94","main_expt","",""
"","bandit","176","696671","0.0-136.0-0.0","37730360","wem/bandit_party_2","A3RLZJOHLHQ95F","either","2","321","","","","","","","0","0","1","","0.5696630174","0.6","0.2","0.8","0.4","0.7573973965","0.5696630174","0.2995167601","0.4195046205","","","","","","","","","","","","","","74","J","1","","","95","main_expt","",""
"","bandit","177","698575","0.0-137.0-0.0","37730360","wem/bandit_party_2","A3RLZJOHLHQ95F","either","2","385","","","","","","","0","1","0","","0.6076398096","0.6","0.2","0.8","0.4","0.8177369732","0.6076398096","0.2934894425","0.3638478563","","","","","","","","","","","","","","74","J","1","","","96","main_expt","",""
"","bandit","178","700449","0.0-138.0-0.0","37730360","wem/bandit_party_2","A3RLZJOHLHQ95F","either","2","349","","","","","","","0","0","1","0.5551612935","","0.6","0.2","0.8","0.4","","","","","0.8124666872","0.5551612935","0.2802715202","0.2839735208","","","","","","","","","","74","J","1","","","97","main_expt","",""
"","bandit","179","702453","0.0-139.0-0.0","37730360","wem/bandit_party_2","A3RLZJOHLHQ95F","either","2","486","","","","","","","0","1","0","","0.6354974245","0.6","0.2","0.8","0.4","0.881496875","0.6354974245","0.2703087955","0.2109275999","","","","","","","","","","","","","","74","J","1","","","98","main_expt","",""
"","bandit","180","704333","0.0-140.0-0.0","37730360","wem/bandit_party_2","A3RLZJOHLHQ95F","either","2","366","","","","","","","0","1","0","","0.5945745664","0.6","0.2","0.8","0.4","0.8785981907","0.5945745664","0.3027543159","0.1531506719","","","","","","","","","","","","","","74","J","1","","","99","main_expt","",""
"","bandit","181","706170","0.0-141.0-0.0","37730360","wem/bandit_party_2","A3RLZJOHLHQ95F","either","2","316","","","","","","","0","0","1","0.5679097985","","0.6","0.2","0.8","0.4","","","","","0.8494581726","0.5679097985","0.3645318829","0.1262108991","","","","","","","","","","74","J","1","","","100","main_expt","",""
"","bandit","182","708012","0.0-142.0-0.0","37730360","wem/bandit_party_2","A3RLZJOHLHQ95F","either","2","323","","","","","","","0","0","1","","0.6430580454","0.6","0.2","0.8","0.4","0.7754784616","0.6430580454","0.4315832637","0.1340220502","","","","","","","","","","","","","","74","J","1","","","101","main_expt","",""
"","bandit","183","709823","0.0-143.0-0.0","37730360","wem/bandit_party_2","A3RLZJOHLHQ95F","either","2","292","","","","","","","0","0","1","","0.6340200926","0.6","0.2","0.8","0.4","0.7626736499","0.6340200926","0.3608531129","0.2167126086","","","","","","","","","","","","","","74","J","1","","","102","main_expt","",""
"","bandit","184","711682","0.0-144.0-0.0","37730360","wem/bandit_party_2","A3RLZJOHLHQ95F","either","2","343","","","","","","","0","1","0","","0.6377668076","0.6","0.2","0.8","0.4","0.7329996306","0.6377668076","0.3688981903","0.2796352144","","","","","","","","","","","","","","74","J","1","","","103","main_expt","",""
"","bandit","185","713956","0.0-145.0-0.0","37730360","wem/bandit_party_2","A3RLZJOHLHQ95F","either","2","754","","","","","","","0","0","1","0.7467689404","","0.6","0.2","0.8","0.4","","","","","0.7467689404","0.6578341575","0.3758155051","0.3556406549","","","","","","","","","","72","H","0","img/none_selected.jpg","","104","main_expt","",""
"","bandit","186","715912","0.0-146.0-0.0","37730360","wem/bandit_party_2","A3RLZJOHLHQ95F","either","2","439","","","","","","","0","1","0","","0.6727034752","0.6","0.2","0.8","0.4","0.737018723","0.6727034752","0.4508947075","0.3233911601","","","","","","","","","","","","","","74","J","1","","","105","main_expt","",""
"","bandit","187","717632","0.0-147.0-0.0","37730360","wem/bandit_party_2","A3RLZJOHLHQ95F","either","2","190","","","","","","","0","0","1","0.655194185","","0.6","0.2","0.8","0.4","","","","","0.655194185","0.6386482702","0.4132181144","0.2024631506","","","","","","","","","","72","H","0","img/none_selected.jpg","","106","main_expt","",""
"","bandit","188","719457","0.0-148.0-0.0","37730360","wem/bandit_party_2","A3RLZJOHLHQ95F","either","2","305","","","","","","","0","1","0","","0.7122819559","0.6","0.2","0.8","0.4","0.7122819559","0.6788938686","0.4393512677","0.2290393164","","","","","","","","","","","","","","72","H","0","img/none_selected.jpg","","107","main_expt","",""
"","bandit","189","721311","0.0-149.0-0.0","37730360","wem/bandit_party_2","A3RLZJOHLHQ95F","either","2","337","","","","","","","0","0","1","","0.7326995505","0.6","0.2","0.8","0.4","0.7326995505","0.7076498576","0.4964319729","0.2217712157","","","","","","","","","","","","","","72","H","0","img/none_selected.jpg","","108","main_expt","",""
"","bandit","190","723145","0.0-150.0-0.0","37730360","wem/bandit_party_2","A3RLZJOHLHQ95F","either","2","313","","","","","","","1","0","0","0.7165499475","","0.6","0.2","0.8","0.4","","","","","0.7165499475","0.6932550908","0.4790921069","0.1566860935","","","","","","","","","","72","H","0","img/none_selected.jpg","","109","main_expt","",""
"","bandit","191","725051","0.0-151.0-0.0","37730360","wem/bandit_party_2","A3RLZJOHLHQ95F","either","2","387","","","","","","","1","0","0","0.6058017554","","0.6","0.2","0.8","0.4","","","","","0.6058017554","0.7436061547","0.5856434505","0.1083987113","","","","","","","","","","72","H","0","img/none_selected.jpg","","110","main_expt","",""
"","bandit","192","726865","0.0-152.0-0.0","37730360","wem/bandit_party_2","A3RLZJOHLHQ95F","either","2","295","","","","","","","0","0","1","0.5476823758","","0.6","0.2","0.8","0.4","","","","","0.5476823758","0.657194241","0.6444230696","0.217828795","","","","","","","","","","72","H","0","img/none_selected.jpg","","111","main_expt","",""
"","bandit","193","728890","0.0-153.0-0.0","37730360","wem/bandit_party_2","A3RLZJOHLHQ95F","either","2","503","","","","","","","0","0","1","0.603417252","","0.6","0.2","0.8","0.4","","","","","0.5688313193","0.6317228327","0.603417252","0.2212119155","","","","","","","","","","75","K","2","","","112","main_expt","",""
"","bandit","194","730702","0.0-154.0-0.0","37730360","wem/bandit_party_2","A3RLZJOHLHQ95F","either","2","297","","","","","","","0","0","1","0.420613871","","0.6","0.2","0.8","0.4","","","","","0.50852785","0.4985892417","0.420613871","0.2374112476","","","","","","","","","","75","K","2","","","113","main_expt","",""
"","bandit","195","732905","0.0-155.0-0.0","37730360","wem/bandit_party_2","A3RLZJOHLHQ95F","either","2","680","","","","","","","0","0","1","0.2851569533","","0.6","0.2","0.8","0.4","","","","","0.5711084253","0.579071345","0.2851569533","0.2703699348","","","","","","","","","","75","K","2","","","114","main_expt","",""
"","bandit","196","734706","0.0-156.0-0.0","37730360","wem/bandit_party_2","A3RLZJOHLHQ95F","either","2","280","","","","","","","0","0","1","","0.4595939904","0.6","0.2","0.8","0.4","0.4177754351","0.4595939904","0.3166589884","0.1928485376","","","","","","","","","","","","","","74","J","1","","","115","main_expt","",""
"","bandit","197","736499","0.0-157.0-0.0","37730360","wem/bandit_party_2","A3RLZJOHLHQ95F","either","2","276","","","","","","","0","0","1","0.3928451607","","0.6","0.2","0.8","0.4","","","","","0.387840809","0.3744567546","0.3928451607","0.136356343","","","","","","","","","","75","K","2","","","116","main_expt","",""
"","bandit","198","738291","0.0-158.0-0.0","37730360","wem/bandit_party_2","A3RLZJOHLHQ95F","either","2","270","","","","","","","0","0","1","0.2193113504","","0.6","0.2","0.8","0.4","","","","","0.4456731606","0.302145019","0.560845346","0.2193113504","","","","","","","","","","76","L","3","","","117","main_expt","",""
"","bandit","199","740083","0.0-159.0-0.0","37730360","wem/bandit_party_2","A3RLZJOHLHQ95F","either","2","272","","","","","","","0","0","1","0.5536818424","","0.6","0.2","0.8","0.4","","","","","0.3045880574","0.3522466686","0.5536818424","0.2686792008","","","","","","","","","","75","K","2","","","118","main_expt","",""
"","bandit","200","741873","0.0-160.0-0.0","37730360","wem/bandit_party_2","A3RLZJOHLHQ95F","either","2","274","","","","","","","0","0","1","","0.2668270476","0.6","0.2","0.8","0.4","0.3994134075","0.4425542362","0.3617659687","0.2668270476","","","","","","","","","","","","","","76","L","3","","","119","main_expt","",""
"","bandit","201","744036","0.0-161.0-0.0","37730360","wem/bandit_party_2","A3RLZJOHLHQ95F","either","2","643","","","","","","","0","0","1","","0.3454740543","0.6","0.2","0.8","0.4","0.351449483","0.3377532805","0.3454740543","0.3723992114","","","","","","","","","","","","","","75","K","2","","","120","main_expt","",""
"","bandit","202","746016","0.0-162.0-0.0","37730360","wem/bandit_party_2","A3RLZJOHLHQ95F","either","2","462","","","","","","","0","0","1","","0.2929504356","0.6","0.2","0.8","0.4","0.3641911367","0.2929504356","0.2798257893","0.4001238515","","","","","","","","","","","","","","74","J","1","","","121","main_expt","",""
"","bandit","203","747845","0.0-163.0-0.0","37730360","wem/bandit_party_2","A3RLZJOHLHQ95F","either","2","311","","","","","","","1","0","0","0.2261540995","","0.6","0.2","0.8","0.4","","","","","0.2673706252","0.2504028886","0.2261540995","0.4090120715","","","","","","","","","","75","K","2","","","122","main_expt","",""
"","bandit","204","749710","0.0-164.0-0.0","37730360","wem/bandit_party_2","A3RLZJOHLHQ95F","either","2","345","","","","","","","0","0","1","0.2766663047","","0.6","0.2","0.8","0.4","","","","","0.3455372181","0.2414849785","0.2766663047","0.4746108064","","","","","","","","","","75","K","2","","","123","main_expt","",""
"","bandit","205","751525","0.0-165.0-0.0","37730360","wem/bandit_party_2","A3RLZJOHLHQ95F","either","2","296","","","","","","","0","1","0","","0.3126864395","0.6","0.2","0.8","0.4","0.3524137631","0.1791255979","0.3126864395","0.453231646","","","","","","","","","","","","","","75","K","2","","","124","main_expt","",""
"","bandit","206","753340","0.0-166.0-0.0","37730360","wem/bandit_party_2","A3RLZJOHLHQ95F","either","2","293","","","","","","","1","0","0","0.2772507379","","0.6","0.2","0.8","0.4","","","","","0.3680881866","0.1952456852","0.2772507379","0.4888945922","","","","","","","","","","75","K","2","","","125","main_expt","",""
"","bandit","207","755228","0.0-167.0-0.0","37730360","wem/bandit_party_2","A3RLZJOHLHQ95F","either","2","364","","","","","","","0","0","1","","0.2441417391","0.6","0.2","0.8","0.4","0.2884444508","0.2614303707","0.2441417391","0.396932523","","","","","","","","","","","","","","75","K","2","","","126","main_expt","",""
"","bandit","208","757067","0.0-168.0-0.0","37730360","wem/bandit_party_2","A3RLZJOHLHQ95F","either","2","322","","","","","","","0","0","1","","0.2304038214","0.6","0.2","0.8","0.4","0.2931854252","0.267511235","0.2304038214","0.4026562496","","","","","","","","","","","","","","75","K","2","","","127","main_expt","",""
"","bandit","209","758914","0.0-169.0-0.0","37730360","wem/bandit_party_2","A3RLZJOHLHQ95F","either","2","329","","","","","","","0","0","1","0.2463692943","","0.6","0.2","0.8","0.4","","","","","0.3115494401","0.2582460394","0.2463692943","0.3072143153","","","","","","","","","","75","K","2","","","128","main_expt","",""
"","bandit","210","760702","0.0-170.0-0.0","37730360","wem/bandit_party_2","A3RLZJOHLHQ95F","either","2","268","","","","","","","0","1","0","","0.249100023","0.6","0.2","0.8","0.4","0.287093163","0.249100023","0.262841392","0.3024431642","","","","","","","","","","","","","","74","J","1","","","129","main_expt","",""
"","bandit","211","762466","0.0-171.0-0.0","37730360","wem/bandit_party_2","A3RLZJOHLHQ95F","either","2","244","","","","","","","0","1","0","","0.2014680341","0.6","0.2","0.8","0.4","0.242368994","0.2014680341","0.3044503748","0.383823705","","","","","","","","","","","","","","74","J","1","","","130","main_expt","",""
"","bandit","212","764281","0.0-172.0-0.0","37730360","wem/bandit_party_2","A3RLZJOHLHQ95F","either","2","297","","","","","","","0","1","0","","0.2514612397","0.6","0.2","0.8","0.4","0.3141093292","0.2514612397","0.2231782293","0.5448185218","","","","","","","","","","","","","","74","J","1","","","131","main_expt","",""
"","bandit","213","766084","0.0-173.0-0.0","37730360","wem/bandit_party_2","A3RLZJOHLHQ95F","either","2","284","","","","","","","0","0","1","","0.1719215191","0.6","0.2","0.8","0.4","0.3186943837","0.1719215191","0.265126842","0.5741986762","","","","","","","","","","","","","","74","J","1","","","132","main_expt","",""
"","bandit","214","767960","0.0-174.0-0.0","37730360","wem/bandit_party_2","A3RLZJOHLHQ95F","either","2","353","","","","","","","0","0","1","0.151851594","","0.6","0.2","0.8","0.4","","","","","0.3218599317","0.151851594","0.1996467811","0.54298015","","","","","","","","","","74","J","1","","","133","main_expt","",""
"","bandit","215","769775","0.0-175.0-0.0","37730360","wem/bandit_party_2","A3RLZJOHLHQ95F","either","2","293","","","","","","","0","0","1","0.1693242304","","0.6","0.2","0.8","0.4","","","","","0.3372263261","0.1693242304","0.1900899503","0.5504084981","","","","","","","","","","74","J","1","","","134","main_expt","",""
"","bandit","216","771654","0.0-176.0-0.0","37730360","wem/bandit_party_2","A3RLZJOHLHQ95F","either","2","357","","","","","","","0","0","1","","0.1541174352","0.6","0.2","0.8","0.4","0.3515125386","0.1541174352","0.172295534","0.4874659601","","","","","","","","","","","","","","74","J","1","","","135","main_expt","",""
"","bandit","217","773526","0.0-177.0-0.0","37730360","wem/bandit_party_2","A3RLZJOHLHQ95F","either","2","351","","","","","","","0","0","1","","0.1374012581","0.6","0.2","0.8","0.4","0.2312583875","0.1374012581","0.1171098277","0.3677382912","","","","","","","","","","","","","","74","J","1","","","136","main_expt","",""
"","bandit","218","775451","0.0-178.0-0.0","37730360","wem/bandit_party_2","A3RLZJOHLHQ95F","either","2","409","","","","","","","0","1","0","","0.2889288236","0.6","0.2","0.8","0.4","0.3496768842","0.2889288236","0.1390909791","0.2944012193","","","","","","","","","","","","","","74","J","1","","","137","main_expt","",""
"","bandit","219","777364","0.0-179.0-0.0","37730360","wem/bandit_party_2","A3RLZJOHLHQ95F","either","2","387","","","","","","","1","0","0","0.2177367931","","0.6","0.2","0.8","0.4","","","","","0.4217982028","0.2177367931","0.1209370274","0.3020033879","","","","","","","","","","74","J","1","","","138","main_expt","",""
"","bandit","220","779172","0.0-180.0-0.0","37730360","wem/bandit_party_2","A3RLZJOHLHQ95F","either","2","289","","","","","","","0","0","1","","0.1704259453","0.6","0.2","0.8","0.4","0.5123523738","0.1704259453","0.1441291996","0.2908104057","","","","","","","","","","","","","","74","J","1","","","139","main_expt","",""
"","bandit","221","780758","0.0-181.0-0.0","37730360","wem/bandit_party_2","A3RLZJOHLHQ95F","either","2","64","","","","","","","1","0","0","0.3892042576","","0.6","0.2","0.8","0.4","","","","","0.3892042576","0.1827322183","0.1380406349","0.2738290205","","","","","","","","","","72","H","0","img/none_selected.jpg","","140","main_expt","",""
"","bandit","222","783867","0.0-182.0-0.0","37730360","wem/bandit_party_2","A3RLZJOHLHQ95F","either","2","1587","","","","","","","0","0","1","","0.4680147771","0.6","0.2","0.8","0.4","0.4680147771","0.2030288612","0.1312769784","0.3865798498","","","","","","","","","","","","","","72","H","0","img/none_selected.jpg","","141","main_expt","",""
"","bandit","223","786266","0.0-183.0-0.0","37730360","wem/bandit_party_2","A3RLZJOHLHQ95F","either","2","878","","","","","","","1","0","0","0.3970866904","","0.6","0.2","0.8","0.4","","","","","0.3970866904","0.1760536641","0.1880730553","0.3507917403","","","","","","","","","","72","H","0","img/none_selected.jpg","","142","main_expt","",""
"","bandit","224","789744","0.0-184.0-0.0","37730360","wem/bandit_party_2","A3RLZJOHLHQ95F","either","2","1958","","","","","","","0","0","1","0.3609481858","","0.6","0.2","0.8","0.4","","","","","0.3609481858","0.1428921374","0.1798266991","0.2787839286","","","","","","","","","","72","H","0","img/none_selected.jpg","","143","main_expt","",""
"","bandit","225","791333","0.0-185.0-0.0","37730360","wem/bandit_party_2","A3RLZJOHLHQ95F","either","2","71","","","","","","","0","0","1","","0.1260474704","0.6","0.2","0.8","0.4","0.3701270871","0.1260474704","0.1881666754","0.2106619402","","","","","","","","","","","","","","74","J","1","","","144","main_expt","",""
"","bandit","226","793463","0.0-186.0-0.0","37730360","wem/bandit_party_2","A3RLZJOHLHQ95F","either","2","614","","","","","","","0","1","0","","0.3211677341","0.6","0.2","0.8","0.4","0.3110645609","0.151337539","0.1683386122","0.3211677341","","","","","","","","","","","","","","76","L","3","","","145","main_expt","",""
"","bandit","227","795340","0.0-187.0-0.0","37730360","wem/bandit_party_2","A3RLZJOHLHQ95F","either","2","357","","","","","","","0","0","1","0.4417580917","","0.6","0.2","0.8","0.4","","","","","0.356964637","0.1600114734","0.2609121533","0.4417580917","","","","","","","","","","76","L","3","","","146","main_expt","",""
"","bandit","228","797225","0.0-188.0-0.0","37730360","wem/bandit_party_2","A3RLZJOHLHQ95F","either","2","364","","","","","","","0","0","1","","0.278611551","0.6","0.2","0.8","0.4","0.5143633813","0.1262446547","0.280259565","0.278611551","","","","","","","","","","","","","","76","L","3","","","147","main_expt","",""
"","bandit","229","799103","0.0-189.0-0.0","37730360","wem/bandit_party_2","A3RLZJOHLHQ95F","either","2","357","","","","","","","0","0","1","","0.2972918914","0.6","0.2","0.8","0.4","0.5086187798","0.1030311585","0.2972918914","0.2811332351","","","","","","","","","","","","","","75","K","2","","","148","main_expt","",""
"","bandit","230","800676","0.0-190.0-0.0","37730360","wem/bandit_party_2","A3RLZJOHLHQ95F","either","2","52","","","","","","","0","0","1","0.3284309668","","0.6","0.2","0.8","0.4","","","","","0.4676315778","0.123834606","0.3284309668","0.2606345315","","","","","","","","","","75","K","2","","","149","main_expt","",""
"","bandit","231","802690","0.0-191.0-0.0","37730360","wem/bandit_party_2","A3RLZJOHLHQ95F","either","2","493","","","","","","","0","0","1","","0.3186890608","0.6","0.2","0.8","0.4","0.4737351686","0.06566206942","0.3186890608","0.260677327","","","","","","","","","","","","","","75","K","2","","","150","main_expt","",""
"","bandit","232","804271","0.0-192.0-0.0","37730360","wem/bandit_party_2","A3RLZJOHLHQ95F","either","2","60","","","","","","","0","0","1","","0.3331747037","0.6","0.2","0.8","0.4","0.5387476985","0.06342121736","0.3331747037","0.2579624968","","","","","","","","","","","","","","75","K","2","","","151","main_expt","",""
"","bandit","233","809790","0.0-193.0-0.0","37730360","wem/bandit_party_2","A3RLZJOHLHQ95F","either","2","3999","","","","","","","0","0","1","","0.1162046696","0.6","0.2","0.8","0.4","0.5065138565","0.1162046696","0.364096089","0.2536911072","","","","","","","","","","","","","","74","J","1","","","152","main_expt","",""
"","bandit","234","815483","0.0-194.0-0.0","37730360","wem/bandit_party_2","A3RLZJOHLHQ95F","either","2","4168","","","","","","","1","0","0","0.3189440566","","0.6","0.2","0.8","0.4","","","","","0.5190676077","0.1388943584","0.3189440566","0.1427943183","","","","","","","","","","75","K","2","","","153","main_expt","",""
"","bandit","235","817118","0.0-195.0-0.0","37730360","wem/bandit_party_2","A3RLZJOHLHQ95F","either","2","110","","","","","","","1","0","0","0.486858514","","0.6","0.2","0.8","0.4","","","","","0.4944482457","0.1188489222","0.486858514","0.08934943386","","","","","","","","","","75","K","2","","","154","main_expt","",""
"","bandit","236","819420","0.0-196.0-0.0","37730360","wem/bandit_party_2","A3RLZJOHLHQ95F","either","2","776","","","","","","","0","0","1","0.398958755","","0.6","0.2","0.8","0.4","","","","","0.4987902374","0.1255079792","0.398958755","0.1048919666","","","","","","","","","","75","K","2","","","155","main_expt","",""
"","bandit","237","821387","0.0-197.0-0.0","37730360","wem/bandit_party_2","A3RLZJOHLHQ95F","either","2","441","","","","","","","0","0","1","","0.1705129017","0.6","0.2","0.8","0.4","0.4151199053","0.1705129017","0.3508932217","0.1348874752","","","","","","","","","","","","","","74","J","1","","","156","main_expt","",""
"","bandit","238","823208","0.0-198.0-0.0","37730360","wem/bandit_party_2","A3RLZJOHLHQ95F","either","2","303","","","","","","","0","0","1","0.4215128153","","0.6","0.2","0.8","0.4","","","","","0.4215128153","0.1892203872","0.3736640956","0.1197456909","","","","","","","","","","72","H","0","img/none_selected.jpg","","157","main_expt","",""
"","bandit","239","826110","0.0-199.0-0.0","37730360","wem/bandit_party_2","A3RLZJOHLHQ95F","either","2","1383","","","","","","","0","1","0","","0.3666899102","0.6","0.2","0.8","0.4","0.3666899102","0.1589595026","0.3215678611","0.1343935597","","","","","","","","","","","","","","72","H","0","img/none_selected.jpg","","158","main_expt","",""
"","bandit","240","827977","0.0-200.0-0.0","37730360","wem/bandit_party_2","A3RLZJOHLHQ95F","either","2","348","","","","","","","0","0","1","","0.1426383857","0.6","0.2","0.8","0.4","0.3906786657","0.1426383857","0.2732838962","0.04604274909","","","","","","","","","","","","","","74","J","1","","","159","main_expt","",""
"","bandit","241","837040","0.0-201.0-0.0","37730360","wem/bandit_party_2","A3RLZJOHLHQ95F","either","2","7547","","","","","","","0","0","1","","0.08927965808","0.6","0.2","0.8","0.4","0.4769972016","0.2747613825","0.2323229575","0.08927965808","","","","","","","","","","","","","","76","L","3","","","160","main_expt","",""
"","bandit","242","839089","0.0-202.0-0.0","37730360","wem/bandit_party_2","A3RLZJOHLHQ95F","either","2","530","","","","","","","0","0","1","0.1038156196","","0.6","0.2","0.8","0.4","","","","","0.4405879513","0.2046882866","0.399022808","0.1038156196","","","","","","","","","","76","L","3","","","161","main_expt","",""
"","bandit","243","840714","0.0-203.0-0.0","37730360","wem/bandit_party_2","A3RLZJOHLHQ95F","either","2","104","","","","","","","0","1","0","","0.1470739062","0.6","0.2","0.8","0.4","0.44055992","0.1715152701","0.4967313539","0.1470739062","","","","","","","","","","","","","","76","L","3","","","162","main_expt","",""
"","bandit","244","842479","0.0-204.0-0.0","37730360","wem/bandit_party_2","A3RLZJOHLHQ95F","either","2","237","","","","","","","1","0","0","0.5245029489","","0.6","0.2","0.8","0.4","","","","","0.3434222481","0.2396687428","0.5245029489","0.1214264794","","","","","","","","","","75","K","2","","","163","main_expt","",""
"","bandit","245","844331","0.0-205.0-0.0","37730360","wem/bandit_party_2","A3RLZJOHLHQ95F","either","2","331","","","","","","","0","0","1","0.5808119749","","0.6","0.2","0.8","0.4","","","","","0.3862652833","0.3359744524","0.5808119749","0.1563758897","","","","","","","","","","75","K","2","","","164","main_expt","",""
"","bandit","246","846441","0.0-206.0-0.0","37730360","wem/bandit_party_2","A3RLZJOHLHQ95F","either","2","586","","","","","","","0","1","0","","0.4940159592","0.6","0.2","0.8","0.4","0.4270444342","0.4940159592","0.6473032069","0.1311500467","","","","","","","","","","","","","","74","J","1","","","165","main_expt","",""
"","bandit","247","848081","0.0-207.0-0.0","37730360","wem/bandit_party_2","A3RLZJOHLHQ95F","either","2","114","","","","","","","1","0","0","0.6790689848","","0.6","0.2","0.8","0.4","","","","","0.5073102058","0.5922229292","0.6790689848","0.1419689761","","","","","","","","","","75","K","2","","","166","main_expt","",""
"","bandit","248","850316","0.0-208.0-0.0","37730360","wem/bandit_party_2","A3RLZJOHLHQ95F","either","2","716","","","","","","","1","0","0","0.5959653185","","0.6","0.2","0.8","0.4","","","","","0.5417092253","0.5562626425","0.5959653185","0.150246256","","","","","","","","","","75","K","2","","","167","main_expt","",""
"","bandit","249","852291","0.0-209.0-0.0","37730360","wem/bandit_party_2","A3RLZJOHLHQ95F","either","2","451","","","","","","","0","0","1","0.361841396","","0.6","0.2","0.8","0.4","","","","","0.6505471885","0.6489587791","0.361841396","0.2070971521","","","","","","","","","","75","K","2","","","168","main_expt","",""
"","bandit","250","854229","0.0-210.0-0.0","37730360","wem/bandit_party_2","A3RLZJOHLHQ95F","either","2","414","","","","","","","0","1","0","","0.6226729341","0.6","0.2","0.8","0.4","0.6226729341","0.5652428614","0.2594844845","0.2564452127","","","","","","","","","","","","","","72","H","0","img/none_selected.jpg","","169","main_expt","",""
"","bandit","251","857113","0.0-211.0-0.0","37730360","wem/bandit_party_2","A3RLZJOHLHQ95F","either","2","1363","","","","","","","0","0","1","0.1987556041","","0.6","0.2","0.8","0.4","","","","","0.7574543886","0.5344749526","0.1987556041","0.2845729388","","","","","","","","","","75","K","2","","","170","main_expt","",""
"","bandit","252","859112","0.0-212.0-0.0","37730360","wem/bandit_party_2","A3RLZJOHLHQ95F","either","2","473","","","","","","","0","1","0","","0.2360657399","0.6","0.2","0.8","0.4","0.774201251","0.6364900983","0.1583585206","0.2360657399","","","","","","","","","","","","","","76","L","3","","","171","main_expt","",""
"","bandit","253","860912","0.0-213.0-0.0","37730360","wem/bandit_party_2","A3RLZJOHLHQ95F","either","2","277","","","","","","","0","0","1","0.1494938987","","0.6","0.2","0.8","0.4","","","","","0.7739789177","0.5516193693","0.1494938987","0.3453554921","","","","","","","","","","75","K","2","","","172","main_expt","",""
"","bandit","254","862897","0.0-214.0-0.0","37730360","wem/bandit_party_2","A3RLZJOHLHQ95F","either","2","466","","","","","","","0","1","0","","0.5081608063","0.6","0.2","0.8","0.4","0.7146420849","0.5081608063","0.1996494969","0.2909261263","","","","","","","","","","","","","","74","J","1","","","173","main_expt","",""
"","bandit","255","864580","0.0-215.0-0.0","37730360","wem/bandit_party_2","A3RLZJOHLHQ95F","either","2","158","","","","","","","1","0","0","0.2200767262","","0.6","0.2","0.8","0.4","","","","","0.683245412","0.5247340446","0.2200767262","0.3807546558","","","","","","","","","","75","K","2","","","174","main_expt","",""
"","bandit","256","867322","0.0-216.0-0.0","37730360","wem/bandit_party_2","A3RLZJOHLHQ95F","either","2","1226","","","","","","","1","0","0","0.1929710708","","0.6","0.2","0.8","0.4","","","","","0.7163731774","0.5823110366","0.1929710708","0.3889518003","","","","","","","","","","75","K","2","","","175","main_expt","",""
"","bandit","257","869652","0.0-217.0-0.0","37730360","wem/bandit_party_2","A3RLZJOHLHQ95F","either","2","806","","","","","","","1","0","0","0.1756556012","","0.6","0.2","0.8","0.4","","","","","0.6676116703","0.7693722391","0.1756556012","0.3662842853","","","","","","","","","","75","K","2","","","176","main_expt","",""
"","bandit","258","871549","0.0-218.0-0.0","37730360","wem/bandit_party_2","A3RLZJOHLHQ95F","either","2","374","","","","","","","0","1","0","","0.2404611203","0.6","0.2","0.8","0.4","0.711116056","0.8048595062","0.2404611203","0.3102656016","","","","","","","","","","","","","","75","K","2","","","177","main_expt","",""
"","bandit","259","873520","0.0-219.0-0.0","37730360","wem/bandit_party_2","A3RLZJOHLHQ95F","either","2","449","","","","","","","0","0","1","0.1651874793","","0.6","0.2","0.8","0.4","","","","","0.6541247318","0.8147320782","0.1651874793","0.3272385177","","","","","","","","","","75","K","2","","","178","main_expt","",""
"","bandit","260","875421","0.0-220.0-0.0","37730360","wem/bandit_party_2","A3RLZJOHLHQ95F","either","2","380","","","","","","","0","0","1","0.1297692321","","0.6","0.2","0.8","0.4","","","","","0.600925469","0.7755432213","0.1297692321","0.3185807274","","","","","","","","","","75","K","2","","","179","main_expt","",""
"","bandit","261","877351","0.0-221.0-0.0","37730360","wem/bandit_party_2","A3RLZJOHLHQ95F","either","2","405","","","","","","","0","0","1","0.1311169289","","0.6","0.2","0.8","0.4","","","","","0.6321701674","0.7309951384","0.1311169289","0.3896265469","","","","","","","","","","75","K","2","","","180","main_expt","",""
"","bandit","262","880334","0.0-222.0-0.0","37730360","wem/bandit_party_2","A3RLZJOHLHQ95F","either","2","1460","","","","","","","1","0","0","0.8068071681","","0.6","0.2","0.8","0.4","","","","","0.7040606398","0.8068071681","0.2184653543","0.4381139349","","","","","","","","","","74","J","1","","","181","main_expt","",""
"","bandit","263","882232","0.0-223.0-0.0","37730360","wem/bandit_party_2","A3RLZJOHLHQ95F","either","2","373","","","","","","","0","1","0","","0.8096694819","0.6","0.2","0.8","0.4","0.6551517927","0.8096694819","0.156745214","0.4339703771","","","","","","","","","","","","","","74","J","1","","","182","main_expt","",""
"","bandit","264","884128","0.0-224.0-0.0","37730360","wem/bandit_party_2","A3RLZJOHLHQ95F","either","2","372","","","","","","","0","1","0","","0.8522040983","0.6","0.2","0.8","0.4","0.7709035389","0.8522040983","0.07710569088","0.5270594011","","","","","","","","","","","","","","74","J","1","","","183","main_expt","",""
"","bandit","265","885987","0.0-225.0-0.0","37730360","wem/bandit_party_2","A3RLZJOHLHQ95F","either","2","335","","","","","","","0","1","0","","0.8636776132","0.6","0.2","0.8","0.4","0.7869666122","0.8636776132","0.07901501252","0.4791569234","","","","","","","","","","","","","","74","J","1","","","184","main_expt","",""
"","bandit","266","887880","0.0-226.0-0.0","37730360","wem/bandit_party_2","A3RLZJOHLHQ95F","either","2","365","","","","","","","0","1","0","","0.804571828","0.6","0.2","0.8","0.4","0.804571828","0.8605951951","0.05695362571","0.464074867","","","","","","","","","","","","","","72","H","0","img/none_selected.jpg","","185","main_expt","",""
"","bandit","267","889456","0.0-227.0-0.0","37730360","wem/bandit_party_2","A3RLZJOHLHQ95F","either","2","52","","","","","","","0","0","1","","0.7866627628","0.6","0.2","0.8","0.4","0.7866627628","0.8578427848","0.03796608352","0.4654947356","","","","","","","","","","","","","","72","H","0","img/none_selected.jpg","","186","main_expt","",""
"","bandit","268","891340","0.0-228.0-0.0","37730360","wem/bandit_party_2","A3RLZJOHLHQ95F","either","2","356","","","","","","","0","1","0","","0.8006736442","0.6","0.2","0.8","0.4","0.8006736442","0.8253306036","0.05986429342","0.4338668179","","","","","","","","","","","","","","72","H","0","img/none_selected.jpg","","187","main_expt","",""
"","bandit","269","893149","0.0-229.0-0.0","37730360","wem/bandit_party_2","A3RLZJOHLHQ95F","either","2","285","","","","","","","0","0","1","0.7687627789","","0.6","0.2","0.8","0.4","","","","","0.7687627789","0.8118593573","0.05827831728","0.4679469354","","","","","","","","","","72","H","0","img/none_selected.jpg","","188","main_expt","",""
"","bandit","270","894988","0.0-230.0-0.0","37730360","wem/bandit_party_2","A3RLZJOHLHQ95F","either","2","308","","","","","","","0","1","0","","0.7009429779","0.6","0.2","0.8","0.4","0.7009429779","0.8319104568","0.06499387038","0.4645116859","","","","","","","","","","","","","","72","H","0","img/none_selected.jpg","","189","main_expt","",""
"","bandit","271","896873","0.0-231.0-0.0","37730360","wem/bandit_party_2","A3RLZJOHLHQ95F","either","2","354","","","","","","","0","0","1","","0.0878029059","0.6","0.2","0.8","0.4","0.7531121838","0.8949986836","0.0878029059","0.4260553166","","","","","","","","","","","","","","75","K","2","","","190","main_expt","",""
"","bandit","272","898499","0.0-232.0-0.0","37730360","wem/bandit_party_2","A3RLZJOHLHQ95F","either","2","100","","","","","","","0","0","1","0.1101088583","","0.6","0.2","0.8","0.4","","","","","0.6174616994","0.9258368343","0.1101088583","0.5323747461","","","","","","","","","","75","K","2","","","191","main_expt","",""
"","bandit","273","900189","0.0-233.0-0.0","37730360","wem/bandit_party_2","A3RLZJOHLHQ95F","either","2","168","","","","","","","0","1","0","","0.6013900654","0.6","0.2","0.8","0.4","0.6331996982","0.9221438833","0.1559643099","0.6013900654","","","","","","","","","","","","","","76","L","3","","","192","main_expt","",""
"","bandit","274","902092","0.0-234.0-0.0","37730360","wem/bandit_party_2","A3RLZJOHLHQ95F","either","2","378","","","","","","","0","1","0","","0.5332063066","0.6","0.2","0.8","0.4","0.5596167322","0.878376231","0.1348882638","0.5332063066","","","","","","","","","","","","","","76","L","3","","","193","main_expt","",""
"","bandit","275","903924","0.0-235.0-0.0","37730360","wem/bandit_party_2","A3RLZJOHLHQ95F","either","2","305","","","","","","","0","0","1","","0.5499496643","0.6","0.2","0.8","0.4","0.5887018809","0.7914694382","0.243093686","0.5499496643","","","","","","","","","","","","","","76","L","3","","","194","main_expt","",""
"","bandit","276","905774","0.0-236.0-0.0","37730360","wem/bandit_party_2","A3RLZJOHLHQ95F","either","2","324","","","","","","","0","0","1","","0.4170732774","0.6","0.2","0.8","0.4","0.561552955","0.7843027812","0.2792315856","0.4170732774","","","","","","","","","","","","","","76","L","3","","","195","main_expt","",""
"","bandit","277","907640","0.0-237.0-0.0","37730360","wem/bandit_party_2","A3RLZJOHLHQ95F","either","2","336","","","","","","","0","0","1","0.2075419965","","0.6","0.2","0.8","0.4","","","","","0.6199522587","0.7888241066","0.2075419965","0.4050854298","","","","","","","","","","75","K","2","","","196","main_expt","",""
"","bandit","278","910551","0.0-238.0-0.0","37730360","wem/bandit_party_2","A3RLZJOHLHQ95F","either","2","1387","","","","","","","0","0","1","0.4522405917","","0.6","0.2","0.8","0.4","","","","","0.6886125155","0.8145025162","0.1899284635","0.4522405917","","","","","","","","","","76","L","3","","","197","main_expt","",""
"","bandit","279","912091","0.0-239.0-0.0","37730360","wem/bandit_party_2","A3RLZJOHLHQ95F","either","2","16","","","","","","","1","0","0","0.1632143895","","0.6","0.2","0.8","0.4","","","","","0.6468609917","0.8795467387","0.1632143895","0.4547961131","","","","","","","","","","75","K","2","","","198","main_expt","",""
"","bandit","280","914001","0.0-240.0-0.0","37730360","wem/bandit_party_2","A3RLZJOHLHQ95F","either","2","384","","","","","","","0","0","1","0.1580048483","","0.6","0.2","0.8","0.4","","","","","0.7134983028","0.8716255916","0.1580048483","0.456709553","","","","","","","","","","75","K","2","","","199","main_expt","",""
"","bandit","281","915884","0.0-241.0-0.0","37730360","wem/bandit_party_2","A3RLZJOHLHQ95F","either","2","354","","","","","","","0","0","1","0.1815025648","","0.6","0.2","0.8","0.4","","","","","0.6545285445","0.8596876402","0.1815025648","0.4197111003","","","","","","","","","","75","K","2","","","200","main_expt","",""
"","bandit","282","917886","0.0-242.0-0.0","37730360","wem/bandit_party_2","A3RLZJOHLHQ95F","either","2","473","","","","","","","1","0","0","0.8714244785","","0.6","0.2","0.8","0.4","","","","","0.6827561938","0.8714244785","0.1453003075","0.4468864226","","","","","","","","","","74","J","1","","","201","main_expt","",""
"","bandit","283","920332","0.0-243.0-0.0","37730360","wem/bandit_party_2","A3RLZJOHLHQ95F","either","2","923","","","","","","","0","1","0","","0.8679491409","0.6","0.2","0.8","0.4","0.6590680519","0.8679491409","0.1061510446","0.3852152277","","","","","","","","","","","","","","74","J","1","","","202","main_expt","",""
"","bandit","284","921868","0.0-244.0-0.0","37730360","wem/bandit_party_2","A3RLZJOHLHQ95F","either","2","14","","","","","","","0","1","0","","0.67998256","0.6","0.2","0.8","0.4","0.67998256","0.8421855008","0.09667757311","0.3481501846","","","","","","","","","","","","","","72","H","0","img/none_selected.jpg","","203","main_expt","",""
"","bandit","285","923787","0.0-245.0-0.0","37730360","wem/bandit_party_2","A3RLZJOHLHQ95F","either","2","395","","","","","","","0","0","1","","0.109576977","0.6","0.2","0.8","0.4","0.7157802034","0.8741547355","0.109576977","0.3688904748","","","","","","","","","","","","","","75","K","2","","","204","main_expt","",""
"","bandit","286","926106","0.0-246.0-0.0","37730360","wem/bandit_party_2","A3RLZJOHLHQ95F","either","2","792","","","","","","","1","0","0","0.4196025605","","0.6","0.2","0.8","0.4","","","","","0.6750594522","0.8589537271","0.1370524017","0.4196025605","","","","","","","","","","76","L","3","","","205","main_expt","",""
"","bandit","287","928386","0.0-247.0-0.0","37730360","wem/bandit_party_2","A3RLZJOHLHQ95F","either","2","753","","","","","","","0","0","1","","0.3558717694","0.6","0.2","0.8","0.4","0.7170784861","0.8009191088","0.1005848846","0.3558717694","","","","","","","","","","","","","","76","L","3","","","206","main_expt","",""
"","bandit","288","930328","0.0-248.0-0.0","37730360","wem/bandit_party_2","A3RLZJOHLHQ95F","either","2","416","","","","","","","1","0","0","0.3978287694","","0.6","0.2","0.8","0.4","","","","","0.6886550294","0.8146279372","0.1100528349","0.3978287694","","","","","","","","","","76","L","3","","","207","main_expt","",""
"","bandit","289","932128","0.0-249.0-0.0","37730360","wem/bandit_party_2","A3RLZJOHLHQ95F","either","2","279","","","","","","","0","0","1","","0.3647175361","0.6","0.2","0.8","0.4","0.7340041914","0.7498886323","0.1165568201","0.3647175361","","","","","","","","","","","","","","76","L","3","","","208","main_expt","",""
"","bandit","290","933966","0.0-250.0-0.0","37730360","wem/bandit_party_2","A3RLZJOHLHQ95F","either","2","315","","","","","","","0","0","1","0.1607141963","","0.6","0.2","0.8","0.4","","","","","0.7108339061","0.781298432","0.1607141963","0.2942091963","","","","","","","","","","75","K","2","","","209","main_expt","",""
"","bandit","291","936342","0.0-251.0-0.0","37730360","wem/bandit_party_2","A3RLZJOHLHQ95F","either","2","851","","","","","","","0","0","1","0.3228874634","","0.6","0.2","0.8","0.4","","","","","0.7322658343","0.8374694261","0.2005879304","0.3228874634","","","","","","","","","","76","L","3","","","210","main_expt","",""
"","bandit","292","938578","0.0-252.0-0.0","37730360","wem/bandit_party_2","A3RLZJOHLHQ95F","either","2","714","","","","","","","0","0","1","0.7461264045","","0.6","0.2","0.8","0.4","","","","","0.6220956771","0.7461264045","0.1999716741","0.3300931135","","","","","","","","","","74","J","1","","","211","main_expt","",""
"","bandit","293","940388","0.0-253.0-0.0","37730360","wem/bandit_party_2","A3RLZJOHLHQ95F","either","2","280","","","","","","","0","1","0","","0.7267359419","0.6","0.2","0.8","0.4","0.5400145011","0.7267359419","0.2135957141","0.4044608811","","","","","","","","","","","","","","74","J","1","","","212","main_expt","",""
"","bandit","294","942230","0.0-254.0-0.0","37730360","wem/bandit_party_2","A3RLZJOHLHQ95F","either","2","321","","","","","","","0","0","1","0.2041793084","","0.6","0.2","0.8","0.4","","","","","0.5419994818","0.6529835343","0.2041793084","0.4916994921","","","","","","","","","","75","K","2","","","213","main_expt","",""
"","bandit","295","944342","0.0-255.0-0.0","37730360","wem/bandit_party_2","A3RLZJOHLHQ95F","either","2","587","","","","","","","0","0","1","0.2563089198","","0.6","0.2","0.8","0.4","","","","","0.6195319152","0.5734554779","0.2563089198","0.5387088508","","","","","","","","","","75","K","2","","","214","main_expt","",""
"","bandit","296","946060","0.0-256.0-0.0","37730360","wem/bandit_party_2","A3RLZJOHLHQ95F","either","2","192","","","","","","","0","0","1","0.2870699064","","0.6","0.2","0.8","0.4","","","","","0.7405966814","0.7056003711","0.2870699064","0.567041903","","","","","","","","","","75","K","2","","","215","main_expt","",""
"","bandit","297","947632","0.0-257.0-0.0","37730360","wem/bandit_party_2","A3RLZJOHLHQ95F","either","2","48","","","","","","","0","0","1","","0.539749723","0.6","0.2","0.8","0.4","0.8005734678","0.7717913507","0.2715554895","0.539749723","","","","","","","","","","","","","","76","L","3","","","216","main_expt","",""
"","bandit","298","949810","0.0-258.0-0.0","37730360","wem/bandit_party_2","A3RLZJOHLHQ95F","either","2","651","","","","","","","1","0","0","0.8392159132","","0.6","0.2","0.8","0.4","","","","","0.8392159132","0.834894728","0.2027777883","0.3803352486","","","","","","","","","","72","H","0","img/none_selected.jpg","","217","main_expt","",""
"","bandit","299","951613","0.0-259.0-0.0","37730360","wem/bandit_party_2","A3RLZJOHLHQ95F","either","2","277","","","","","","","1","0","0","0.7445585264","","0.6","0.2","0.8","0.4","","","","","0.7445585264","0.868580258","0.2169787163","0.3236333655","","","","","","","","","","72","H","0","img/none_selected.jpg","","218","main_expt","",""
"","bandit","300","953389","0.0-260.0-0.0","37730360","wem/bandit_party_2","A3RLZJOHLHQ95F","either","2","252","","","","","","","0","0","1","0.7174829008","","0.6","0.2","0.8","0.4","","","","","0.7174829008","0.8236231074","0.2292932202","0.2612589469","","","","","","","","","","72","H","0","img/none_selected.jpg","","219","main_expt","",""
"","bandit","301","955552","0.0-261.0-0.0","37730360","wem/bandit_party_2","A3RLZJOHLHQ95F","either","2","641","","","","","","","0","1","0","","0.6601767392","0.6","0.2","0.8","0.4","0.6601767392","0.7719294443","0.2829053382","0.2228319794","","","","","","","","","","","","","","72","H","0","img/none_selected.jpg","","220","main_expt","",""
"","bandit","302","957657","0.0-262.0-0.0","37730360","wem/bandit_party_2","A3RLZJOHLHQ95F","either","2","574","","","","","","","0","0","1","0.2691731019","","0.6","0.2","0.8","0.4","","","","","0.703996204","0.7609360252","0.2691731019","0.2204856404","","","","","","","","","","75","K","2","","","221","main_expt","",""
"","bandit","303","959278","0.0-263.0-0.0","37730360","wem/bandit_party_2","A3RLZJOHLHQ95F","either","2","96","","","","","","","0","0","1","","0.1974112065","0.6","0.2","0.8","0.4","0.6188024556","0.7319851961","0.1974112065","0.2269951902","","","","","","","","","","","","","","75","K","2","","","222","main_expt","",""
"","bandit","304","961044","0.0-264.0-0.0","37730360","wem/bandit_party_2","A3RLZJOHLHQ95F","either","2","241","","","","","","","0","1","0","","0.6994646324","0.6","0.2","0.8","0.4","0.5695888615","0.6994646324","0.08486155027","0.3417830843","","","","","","","","","","","","","","74","J","1","","","223","main_expt","",""
"","bandit","305","963541","0.0-265.0-0.0","37730360","wem/bandit_party_2","A3RLZJOHLHQ95F","either","2","975","","","","","","","0","0","1","","0.4057490183","0.6","0.2","0.8","0.4","0.6590173842","0.6817307813","0.1930609847","0.4057490183","","","","","","","","","","","","","","76","L","3","","","224","main_expt","",""
"","bandit","306","965630","0.0-266.0-0.0","37730360","wem/bandit_party_2","A3RLZJOHLHQ95F","either","2","564","","","","","","","0","0","1","","0.6779124893","0.6","0.2","0.8","0.4","0.6779124893","0.67394888","0.2026087193","0.4266979185","","","","","","","","","","","","","","72","H","0","img/none_selected.jpg","","225","main_expt","",""
"","bandit","307","967222","0.0-267.0-0.0","37730360","wem/bandit_party_2","A3RLZJOHLHQ95F","either","2","69","","","","","","","1","0","0","0.6433757785","","0.6","0.2","0.8","0.4","","","","","0.6433757785","0.6520670614","0.1295559036","0.4723095555","","","","","","","","","","72","H","0","img/none_selected.jpg","","226","main_expt","",""
"","bandit","308","969232","0.0-268.0-0.0","37730360","wem/bandit_party_2","A3RLZJOHLHQ95F","either","2","482","","","","","","","0","0","1","0.6050090536","","0.6","0.2","0.8","0.4","","","","","0.6050090536","0.6598054912","0.1014701128","0.4396274322","","","","","","","","","","72","H","0","img/none_selected.jpg","","227","main_expt","",""
"","bandit","309","971660","0.0-269.0-0.0","37730360","wem/bandit_party_2","A3RLZJOHLHQ95F","either","2","890","","","","","","","1","0","0","0.5614220587","","0.6","0.2","0.8","0.4","","","","","0.5614220587","0.7313296172","0.1374428951","0.4581465293","","","","","","","","","","72","H","0","img/none_selected.jpg","","228","main_expt","",""
"","bandit","310","973472","0.0-270.0-0.0","37730360","wem/bandit_party_2","A3RLZJOHLHQ95F","either","2","285","","","","","","","0","0","1","","0.536938762","0.6","0.2","0.8","0.4","0.536938762","0.5771612872","0.2147377822","0.3635076811","","","","","","","","","","","","","","72","H","0","img/none_selected.jpg","","229","main_expt","",""
"","bandit","311","975708","0.0-271.0-0.0","37730360","wem/bandit_party_2","A3RLZJOHLHQ95F","either","2","712","","","","","","","0","1","0","","0.4691369301","0.6","0.2","0.8","0.4","0.4691369301","0.6474737632","0.2128984172","0.4109812081","","","","","","","","","","","","","","72","H","0","img/none_selected.jpg","","230","main_expt","",""
"","bandit","312","978138","0.0-272.0-0.0","37730360","wem/bandit_party_2","A3RLZJOHLHQ95F","either","2","905","","","","","","","1","0","0","0.3801843724","","0.6","0.2","0.8","0.4","","","","","0.3801843724","0.77083729","0.2566260117","0.3769467169","","","","","","","","","","72","H","0","img/none_selected.jpg","","231","main_expt","",""
"","bandit","313","980150","0.0-273.0-0.0","37730360","wem/bandit_party_2","A3RLZJOHLHQ95F","either","2","487","","","","","","","1","0","0","0.4401380948","","0.6","0.2","0.8","0.4","","","","","0.4401380948","0.7372448464","0.307190163","0.4489681289","","","","","","","","","","72","H","0","img/none_selected.jpg","","232","main_expt","",""
