"consent","trial_type","trial_index","time_elapsed","internal_node_id","subjID","study","MID","cond","drift","rt","responses","button_pressed","key_press","like","value","connected","gems","bombs","no_reward","GemPrChosen","BombPrChosen","GainOverPainPr_0","GainOverPainPr_1","GainOverPainPr_2","GainOverPainPr_3","LosePr_0","LosePr_1","LosePr_2","LosePr_3","WinPr_0","WinPr_1","WinPr_2","WinPr_3","Q0","Q1","Q2","gender","age","ethnicity","label","expt_phase","target","respCharCode","respKey","respChoiceNum","respChoice","practice","trial_counter","trial_label","Q0_index"
"GDM/GDM_behavioral_consent_30min_online.html","consent","0","8872","0.0-0.0","38354371","wem/bandit_party_2","A1KC7HDBADU451","either","5","","","","","","","","","","","","","","","","","","","","","","","","","","","","","","","","","","","","","","","","",""
"","survey-text","1","18004","0.0-1.0","38354371","wem/bandit_party_2","A1KC7HDBADU451","either","5","8118","{""Q0"":""A1KC7HDBADU451""}","","","","","","","","","","","","","","","","","","","","","","","","","","","","","","","","","","","","","","",""
"","button-response","2","20934","0.0-2.0","38354371","wem/bandit_party_2","A1KC7HDBADU451","either","5","1908","","0","","","","","","","","","","","","","","","","","","","","","","","","","","","","","","","","","","","","","",""
"","text-replacement","3","39448","0.0-3.0","38354371","wem/bandit_party_2","A1KC7HDBADU451","either","5","17510","","","32","","","","","","","","","","","","","","","","","","","","","","","","","","","","","","","","","","","","",""
"","text-replacement","4","55655","0.0-4.0","38354371","wem/bandit_party_2","A1KC7HDBADU451","either","5","16197","","","32","","","","","","","","","","","","","","","","","","","","","","","","","","","","","","","","","","","","",""
"","identification","5","66538","0.0-6.0-0.0","38354371","wem/bandit_party_2","A1KC7HDBADU451","either","5","10834","","","","5","5","4","","","","","","","","","","","","","","","","","","","","","","","","pre","identification_pre","the Republican Party","","","","","","","",""
"","identification","6","74535","0.0-6.0-1.0","38354371","wem/bandit_party_2","A1KC7HDBADU451","either","5","6947","","","","2","1","0","","","","","","","","","","","","","","","","","","","","","","","","pre","identification_pre","the Democratic Party","","","","","","","",""
"","text-replacement","7","88239","0.0-7.0","38354371","wem/bandit_party_2","A1KC7HDBADU451","either","5","12693","","","32","","","","","","","","","","","","","","","","","","","","","","","","","","","","","","","","","","","","",""
"","text-replacement","8","96437","0.0-8.0","38354371","wem/bandit_party_2","A1KC7HDBADU451","either","5","8191","","","32","","","","","","","","","","","","","","","","","","","","","","","","","","","","","","","","","","","","",""
"","text-replacement","9","109728","0.0-9.0","38354371","wem/bandit_party_2","A1KC7HDBADU451","either","5","13277","","","32","","","","","","","","","","","","","","","","","","","","","","","","","","","","","","","","","","","","",""
"","text-replacement","10","113397","0.0-10.0","38354371","wem/bandit_party_2","A1KC7HDBADU451","either","5","3663","","","32","","","","","","","","","","","","","","","","","","","","","","","","","","","","","","","","","","","","",""
"","text-replacement","11","118124","0.0-11.0","38354371","wem/bandit_party_2","A1KC7HDBADU451","either","5","4721","","","32","","","","","","","","","","","","","","","","","","","","","","","","","","","","","","","","","","","","",""
"","bandit","12","120835","0.0-12.0-0.0","38354371","wem/bandit_party_2","A1KC7HDBADU451","either","5","1191","","","","","","","0","0","1","0","0","","","","","0","","","","0","","","","","","","","","","","","","74","J","0","img/none_selected_demo.jpg","true","0","",""
"","bandit","13","123741","0.0-13.0-0.0","38354371","wem/bandit_party_2","A1KC7HDBADU451","either","5","1378","","","","","","","0","0","1","0","0","","","","","0","","","","0","","","","","","","","","","","","","75","K","0","img/none_selected_demo.jpg","true","0","",""
"","text-replacement","14","131140","0.0-14.0","38354371","wem/bandit_party_2","A1KC7HDBADU451","either","5","7388","","","32","","","","","","","","","","","","","","","","","","","","","","","","","","","","","","","","","","","","",""
"","text-replacement","15","138873","0.0-15.0","38354371","wem/bandit_party_2","A1KC7HDBADU451","either","5","7726","","","32","","","","","","","","","","","","","","","","","","","","","","","","","","","","","","","","","","","","",""
"","text-replacement","16","152627","0.0-16.0","38354371","wem/bandit_party_2","A1KC7HDBADU451","either","5","13743","","","32","","","","","","","","","","","","","","","","","","","","","","","","","","","","","","","","","","","","",""
"","text-replacement","17","157288","0.0-17.0","38354371","wem/bandit_party_2","A1KC7HDBADU451","either","5","4646","","","32","","","","","","","","","","","","","","","","","","","","","","","","","","","","","","","","","","","","",""
"","bandit","18","159423","0.0-18.0-0.0","38354371","wem/bandit_party_2","A1KC7HDBADU451","either","5","606","","","","","","","1","0","0","0.8","","0.5","0.5","","","","","","","0.8","0.2","","","","","","","","","","","","74","J","0","img/none_selected_demo.jpg","true","0","80_20_practice",""
"","bandit","19","161357","0.0-18.0-1.0","38354371","wem/bandit_party_2","A1KC7HDBADU451","either","5","408","","","","","","","0","0","1","0.8","","0.5","0.5","","","","","","","0.8","0.2","","","","","","","","","","","","74","J","0","img/none_selected_demo.jpg","true","0","80_20_practice",""
"","bandit","20","163319","0.0-18.0-2.0","38354371","wem/bandit_party_2","A1KC7HDBADU451","either","5","437","","","","","","","0","1","0","","0.8","0.5","0.5","","","0.8","0.2","","","","","","","","","","","","","","","","74","J","0","img/none_selected_demo.jpg","true","0","80_20_practice",""
"","bandit","21","165240","0.0-18.0-3.0","38354371","wem/bandit_party_2","A1KC7HDBADU451","either","5","402","","","","","","","0","1","0","","0.8","0.5","0.5","","","0.8","0.2","","","","","","","","","","","","","","","","74","J","0","img/none_selected_demo.jpg","true","0","80_20_practice",""
"","bandit","22","167023","0.0-18.0-4.0","38354371","wem/bandit_party_2","A1KC7HDBADU451","either","5","263","","","","","","","0","1","0","","0.8","0.5","0.5","","","0.8","0.2","","","","","","","","","","","","","","","","74","J","0","img/none_selected_demo.jpg","true","0","80_20_practice",""
"","bandit","23","168876","0.0-18.0-5.0","38354371","wem/bandit_party_2","A1KC7HDBADU451","either","5","331","","","","","","","1","0","0","0.8","","0.5","0.5","","","","","","","0.8","0.2","","","","","","","","","","","","74","J","0","img/none_selected_demo.jpg","true","0","80_20_practice",""
"","bandit","24","170437","0.0-18.0-6.0","38354371","wem/bandit_party_2","A1KC7HDBADU451","either","5","41","","","","","","","0","0","1","","0.8","0.5","0.5","","","0.8","0.2","","","","","","","","","","","","","","","","74","J","0","img/none_selected_demo.jpg","true","0","80_20_practice",""
"","bandit","25","172075","0.0-18.0-7.0","38354371","wem/bandit_party_2","A1KC7HDBADU451","either","5","122","","","","","","","0","1","0","","0.8","0.5","0.5","","","0.8","0.2","","","","","","","","","","","","","","","","74","J","0","img/none_selected_demo.jpg","true","0","80_20_practice",""
"","bandit","26","173869","0.0-18.0-8.0","38354371","wem/bandit_party_2","A1KC7HDBADU451","either","5","277","","","","","","","0","1","0","","0.8","0.5","0.5","","","0.8","0.2","","","","","","","","","","","","","","","","74","J","0","img/none_selected_demo.jpg","true","0","80_20_practice",""
"","bandit","27","175479","0.0-18.0-9.0","38354371","wem/bandit_party_2","A1KC7HDBADU451","either","5","83","","","","","","","0","0","1","","0.8","0.5","0.5","","","0.8","0.2","","","","","","","","","","","","","","","","74","J","0","img/none_selected_demo.jpg","true","0","80_20_practice",""
"","bandit","28","177126","0.0-18.0-10.0","38354371","wem/bandit_party_2","A1KC7HDBADU451","either","5","112","","","","","","","0","1","0","","0.8","0.5","0.5","","","0.8","0.2","","","","","","","","","","","","","","","","74","J","0","img/none_selected_demo.jpg","true","0","80_20_practice",""
"","bandit","29","178880","0.0-18.0-11.0","38354371","wem/bandit_party_2","A1KC7HDBADU451","either","5","218","","","","","","","0","1","0","","0.8","0.5","0.5","","","0.8","0.2","","","","","","","","","","","","","","","","74","J","0","img/none_selected_demo.jpg","true","0","80_20_practice",""
"","bandit","30","180661","0.0-18.0-12.0","38354371","wem/bandit_party_2","A1KC7HDBADU451","either","5","261","","","","","","","1","0","0","0.8","","0.5","0.5","","","","","","","0.8","0.2","","","","","","","","","","","","74","J","0","img/none_selected_demo.jpg","true","0","80_20_practice",""
"","bandit","31","182424","0.0-18.0-13.0","38354371","wem/bandit_party_2","A1KC7HDBADU451","either","5","221","","","","","","","1","0","0","0.8","","0.5","0.5","","","","","","","0.8","0.2","","","","","","","","","","","","74","J","0","img/none_selected_demo.jpg","true","0","80_20_practice",""
"","bandit","32","184346","0.0-18.0-14.0","38354371","wem/bandit_party_2","A1KC7HDBADU451","either","5","399","","","","","","","0","0","1","","0.8","0.5","0.5","","","0.8","0.2","","","","","","","","","","","","","","","","74","J","0","img/none_selected_demo.jpg","true","0","80_20_practice",""
"","bandit","33","187325","0.0-18.0-15.0","38354371","wem/bandit_party_2","A1KC7HDBADU451","either","5","1444","","","","","","","0","0","1","","0.2","0.5","0.5","","","0.8","0.2","","","","","","","","","","","","","","","","75","K","1","","true","0","80_20_practice",""
"","bandit","34","189221","0.0-18.0-16.0","38354371","wem/bandit_party_2","A1KC7HDBADU451","either","5","366","","","","","","","0","1","0","","0.8","0.5","0.5","","","0.8","0.2","","","","","","","","","","","","","","","","74","J","0","img/none_selected_demo.jpg","true","0","80_20_practice",""
"","bandit","35","191055","0.0-18.0-17.0","38354371","wem/bandit_party_2","A1KC7HDBADU451","either","5","309","","","","","","","1","0","0","0.8","","0.5","0.5","","","","","","","0.8","0.2","","","","","","","","","","","","74","J","0","img/none_selected_demo.jpg","true","0","80_20_practice",""
"","bandit","36","192721","0.0-18.0-18.0","38354371","wem/bandit_party_2","A1KC7HDBADU451","either","5","131","","","","","","","1","0","0","0.8","","0.5","0.5","","","","","","","0.8","0.2","","","","","","","","","","","","74","J","0","img/none_selected_demo.jpg","true","0","80_20_practice",""
"","bandit","37","194546","0.0-18.0-19.0","38354371","wem/bandit_party_2","A1KC7HDBADU451","either","5","295","","","","","","","1","0","0","0.8","","0.5","0.5","","","","","","","0.8","0.2","","","","","","","","","","","","74","J","0","img/none_selected_demo.jpg","true","0","80_20_practice",""
"","text-replacement","38","200558","0.0-19.0","38354371","wem/bandit_party_2","A1KC7HDBADU451","either","5","5992","","","32","","","","","","","","","","","","","","","","","","","","","","","","","","","","","","","","","","","","",""
"","bandit","39","205249","0.0-20.0-0.0","38354371","wem/bandit_party_2","A1KC7HDBADU451","either","5","3153","","","","","","","1","0","0","1","0","","","","","0","1","","","1","0","","","","","","","","","","","","74","J","0","img/none_selected_demo.jpg","true","0","",""
"","text-replacement","40","212133","0.0-21.0","38354371","wem/bandit_party_2","A1KC7HDBADU451","either","5","6870","","","32","","","","","","","","","","","","","","","","","","","","","","","","","","","","","","","","","","","","",""
"","text-replacement","41","217552","0.0-22.0","38354371","wem/bandit_party_2","A1KC7HDBADU451","either","5","5409","","","32","","","","","","","","","","","","","","","","","","","","","","","","","","","","","","","","","","","","",""
"","text-replacement","42","220855","0.0-23.0","38354371","wem/bandit_party_2","A1KC7HDBADU451","either","5","3289","","","32","","","","","","","","","","","","","","","","","","","","","","","","","","","","","","","","","","","","",""
"","text-replacement","43","225838","0.0-24.0","38354371","wem/bandit_party_2","A1KC7HDBADU451","either","5","4972","","","32","","","","","","","","","","","","","","","","","","","","","","","","","","","","","","","","","","","","",""
"","text-replacement","44","232543","0.0-25.0","38354371","wem/bandit_party_2","A1KC7HDBADU451","either","5","6693","","","32","","","","","","","","","","","","","","","","","","","","","","","","","","","","","","","","","","","","",""
"","text-replacement","45","236481","0.0-26.0","38354371","wem/bandit_party_2","A1KC7HDBADU451","either","5","3923","","","32","","","","","","","","","","","","","","","","","","","","","","","","","","","","","","","","","","","","",""
"","text-replacement","46","243190","0.0-27.0","38354371","wem/bandit_party_2","A1KC7HDBADU451","either","5","6690","","","32","","","","","","","","","","","","","","","","","","","","","","","","","","","","","","","","","","","","",""
"","text-replacement","47","246583","0.0-28.0","38354371","wem/bandit_party_2","A1KC7HDBADU451","either","5","3384","","","32","","","","","","","","","","","","","","","","","","","","","","","","","","","","","","","","","","","","",""
"","text-replacement","48","257400","0.0-29.0","38354371","wem/bandit_party_2","A1KC7HDBADU451","either","5","10803","","","32","","","","","","","","","","","","","","","","","","","","","","","","","","","","","","","","","","","","",""
"","text-replacement","49","259546","0.0-30.0","38354371","wem/bandit_party_2","A1KC7HDBADU451","either","5","2132","","","32","","","","","","","","","","","","","","","","","","","","","","","","","","","","","","","","","","","","",""
"","text-replacement","50","264217","0.0-31.0","38354371","wem/bandit_party_2","A1KC7HDBADU451","either","5","4654","","","32","","","","","","","","","","","","","","","","","","","","","","","","","","","","","","","","","","","","",""
"","bandit","51","266562","0.0-32.0-0.0","38354371","wem/bandit_party_2","A1KC7HDBADU451","either","5","788","","","","","","","0","1","0","","0.8","0.5","0.5","0.5","0.5","0.8","0.2","0.6","0.2","","","","","","","","","","","","","","72","H","0","img/none_selected.jpg","true","0","full_practice",""
"","bandit","52","268399","0.0-32.0-1.0","38354371","wem/bandit_party_2","A1KC7HDBADU451","either","5","300","","","","","","","0","1","0","","0.8","0.5","0.5","0.5","0.5","0.8","0.2","0.6","0.2","","","","","","","","","","","","","","72","H","0","img/none_selected.jpg","true","0","full_practice",""
"","bandit","53","270115","0.0-32.0-2.0","38354371","wem/bandit_party_2","A1KC7HDBADU451","either","5","194","","","","","","","1","0","0","0.8","","0.5","0.5","0.5","0.5","","","","","0.8","0.2","0.6","0.2","","","","","","","","","","72","H","0","img/none_selected.jpg","true","0","full_practice",""
"","bandit","54","271914","0.0-32.0-3.0","38354371","wem/bandit_party_2","A1KC7HDBADU451","either","5","283","","","","","","","0","1","0","","0.8","0.5","0.5","0.5","0.5","0.8","0.2","0.6","0.2","","","","","","","","","","","","","","72","H","0","img/none_selected.jpg","true","0","full_practice",""
"","bandit","55","273563","0.0-32.0-4.0","38354371","wem/bandit_party_2","A1KC7HDBADU451","either","5","107","","","","","","","1","0","0","0.8","","0.5","0.5","0.5","0.5","","","","","0.8","0.2","0.6","0.2","","","","","","","","","","72","H","0","img/none_selected.jpg","true","0","full_practice",""
"","bandit","56","275247","0.0-32.0-5.0","38354371","wem/bandit_party_2","A1KC7HDBADU451","either","5","158","","","","","","","0","1","0","","0.8","0.5","0.5","0.5","0.5","0.8","0.2","0.6","0.2","","","","","","","","","","","","","","72","H","0","img/none_selected.jpg","true","0","full_practice",""
"","bandit","57","277260","0.0-32.0-6.0","38354371","wem/bandit_party_2","A1KC7HDBADU451","either","5","480","","","","","","","0","1","0","","0.8","0.5","0.5","0.5","0.5","0.8","0.2","0.6","0.2","","","","","","","","","","","","","","72","H","0","img/none_selected.jpg","true","0","full_practice",""
"","bandit","58","279261","0.0-32.0-7.0","38354371","wem/bandit_party_2","A1KC7HDBADU451","either","5","479","","","","","","","0","1","0","","0.8","0.5","0.5","0.5","0.5","0.8","0.2","0.6","0.2","","","","","","","","","","","","","","72","H","0","img/none_selected.jpg","true","0","full_practice",""
"","bandit","59","281460","0.0-32.0-8.0","38354371","wem/bandit_party_2","A1KC7HDBADU451","either","5","675","","","","","","","1","0","0","0.8","","0.5","0.5","0.5","0.5","","","","","0.8","0.2","0.6","0.2","","","","","","","","","","72","H","0","img/none_selected.jpg","true","0","full_practice",""
"","bandit","60","283515","0.0-32.0-9.0","38354371","wem/bandit_party_2","A1KC7HDBADU451","either","5","526","","","","","","","0","1","0","","0.8","0.5","0.5","0.5","0.5","0.8","0.2","0.6","0.2","","","","","","","","","","","","","","72","H","0","img/none_selected.jpg","true","0","full_practice",""
"","bandit","61","285567","0.0-32.0-10.0","38354371","wem/bandit_party_2","A1KC7HDBADU451","either","5","528","","","","","","","0","1","0","","0.8","0.5","0.5","0.5","0.5","0.8","0.2","0.6","0.2","","","","","","","","","","","","","","72","H","0","img/none_selected.jpg","true","0","full_practice",""
"","bandit","62","287419","0.0-32.0-11.0","38354371","wem/bandit_party_2","A1KC7HDBADU451","either","5","297","","","","","","","0","1","0","","0.8","0.5","0.5","0.5","0.5","0.8","0.2","0.6","0.2","","","","","","","","","","","","","","72","H","0","img/none_selected.jpg","true","0","full_practice",""
"","bandit","63","289288","0.0-32.0-12.0","38354371","wem/bandit_party_2","A1KC7HDBADU451","either","5","335","","","","","","","0","1","0","","0.8","0.5","0.5","0.5","0.5","0.8","0.2","0.6","0.2","","","","","","","","","","","","","","72","H","0","img/none_selected.jpg","true","0","full_practice",""
"","bandit","64","291124","0.0-32.0-13.0","38354371","wem/bandit_party_2","A1KC7HDBADU451","either","5","301","","","","","","","0","1","0","","0.8","0.5","0.5","0.5","0.5","0.8","0.2","0.6","0.2","","","","","","","","","","","","","","72","H","0","img/none_selected.jpg","true","0","full_practice",""
"","bandit","65","292935","0.0-32.0-14.0","38354371","wem/bandit_party_2","A1KC7HDBADU451","either","5","267","","","","","","","1","0","0","0.8","","0.5","0.5","0.5","0.5","","","","","0.8","0.2","0.6","0.2","","","","","","","","","","72","H","0","img/none_selected.jpg","true","0","full_practice",""
"","bandit","66","294702","0.0-32.0-15.0","38354371","wem/bandit_party_2","A1KC7HDBADU451","either","5","218","","","","","","","0","1","0","","0.8","0.5","0.5","0.5","0.5","0.8","0.2","0.6","0.2","","","","","","","","","","","","","","72","H","0","img/none_selected.jpg","true","0","full_practice",""
"","bandit","67","296548","0.0-32.0-16.0","38354371","wem/bandit_party_2","A1KC7HDBADU451","either","5","313","","","","","","","1","0","0","0.8","","0.5","0.5","0.5","0.5","","","","","0.8","0.2","0.6","0.2","","","","","","","","","","72","H","0","img/none_selected.jpg","true","0","full_practice",""
"","bandit","68","298295","0.0-32.0-17.0","38354371","wem/bandit_party_2","A1KC7HDBADU451","either","5","218","","","","","","","1","0","0","0.8","","0.5","0.5","0.5","0.5","","","","","0.8","0.2","0.6","0.2","","","","","","","","","","72","H","0","img/none_selected.jpg","true","0","full_practice",""
"","bandit","69","300085","0.0-32.0-18.0","38354371","wem/bandit_party_2","A1KC7HDBADU451","either","5","250","","","","","","","1","0","0","0.8","","0.5","0.5","0.5","0.5","","","","","0.8","0.2","0.6","0.2","","","","","","","","","","72","H","0","img/none_selected.jpg","true","0","full_practice",""
"","bandit","70","301763","0.0-32.0-19.0","38354371","wem/bandit_party_2","A1KC7HDBADU451","either","5","136","","","","","","","0","1","0","","0.8","0.5","0.5","0.5","0.5","0.8","0.2","0.6","0.2","","","","","","","","","","","","","","72","H","0","img/none_selected.jpg","true","0","full_practice",""
"","text","71","305684","0.0-33.0","38354371","wem/bandit_party_2","A1KC7HDBADU451","either","5","3914","","","32","","","","","","","","","","","","","","","","","","","","","","","","","","","","","","","","","","","","",""
"","text-replacement","72","319470","0.0-34.0","38354371","wem/bandit_party_2","A1KC7HDBADU451","either","5","12771","","","32","","","","","","","","","","","","","","","","","","","","","","","","","","","","","","","","","","","","",""
"","text-replacement","73","327276","0.0-35.0","38354371","wem/bandit_party_2","A1KC7HDBADU451","either","5","7791","","","32","","","","","","","","","","","","","","","","","","","","","","","","","","","","","","","","","","","","",""
"","text-replacement","74","328943","0.0-36.0","38354371","wem/bandit_party_2","A1KC7HDBADU451","either","5","1648","","","32","","","","","","","","","","","","","","","","","","","","","","","","","","","","","","","","","","","","",""
"","text-replacement","75","333132","0.0-37.0","38354371","wem/bandit_party_2","A1KC7HDBADU451","either","5","4182","","","32","","","","","","","","","","","","","","","","","","","","","","","","","","","","","","","","","","","","",""
"","text-replacement","76","336558","0.0-38.0","38354371","wem/bandit_party_2","A1KC7HDBADU451","either","5","3420","","","32","","","","","","","","","","","","","","","","","","","","","","","","","","","","","","","","","","","","",""
"","survey-multi-choice-replacement","77","344502","0.0-39.0-0.0","38354371","wem/bandit_party_2","A1KC7HDBADU451","either","5","7908","","","","","","","","","","","","","","","","","","","","","","","","Money will be added to the pool for <span style='color:red;'>REPUBLICANS</span>","","","","","","","attn_check","","","","","","","","","0"
"","survey-multi-choice-replacement","78","352429","0.0-40.0-0.0","38354371","wem/bandit_party_2","A1KC7HDBADU451","either","5","6896","","","","","","","","","","","","","","","","","","","","","","","","Equal amounts of money will be added to the pool for <span style='color:red;'>REPUBLICANS</span> and subtracted from the pool for <span style='color:blue;'>DEMOCRATS</span>","","","","","","","attn_check","","","","","","","","","2"
"","survey-multi-choice-replacement","79","357357","0.0-41.0-0.0","38354371","wem/bandit_party_2","A1KC7HDBADU451","either","5","3909","","","","","","","","","","","","","","","","","","","","","","","","No money will be added to either pool","","","","","","","attn_check","","","","","","","","","3"
"","bandit","80","361737","0.0-42.0-0.0","38354371","wem/bandit_party_2","A1KC7HDBADU451","either","5","1840","","","","","","","1","0","0","0.4253928501","","0.4","0.2","0.6","0.8","","","","","0.4253928501","0.32692793","0.6131215568","0.4909711759","","","","","","","","","","72","H","0","img/none_selected.jpg","","1","main_expt",""
"","bandit","81","363565","0.0-43.0-0.0","38354371","wem/bandit_party_2","A1KC7HDBADU451","either","5","296","","","","","","","1","0","0","0.5447097682","","0.4","0.2","0.6","0.8","","","","","0.5447097682","0.3068321923","0.6783759564","0.5514346198","","","","","","","","","","72","H","0","img/none_selected.jpg","","2","main_expt",""
"","bandit","82","365338","0.0-44.0-0.0","38354371","wem/bandit_party_2","A1KC7HDBADU451","either","5","252","","","","","","","0","1","0","","0.5631376832","0.4","0.2","0.6","0.8","0.5631376832","0.2871808385","0.6535049038","0.5966913043","","","","","","","","","","","","","","72","H","0","img/none_selected.jpg","","3","main_expt",""
"","bandit","83","367296","0.0-45.0-0.0","38354371","wem/bandit_party_2","A1KC7HDBADU451","either","5","444","","","","","","","1","0","0","0.5889355808","","0.4","0.2","0.6","0.8","","","","","0.5889355808","0.3062311279","0.5433476707","0.6236804691","","","","","","","","","","72","H","0","img/none_selected.jpg","","4","main_expt",""
"","bandit","84","369241","0.0-46.0-0.0","38354371","wem/bandit_party_2","A1KC7HDBADU451","either","5","427","","","","","","","0","0","1","","0.6125363118","0.4","0.2","0.6","0.8","0.6125363118","0.2453374439","0.4256320799","0.5844938386","","","","","","","","","","","","","","72","H","0","img/none_selected.jpg","","5","main_expt",""
"","bandit","85","371187","0.0-47.0-0.0","38354371","wem/bandit_party_2","A1KC7HDBADU451","either","5","429","","","","","","","0","0","1","","0.5204159956","0.4","0.2","0.6","0.8","0.5204159956","0.2258644136","0.4097031487","0.4929788692","","","","","","","","","","","","","","72","H","0","img/none_selected.jpg","","6","main_expt",""
"","bandit","86","373078","0.0-48.0-0.0","38354371","wem/bandit_party_2","A1KC7HDBADU451","either","5","364","","","","","","","1","0","0","0.3978044106","","0.4","0.2","0.6","0.8","","","","","0.5949894572","0.2251512132","0.4614862243","0.3978044106","","","","","","","","","","76","L","3","","","7","main_expt",""
"","bandit","87","374943","0.0-49.0-0.0","38354371","wem/bandit_party_2","A1KC7HDBADU451","either","5","313","","","","","","","0","0","1","0.5080346622","","0.4","0.2","0.6","0.8","","","","","0.7043393759","0.1597376121","0.4305419438","0.5080346622","","","","","","","","","","76","L","3","","","8","main_expt",""
"","bandit","88","377061","0.0-50.0-0.0","38354371","wem/bandit_party_2","A1KC7HDBADU451","either","5","579","","","","","","","0","1","0","","0.6000641755","0.4","0.2","0.6","0.8","0.6866437556","0.1395884133","0.6000641755","0.440708512","","","","","","","","","","","","","","75","K","2","","","9","main_expt",""
"","bandit","89","378921","0.0-51.0-0.0","38354371","wem/bandit_party_2","A1KC7HDBADU451","either","5","320","","","","","","","0","0","1","0.66675231","","0.4","0.2","0.6","0.8","","","","","0.6743415364","0.1529628815","0.66675231","0.4862198985","","","","","","","","","","75","K","2","","","10","main_expt",""
"","bandit","90","380730","0.0-52.0-0.0","38354371","wem/bandit_party_2","A1KC7HDBADU451","either","5","288","","","","","","","0","1","0","","0.538431352","0.4","0.2","0.6","0.8","0.6907290289","0.1918890603","0.538431352","0.4942886423","","","","","","","","","","","","","","75","K","2","","","11","main_expt",""
"","bandit","91","382585","0.0-53.0-0.0","38354371","wem/bandit_party_2","A1KC7HDBADU451","either","5","319","","","","","","","0","0","1","0.5683478731","","0.4","0.2","0.6","0.8","","","","","0.7254617755","0.1412308375","0.5683478731","0.4999864232","","","","","","","","","","75","K","2","","","12","main_expt",""
"","bandit","92","384350","0.0-54.0-0.0","38354371","wem/bandit_party_2","A1KC7HDBADU451","either","5","226","","","","","","","0","1","0","","0.1854965676","0.4","0.2","0.6","0.8","0.7533793381","0.1854965676","0.5870071372","0.3945724157","","","","","","","","","","","","","","74","J","1","","","13","main_expt",""
"","bandit","93","386217","0.0-55.0-0.0","38354371","wem/bandit_party_2","A1KC7HDBADU451","either","5","308","","","","","","","0","0","1","","0.2200151947","0.4","0.2","0.6","0.8","0.6909187676","0.2200151947","0.3389967741","0.458684297","","","","","","","","","","","","","","74","J","1","","","14","main_expt",""
"","bandit","94","388319","0.0-56.0-0.0","38354371","wem/bandit_party_2","A1KC7HDBADU451","either","5","571","","","","","","","0","0","1","0.5338449271","","0.4","0.2","0.6","0.8","","","","","0.7916820586","0.1497743902","0.2927381815","0.5338449271","","","","","","","","","","76","L","3","","","15","main_expt",""
"","bandit","95","390172","0.0-57.0-0.0","38354371","wem/bandit_party_2","A1KC7HDBADU451","either","5","318","","","","","","","0","0","1","","0.1767244745","0.4","0.2","0.6","0.8","0.7991661796","0.1767244745","0.2268478953","0.6821016448","","","","","","","","","","","","","","74","J","1","","","16","main_expt",""
"","bandit","96","391945","0.0-58.0-0.0","38354371","wem/bandit_party_2","A1KC7HDBADU451","either","5","242","","","","","","","1","0","0","0.2364877179","","0.4","0.2","0.6","0.8","","","","","0.7352739439","0.1953364786","0.2364877179","0.6963612506","","","","","","","","","","75","K","2","","","17","main_expt",""
"","bandit","97","393611","0.0-59.0-0.0","38354371","wem/bandit_party_2","A1KC7HDBADU451","either","5","108","","","","","","","0","0","1","","0.280777314","0.4","0.2","0.6","0.8","0.6911569498","0.139355503","0.280777314","0.7035779666","","","","","","","","","","","","","","75","K","2","","","18","main_expt",""
"","bandit","98","395344","0.0-60.0-0.0","38354371","wem/bandit_party_2","A1KC7HDBADU451","either","5","204","","","","","","","0","0","1","","0.6372159304","0.4","0.2","0.6","0.8","0.6372159304","0.129677489","0.3280428268","0.677086514","","","","","","","","","","","","","","72","H","0","img/none_selected.jpg","","19","main_expt",""
"","bandit","99","396897","0.0-61.0-0.0","38354371","wem/bandit_party_2","A1KC7HDBADU451","either","5","26","","","","","","","1","0","0","0.1584506979","","0.4","0.2","0.6","0.8","","","","","0.5917564331","0.1584506979","0.213865824","0.5211019236","","","","","","","","","","74","J","1","","","20","main_expt",""
"","bandit","100","398541","0.0-62.0-0.0","38354371","wem/bandit_party_2","A1KC7HDBADU451","either","5","122","","","","","","","0","0","1","","0.1934985877","0.4","0.2","0.6","0.8","0.6351733259","0.1934985877","0.2755747612","0.6040081297","","","","","","","","","","","","","","74","J","1","","","21","main_expt",""
"","bandit","101","400287","0.0-63.0-0.0","38354371","wem/bandit_party_2","A1KC7HDBADU451","either","5","186","","","","","","","0","0","1","0.5276460007","","0.4","0.2","0.6","0.8","","","","","0.57448168","0.1184813826","0.3096891892","0.5276460007","","","","","","","","","","76","L","3","","","22","main_expt",""
"","bandit","102","401897","0.0-64.0-0.0","38354371","wem/bandit_party_2","A1KC7HDBADU451","either","5","68","","","","","","","0","0","1","","0.1855444332","0.4","0.2","0.6","0.8","0.532235281","0.1387482349","0.1855444332","0.4373756081","","","","","","","","","","","","","","75","K","2","","","23","main_expt",""
"","bandit","103","403592","0.0-65.0-0.0","38354371","wem/bandit_party_2","A1KC7HDBADU451","either","5","155","","","","","","","1","0","0","0.2026045625","","0.4","0.2","0.6","0.8","","","","","0.4695599312","0.1275075135","0.2026045625","0.4051577966","","","","","","","","","","75","K","2","","","24","main_expt",""
"","bandit","104","405332","0.0-66.0-0.0","38354371","wem/bandit_party_2","A1KC7HDBADU451","either","5","220","","","","","","","0","0","1","0.2610081957","","0.4","0.2","0.6","0.8","","","","","0.3710761786","0.1324238285","0.2610081957","0.3583026632","","","","","","","","","","75","K","2","","","25","main_expt",""
"","bandit","105","407032","0.0-67.0-0.0","38354371","wem/bandit_party_2","A1KC7HDBADU451","either","5","165","","","","","","","0","0","1","","0.3104834237","0.4","0.2","0.6","0.8","0.3104834237","0.2222282692","0.2068764453","0.4070676783","","","","","","","","","","","","","","72","H","0","img/none_selected.jpg","","26","main_expt",""
"","bandit","106","408585","0.0-68.0-0.0","38354371","wem/bandit_party_2","A1KC7HDBADU451","either","5","22","","","","","","","0","0","1","","0.2367528544","0.4","0.2","0.6","0.8","0.4250638914","0.2367528544","0.1387354037","0.3962805628","","","","","","","","","","","","","","74","J","1","","","27","main_expt",""
"","bandit","107","410321","0.0-69.0-0.0","38354371","wem/bandit_party_2","A1KC7HDBADU451","either","5","200","","","","","","","0","0","1","","0.2065421522","0.4","0.2","0.6","0.8","0.3738912408","0.1581712713","0.2065421522","0.3381264529","","","","","","","","","","","","","","75","K","2","","","28","main_expt",""
"","bandit","108","412930","0.0-70.0-0.0","38354371","wem/bandit_party_2","A1KC7HDBADU451","either","5","1086","","","","","","","0","0","1","","0.3405446746","0.4","0.2","0.6","0.8","0.411092256","0.2361440946","0.2452437498","0.3405446746","","","","","","","","","","","","","","76","L","3","","","29","main_expt",""
"","bandit","109","414698","0.0-71.0-0.0","38354371","wem/bandit_party_2","A1KC7HDBADU451","either","5","244","","","","","","","0","0","1","0.3536414415","","0.4","0.2","0.6","0.8","","","","","0.306262239","0.3051502752","0.3076129501","0.3536414415","","","","","","","","","","76","L","3","","","30","main_expt",""
"","bandit","110","416646","0.0-72.0-0.0","38354371","wem/bandit_party_2","A1KC7HDBADU451","either","5","412","","","","","","","1","0","0","0.3201297868","","0.4","0.2","0.6","0.8","","","","","0.2846857217","0.3588845582","0.275744379","0.3201297868","","","","","","","","","","76","L","3","","","31","main_expt",""
"","bandit","111","418173","0.0-73.0-0.0","38354371","wem/bandit_party_2","A1KC7HDBADU451","either","5","0","","","","","","","1","0","0","0.414050106","","0.4","0.2","0.6","0.8","","","","","0.260797537","0.3351264969","0.1582224348","0.414050106","","","","","","","","","","76","L","3","","","32","main_expt",""
"","bandit","112","419895","0.0-74.0-0.0","38354371","wem/bandit_party_2","A1KC7HDBADU451","either","5","190","","","","","","","0","0","1","0.4846208784","","0.4","0.2","0.6","0.8","","","","","0.3108282978","0.3369799553","0.07234251762","0.4846208784","","","","","","","","","","76","L","3","","","33","main_expt",""
"","bandit","113","421614","0.0-75.0-0.0","38354371","wem/bandit_party_2","A1KC7HDBADU451","either","5","194","","","","","","","0","1","0","","0.3996464291","0.4","0.2","0.6","0.8","0.3996464291","0.3040676539","0.07244310326","0.4250330595","","","","","","","","","","","","","","72","H","0","img/none_selected.jpg","","34","main_expt",""
"","bandit","114","423368","0.0-76.0-0.0","38354371","wem/bandit_party_2","A1KC7HDBADU451","either","5","230","","","","","","","0","1","0","","0.4368131495","0.4","0.2","0.6","0.8","0.4368131495","0.2974236485","0.07140094546","0.499329675","","","","","","","","","","","","","","72","H","0","img/none_selected.jpg","","35","main_expt",""
"","bandit","115","425044","0.0-77.0-0.0","38354371","wem/bandit_party_2","A1KC7HDBADU451","either","5","152","","","","","","","0","0","1","","0.3396719642","0.4","0.2","0.6","0.8","0.3396719642","0.310238309","0.08624361683","0.3892953339","","","","","","","","","","","","","","72","H","0","img/none_selected.jpg","","36","main_expt",""
"","bandit","116","426811","0.0-78.0-0.0","38354371","wem/bandit_party_2","A1KC7HDBADU451","either","5","237","","","","","","","0","0","1","0.07543251018","","0.4","0.2","0.6","0.8","","","","","0.4409026667","0.2818719109","0.07543251018","0.3680424748","","","","","","","","","","75","K","2","","","37","main_expt",""
"","bandit","117","428620","0.0-79.0-0.0","38354371","wem/bandit_party_2","A1KC7HDBADU451","either","5","290","","","","","","","0","0","1","0.2925765749","","0.4","0.2","0.6","0.8","","","","","0.489392614","0.2925765749","0.1324785543","0.4909804269","","","","","","","","","","74","J","1","","","38","main_expt",""
"","bandit","118","430300","0.0-80.0-0.0","38354371","wem/bandit_party_2","A1KC7HDBADU451","either","5","158","","","","","","","0","0","1","0.4403114744","","0.4","0.2","0.6","0.8","","","","","0.4403114744","0.3033582507","0.1824024676","0.5165168671","","","","","","","","","","72","H","0","img/none_selected.jpg","","39","main_expt",""
"","bandit","119","431844","0.0-81.0-0.0","38354371","wem/bandit_party_2","A1KC7HDBADU451","either","5","22","","","","","","","0","0","1","0.6036007873","","0.4","0.2","0.6","0.8","","","","","0.343221944","0.2371445562","0.09861269436","0.6036007873","","","","","","","","","","76","L","3","","","40","main_expt",""
"","bandit","120","433471","0.0-82.0-0.0","38354371","wem/bandit_party_2","A1KC7HDBADU451","either","5","100","","","","","","","0","0","1","0.1028082326","","0.4","0.2","0.6","0.8","","","","","0.450343793","0.2072661203","0.1028082326","0.6078828369","","","","","","","","","","75","K","2","","","41","main_expt",""
"","bandit","121","435503","0.0-83.0-0.0","38354371","wem/bandit_party_2","A1KC7HDBADU451","either","5","503","","","","","","","0","0","1","0.1326350751","","0.4","0.2","0.6","0.8","","","","","0.4422822993","0.1850700716","0.1326350751","0.5757077757","","","","","","","","","","75","K","2","","","42","main_expt",""
"","bandit","122","437245","0.0-84.0-0.0","38354371","wem/bandit_party_2","A1KC7HDBADU451","either","5","203","","","","","","","0","0","1","0.1700345657","","0.4","0.2","0.6","0.8","","","","","0.4755437476","0.1700345657","0.1591685393","0.504524575","","","","","","","","","","74","J","1","","","43","main_expt",""
"","bandit","123","438873","0.0-85.0-0.0","38354371","wem/bandit_party_2","A1KC7HDBADU451","either","5","72","","","","","","","0","1","0","","0.6211160782","0.4","0.2","0.6","0.8","0.6211160782","0.150922449","0.1558361793","0.3354744533","","","","","","","","","","","","","","72","H","0","img/none_selected.jpg","","44","main_expt",""
"","bandit","124","440441","0.0-86.0-0.0","38354371","wem/bandit_party_2","A1KC7HDBADU451","either","5","35","","","","","","","0","1","0","","0.5950963145","0.4","0.2","0.6","0.8","0.5950963145","0.08792573626","0.08224127908","0.2259933845","","","","","","","","","","","","","","72","H","0","img/none_selected.jpg","","45","main_expt",""
"","bandit","125","442057","0.0-87.0-0.0","38354371","wem/bandit_party_2","A1KC7HDBADU451","either","5","90","","","","","","","1","0","0","0.600883672","","0.4","0.2","0.6","0.8","","","","","0.600883672","0.05210962111","0.05681632526","0.1991815266","","","","","","","","","","72","H","0","img/none_selected.jpg","","46","main_expt",""
"","bandit","126","443762","0.0-88.0-0.0","38354371","wem/bandit_party_2","A1KC7HDBADU451","either","5","170","","","","","","","0","0","1","","0.6018426621","0.4","0.2","0.6","0.8","0.6018426621","0.1658512007","0.02046531905","0.1821259253","","","","","","","","","","","","","","72","H","0","img/none_selected.jpg","","47","main_expt",""
"","bandit","127","445731","0.0-89.0-0.0","38354371","wem/bandit_party_2","A1KC7HDBADU451","either","5","418","","","","","","","0","0","1","0.02793369594","","0.4","0.2","0.6","0.8","","","","","0.6719149388","0.2171730843","0.02793369594","0.1850219792","","","","","","","","","","75","K","2","","","48","main_expt",""
"","bandit","128","447579","0.0-90.0-0.0","38354371","wem/bandit_party_2","A1KC7HDBADU451","either","5","309","","","","","","","0","0","1","0.2545874694","","0.4","0.2","0.6","0.8","","","","","0.5824093935","0.2545874694","0.01520235592","0.2843491098","","","","","","","","","","74","J","1","","","49","main_expt",""
"","bandit","129","449402","0.0-91.0-0.0","38354371","wem/bandit_party_2","A1KC7HDBADU451","either","5","292","","","","","","","0","0","1","","0.2385085868","0.4","0.2","0.6","0.8","0.5697547833","0.1971443839","0.008868670712","0.2385085868","","","","","","","","","","","","","","76","L","3","","","50","main_expt",""
"","bandit","130","451259","0.0-92.0-0.0","38354371","wem/bandit_party_2","A1KC7HDBADU451","either","5","337","","","","","","","0","0","1","","0.2762119933","0.4","0.2","0.6","0.8","0.5875551098","0.1743954459","0.004668439046","0.2762119933","","","","","","","","","","","","","","76","L","3","","","51","main_expt",""
"","bandit","131","453492","0.0-93.0-0.0","38354371","wem/bandit_party_2","A1KC7HDBADU451","either","5","697","","","","","","","0","0","1","","0.003090075005","0.4","0.2","0.6","0.8","0.691822337","0.1007451992","0.003090075005","0.2350807626","","","","","","","","","","","","","","75","K","2","","","52","main_expt",""
"","bandit","132","455288","0.0-94.0-0.0","38354371","wem/bandit_party_2","A1KC7HDBADU451","either","5","277","","","","","","","1","0","0","0.7363191169","","0.4","0.2","0.6","0.8","","","","","0.7363191169","0.1648918076","0.003474758773","0.2301492847","","","","","","","","","","72","H","0","img/none_selected.jpg","","53","main_expt",""
"","bandit","133","457095","0.0-95.0-0.0","38354371","wem/bandit_party_2","A1KC7HDBADU451","either","5","271","","","","","","","0","0","1","","0.7639548597","0.4","0.2","0.6","0.8","0.7639548597","0.1761014763","0.003279238457","0.2779325162","","","","","","","","","","","","","","72","H","0","img/none_selected.jpg","","54","main_expt",""
"","bandit","134","458674","0.0-96.0-0.0","38354371","wem/bandit_party_2","A1KC7HDBADU451","either","5","31","","","","","","","0","0","1","","0.1460392243","0.4","0.2","0.6","0.8","0.7264154962","0.1460392243","0.001847339967","0.2882189161","","","","","","","","","","","","","","74","J","1","","","55","main_expt",""
"","bandit","135","460365","0.0-97.0-0.0","38354371","wem/bandit_party_2","A1KC7HDBADU451","either","5","159","","","","","","","0","0","1","","0.1882527018","0.4","0.2","0.6","0.8","0.7511403137","0.1882527018","0.001186331615","0.2646822794","","","","","","","","","","","","","","74","J","1","","","56","main_expt",""
"","bandit","136","462166","0.0-98.0-0.0","38354371","wem/bandit_party_2","A1KC7HDBADU451","either","5","271","","","","","","","0","0","1","0.001917609755","","0.4","0.2","0.6","0.8","","","","","0.6292194553","0.1836596221","0.001917609755","0.3080117871","","","","","","","","","","75","K","2","","","57","main_expt",""
"","bandit","137","463705","0.0-99.0-0.0","38354371","wem/bandit_party_2","A1KC7HDBADU451","either","5","7","","","","","","","0","1","0","","0.5622591622","0.4","0.2","0.6","0.8","0.5622591622","0.2259562874","0.004115025419","0.2609020091","","","","","","","","","","","","","","72","H","0","img/none_selected.jpg","","58","main_expt",""
"","bandit","138","465393","0.0-100.0-0.0","38354371","wem/bandit_party_2","A1KC7HDBADU451","either","5","141","","","","","","","0","1","0","","0.6394190939","0.4","0.2","0.6","0.8","0.6394190939","0.1673227733","0.007083433589","0.3014652953","","","","","","","","","","","","","","72","H","0","img/none_selected.jpg","","59","main_expt",""
"","bandit","139","467064","0.0-101.0-0.0","38354371","wem/bandit_party_2","A1KC7HDBADU451","either","5","152","","","","","","","0","0","1","","0.502148976","0.4","0.2","0.6","0.8","0.502148976","0.1404143731","0.0100473459","0.2872544729","","","","","","","","","","","","","","72","H","0","img/none_selected.jpg","","60","main_expt",""
"","bandit","140","468758","0.0-102.0-0.0","38354371","wem/bandit_party_2","A1KC7HDBADU451","either","5","157","","","","","","","0","0","1","","0.2347068593","0.4","0.2","0.6","0.8","0.5541662771","0.1087230511","0.02288810402","0.2347068593","","","","","","","","","","","","","","76","L","3","","","61","main_expt",""
"","bandit","141","470292","0.0-103.0-0.0","38354371","wem/bandit_party_2","A1KC7HDBADU451","either","5","11","","","","","","","0","0","1","0.04890713094","","0.4","0.2","0.6","0.8","","","","","0.6016144889","0.1173770395","0.04890713094","0.1786743828","","","","","","","","","","75","K","2","","","62","main_expt",""
"","bandit","142","471850","0.0-104.0-0.0","38354371","wem/bandit_party_2","A1KC7HDBADU451","either","5","18","","","","","","","0","0","1","0.6306423252","","0.4","0.2","0.6","0.8","","","","","0.6306423252","0.1173961002","0.06015841579","0.1627017484","","","","","","","","","","72","H","0","img/none_selected.jpg","","63","main_expt",""
"","bandit","143","473719","0.0-105.0-0.0","38354371","wem/bandit_party_2","A1KC7HDBADU451","either","5","344","","","","","","","0","0","1","","0.1093057248","0.4","0.2","0.6","0.8","0.5963496952","0.1093057248","0.0697324588","0.2220220934","","","","","","","","","","","","","","74","J","1","","","64","main_expt",""
"","bandit","144","475652","0.0-106.0-0.0","38354371","wem/bandit_party_2","A1KC7HDBADU451","either","5","406","","","","","","","0","0","1","0.1387290973","","0.4","0.2","0.6","0.8","","","","","0.5835424673","0.1437581537","0.03955641554","0.1387290973","","","","","","","","","","76","L","3","","","65","main_expt",""
"","bandit","145","477206","0.0-107.0-0.0","38354371","wem/bandit_party_2","A1KC7HDBADU451","either","5","27","","","","","","","0","0","1","0.5789137396","","0.4","0.2","0.6","0.8","","","","","0.5789137396","0.1321246006","0.04104317144","0.1481952943","","","","","","","","","","72","H","0","img/none_selected.jpg","","66","main_expt",""
"","bandit","146","478857","0.0-108.0-0.0","38354371","wem/bandit_party_2","A1KC7HDBADU451","either","5","99","","","","","","","0","0","1","","0.07749417123","0.4","0.2","0.6","0.8","0.6503196648","0.1441415222","0.07749417123","0.1354395346","","","","","","","","","","","","","","75","K","2","","","67","main_expt",""
"","bandit","147","480582","0.0-109.0-0.0","38354371","wem/bandit_party_2","A1KC7HDBADU451","either","5","189","","","","","","","0","0","1","0.09431815687","","0.4","0.2","0.6","0.8","","","","","0.7295955131","0.1794787892","0.1606162296","0.09431815687","","","","","","","","","","76","L","3","","","68","main_expt",""
"","bandit","148","482335","0.0-110.0-0.0","38354371","wem/bandit_party_2","A1KC7HDBADU451","either","5","231","","","","","","","0","1","0","","0.2467892919","0.4","0.2","0.6","0.8","0.7924649224","0.2467892919","0.1458723802","0.09491494314","","","","","","","","","","","","","","74","J","1","","","69","main_expt",""
"","bandit","149","483900","0.0-111.0-0.0","38354371","wem/bandit_party_2","A1KC7HDBADU451","either","5","41","","","","","","","0","0","1","","0.2683381141","0.4","0.2","0.6","0.8","0.7104550926","0.2683381141","0.09936082334","0.144379617","","","","","","","","","","","","","","74","J","1","","","70","main_expt",""
"","bandit","150","485622","0.0-112.0-0.0","38354371","wem/bandit_party_2","A1KC7HDBADU451","either","5","171","","","","","","","0","0","1","","0.08487306657","0.4","0.2","0.6","0.8","0.6350436987","0.3513633517","0.08487306657","0.1522740794","","","","","","","","","","","","","","75","K","2","","","71","main_expt",""
"","bandit","151","487169","0.0-113.0-0.0","38354371","wem/bandit_party_2","A1KC7HDBADU451","either","5","2","","","","","","","0","1","0","","0.5987872161","0.4","0.2","0.6","0.8","0.5987872161","0.2914052368","0.08819471669","0.1668466162","","","","","","","","","","","","","","72","H","0","img/none_selected.jpg","","72","main_expt",""
"","bandit","152","488869","0.0-114.0-0.0","38354371","wem/bandit_party_2","A1KC7HDBADU451","either","5","158","","","","","","","1","0","0","0.5985066563","","0.4","0.2","0.6","0.8","","","","","0.5985066563","0.2877488323","0.1283432424","0.1896474075","","","","","","","","","","72","H","0","img/none_selected.jpg","","73","main_expt",""
"","bandit","153","490590","0.0-115.0-0.0","38354371","wem/bandit_party_2","A1KC7HDBADU451","either","5","205","","","","","","","0","1","0","","0.6384302553","0.4","0.2","0.6","0.8","0.6384302553","0.2562899571","0.09379917772","0.2374421278","","","","","","","","","","","","","","72","H","0","img/none_selected.jpg","","74","main_expt",""
"","bandit","154","492329","0.0-116.0-0.0","38354371","wem/bandit_party_2","A1KC7HDBADU451","either","5","221","","","","","","","0","0","1","0.5658832615","","0.4","0.2","0.6","0.8","","","","","0.5658832615","0.2733605005","0.09049970266","0.2083661751","","","","","","","","","","72","H","0","img/none_selected.jpg","","75","main_expt",""
"","bandit","155","494415","0.0-117.0-0.0","38354371","wem/bandit_party_2","A1KC7HDBADU451","either","5","561","","","","","","","0","0","1","0.2438220339","","0.4","0.2","0.6","0.8","","","","","0.6242699585","0.3937912108","0.08721668036","0.2438220339","","","","","","","","","","76","L","3","","","76","main_expt",""
"","bandit","156","496359","0.0-118.0-0.0","38354371","wem/bandit_party_2","A1KC7HDBADU451","either","5","430","","","","","","","1","0","0","0.2688374605","","0.4","0.2","0.6","0.8","","","","","0.5744400186","0.2317864895","0.06435523183","0.2688374605","","","","","","","","","","76","L","3","","","77","main_expt",""
"","bandit","157","498080","0.0-119.0-0.0","38354371","wem/bandit_party_2","A1KC7HDBADU451","either","5","202","","","","","","","0","0","1","0.354885782","","0.4","0.2","0.6","0.8","","","","","0.5888420407","0.1809738678","0.0482567949","0.354885782","","","","","","","","","","76","L","3","","","78","main_expt",""
"","bandit","158","499657","0.0-120.0-0.0","38354371","wem/bandit_party_2","A1KC7HDBADU451","either","5","62","","","","","","","0","0","1","0.0437210955","","0.4","0.2","0.6","0.8","","","","","0.6367332082","0.1139783564","0.0437210955","0.3618930149","","","","","","","","","","75","K","2","","","79","main_expt",""
"","bandit","159","501236","0.0-121.0-0.0","38354371","wem/bandit_party_2","A1KC7HDBADU451","either","5","54","","","","","","","0","0","1","","0.02877808334","0.4","0.2","0.6","0.8","0.6870764151","0.08785846653","0.02877808334","0.2656346555","","","","","","","","","","","","","","75","K","2","","","80","main_expt",""
"","bandit","160","502946","0.0-122.0-0.0","38354371","wem/bandit_party_2","A1KC7HDBADU451","either","5","189","","","","","","","0","0","1","","0.09113866108","0.4","0.2","0.6","0.8","0.594282643","0.09113866108","0.01921293631","0.4245431589","","","","","","","","","","","","","","74","J","1","","","81","main_expt",""
"","bandit","161","504618","0.0-123.0-0.0","38354371","wem/bandit_party_2","A1KC7HDBADU451","either","5","151","","","","","","","0","0","1","","0.1055231707","0.4","0.2","0.6","0.8","0.6134463007","0.1055231707","0.04933803159","0.4469352605","","","","","","","","","","","","","","74","J","1","","","82","main_expt",""
"","bandit","162","506552","0.0-124.0-0.0","38354371","wem/bandit_party_2","A1KC7HDBADU451","either","5","388","","","","","","","0","0","1","0.03134335394","","0.4","0.2","0.6","0.8","","","","","0.573719985","0.09865920741","0.03134335394","0.4492602846","","","","","","","","","","75","K","2","","","83","main_expt",""
"","bandit","163","508249","0.0-125.0-0.0","38354371","wem/bandit_party_2","A1KC7HDBADU451","either","5","163","","","","","","","0","0","1","","0.5666188995","0.4","0.2","0.6","0.8","0.5666188995","0.06745845416","0.08181594064","0.4800113203","","","","","","","","","","","","","","72","H","0","img/none_selected.jpg","","84","main_expt",""
"","bandit","164","510014","0.0-126.0-0.0","38354371","wem/bandit_party_2","A1KC7HDBADU451","either","5","220","","","","","","","0","0","1","","0.53417275","0.4","0.2","0.6","0.8","0.5161506384","0.05723787215","0.09326949564","0.53417275","","","","","","","","","","","","","","76","L","3","","","85","main_expt",""
"","bandit","165","511971","0.0-127.0-0.0","38354371","wem/bandit_party_2","A1KC7HDBADU451","either","5","434","","","","","","","0","0","1","0.04283717318","","0.4","0.2","0.6","0.8","","","","","0.4408304524","0.04283717318","0.1365856799","0.4431594274","","","","","","","","","","74","J","1","","","86","main_expt",""
"","bandit","166","513519","0.0-128.0-0.0","38354371","wem/bandit_party_2","A1KC7HDBADU451","either","5","1","","","","","","","0","0","1","","0.04801612347","0.4","0.2","0.6","0.8","0.4926691315","0.04801612347","0.1845868617","0.4135642243","","","","","","","","","","","","","","74","J","1","","","87","main_expt",""
"","bandit","167","515293","0.0-129.0-0.0","38354371","wem/bandit_party_2","A1KC7HDBADU451","either","5","235","","","","","","","0","0","1","0.1154775412","","0.4","0.2","0.6","0.8","","","","","0.6047228172","0.1154775412","0.2304222619","0.4785462387","","","","","","","","","","74","J","1","","","88","main_expt",""
"","bandit","168","517026","0.0-130.0-0.0","38354371","wem/bandit_party_2","A1KC7HDBADU451","either","5","211","","","","","","","0","0","1","","0.1408060154","0.4","0.2","0.6","0.8","0.5311406509","0.1308375778","0.1408060154","0.6395163219","","","","","","","","","","","","","","75","K","2","","","89","main_expt",""
"","bandit","169","518821","0.0-131.0-0.0","38354371","wem/bandit_party_2","A1KC7HDBADU451","either","5","282","","","","","","","1","0","0","0.1870966622","","0.4","0.2","0.6","0.8","","","","","0.6262376813","0.07282967421","0.1870966622","0.6143207643","","","","","","","","","","75","K","2","","","90","main_expt",""
"","bandit","170","520447","0.0-132.0-0.0","38354371","wem/bandit_party_2","A1KC7HDBADU451","either","5","104","","","","","","","0","0","1","","0.192698437","0.4","0.2","0.6","0.8","0.690423555","0.07599207753","0.192698437","0.446485487","","","","","","","","","","","","","","75","K","2","","","91","main_expt",""
"","bandit","171","522012","0.0-133.0-0.0","38354371","wem/bandit_party_2","A1KC7HDBADU451","either","5","50","","","","","","","0","0","1","","0.6517149298","0.4","0.2","0.6","0.8","0.6517149298","0.04323911508","0.1683480261","0.5169677416","","","","","","","","","","","","","","72","H","0","img/none_selected.jpg","","92","main_expt",""
"","bandit","172","523827","0.0-134.0-0.0","38354371","wem/bandit_party_2","A1KC7HDBADU451","either","5","290","","","","","","","1","0","0","0.5656193004","","0.4","0.2","0.6","0.8","","","","","0.5656193004","0.04253576945","0.1330499919","0.4242737166","","","","","","","","","","72","H","0","img/none_selected.jpg","","93","main_expt",""
"","bandit","173","525410","0.0-135.0-0.0","38354371","wem/bandit_party_2","A1KC7HDBADU451","either","5","66","","","","","","","0","1","0","","0.4344563295","0.4","0.2","0.6","0.8","0.4344563295","0.04534385772","0.1880917327","0.3479993201","","","","","","","","","","","","","","72","H","0","img/none_selected.jpg","","94","main_expt",""
"","bandit","174","527076","0.0-136.0-0.0","38354371","wem/bandit_party_2","A1KC7HDBADU451","either","5","112","","","","","","","0","1","0","","0.5651083109","0.4","0.2","0.6","0.8","0.5651083109","0.03318992591","0.1867575465","0.3701135783","","","","","","","","","","","","","","72","H","0","img/none_selected.jpg","","95","main_expt",""
"","bandit","175","528860","0.0-137.0-0.0","38354371","wem/bandit_party_2","A1KC7HDBADU451","either","5","251","","","","","","","1","0","0","0.5348041914","","0.4","0.2","0.6","0.8","","","","","0.5348041914","0.03408771876","0.2231999883","0.3430407586","","","","","","","","","","72","H","0","img/none_selected.jpg","","96","main_expt",""
"","bandit","176","530554","0.0-138.0-0.0","38354371","wem/bandit_party_2","A1KC7HDBADU451","either","5","181","","","","","","","0","1","0","","0.5627844697","0.4","0.2","0.6","0.8","0.5627844697","0.05013144164","0.2149045243","0.2876443713","","","","","","","","","","","","","","72","H","0","img/none_selected.jpg","","97","main_expt",""
"","bandit","177","532332","0.0-139.0-0.0","38354371","wem/bandit_party_2","A1KC7HDBADU451","either","5","266","","","","","","","0","1","0","","0.6177525637","0.4","0.2","0.6","0.8","0.6177525637","0.03739082544","0.1963416079","0.3310412313","","","","","","","","","","","","","","72","H","0","img/none_selected.jpg","","98","main_expt",""
"","bandit","178","533863","0.0-140.0-0.0","38354371","wem/bandit_party_2","A1KC7HDBADU451","either","5","7","","","","","","","1","0","0","0.7429557604","","0.4","0.2","0.6","0.8","","","","","0.7429557604","0.1018336486","0.1659387142","0.3893078888","","","","","","","","","","72","H","0","img/none_selected.jpg","","99","main_expt",""
"","bandit","179","535404","0.0-141.0-0.0","38354371","wem/bandit_party_2","A1KC7HDBADU451","either","5","25","","","","","","","0","1","0","","0.6717563967","0.4","0.2","0.6","0.8","0.6717563967","0.1398961818","0.145948344","0.4049224607","","","","","","","","","","","","","","72","H","0","img/none_selected.jpg","","100","main_expt",""
"","bandit","180","537178","0.0-142.0-0.0","38354371","wem/bandit_party_2","A1KC7HDBADU451","either","5","261","","","","","","","1","0","0","0.6929666651","","0.4","0.2","0.6","0.8","","","","","0.6929666651","0.1830356504","0.1366695263","0.3259939159","","","","","","","","","","72","H","0","img/none_selected.jpg","","101","main_expt",""
"","bandit","181","538716","0.0-143.0-0.0","38354371","wem/bandit_party_2","A1KC7HDBADU451","either","5","27","","","","","","","0","1","0","","0.6827494989","0.4","0.2","0.6","0.8","0.6827494989","0.1396005595","0.1543059156","0.3598161211","","","","","","","","","","","","","","72","H","0","img/none_selected.jpg","","102","main_expt",""
"","bandit","182","540479","0.0-144.0-0.0","38354371","wem/bandit_party_2","A1KC7HDBADU451","either","5","239","","","","","","","0","0","1","0.7315485361","","0.4","0.2","0.6","0.8","","","","","0.7315485361","0.0853830874","0.1484193465","0.3385951472","","","","","","","","","","72","H","0","img/none_selected.jpg","","103","main_expt",""
"","bandit","183","542013","0.0-145.0-0.0","38354371","wem/bandit_party_2","A1KC7HDBADU451","either","5","1","","","","","","","1","0","0","0.6852971926","","0.4","0.2","0.6","0.8","","","","","0.6852971926","0.09317924201","0.1516288854","0.4881545817","","","","","","","","","","72","H","0","img/none_selected.jpg","","104","main_expt",""
"","bandit","184","543816","0.0-146.0-0.0","38354371","wem/bandit_party_2","A1KC7HDBADU451","either","5","269","","","","","","","0","1","0","","0.693594393","0.4","0.2","0.6","0.8","0.693594393","0.08203708102","0.1283123627","0.4790883063","","","","","","","","","","","","","","72","H","0","img/none_selected.jpg","","105","main_expt",""
"","bandit","185","545581","0.0-147.0-0.0","38354371","wem/bandit_party_2","A1KC7HDBADU451","either","5","240","","","","","","","0","1","0","","0.6101065231","0.4","0.2","0.6","0.8","0.6101065231","0.07160056992","0.2016068708","0.4354998123","","","","","","","","","","","","","","72","H","0","img/none_selected.jpg","","106","main_expt",""
"","bandit","186","547331","0.0-148.0-0.0","38354371","wem/bandit_party_2","A1KC7HDBADU451","either","5","212","","","","","","","0","0","1","","0.5549317608","0.4","0.2","0.6","0.8","0.5549317608","0.09799112372","0.2344181992","0.4789065637","","","","","","","","","","","","","","72","H","0","img/none_selected.jpg","","107","main_expt",""
"","bandit","187","549246","0.0-149.0-0.0","38354371","wem/bandit_party_2","A1KC7HDBADU451","either","5","371","","","","","","","0","1","0","","0.5753690117","0.4","0.2","0.6","0.8","0.5753690117","0.1101799882","0.2234564856","0.2921896665","","","","","","","","","","","","","","72","H","0","img/none_selected.jpg","","108","main_expt",""
"","bandit","188","551061","0.0-150.0-0.0","38354371","wem/bandit_party_2","A1KC7HDBADU451","either","5","285","","","","","","","0","1","0","","0.5748544728","0.4","0.2","0.6","0.8","0.5748544728","0.07189968831","0.2494485671","0.3545905428","","","","","","","","","","","","","","72","H","0","img/none_selected.jpg","","109","main_expt",""
"","bandit","189","552668","0.0-151.0-0.0","38354371","wem/bandit_party_2","A1KC7HDBADU451","either","5","83","","","","","","","0","1","0","","0.6473038793","0.4","0.2","0.6","0.8","0.6473038793","0.06101418375","0.2804015825","0.3110769573","","","","","","","","","","","","","","72","H","0","img/none_selected.jpg","","110","main_expt",""
"","bandit","190","554219","0.0-152.0-0.0","38354371","wem/bandit_party_2","A1KC7HDBADU451","either","5","1","","","","","","","1","0","0","0.6296147118","","0.4","0.2","0.6","0.8","","","","","0.6296147118","0.1032726654","0.254644275","0.3673577619","","","","","","","","","","72","H","0","img/none_selected.jpg","","111","main_expt",""
"","bandit","191","555936","0.0-153.0-0.0","38354371","wem/bandit_party_2","A1KC7HDBADU451","either","5","190","","","","","","","1","0","0","0.6174722021","","0.4","0.2","0.6","0.8","","","","","0.6174722021","0.1061240248","0.2686709136","0.3439961468","","","","","","","","","","72","H","0","img/none_selected.jpg","","112","main_expt",""
"","bandit","192","557693","0.0-154.0-0.0","38354371","wem/bandit_party_2","A1KC7HDBADU451","either","5","227","","","","","","","0","1","0","","0.7467975424","0.4","0.2","0.6","0.8","0.7467975424","0.1150632514","0.3211503982","0.3389202036","","","","","","","","","","","","","","72","H","0","img/none_selected.jpg","","113","main_expt",""
"","bandit","193","559503","0.0-155.0-0.0","38354371","wem/bandit_party_2","A1KC7HDBADU451","either","5","279","","","","","","","0","1","0","","0.7797220863","0.4","0.2","0.6","0.8","0.7797220863","0.1491479201","0.3067152309","0.3122185675","","","","","","","","","","","","","","72","H","0","img/none_selected.jpg","","114","main_expt",""
"","bandit","194","561265","0.0-156.0-0.0","38354371","wem/bandit_party_2","A1KC7HDBADU451","either","5","214","","","","","","","0","1","0","","0.8152411921","0.4","0.2","0.6","0.8","0.8152411921","0.08304421353","0.3274584286","0.2431064996","","","","","","","","","","","","","","72","H","0","img/none_selected.jpg","","115","main_expt",""
"","bandit","195","563003","0.0-157.0-0.0","38354371","wem/bandit_party_2","A1KC7HDBADU451","either","5","188","","","","","","","1","0","0","0.7362727539","","0.4","0.2","0.6","0.8","","","","","0.7362727539","0.1391191417","0.2491959293","0.2225404561","","","","","","","","","","72","H","0","img/none_selected.jpg","","116","main_expt",""
"","bandit","196","564644","0.0-158.0-0.0","38354371","wem/bandit_party_2","A1KC7HDBADU451","either","5","97","","","","","","","0","0","1","0.7051771602","","0.4","0.2","0.6","0.8","","","","","0.7051771602","0.1689833708","0.1425156065","0.2891792411","","","","","","","","","","72","H","0","img/none_selected.jpg","","117","main_expt",""
"","bandit","197","566221","0.0-159.0-0.0","38354371","wem/bandit_party_2","A1KC7HDBADU451","either","5","41","","","","","","","0","0","1","","0.7099604309","0.4","0.2","0.6","0.8","0.7099604309","0.1341186766","0.1550025764","0.3147139712","","","","","","","","","","","","","","72","H","0","img/none_selected.jpg","","118","main_expt",""
"","bandit","198","568192","0.0-160.0-0.0","38354371","wem/bandit_party_2","A1KC7HDBADU451","either","5","423","","","","","","","0","1","0","","0.4890071061","0.4","0.2","0.6","0.8","0.6633752461","0.1211065448","0.1733664784","0.4890071061","","","","","","","","","","","","","","76","L","3","","","119","main_expt",""
"","bandit","199","569979","0.0-161.0-0.0","38354371","wem/bandit_party_2","A1KC7HDBADU451","either","5","260","","","","","","","0","0","1","0.5238994176","","0.4","0.2","0.6","0.8","","","","","0.6748815414","0.1317257861","0.2091577514","0.5238994176","","","","","","","","","","76","L","3","","","120","main_expt",""
"","bandit","200","571767","0.0-162.0-0.0","38354371","wem/bandit_party_2","A1KC7HDBADU451","either","5","247","","","","","","","0","0","1","0.4821854017","","0.4","0.2","0.6","0.8","","","","","0.694041989","0.08851148741","0.2038206067","0.4821854017","","","","","","","","","","76","L","3","","","121","main_expt",""
"","bandit","201","573364","0.0-163.0-0.0","38354371","wem/bandit_party_2","A1KC7HDBADU451","either","5","68","","","","","","","0","0","1","0.5695824443","","0.4","0.2","0.6","0.8","","","","","0.7808088803","0.1313095228","0.1646827865","0.5695824443","","","","","","","","","","76","L","3","","","122","main_expt",""
"","bandit","202","575051","0.0-164.0-0.0","38354371","wem/bandit_party_2","A1KC7HDBADU451","either","5","140","","","","","","","0","0","1","","0.7513243775","0.4","0.2","0.6","0.8","0.7513243775","0.1990721176","0.08951947698","0.5884468641","","","","","","","","","","","","","","72","H","0","img/none_selected.jpg","","123","main_expt",""
"","bandit","203","576958","0.0-165.0-0.0","38354371","wem/bandit_party_2","A1KC7HDBADU451","either","5","382","","","","","","","0","1","0","","0.7095593687","0.4","0.2","0.6","0.8","0.7095593687","0.3510587203","0.09676311751","0.6578864121","","","","","","","","","","","","","","72","H","0","img/none_selected.jpg","","124","main_expt",""
"","bandit","204","578758","0.0-166.0-0.0","38354371","wem/bandit_party_2","A1KC7HDBADU451","either","5","270","","","","","","","0","1","0","","0.6464373278","0.4","0.2","0.6","0.8","0.6464373278","0.2829787335","0.08914634913","0.6610648035","","","","","","","","","","","","","","72","H","0","img/none_selected.jpg","","125","main_expt",""
"","bandit","205","580564","0.0-167.0-0.0","38354371","wem/bandit_party_2","A1KC7HDBADU451","either","5","273","","","","","","","0","1","0","","0.69855693","0.4","0.2","0.6","0.8","0.69855693","0.3253732313","0.1104844084","0.6745370829","","","","","","","","","","","","","","72","H","0","img/none_selected.jpg","","126","main_expt",""
"","bandit","206","582358","0.0-168.0-0.0","38354371","wem/bandit_party_2","A1KC7HDBADU451","either","5","255","","","","","","","0","0","1","","0.6394960802","0.4","0.2","0.6","0.8","0.6394960802","0.2969307539","0.1302598269","0.6357656308","","","","","","","","","","","","","","72","H","0","img/none_selected.jpg","","127","main_expt",""
"","bandit","207","584032","0.0-169.0-0.0","38354371","wem/bandit_party_2","A1KC7HDBADU451","either","5","132","","","","","","","0","1","0","","0.1739983423","0.4","0.2","0.6","0.8","0.5912569563","0.3862322559","0.1739983423","0.6746479632","","","","","","","","","","","","","","75","K","2","","","128","main_expt",""
"","bandit","208","585644","0.0-170.0-0.0","38354371","wem/bandit_party_2","A1KC7HDBADU451","either","5","77","","","","","","","0","0","1","","0.2144078185","0.4","0.2","0.6","0.8","0.6408154383","0.3399993615","0.2144078185","0.609360971","","","","","","","","","","","","","","75","K","2","","","129","main_expt",""
"","bandit","209","587262","0.0-171.0-0.0","38354371","wem/bandit_party_2","A1KC7HDBADU451","either","5","59","","","","","","","0","0","1","0.2133227205","","0.4","0.2","0.6","0.8","","","","","0.6160079471","0.4343217783","0.2133227205","0.5791775941","","","","","","","","","","75","K","2","","","130","main_expt",""
"","bandit","210","588880","0.0-172.0-0.0","38354371","wem/bandit_party_2","A1KC7HDBADU451","either","5","97","","","","","","","1","0","0","0.3009586135","","0.4","0.2","0.6","0.8","","","","","0.6639311205","0.4116870082","0.3009586135","0.6039133906","","","","","","","","","","75","K","2","","","131","main_expt",""
"","bandit","211","590590","0.0-173.0-0.0","38354371","wem/bandit_party_2","A1KC7HDBADU451","either","5","184","","","","","","","1","0","0","0.3257006372","","0.4","0.2","0.6","0.8","","","","","0.7314418876","0.3235444519","0.3257006372","0.5564977279","","","","","","","","","","75","K","2","","","132","main_expt",""
"","bandit","212","592167","0.0-174.0-0.0","38354371","wem/bandit_party_2","A1KC7HDBADU451","either","5","46","","","","","","","0","0","1","","0.3286432436","0.4","0.2","0.6","0.8","0.7343064015","0.4204005917","0.3286432436","0.5453182718","","","","","","","","","","","","","","75","K","2","","","133","main_expt",""
"","bandit","213","593763","0.0-175.0-0.0","38354371","wem/bandit_party_2","A1KC7HDBADU451","either","5","46","","","","","","","0","0","1","","0.5326734174","0.4","0.2","0.6","0.8","0.6345074403","0.5326734174","0.3343575241","0.5557967555","","","","","","","","","","","","","","74","J","1","","","134","main_expt",""
"","bandit","214","595358","0.0-176.0-0.0","38354371","wem/bandit_party_2","A1KC7HDBADU451","either","5","68","","","","","","","1","0","0","0.6096825818","","0.4","0.2","0.6","0.8","","","","","0.752921597","0.6096825818","0.2917270645","0.5719827955","","","","","","","","","","74","J","1","","","135","main_expt",""
"","bandit","215","597109","0.0-177.0-0.0","38354371","wem/bandit_party_2","A1KC7HDBADU451","either","5","221","","","","","","","0","1","0","","0.6827328332","0.4","0.2","0.6","0.8","0.7642539739","0.6827328332","0.3972485531","0.4756276611","","","","","","","","","","","","","","74","J","1","","","136","main_expt",""
"","bandit","216","598678","0.0-178.0-0.0","38354371","wem/bandit_party_2","A1KC7HDBADU451","either","5","30","","","","","","","0","0","1","","0.6604068036","0.4","0.2","0.6","0.8","0.7166238274","0.6604068036","0.4294090248","0.5078949877","","","","","","","","","","","","","","74","J","1","","","137","main_expt",""
"","bandit","217","600449","0.0-179.0-0.0","38354371","wem/bandit_party_2","A1KC7HDBADU451","either","5","217","","","","","","","0","1","0","","0.653661868","0.4","0.2","0.6","0.8","0.713549589","0.653661868","0.5009988565","0.4938131475","","","","","","","","","","","","","","74","J","1","","","138","main_expt",""
"","bandit","218","602217","0.0-180.0-0.0","38354371","wem/bandit_party_2","A1KC7HDBADU451","either","5","228","","","","","","","0","0","1","","0.6169918179","0.4","0.2","0.6","0.8","0.6905374229","0.6169918179","0.4993746949","0.654612375","","","","","","","","","","","","","","74","J","1","","","139","main_expt",""
"","bandit","219","603961","0.0-181.0-0.0","38354371","wem/bandit_party_2","A1KC7HDBADU451","either","5","224","","","","","","","0","0","1","","0.6614813372","0.4","0.2","0.6","0.8","0.6614813372","0.6657435074","0.5448973659","0.52663091","","","","","","","","","","","","","","72","H","0","img/none_selected.jpg","","140","main_expt",""
"","bandit","220","605591","0.0-182.0-0.0","38354371","wem/bandit_party_2","A1KC7HDBADU451","either","5","107","","","","","","","0","1","0","","0.7024355817","0.4","0.2","0.6","0.8","0.7024355817","0.6349341703","0.4829720837","0.5976356642","","","","","","","","","","","","","","72","H","0","img/none_selected.jpg","","141","main_expt",""
"","bandit","221","607489","0.0-183.0-0.0","38354371","wem/bandit_party_2","A1KC7HDBADU451","either","5","371","","","","","","","0","0","1","0.7185929435","","0.4","0.2","0.6","0.8","","","","","0.7185929435","0.6379356982","0.5402580016","0.5956183516","","","","","","","","","","72","H","0","img/none_selected.jpg","","142","main_expt",""
"","bandit","222","609317","0.0-184.0-0.0","38354371","wem/bandit_party_2","A1KC7HDBADU451","either","5","300","","","","","","","0","0","1","0.6240660549","","0.4","0.2","0.6","0.8","","","","","0.6240660549","0.6022688156","0.5478015274","0.6432894639","","","","","","","","","","72","H","0","img/none_selected.jpg","","143","main_expt",""
"","bandit","223","610989","0.0-185.0-0.0","38354371","wem/bandit_party_2","A1KC7HDBADU451","either","5","116","","","","","","","1","0","0","0.5797935966","","0.4","0.2","0.6","0.8","","","","","0.5797935966","0.5806731621","0.5189832842","0.6691106198","","","","","","","","","","72","H","0","img/none_selected.jpg","","144","main_expt",""
"","bandit","224","612699","0.0-186.0-0.0","38354371","wem/bandit_party_2","A1KC7HDBADU451","either","5","172","","","","","","","0","0","1","","0.520403766","0.4","0.2","0.6","0.8","0.520403766","0.5512406412","0.4556604905","0.677031803","","","","","","","","","","","","","","72","H","0","img/none_selected.jpg","","145","main_expt",""
"","bandit","225","614249","0.0-187.0-0.0","38354371","wem/bandit_party_2","A1KC7HDBADU451","either","5","18","","","","","","","0","0","1","0.6697886415","","0.4","0.2","0.6","0.8","","","","","0.5330345992","0.6055708535","0.48011385","0.6697886415","","","","","","","","","","76","L","3","","","146","main_expt",""
"","bandit","226","616066","0.0-188.0-0.0","38354371","wem/bandit_party_2","A1KC7HDBADU451","either","5","289","","","","","","","1","0","0","0.7101623398","","0.4","0.2","0.6","0.8","","","","","0.5692896821","0.5711328773","0.5363471167","0.7101623398","","","","","","","","","","76","L","3","","","147","main_expt",""
"","bandit","227","619255","0.0-189.0-0.0","38354371","wem/bandit_party_2","A1KC7HDBADU451","either","5","1642","","","","","","","1","0","0","0.733230793","","0.4","0.2","0.6","0.8","","","","","0.4877368026","0.4258462921","0.4929714004","0.733230793","","","","","","","","","","76","L","3","","","148","main_expt",""
"","bandit","228","621130","0.0-190.0-0.0","38354371","wem/bandit_party_2","A1KC7HDBADU451","either","5","328","","","","","","","1","0","0","0.7010449773","","0.4","0.2","0.6","0.8","","","","","0.5936336812","0.327967402","0.4356177925","0.7010449773","","","","","","","","","","76","L","3","","","149","main_expt",""
"","bandit","229","622865","0.0-191.0-0.0","38354371","wem/bandit_party_2","A1KC7HDBADU451","either","5","180","","","","","","","1","0","0","0.6668672445","","0.4","0.2","0.6","0.8","","","","","0.7027445866","0.4343474627","0.4054894896","0.6668672445","","","","","","","","","","76","L","3","","","150","main_expt",""
"","bandit","230","624807","0.0-192.0-0.0","38354371","wem/bandit_party_2","A1KC7HDBADU451","either","5","423","","","","","","","0","0","1","0.5612636021","","0.4","0.2","0.6","0.8","","","","","0.7690633033","0.5382828223","0.5283130311","0.5612636021","","","","","","","","","","76","L","3","","","151","main_expt",""
"","bandit","231","626780","0.0-193.0-0.0","38354371","wem/bandit_party_2","A1KC7HDBADU451","either","5","436","","","","","","","0","0","1","0.7032448324","","0.4","0.2","0.6","0.8","","","","","0.5989969619","0.6572277468","0.6323123958","0.7032448324","","","","","","","","","","76","L","3","","","152","main_expt",""
"","bandit","232","628470","0.0-194.0-0.0","38354371","wem/bandit_party_2","A1KC7HDBADU451","either","5","138","","","","","","","1","0","0","0.668560183","","0.4","0.2","0.6","0.8","","","","","0.6126787421","0.668560183","0.5847243132","0.6918543646","","","","","","","","","","74","J","1","","","153","main_expt",""
"","bandit","233","630031","0.0-195.0-0.0","38354371","wem/bandit_party_2","A1KC7HDBADU451","either","5","43","","","","","","","0","1","0","","0.6954524596","0.4","0.2","0.6","0.8","0.5461115941","0.6954524596","0.4285456013","0.647195156","","","","","","","","","","","","","","74","J","1","","","154","main_expt",""
"","bandit","234","631929","0.0-196.0-0.0","38354371","wem/bandit_party_2","A1KC7HDBADU451","either","5","377","","","","","","","1","0","0","0.5684527538","","0.4","0.2","0.6","0.8","","","","","0.5456348337","0.5684527538","0.4772645207","0.6135998722","","","","","","","","","","74","J","1","","","155","main_expt",""
"","bandit","235","633767","0.0-197.0-0.0","38354371","wem/bandit_party_2","A1KC7HDBADU451","either","5","309","","","","","","","1","0","0","0.6034375159","","0.4","0.2","0.6","0.8","","","","","0.4782917504","0.6034375159","0.4982711843","0.5591033916","","","","","","","","","","74","J","1","","","156","main_expt",""
"","bandit","236","635627","0.0-198.0-0.0","38354371","wem/bandit_party_2","A1KC7HDBADU451","either","5","302","","","","","","","0","1","0","","0.5835723018","0.4","0.2","0.6","0.8","0.4868537485","0.5835723018","0.5275183668","0.5090787948","","","","","","","","","","","","","","74","J","1","","","157","main_expt",""
"","bandit","237","637516","0.0-199.0-0.0","38354371","wem/bandit_party_2","A1KC7HDBADU451","either","5","349","","","","","","","0","1","0","","0.5234712835","0.4","0.2","0.6","0.8","0.5361642224","0.5234712835","0.4489423754","0.6087372924","","","","","","","","","","","","","","74","J","1","","","158","main_expt",""
"","bandit","238","639350","0.0-200.0-0.0","38354371","wem/bandit_party_2","A1KC7HDBADU451","either","5","294","","","","","","","0","0","1","","0.5636881177","0.4","0.2","0.6","0.8","0.4947944436","0.5636881177","0.4933275403","0.6064578463","","","","","","","","","","","","","","74","J","1","","","159","main_expt",""
"","bandit","239","641599","0.0-201.0-0.0","38354371","wem/bandit_party_2","A1KC7HDBADU451","either","5","682","","","","","","","1","0","0","0.4521998099","","0.4","0.2","0.6","0.8","","","","","0.5106889885","0.4785340868","0.4521998099","0.6951258233","","","","","","","","","","75","K","2","","","160","main_expt",""
"","bandit","240","643318","0.0-202.0-0.0","38354371","wem/bandit_party_2","A1KC7HDBADU451","either","5","195","","","","","","","0","0","1","0.5114636712","","0.4","0.2","0.6","0.8","","","","","0.4566704777","0.5038962889","0.5114636712","0.7129510734","","","","","","","","","","75","K","2","","","161","main_expt",""
"","bandit","241","645029","0.0-203.0-0.0","38354371","wem/bandit_party_2","A1KC7HDBADU451","either","5","193","","","","","","","1","0","0","0.5242674757","","0.4","0.2","0.6","0.8","","","","","0.3259271754","0.4448395692","0.5242674757","0.7028034005","","","","","","","","","","75","K","2","","","162","main_expt",""
"","bandit","242","646563","0.0-204.0-0.0","38354371","wem/bandit_party_2","A1KC7HDBADU451","either","5","5","","","","","","","1","0","0","0.5687322637","","0.4","0.2","0.6","0.8","","","","","0.2806734392","0.471982621","0.5687322637","0.6293758899","","","","","","","","","","75","K","2","","","163","main_expt",""
"","bandit","243","648373","0.0-205.0-0.0","38354371","wem/bandit_party_2","A1KC7HDBADU451","either","5","264","","","","","","","0","0","1","0.5635146256","","0.4","0.2","0.6","0.8","","","","","0.2973163189","0.6517066897","0.5635146256","0.6813427096","","","","","","","","","","75","K","2","","","164","main_expt",""
"","bandit","244","650082","0.0-206.0-0.0","38354371","wem/bandit_party_2","A1KC7HDBADU451","either","5","175","","","","","","","1","0","0","0.6588968294","","0.4","0.2","0.6","0.8","","","","","0.2872552927","0.6339143586","0.6588968294","0.7231406025","","","","","","","","","","75","K","2","","","165","main_expt",""
"","bandit","245","651938","0.0-207.0-0.0","38354371","wem/bandit_party_2","A1KC7HDBADU451","either","5","325","","","","","","","0","1","0","","0.74872254","0.4","0.2","0.6","0.8","0.325395791","0.6507743373","0.74872254","0.6274448994","","","","","","","","","","","","","","75","K","2","","","166","main_expt",""
"","bandit","246","653791","0.0-208.0-0.0","38354371","wem/bandit_party_2","A1KC7HDBADU451","either","5","323","","","","","","","1","0","0","0.7741304825","","0.4","0.2","0.6","0.8","","","","","0.3307719744","0.6753437353","0.7741304825","0.6778384319","","","","","","","","","","75","K","2","","","167","main_expt",""
"","bandit","247","655392","0.0-209.0-0.0","38354371","wem/bandit_party_2","A1KC7HDBADU451","either","5","54","","","","","","","1","0","0","0.8873722237","","0.4","0.2","0.6","0.8","","","","","0.4033689778","0.6308788189","0.8873722237","0.6928942004","","","","","","","","","","75","K","2","","","168","main_expt",""
"","bandit","248","657454","0.0-210.0-0.0","38354371","wem/bandit_party_2","A1KC7HDBADU451","either","5","500","","","","","","","1","0","0","0.8649989169","","0.4","0.2","0.6","0.8","","","","","0.4089274666","0.6289357746","0.8649989169","0.6181376835","","","","","","","","","","75","K","2","","","169","main_expt",""
"","bandit","249","659281","0.0-211.0-0.0","38354371","wem/bandit_party_2","A1KC7HDBADU451","either","5","287","","","","","","","0","0","1","0.8634323334","","0.4","0.2","0.6","0.8","","","","","0.4033631647","0.6308829817","0.8634323334","0.6539136718","","","","","","","","","","75","K","2","","","170","main_expt",""
"","bandit","250","660981","0.0-212.0-0.0","38354371","wem/bandit_party_2","A1KC7HDBADU451","either","5","151","","","","","","","1","0","0","0.8050812792","","0.4","0.2","0.6","0.8","","","","","0.3743415885","0.6008061885","0.8050812792","0.7935188527","","","","","","","","","","75","K","2","","","171","main_expt",""
"","bandit","251","662802","0.0-213.0-0.0","38354371","wem/bandit_party_2","A1KC7HDBADU451","either","5","300","","","","","","","0","1","0","","0.7635000848","0.4","0.2","0.6","0.8","0.4145867416","0.6498855282","0.7635000848","0.7959482017","","","","","","","","","","","","","","75","K","2","","","172","main_expt",""
"","bandit","252","664563","0.0-214.0-0.0","38354371","wem/bandit_party_2","A1KC7HDBADU451","either","5","228","","","","","","","0","0","1","","0.7793560846","0.4","0.2","0.6","0.8","0.4421490518","0.6361658802","0.7793560846","0.7720377381","","","","","","","","","","","","","","75","K","2","","","173","main_expt",""
"","bandit","253","666342","0.0-215.0-0.0","38354371","wem/bandit_party_2","A1KC7HDBADU451","either","5","253","","","","","","","1","0","0","0.7290013271","","0.4","0.2","0.6","0.8","","","","","0.373112653","0.5494915933","0.7290013271","0.7751150559","","","","","","","","","","75","K","2","","","174","main_expt",""
"","bandit","254","668030","0.0-216.0-0.0","38354371","wem/bandit_party_2","A1KC7HDBADU451","either","5","164","","","","","","","0","1","0","","0.8353873757","0.4","0.2","0.6","0.8","0.372221374","0.6292002022","0.8353873757","0.7699246652","","","","","","","","","","","","","","75","K","2","","","175","main_expt",""
"","bandit","255","669591","0.0-217.0-0.0","38354371","wem/bandit_party_2","A1KC7HDBADU451","either","5","36","","","","","","","1","0","0","0.8589437223","","0.4","0.2","0.6","0.8","","","","","0.3594456443","0.4999600136","0.8589437223","0.8092821718","","","","","","","","","","75","K","2","","","176","main_expt",""
"","bandit","256","671348","0.0-218.0-0.0","38354371","wem/bandit_party_2","A1KC7HDBADU451","either","5","222","","","","","","","0","1","0","","0.8824379228","0.4","0.2","0.6","0.8","0.3705823864","0.4500304274","0.8824379228","0.7728258073","","","","","","","","","","","","","","75","K","2","","","177","main_expt",""
"","bandit","257","673058","0.0-219.0-0.0","38354371","wem/bandit_party_2","A1KC7HDBADU451","either","5","188","","","","","","","1","0","0","0.8862787626","","0.4","0.2","0.6","0.8","","","","","0.3042584581","0.4626099748","0.8862787626","0.8128952128","","","","","","","","","","75","K","2","","","178","main_expt",""
"","bandit","258","674884","0.0-220.0-0.0","38354371","wem/bandit_party_2","A1KC7HDBADU451","either","5","303","","","","","","","0","1","0","","0.8851661012","0.4","0.2","0.6","0.8","0.3056645996","0.3074659707","0.8851661012","0.7878088044","","","","","","","","","","","","","","75","K","2","","","179","main_expt",""
"","bandit","259","676771","0.0-221.0-0.0","38354371","wem/bandit_party_2","A1KC7HDBADU451","either","5","360","","","","","","","1","0","0","0.8623840347","","0.4","0.2","0.6","0.8","","","","","0.3124458775","0.2445312817","0.8623840347","0.7626215198","","","","","","","","","","75","K","2","","","180","main_expt",""
"","bandit","260","678461","0.0-222.0-0.0","38354371","wem/bandit_party_2","A1KC7HDBADU451","either","5","159","","","","","","","1","0","0","0.8815853427","","0.4","0.2","0.6","0.8","","","","","0.2597333415","0.2284870313","0.8815853427","0.7059637017","","","","","","","","","","75","K","2","","","181","main_expt",""
"","bandit","261","680369","0.0-223.0-0.0","38354371","wem/bandit_party_2","A1KC7HDBADU451","either","5","384","","","","","","","0","1","0","","0.8955826305","0.4","0.2","0.6","0.8","0.2117009826","0.2195648065","0.8955826305","0.6691747745","","","","","","","","","","","","","","75","K","2","","","182","main_expt",""
"","bandit","262","681925","0.0-224.0-0.0","38354371","wem/bandit_party_2","A1KC7HDBADU451","either","5","28","","","","","","","0","1","0","","0.9362873759","0.4","0.2","0.6","0.8","0.2327762041","0.2327716204","0.9362873759","0.5523838876","","","","","","","","","","","","","","75","K","2","","","183","main_expt",""
"","bandit","263","683691","0.0-225.0-0.0","38354371","wem/bandit_party_2","A1KC7HDBADU451","either","5","238","","","","","","","0","1","0","","0.9484326647","0.4","0.2","0.6","0.8","0.2750618684","0.3207903029","0.9484326647","0.5451875246","","","","","","","","","","","","","","75","K","2","","","184","main_expt",""
"","bandit","264","685536","0.0-226.0-0.0","38354371","wem/bandit_party_2","A1KC7HDBADU451","either","5","325","","","","","","","0","1","0","","0.9660783121","0.4","0.2","0.6","0.8","0.2305846964","0.3609723674","0.9660783121","0.6090771744","","","","","","","","","","","","","","75","K","2","","","185","main_expt",""
"","bandit","265","687245","0.0-227.0-0.0","38354371","wem/bandit_party_2","A1KC7HDBADU451","either","5","189","","","","","","","0","1","0","","0.9665376101","0.4","0.2","0.6","0.8","0.2597669424","0.4442397518","0.9665376101","0.5810996076","","","","","","","","","","","","","","75","K","2","","","186","main_expt",""
"","bandit","266","688983","0.0-228.0-0.0","38354371","wem/bandit_party_2","A1KC7HDBADU451","either","5","216","","","","","","","1","0","0","0.9644184371","","0.4","0.2","0.6","0.8","","","","","0.2143742246","0.4478442549","0.9644184371","0.4445572548","","","","","","","","","","75","K","2","","","187","main_expt",""
"","bandit","267","690751","0.0-229.0-0.0","38354371","wem/bandit_party_2","A1KC7HDBADU451","either","5","228","","","","","","","1","0","0","0.9731237162","","0.4","0.2","0.6","0.8","","","","","0.2294707647","0.4026396634","0.9731237162","0.4113554433","","","","","","","","","","75","K","2","","","188","main_expt",""
"","bandit","268","692503","0.0-230.0-0.0","38354371","wem/bandit_party_2","A1KC7HDBADU451","either","5","221","","","","","","","1","0","0","0.9787475226","","0.4","0.2","0.6","0.8","","","","","0.2469430613","0.5072589837","0.9787475226","0.4053553249","","","","","","","","","","75","K","2","","","189","main_expt",""
"","bandit","269","694366","0.0-231.0-0.0","38354371","wem/bandit_party_2","A1KC7HDBADU451","either","5","331","","","","","","","1","0","0","0.9847816181","","0.4","0.2","0.6","0.8","","","","","0.2437728268","0.5234843415","0.9847816181","0.4927633492","","","","","","","","","","75","K","2","","","190","main_expt",""
"","bandit","270","696091","0.0-232.0-0.0","38354371","wem/bandit_party_2","A1KC7HDBADU451","either","5","197","","","","","","","1","0","0","0.9713064587","","0.4","0.2","0.6","0.8","","","","","0.1655579887","0.5054414672","0.9713064587","0.428678546","","","","","","","","","","75","K","2","","","191","main_expt",""
"","bandit","271","697914","0.0-233.0-0.0","38354371","wem/bandit_party_2","A1KC7HDBADU451","either","5","304","","","","","","","0","1","0","","0.9558555722","0.4","0.2","0.6","0.8","0.1501427492","0.7037613703","0.9558555722","0.3358015867","","","","","","","","","","","","","","75","K","2","","","192","main_expt",""
"","bandit","272","699697","0.0-234.0-0.0","38354371","wem/bandit_party_2","A1KC7HDBADU451","either","5","263","","","","","","","1","0","0","0.9443800135","","0.4","0.2","0.6","0.8","","","","","0.2062706367","0.5980286963","0.9443800135","0.2816430679","","","","","","","","","","75","K","2","","","193","main_expt",""
"","bandit","273","701724","0.0-235.0-0.0","38354371","wem/bandit_party_2","A1KC7HDBADU451","either","5","484","","","","","","","1","0","0","0.947825408","","0.4","0.2","0.6","0.8","","","","","0.2782937815","0.5607231578","0.947825408","0.2951519504","","","","","","","","","","75","K","2","","","194","main_expt",""
"","bandit","274","703729","0.0-236.0-0.0","38354371","wem/bandit_party_2","A1KC7HDBADU451","either","5","471","","","","","","","1","0","0","0.9531013361","","0.4","0.2","0.6","0.8","","","","","0.2393938873","0.6222063369","0.9531013361","0.2482291913","","","","","","","","","","75","K","2","","","195","main_expt",""
"","bandit","275","705593","0.0-237.0-0.0","38354371","wem/bandit_party_2","A1KC7HDBADU451","either","5","330","","","","","","","1","0","0","0.9653581558","","0.4","0.2","0.6","0.8","","","","","0.3385483064","0.7092042058","0.9653581558","0.2548661126","","","","","","","","","","75","K","2","","","196","main_expt",""
"","bandit","276","707357","0.0-238.0-0.0","38354371","wem/bandit_party_2","A1KC7HDBADU451","either","5","232","","","","","","","1","0","0","0.9774234012","","0.4","0.2","0.6","0.8","","","","","0.3474357388","0.7397780251","0.9774234012","0.2789697966","","","","","","","","","","75","K","2","","","197","main_expt",""
"","bandit","277","709183","0.0-239.0-0.0","38354371","wem/bandit_party_2","A1KC7HDBADU451","either","5","276","","","","","","","0","1","0","","0.9866112083","0.4","0.2","0.6","0.8","0.4511600961","0.6977166648","0.9866112083","0.2893473624","","","","","","","","","","","","","","75","K","2","","","198","main_expt",""
"","bandit","278","711010","0.0-240.0-0.0","38354371","wem/bandit_party_2","A1KC7HDBADU451","either","5","291","","","","","","","1","0","0","0.9889390623","","0.4","0.2","0.6","0.8","","","","","0.4387406867","0.591703898","0.9889390623","0.2499124536","","","","","","","","","","75","K","2","","","199","main_expt",""
"","bandit","279","712771","0.0-241.0-0.0","38354371","wem/bandit_party_2","A1KC7HDBADU451","either","5","239","","","","","","","1","0","0","0.9894921125","","0.4","0.2","0.6","0.8","","","","","0.4368135332","0.5107967375","0.9894921125","0.2643429758","","","","","","","","","","75","K","2","","","200","main_expt",""
"","bandit","280","714620","0.0-242.0-0.0","38354371","wem/bandit_party_2","A1KC7HDBADU451","either","5","306","","","","","","","0","1","0","","0.989248002","0.4","0.2","0.6","0.8","0.3070084091","0.6528148869","0.989248002","0.2382870841","","","","","","","","","","","","","","75","K","2","","","201","main_expt",""
"","bandit","281","716367","0.0-243.0-0.0","38354371","wem/bandit_party_2","A1KC7HDBADU451","either","5","190","","","","","","","0","1","0","","0.9957983392","0.4","0.2","0.6","0.8","0.3603585946","0.6892998309","0.9957983392","0.1604624283","","","","","","","","","","","","","","75","K","2","","","202","main_expt",""
"","bandit","282","718154","0.0-244.0-0.0","38354371","wem/bandit_party_2","A1KC7HDBADU451","either","5","255","","","","","","","1","0","0","0.9958893","","0.4","0.2","0.6","0.8","","","","","0.260320329","0.6989476798","0.9958893","0.1407610566","","","","","","","","","","75","K","2","","","203","main_expt",""
"","bandit","283","719877","0.0-245.0-0.0","38354371","wem/bandit_party_2","A1KC7HDBADU451","either","5","189","","","","","","","1","0","0","0.9955962674","","0.4","0.2","0.6","0.8","","","","","0.2003029851","0.772264117","0.9955962674","0.1343245238","","","","","","","","","","75","K","2","","","204","main_expt",""
"","bandit","284","721567","0.0-246.0-0.0","38354371","wem/bandit_party_2","A1KC7HDBADU451","either","5","166","","","","","","","1","0","0","0.9943432705","","0.4","0.2","0.6","0.8","","","","","0.1922312923","0.7366863645","0.9943432705","0.1715400642","","","","","","","","","","75","K","2","","","205","main_expt",""
"","bandit","285","723261","0.0-247.0-0.0","38354371","wem/bandit_party_2","A1KC7HDBADU451","either","5","140","","","","","","","1","0","0","0.9982320458","","0.4","0.2","0.6","0.8","","","","","0.1936085521","0.7477287432","0.9982320458","0.117617648","","","","","","","","","","75","K","2","","","206","main_expt",""
"","bandit","286","724958","0.0-248.0-0.0","38354371","wem/bandit_party_2","A1KC7HDBADU451","either","5","153","","","","","","","1","0","0","0.9976530308","","0.4","0.2","0.6","0.8","","","","","0.1821705986","0.8185776196","0.9976530308","0.1182717864","","","","","","","","","","75","K","2","","","207","main_expt",""
"","bandit","287","726736","0.0-249.0-0.0","38354371","wem/bandit_party_2","A1KC7HDBADU451","either","5","259","","","","","","","1","0","0","0.9961811318","","0.4","0.2","0.6","0.8","","","","","0.1145050302","0.8161769506","0.9961811318","0.1445047472","","","","","","","","","","75","K","2","","","208","main_expt",""
"","bandit","288","728359","0.0-250.0-0.0","38354371","wem/bandit_party_2","A1KC7HDBADU451","either","5","81","","","","","","","1","0","0","0.9977639941","","0.4","0.2","0.6","0.8","","","","","0.1206637037","0.8224464957","0.9977639941","0.1264159314","","","","","","","","","","75","K","2","","","209","main_expt",""
"","bandit","289","729958","0.0-251.0-0.0","38354371","wem/bandit_party_2","A1KC7HDBADU451","either","5","22","","","","","","","1","0","0","0.9953783407","","0.4","0.2","0.6","0.8","","","","","0.1422927172","0.7392866018","0.9953783407","0.1208777168","","","","","","","","","","75","K","2","","","210","main_expt",""
"","bandit","290","731651","0.0-252.0-0.0","38354371","wem/bandit_party_2","A1KC7HDBADU451","either","5","144","","","","","","","1","0","0","0.9976351195","","0.4","0.2","0.6","0.8","","","","","0.1811219169","0.7125411919","0.9976351195","0.1733448518","","","","","","","","","","75","K","2","","","211","main_expt",""
"","bandit","291","733338","0.0-253.0-0.0","38354371","wem/bandit_party_2","A1KC7HDBADU451","either","5","154","","","","","","","0","1","0","","0.9983589292","0.4","0.2","0.6","0.8","0.1982527665","0.7191881067","0.9983589292","0.1085262221","","","","","","","","","","","","","","75","K","2","","","212","main_expt",""
"","bandit","292","735102","0.0-254.0-0.0","38354371","wem/bandit_party_2","A1KC7HDBADU451","either","5","236","","","","","","","1","0","0","0.9960427138","","0.4","0.2","0.6","0.8","","","","","0.124448309","0.7523845147","0.9960427138","0.08145678985","","","","","","","","","","75","K","2","","","213","main_expt",""
"","bandit","293","737057","0.0-255.0-0.0","38354371","wem/bandit_party_2","A1KC7HDBADU451","either","5","404","","","","","","","1","0","0","0.9924650588","","0.4","0.2","0.6","0.8","","","","","0.1036015692","0.7193420906","0.9924650588","0.05725631888","","","","","","","","","","75","K","2","","","214","main_expt",""
"","bandit","294","738848","0.0-256.0-0.0","38354371","wem/bandit_party_2","A1KC7HDBADU451","either","5","229","","","","","","","0","1","0","","0.9858211903","0.4","0.2","0.6","0.8","0.14458031","0.6784461291","0.9858211903","0.04356988172","","","","","","","","","","","","","","75","K","2","","","215","main_expt",""
"","bandit","295","740702","0.0-257.0-0.0","38354371","wem/bandit_party_2","A1KC7HDBADU451","either","5","319","","","","","","","1","0","0","0.9915289077","","0.4","0.2","0.6","0.8","","","","","0.2094876981","0.5658185063","0.9915289077","0.04316154837","","","","","","","","","","75","K","2","","","216","main_expt",""
"","bandit","296","742676","0.0-258.0-0.0","38354371","wem/bandit_party_2","A1KC7HDBADU451","either","5","435","","","","","","","0","1","0","","0.9929544916","0.4","0.2","0.6","0.8","0.24936904","0.4886301847","0.9929544916","0.03453558383","","","","","","","","","","","","","","75","K","2","","","217","main_expt",""
"","bandit","297","744587","0.0-259.0-0.0","38354371","wem/bandit_party_2","A1KC7HDBADU451","either","5","380","","","","","","","0","1","0","","0.9741721496","0.4","0.2","0.6","0.8","0.2006789107","0.5674985979","0.9741721496","0.03800932399","","","","","","","","","","","","","","75","K","2","","","218","main_expt",""
"","bandit","298","746446","0.0-260.0-0.0","38354371","wem/bandit_party_2","A1KC7HDBADU451","either","5","317","","","","","","","0","1","0","","0.9413517393","0.4","0.2","0.6","0.8","0.2118480588","0.6088772151","0.9413517393","0.07914639327","","","","","","","","","","","","","","75","K","2","","","219","main_expt",""
"","bandit","299","748430","0.0-261.0-0.0","38354371","wem/bandit_party_2","A1KC7HDBADU451","either","5","450","","","","","","","0","1","0","","0.9230346446","0.4","0.2","0.6","0.8","0.2159213458","0.5856238885","0.9230346446","0.07044987786","","","","","","","","","","","","","","75","K","2","","","220","main_expt",""
"","bandit","300","750429","0.0-262.0-0.0","38354371","wem/bandit_party_2","A1KC7HDBADU451","either","5","440","","","","","","","0","1","0","","0.9216350241","0.4","0.2","0.6","0.8","0.2097338805","0.6601978635","0.9216350241","0.1351506501","","","","","","","","","","","","","","75","K","2","","","221","main_expt",""
"","bandit","301","752349","0.0-263.0-0.0","38354371","wem/bandit_party_2","A1KC7HDBADU451","either","5","357","","","","","","","1","0","0","0.9093406134","","0.4","0.2","0.6","0.8","","","","","0.1468233299","0.6540659739","0.9093406134","0.2099108548","","","","","","","","","","75","K","2","","","222","main_expt",""
"","bandit","302","754295","0.0-264.0-0.0","38354371","wem/bandit_party_2","A1KC7HDBADU451","either","5","415","","","","","","","0","1","0","","0.8361447498","0.4","0.2","0.6","0.8","0.1379540926","0.7010542315","0.8361447498","0.2971693323","","","","","","","","","","","","","","75","K","2","","","223","main_expt",""
"","bandit","303","756387","0.0-265.0-0.0","38354371","wem/bandit_party_2","A1KC7HDBADU451","either","5","561","","","","","","","1","0","0","0.8626161161","","0.4","0.2","0.6","0.8","","","","","0.1943723139","0.7972730751","0.8626161161","0.2754671199","","","","","","","","","","75","K","2","","","224","main_expt",""
"","bandit","304","758272","0.0-266.0-0.0","38354371","wem/bandit_party_2","A1KC7HDBADU451","either","5","344","","","","","","","1","0","0","0.9176165053","","0.4","0.2","0.6","0.8","","","","","0.2949344278","0.8726314772","0.9176165053","0.2483133052","","","","","","","","","","75","K","2","","","225","main_expt",""
"","bandit","305","760090","0.0-267.0-0.0","38354371","wem/bandit_party_2","A1KC7HDBADU451","either","5","288","","","","","","","0","1","0","","0.9516545376","0.4","0.2","0.6","0.8","0.4040967375","0.8569150835","0.9516545376","0.2945032007","","","","","","","","","","","","","","75","K","2","","","226","main_expt",""
"","bandit","306","761939","0.0-268.0-0.0","38354371","wem/bandit_party_2","A1KC7HDBADU451","either","5","322","","","","","","","1","0","0","0.9448551655","","0.4","0.2","0.6","0.8","","","","","0.4369809926","0.8773762417","0.9448551655","0.2544933329","","","","","","","","","","75","K","2","","","227","main_expt",""
"","bandit","307","763784","0.0-269.0-0.0","38354371","wem/bandit_party_2","A1KC7HDBADU451","either","5","322","","","","","","","1","0","0","0.9298030406","","0.4","0.2","0.6","0.8","","","","","0.4228749262","0.8514828757","0.9298030406","0.22227057","","","","","","","","","","75","K","2","","","228","main_expt",""
"","bandit","308","765639","0.0-270.0-0.0","38354371","wem/bandit_party_2","A1KC7HDBADU451","either","5","326","","","","","","","0","0","1","","0.9022116856","0.4","0.2","0.6","0.8","0.4953143479","0.893786405","0.9022116856","0.2319557967","","","","","","","","","","","","","","75","K","2","","","229","main_expt",""
"","bandit","309","767457","0.0-271.0-0.0","38354371","wem/bandit_party_2","A1KC7HDBADU451","either","5","279","","","","","","","1","0","0","0.8934587516","","0.4","0.2","0.6","0.8","","","","","0.4752889979","0.9350514117","0.8934587516","0.3107577299","","","","","","","","","","75","K","2","","","230","main_expt",""
"","bandit","310","769294","0.0-272.0-0.0","38354371","wem/bandit_party_2","A1KC7HDBADU451","either","5","293","","","","","","","0","1","0","","0.8403693225","0.4","0.2","0.6","0.8","0.4887049862","0.9139197991","0.8403693225","0.3046703461","","","","","","","","","","","","","","75","K","2","","","231","main_expt",""
"","bandit","311","771114","0.0-273.0-0.0","38354371","wem/bandit_party_2","A1KC7HDBADU451","either","5","282","","","","","","","0","0","1","","0.7373772703","0.4","0.2","0.6","0.8","0.6065944358","0.8753904063","0.7373772703","0.4259459217","","","","","","","","","","","","","","75","K","2","","","232","main_expt",""
"","bandit","312","772923","0.0-274.0-0.0","38354371","wem/bandit_party_2","A1KC7HDBADU451","either","5","280","","","","","","","0","1","0","","0.7275490615","0.4","0.2","0.6","0.8","0.5320380184","0.807664976","0.7275490615","0.3391655585","","","","","","","","","","","","","","75","K","2","","","233","main_expt",""
"","bandit","313","774792","0.0-275.0-0.0","38354371","wem/bandit_party_2","A1KC7HDBADU451","either","5","339","","","","","","","1","0","0","0.6910989812","","0.4","0.2","0.6","0.8","","","","","0.5845689413","0.817303243","0.6910989812","0.3380141995","","","","","","","","","","75","K","2","","","234","main_expt",""
"","bandit","314","776377","0.0-276.0-0.0","38354371","wem/bandit_party_2","A1KC7HDBADU451","either","5","47","","","","","","","0","1","0","","0.6506848601","0.4","0.2","0.6","0.8","0.4424117598","0.8320050337","0.6506848601","0.2949514339","","","","","","","","","","","","","","75","K","2","","","235","main_expt",""
