"consent","trial_type","trial_index","time_elapsed","internal_node_id","subjID","study","MID","cond","drift","rt","responses","button_pressed","key_press","like","value","connected","gems","bombs","no_reward","GemPrChosen","BombPrChosen","GainOverPainPr_0","GainOverPainPr_1","GainOverPainPr_2","GainOverPainPr_3","LosePr_0","LosePr_1","LosePr_2","LosePr_3","WinPr_0","WinPr_1","WinPr_2","WinPr_3","Q0","Q1","Q2","gender","age","ethnicity","label","expt_phase","target","respCharCode","respKey","respChoiceNum","respChoice","practice","trial_counter","trial_label","Q0_index"
"GDM/GDM_behavioral_consent_30min_online.html","consent","0","7171","0.0-0.0","38538717","wem/bandit_party_2","A15JXW50UYKBGP","either","2","","","","","","","","","","","","","","","","","","","","","","","","","","","","","","","","","","","","","","","","",""
"","survey-text","1","11979","0.0-1.0","38538717","wem/bandit_party_2","A15JXW50UYKBGP","either","2","3797","{""Q0"":""A15JXW50UYKBGP""}","","","","","","","","","","","","","","","","","","","","","","","","","","","","","","","","","","","","","","",""
"","button-response","2","15054","0.0-2.0","38538717","wem/bandit_party_2","A15JXW50UYKBGP","either","2","2064","","1","","","","","","","","","","","","","","","","","","","","","","","","","","","","","","","","","","","","","",""
"","text-replacement","3","30898","0.0-3.0","38538717","wem/bandit_party_2","A15JXW50UYKBGP","either","2","14840","","","32","","","","","","","","","","","","","","","","","","","","","","","","","","","","","","","","","","","","",""
"","text-replacement","4","37793","0.0-4.0","38538717","wem/bandit_party_2","A15JXW50UYKBGP","either","2","6894","","","32","","","","","","","","","","","","","","","","","","","","","","","","","","","","","","","","","","","","",""
"","identification","5","43442","0.0-6.0-0.0","38538717","wem/bandit_party_2","A15JXW50UYKBGP","either","2","5638","","","","5","5","5","","","","","","","","","","","","","","","","","","","","","","","","pre","identification_pre","the Democratic Party","","","","","","","",""
"","identification","6","49707","0.0-6.0-1.0","38538717","wem/bandit_party_2","A15JXW50UYKBGP","either","2","5252","","","","2","1","0","","","","","","","","","","","","","","","","","","","","","","","","pre","identification_pre","the Republican Party","","","","","","","",""
"","text-replacement","7","60066","0.0-7.0","38538717","wem/bandit_party_2","A15JXW50UYKBGP","either","2","9352","","","32","","","","","","","","","","","","","","","","","","","","","","","","","","","","","","","","","","","","",""
"","text-replacement","8","64779","0.0-8.0","38538717","wem/bandit_party_2","A15JXW50UYKBGP","either","2","4711","","","32","","","","","","","","","","","","","","","","","","","","","","","","","","","","","","","","","","","","",""
"","text-replacement","9","73189","0.0-9.0","38538717","wem/bandit_party_2","A15JXW50UYKBGP","either","2","8408","","","32","","","","","","","","","","","","","","","","","","","","","","","","","","","","","","","","","","","","",""
"","text-replacement","10","75748","0.0-10.0","38538717","wem/bandit_party_2","A15JXW50UYKBGP","either","2","2556","","","32","","","","","","","","","","","","","","","","","","","","","","","","","","","","","","","","","","","","",""
"","text-replacement","11","78739","0.0-11.0","38538717","wem/bandit_party_2","A15JXW50UYKBGP","either","2","2989","","","32","","","","","","","","","","","","","","","","","","","","","","","","","","","","","","","","","","","","",""
"","bandit","12","81921","0.0-12.0-0.0","38538717","wem/bandit_party_2","A15JXW50UYKBGP","either","2","1669","","","","","","","0","0","1","0","0","","","","","0","","","","0","","","","","","","","","","","","","74","J","0","img/none_selected_demo.jpg","true","0","",""
"","bandit","13","83831","0.0-13.0-0.0","38538717","wem/bandit_party_2","A15JXW50UYKBGP","either","2","400","","","","","","","0","0","1","0","0","","","","","0","","","","0","","","","","","","","","","","","","75","K","0","img/none_selected_demo.jpg","true","0","",""
"","text-replacement","14","88413","0.0-14.0","38538717","wem/bandit_party_2","A15JXW50UYKBGP","either","2","4581","","","32","","","","","","","","","","","","","","","","","","","","","","","","","","","","","","","","","","","","",""
"","text-replacement","15","94084","0.0-15.0","38538717","wem/bandit_party_2","A15JXW50UYKBGP","either","2","5669","","","32","","","","","","","","","","","","","","","","","","","","","","","","","","","","","","","","","","","","",""
"","text-replacement","16","100212","0.0-16.0","38538717","wem/bandit_party_2","A15JXW50UYKBGP","either","2","6128","","","32","","","","","","","","","","","","","","","","","","","","","","","","","","","","","","","","","","","","",""
"","text-replacement","17","102364","0.0-17.0","38538717","wem/bandit_party_2","A15JXW50UYKBGP","either","2","2150","","","32","","","","","","","","","","","","","","","","","","","","","","","","","","","","","","","","","","","","",""
"","bandit","18","104442","0.0-18.0-0.0","38538717","wem/bandit_party_2","A15JXW50UYKBGP","either","2","565","","","","","","","1","0","0","0.8","","0.5","0.5","","","","","","","0.8","0.2","","","","","","","","","","","","74","J","0","img/none_selected_demo.jpg","true","0","80_20_practice",""
"","bandit","19","106279","0.0-18.0-1.0","38538717","wem/bandit_party_2","A15JXW50UYKBGP","either","2","327","","","","","","","0","0","1","","0.2","0.5","0.5","","","0.8","0.2","","","","","","","","","","","","","","","","75","K","1","","true","0","80_20_practice",""
"","bandit","20","108317","0.0-18.0-2.0","38538717","wem/bandit_party_2","A15JXW50UYKBGP","either","2","530","","","","","","","0","0","1","","0.8","0.5","0.5","","","0.8","0.2","","","","","","","","","","","","","","","","74","J","0","img/none_selected_demo.jpg","true","0","80_20_practice",""
"","bandit","21","110263","0.0-18.0-3.0","38538717","wem/bandit_party_2","A15JXW50UYKBGP","either","2","437","","","","","","","1","0","0","0.2","","0.5","0.5","","","","","","","0.8","0.2","","","","","","","","","","","","75","K","1","","true","0","80_20_practice",""
"","bandit","22","112063","0.0-18.0-4.0","38538717","wem/bandit_party_2","A15JXW50UYKBGP","either","2","290","","","","","","","0","0","1","0.2","","0.5","0.5","","","","","","","0.8","0.2","","","","","","","","","","","","75","K","1","","true","0","80_20_practice",""
"","bandit","23","113909","0.0-18.0-5.0","38538717","wem/bandit_party_2","A15JXW50UYKBGP","either","2","338","","","","","","","0","0","1","0.2","","0.5","0.5","","","","","","","0.8","0.2","","","","","","","","","","","","75","K","1","","true","0","80_20_practice",""
"","bandit","24","115789","0.0-18.0-6.0","38538717","wem/bandit_party_2","A15JXW50UYKBGP","either","2","372","","","","","","","1","0","0","0.2","","0.5","0.5","","","","","","","0.8","0.2","","","","","","","","","","","","75","K","1","","true","0","80_20_practice",""
"","bandit","25","117645","0.0-18.0-7.0","38538717","wem/bandit_party_2","A15JXW50UYKBGP","either","2","349","","","","","","","0","0","1","","0.2","0.5","0.5","","","0.8","0.2","","","","","","","","","","","","","","","","75","K","1","","true","0","80_20_practice",""
"","bandit","26","119629","0.0-18.0-8.0","38538717","wem/bandit_party_2","A15JXW50UYKBGP","either","2","476","","","","","","","1","0","0","0.8","","0.5","0.5","","","","","","","0.8","0.2","","","","","","","","","","","","74","J","0","img/none_selected_demo.jpg","true","0","80_20_practice",""
"","bandit","27","121709","0.0-18.0-9.0","38538717","wem/bandit_party_2","A15JXW50UYKBGP","either","2","572","","","","","","","1","0","0","0.8","","0.5","0.5","","","","","","","0.8","0.2","","","","","","","","","","","","74","J","0","img/none_selected_demo.jpg","true","0","80_20_practice",""
"","bandit","28","123706","0.0-18.0-10.0","38538717","wem/bandit_party_2","A15JXW50UYKBGP","either","2","485","","","","","","","1","0","0","0.8","","0.5","0.5","","","","","","","0.8","0.2","","","","","","","","","","","","74","J","0","img/none_selected_demo.jpg","true","0","80_20_practice",""
"","bandit","29","125691","0.0-18.0-11.0","38538717","wem/bandit_party_2","A15JXW50UYKBGP","either","2","472","","","","","","","0","1","0","","0.8","0.5","0.5","","","0.8","0.2","","","","","","","","","","","","","","","","74","J","0","img/none_selected_demo.jpg","true","0","80_20_practice",""
"","bandit","30","127652","0.0-18.0-12.0","38538717","wem/bandit_party_2","A15JXW50UYKBGP","either","2","455","","","","","","","0","1","0","","0.8","0.5","0.5","","","0.8","0.2","","","","","","","","","","","","","","","","74","J","0","img/none_selected_demo.jpg","true","0","80_20_practice",""
"","bandit","31","129759","0.0-18.0-13.0","38538717","wem/bandit_party_2","A15JXW50UYKBGP","either","2","598","","","","","","","0","1","0","","0.8","0.5","0.5","","","0.8","0.2","","","","","","","","","","","","","","","","74","J","0","img/none_selected_demo.jpg","true","0","80_20_practice",""
"","bandit","32","132128","0.0-18.0-14.0","38538717","wem/bandit_party_2","A15JXW50UYKBGP","either","2","858","","","","","","","0","1","0","","0.8","0.5","0.5","","","0.8","0.2","","","","","","","","","","","","","","","","74","J","0","img/none_selected_demo.jpg","true","0","80_20_practice",""
"","bandit","33","134212","0.0-18.0-15.0","38538717","wem/bandit_party_2","A15JXW50UYKBGP","either","2","572","","","","","","","0","1","0","","0.8","0.5","0.5","","","0.8","0.2","","","","","","","","","","","","","","","","74","J","0","img/none_selected_demo.jpg","true","0","80_20_practice",""
"","bandit","34","136127","0.0-18.0-16.0","38538717","wem/bandit_party_2","A15JXW50UYKBGP","either","2","406","","","","","","","0","1","0","","0.8","0.5","0.5","","","0.8","0.2","","","","","","","","","","","","","","","","74","J","0","img/none_selected_demo.jpg","true","0","80_20_practice",""
"","bandit","35","138518","0.0-18.0-17.0","38538717","wem/bandit_party_2","A15JXW50UYKBGP","either","2","883","","","","","","","0","1","0","","0.8","0.5","0.5","","","0.8","0.2","","","","","","","","","","","","","","","","74","J","0","img/none_selected_demo.jpg","true","0","80_20_practice",""
"","bandit","36","140718","0.0-18.0-18.0","38538717","wem/bandit_party_2","A15JXW50UYKBGP","either","2","692","","","","","","","0","1","0","","0.8","0.5","0.5","","","0.8","0.2","","","","","","","","","","","","","","","","74","J","0","img/none_selected_demo.jpg","true","0","80_20_practice",""
"","bandit","37","142697","0.0-18.0-19.0","38538717","wem/bandit_party_2","A15JXW50UYKBGP","either","2","468","","","","","","","1","0","0","0.8","","0.5","0.5","","","","","","","0.8","0.2","","","","","","","","","","","","74","J","0","img/none_selected_demo.jpg","true","0","80_20_practice",""
"","text-replacement","38","143637","0.0-19.0","38538717","wem/bandit_party_2","A15JXW50UYKBGP","either","2","938","","","32","","","","","","","","","","","","","","","","","","","","","","","","","","","","","","","","","","","","",""
"","bandit","39","146737","0.0-20.0-0.0","38538717","wem/bandit_party_2","A15JXW50UYKBGP","either","2","1590","","","","","","","1","0","0","1","0","","","","","0","1","","","1","0","","","","","","","","","","","","74","J","0","img/none_selected_demo.jpg","true","0","",""
"","text-replacement","40","152574","0.0-21.0","38538717","wem/bandit_party_2","A15JXW50UYKBGP","either","2","5835","","","32","","","","","","","","","","","","","","","","","","","","","","","","","","","","","","","","","","","","",""
"","text-replacement","41","156117","0.0-22.0","38538717","wem/bandit_party_2","A15JXW50UYKBGP","either","2","3541","","","32","","","","","","","","","","","","","","","","","","","","","","","","","","","","","","","","","","","","",""
"","text-replacement","42","159084","0.0-23.0","38538717","wem/bandit_party_2","A15JXW50UYKBGP","either","2","2965","","","32","","","","","","","","","","","","","","","","","","","","","","","","","","","","","","","","","","","","",""
"","text-replacement","43","163522","0.0-24.0","38538717","wem/bandit_party_2","A15JXW50UYKBGP","either","2","4437","","","32","","","","","","","","","","","","","","","","","","","","","","","","","","","","","","","","","","","","",""
"","text-replacement","44","170092","0.0-25.0","38538717","wem/bandit_party_2","A15JXW50UYKBGP","either","2","6567","","","32","","","","","","","","","","","","","","","","","","","","","","","","","","","","","","","","","","","","",""
"","text-replacement","45","173226","0.0-26.0","38538717","wem/bandit_party_2","A15JXW50UYKBGP","either","2","3133","","","32","","","","","","","","","","","","","","","","","","","","","","","","","","","","","","","","","","","","",""
"","text-replacement","46","176187","0.0-27.0","38538717","wem/bandit_party_2","A15JXW50UYKBGP","either","2","2958","","","32","","","","","","","","","","","","","","","","","","","","","","","","","","","","","","","","","","","","",""
"","text-replacement","47","180051","0.0-28.0","38538717","wem/bandit_party_2","A15JXW50UYKBGP","either","2","3862","","","32","","","","","","","","","","","","","","","","","","","","","","","","","","","","","","","","","","","","",""
"","text-replacement","48","184676","0.0-29.0","38538717","wem/bandit_party_2","A15JXW50UYKBGP","either","2","4624","","","32","","","","","","","","","","","","","","","","","","","","","","","","","","","","","","","","","","","","",""
"","text-replacement","49","186323","0.0-30.0","38538717","wem/bandit_party_2","A15JXW50UYKBGP","either","2","1645","","","32","","","","","","","","","","","","","","","","","","","","","","","","","","","","","","","","","","","","",""
"","text-replacement","50","188315","0.0-31.0","38538717","wem/bandit_party_2","A15JXW50UYKBGP","either","2","1990","","","32","","","","","","","","","","","","","","","","","","","","","","","","","","","","","","","","","","","","",""
"","bandit","51","190221","0.0-32.0-0.0","38538717","wem/bandit_party_2","A15JXW50UYKBGP","either","2","397","","","","","","","0","0","1","0.8","","0.5","0.5","0.5","0.5","","","","","0.8","0.2","0.6","0.2","","","","","","","","","","72","H","0","img/none_selected.jpg","true","0","full_practice",""
"","bandit","52","192091","0.0-32.0-1.0","38538717","wem/bandit_party_2","A15JXW50UYKBGP","either","2","361","","","","","","","0","0","1","0.2","","0.5","0.5","0.5","0.5","","","","","0.8","0.2","0.6","0.2","","","","","","","","","","74","J","1","","true","0","full_practice",""
"","bandit","53","193812","0.0-32.0-2.0","38538717","wem/bandit_party_2","A15JXW50UYKBGP","either","2","213","","","","","","","0","1","0","","0.6","0.5","0.5","0.5","0.5","0.8","0.2","0.6","0.2","","","","","","","","","","","","","","75","K","2","","true","0","full_practice",""
"","bandit","54","195488","0.0-32.0-3.0","38538717","wem/bandit_party_2","A15JXW50UYKBGP","either","2","163","","","","","","","0","0","1","","0.2","0.5","0.5","0.5","0.5","0.8","0.2","0.6","0.2","","","","","","","","","","","","","","76","L","3","","true","0","full_practice",""
"","bandit","55","197697","0.0-32.0-4.0","38538717","wem/bandit_party_2","A15JXW50UYKBGP","either","2","697","","","","","","","0","0","1","0.6","","0.5","0.5","0.5","0.5","","","","","0.8","0.2","0.6","0.2","","","","","","","","","","75","K","2","","true","0","full_practice",""
"","bandit","56","199526","0.0-32.0-5.0","38538717","wem/bandit_party_2","A15JXW50UYKBGP","either","2","318","","","","","","","0","0","1","0.6","","0.5","0.5","0.5","0.5","","","","","0.8","0.2","0.6","0.2","","","","","","","","","","75","K","2","","true","0","full_practice",""
"","bandit","57","201349","0.0-32.0-6.0","38538717","wem/bandit_party_2","A15JXW50UYKBGP","either","2","314","","","","","","","1","0","0","0.6","","0.5","0.5","0.5","0.5","","","","","0.8","0.2","0.6","0.2","","","","","","","","","","75","K","2","","true","0","full_practice",""
"","bandit","58","203176","0.0-32.0-7.0","38538717","wem/bandit_party_2","A15JXW50UYKBGP","either","2","315","","","","","","","0","1","0","","0.6","0.5","0.5","0.5","0.5","0.8","0.2","0.6","0.2","","","","","","","","","","","","","","75","K","2","","true","0","full_practice",""
"","bandit","59","205069","0.0-32.0-8.0","38538717","wem/bandit_party_2","A15JXW50UYKBGP","either","2","383","","","","","","","0","0","1","0.6","","0.5","0.5","0.5","0.5","","","","","0.8","0.2","0.6","0.2","","","","","","","","","","75","K","2","","true","0","full_practice",""
"","bandit","60","206688","0.0-32.0-9.0","38538717","wem/bandit_party_2","A15JXW50UYKBGP","either","2","107","","","","","","","1","0","0","0.2","","0.5","0.5","0.5","0.5","","","","","0.8","0.2","0.6","0.2","","","","","","","","","","76","L","3","","true","0","full_practice",""
"","bandit","61","208493","0.0-32.0-10.0","38538717","wem/bandit_party_2","A15JXW50UYKBGP","either","2","298","","","","","","","0","0","1","0.2","","0.5","0.5","0.5","0.5","","","","","0.8","0.2","0.6","0.2","","","","","","","","","","76","L","3","","true","0","full_practice",""
"","bandit","62","210278","0.0-32.0-11.0","38538717","wem/bandit_party_2","A15JXW50UYKBGP","either","2","275","","","","","","","0","1","0","","0.2","0.5","0.5","0.5","0.5","0.8","0.2","0.6","0.2","","","","","","","","","","","","","","76","L","3","","true","0","full_practice",""
"","bandit","63","212144","0.0-32.0-12.0","38538717","wem/bandit_party_2","A15JXW50UYKBGP","either","2","353","","","","","","","0","1","0","","0.2","0.5","0.5","0.5","0.5","0.8","0.2","0.6","0.2","","","","","","","","","","","","","","76","L","3","","true","0","full_practice",""
"","bandit","64","214233","0.0-32.0-13.0","38538717","wem/bandit_party_2","A15JXW50UYKBGP","either","2","576","","","","","","","1","0","0","0.2","","0.5","0.5","0.5","0.5","","","","","0.8","0.2","0.6","0.2","","","","","","","","","","76","L","3","","true","0","full_practice",""
"","bandit","65","216074","0.0-32.0-14.0","38538717","wem/bandit_party_2","A15JXW50UYKBGP","either","2","327","","","","","","","0","0","1","0.2","","0.5","0.5","0.5","0.5","","","","","0.8","0.2","0.6","0.2","","","","","","","","","","76","L","3","","true","0","full_practice",""
"","bandit","66","218192","0.0-32.0-15.0","38538717","wem/bandit_party_2","A15JXW50UYKBGP","either","2","606","","","","","","","0","0","1","","0.2","0.5","0.5","0.5","0.5","0.8","0.2","0.6","0.2","","","","","","","","","","","","","","74","J","1","","true","0","full_practice",""
"","bandit","67","220107","0.0-32.0-16.0","38538717","wem/bandit_party_2","A15JXW50UYKBGP","either","2","402","","","","","","","0","0","1","","0.2","0.5","0.5","0.5","0.5","0.8","0.2","0.6","0.2","","","","","","","","","","","","","","74","J","1","","true","0","full_practice",""
"","bandit","68","222127","0.0-32.0-17.0","38538717","wem/bandit_party_2","A15JXW50UYKBGP","either","2","509","","","","","","","1","0","0","0.8","","0.5","0.5","0.5","0.5","","","","","0.8","0.2","0.6","0.2","","","","","","","","","","72","H","0","img/none_selected.jpg","true","0","full_practice",""
"","bandit","69","223903","0.0-32.0-18.0","38538717","wem/bandit_party_2","A15JXW50UYKBGP","either","2","265","","","","","","","0","0","1","","0.8","0.5","0.5","0.5","0.5","0.8","0.2","0.6","0.2","","","","","","","","","","","","","","72","H","0","img/none_selected.jpg","true","0","full_practice",""
"","bandit","70","225825","0.0-32.0-19.0","38538717","wem/bandit_party_2","A15JXW50UYKBGP","either","2","409","","","","","","","0","0","1","","0.2","0.5","0.5","0.5","0.5","0.8","0.2","0.6","0.2","","","","","","","","","","","","","","76","L","3","","true","0","full_practice",""
"","text","71","228228","0.0-33.0","38538717","wem/bandit_party_2","A15JXW50UYKBGP","either","2","2397","","","32","","","","","","","","","","","","","","","","","","","","","","","","","","","","","","","","","","","","",""
"","text-replacement","72","240054","0.0-34.0","38538717","wem/bandit_party_2","A15JXW50UYKBGP","either","2","10821","","","32","","","","","","","","","","","","","","","","","","","","","","","","","","","","","","","","","","","","",""
"","text-replacement","73","250330","0.0-35.0","38538717","wem/bandit_party_2","A15JXW50UYKBGP","either","2","10274","","","32","","","","","","","","","","","","","","","","","","","","","","","","","","","","","","","","","","","","",""
"","text-replacement","74","255340","0.0-36.0","38538717","wem/bandit_party_2","A15JXW50UYKBGP","either","2","5009","","","32","","","","","","","","","","","","","","","","","","","","","","","","","","","","","","","","","","","","",""
"","text-replacement","75","261385","0.0-37.0","38538717","wem/bandit_party_2","A15JXW50UYKBGP","either","2","6041","","","32","","","","","","","","","","","","","","","","","","","","","","","","","","","","","","","","","","","","",""
"","text-replacement","76","263585","0.0-38.0","38538717","wem/bandit_party_2","A15JXW50UYKBGP","either","2","2198","","","32","","","","","","","","","","","","","","","","","","","","","","","","","","","","","","","","","","","","",""
"","survey-multi-choice-replacement","77","267636","0.0-39.0-0.0","38538717","wem/bandit_party_2","A15JXW50UYKBGP","either","2","4045","","","","","","","","","","","","","","","","","","","","","","","","Money will be added to the pool for <span style='color:blue;'>DEMOCRATS</span>","","","","","","","attn_check","","","","","","","","","0"
"","survey-multi-choice-replacement","78","270774","0.0-40.0-0.0","38538717","wem/bandit_party_2","A15JXW50UYKBGP","either","2","2128","","","","","","","","","","","","","","","","","","","","","","","","Equal amounts of money will be added to the pool for <span style='color:blue;'>DEMOCRATS</span> and subtracted from the pool for <span style='color:red;'>REPUBLICANS</span>","","","","","","","attn_check","","","","","","","","","2"
"","survey-multi-choice-replacement","79","274597","0.0-41.0-0.0","38538717","wem/bandit_party_2","A15JXW50UYKBGP","either","2","2816","","","","","","","","","","","","","","","","","","","","","","","","No money will be added to either pool","","","","","","","attn_check","","","","","","","","","3"
"","bandit","80","278404","0.0-42.0-0.0","38538717","wem/bandit_party_2","A15JXW50UYKBGP","either","2","1293","","","","","","","0","0","1","0.7961415707","","0.6","0.4","0.8","0.2","","","","","0.7961415707","0.4841938304","0.9925337928","0.7092854079","","","","","","","","","","72","H","0","img/none_selected.jpg","","1","main_expt",""
"","bandit","81","280540","0.0-43.0-0.0","38538717","wem/bandit_party_2","A15JXW50UYKBGP","either","2","624","","","","","","","0","0","1","","0.5300888233","0.6","0.4","0.8","0.2","0.7739630809","0.5300888233","0.9909612399","0.7343230146","","","","","","","","","","","","","","74","J","1","","","2","main_expt",""
"","bandit","82","282560","0.0-44.0-0.0","38538717","wem/bandit_party_2","A15JXW50UYKBGP","either","2","512","","","","","","","0","1","0","","0.9875934203","0.6","0.4","0.8","0.2","0.807852523","0.4747636274","0.9875934203","0.7616266478","","","","","","","","","","","","","","75","K","2","","","3","main_expt",""
"","bandit","83","284456","0.0-45.0-0.0","38538717","wem/bandit_party_2","A15JXW50UYKBGP","either","2","389","","","","","","","1","0","0","0.9782241123","","0.6","0.4","0.8","0.2","","","","","0.7922386472","0.4841015375","0.9782241123","0.7555889459","","","","","","","","","","75","K","2","","","4","main_expt",""
"","bandit","84","286389","0.0-46.0-0.0","38538717","wem/bandit_party_2","A15JXW50UYKBGP","either","2","422","","","","","","","1","0","0","0.9756627961","","0.6","0.4","0.8","0.2","","","","","0.865094385","0.5545204825","0.9756627961","0.733520678","","","","","","","","","","75","K","2","","","5","main_expt",""
"","bandit","85","288640","0.0-47.0-0.0","38538717","wem/bandit_party_2","A15JXW50UYKBGP","either","2","745","","","","","","","1","0","0","0.967089612","","0.6","0.4","0.8","0.2","","","","","0.800956518","0.6032406034","0.967089612","0.6705264102","","","","","","","","","","75","K","2","","","6","main_expt",""
"","bandit","86","290788","0.0-48.0-0.0","38538717","wem/bandit_party_2","A15JXW50UYKBGP","either","2","637","","","","","","","1","0","0","0.9581374084","","0.6","0.4","0.8","0.2","","","","","0.826484282","0.6629125932","0.9581374084","0.6395389268","","","","","","","","","","75","K","2","","","7","main_expt",""
"","bandit","87","292979","0.0-49.0-0.0","38538717","wem/bandit_party_2","A15JXW50UYKBGP","either","2","682","","","","","","","0","1","0","","0.9470057872","0.6","0.4","0.8","0.2","0.8721258401","0.6179372523","0.9470057872","0.6463283336","","","","","","","","","","","","","","75","K","2","","","8","main_expt",""
"","bandit","88","296501","0.0-50.0-0.0","38538717","wem/bandit_party_2","A15JXW50UYKBGP","either","2","2015","","","","","","","1","0","0","0.9776699295","","0.6","0.4","0.8","0.2","","","","","0.9123847657","0.7126464358","0.9776699295","0.5257156782","","","","","","","","","","75","K","2","","","9","main_expt",""
"","bandit","89","298753","0.0-51.0-0.0","38538717","wem/bandit_party_2","A15JXW50UYKBGP","either","2","740","","","","","","","1","0","0","0.9728878591","","0.6","0.4","0.8","0.2","","","","","0.8996742502","0.7356985298","0.9728878591","0.4763364632","","","","","","","","","","75","K","2","","","10","main_expt",""
"","bandit","90","300638","0.0-52.0-0.0","38538717","wem/bandit_party_2","A15JXW50UYKBGP","either","2","375","","","","","","","1","0","0","0.9593139104","","0.6","0.4","0.8","0.2","","","","","0.9131723876","0.768711937","0.9593139104","0.4284616273","","","","","","","","","","75","K","2","","","11","main_expt",""
"","bandit","91","302677","0.0-53.0-0.0","38538717","wem/bandit_party_2","A15JXW50UYKBGP","either","2","531","","","","","","","1","0","0","0.9498917819","","0.6","0.4","0.8","0.2","","","","","0.8766857583","0.775032537","0.9498917819","0.3846657661","","","","","","","","","","75","K","2","","","12","main_expt",""
"","bandit","92","304927","0.0-54.0-0.0","38538717","wem/bandit_party_2","A15JXW50UYKBGP","either","2","740","","","","","","","1","0","0","0.9541602679","","0.6","0.4","0.8","0.2","","","","","0.8395211377","0.8005481332","0.9541602679","0.4534267517","","","","","","","","","","75","K","2","","","13","main_expt",""
"","bandit","93","306845","0.0-55.0-0.0","38538717","wem/bandit_party_2","A15JXW50UYKBGP","either","2","403","","","","","","","0","1","0","","0.9457654821","0.6","0.4","0.8","0.2","0.8716273459","0.8437703121","0.9457654821","0.5781166702","","","","","","","","","","","","","","75","K","2","","","14","main_expt",""
"","bandit","94","309039","0.0-56.0-0.0","38538717","wem/bandit_party_2","A15JXW50UYKBGP","either","2","684","","","","","","","0","1","0","","0.961431504","0.6","0.4","0.8","0.2","0.8884181174","0.7878475566","0.961431504","0.6683268695","","","","","","","","","","","","","","75","K","2","","","15","main_expt",""
"","bandit","95","311351","0.0-57.0-0.0","38538717","wem/bandit_party_2","A15JXW50UYKBGP","either","2","794","","","","","","","0","1","0","","0.9614480804","0.6","0.4","0.8","0.2","0.9144873871","0.7873795395","0.9614480804","0.6948649322","","","","","","","","","","","","","","75","K","2","","","16","main_expt",""
"","bandit","96","313885","0.0-58.0-0.0","38538717","wem/bandit_party_2","A15JXW50UYKBGP","either","2","1027","","","","","","","1","0","0","0.981184269","","0.6","0.4","0.8","0.2","","","","","0.915766025","0.8084550093","0.981184269","0.7674725463","","","","","","","","","","75","K","2","","","17","main_expt",""
"","bandit","97","316623","0.0-59.0-0.0","38538717","wem/bandit_party_2","A15JXW50UYKBGP","either","2","1226","","","","","","","1","0","0","0.9861919244","","0.6","0.4","0.8","0.2","","","","","0.9357816117","0.8436933745","0.9861919244","0.7706733977","","","","","","","","","","75","K","2","","","18","main_expt",""
"","bandit","98","319048","0.0-60.0-0.0","38538717","wem/bandit_party_2","A15JXW50UYKBGP","either","2","915","","","","","","","1","0","0","0.986789567","","0.6","0.4","0.8","0.2","","","","","0.9482019282","0.8059530903","0.986789567","0.7396491891","","","","","","","","","","75","K","2","","","19","main_expt",""
"","bandit","99","321251","0.0-61.0-0.0","38538717","wem/bandit_party_2","A15JXW50UYKBGP","either","2","688","","","","","","","1","0","0","0.986183881","","0.6","0.4","0.8","0.2","","","","","0.9433726768","0.7839513496","0.986183881","0.6712916173","","","","","","","","","","75","K","2","","","20","main_expt",""
"","bandit","100","324605","0.0-62.0-0.0","38538717","wem/bandit_party_2","A15JXW50UYKBGP","either","2","1843","","","","","","","1","0","0","0.9887099493","","0.6","0.4","0.8","0.2","","","","","0.9488284628","0.7841815244","0.9887099493","0.6728887443","","","","","","","","","","75","K","2","","","21","main_expt",""
"","bandit","101","326846","0.0-63.0-0.0","38538717","wem/bandit_party_2","A15JXW50UYKBGP","either","2","728","","","","","","","1","0","0","0.992558567","","0.6","0.4","0.8","0.2","","","","","0.9500515088","0.8256278583","0.992558567","0.7838502077","","","","","","","","","","75","K","2","","","22","main_expt",""
"","bandit","102","329763","0.0-64.0-0.0","38538717","wem/bandit_party_2","A15JXW50UYKBGP","either","2","1410","","","","","","","1","0","0","0.9906074595","","0.6","0.4","0.8","0.2","","","","","0.9645760881","0.7043778873","0.9906074595","0.8711917965","","","","","","","","","","75","K","2","","","23","main_expt",""
"","bandit","103","332054","0.0-65.0-0.0","38538717","wem/bandit_party_2","A15JXW50UYKBGP","either","2","778","","","","","","","0","1","0","","0.9828703082","0.6","0.4","0.8","0.2","0.946785539","0.7662705475","0.9828703082","0.861124964","","","","","","","","","","","","","","75","K","2","","","24","main_expt",""
"","bandit","104","335245","0.0-66.0-0.0","38538717","wem/bandit_party_2","A15JXW50UYKBGP","either","2","1680","","","","","","","1","0","0","0.984618899","","0.6","0.4","0.8","0.2","","","","","0.9229473608","0.6915147264","0.984618899","0.8551403996","","","","","","","","","","75","K","2","","","25","main_expt",""
"","bandit","105","337468","0.0-67.0-0.0","38538717","wem/bandit_party_2","A15JXW50UYKBGP","either","2","712","","","","","","","1","0","0","0.9780938917","","0.6","0.4","0.8","0.2","","","","","0.8729820127","0.6844606422","0.9780938917","0.8959771014","","","","","","","","","","75","K","2","","","26","main_expt",""
"","bandit","106","340039","0.0-68.0-0.0","38538717","wem/bandit_party_2","A15JXW50UYKBGP","either","2","1060","","","","","","","1","0","0","0.9634866904","","0.6","0.4","0.8","0.2","","","","","0.859067388","0.7953701942","0.9634866904","0.8786292531","","","","","","","","","","75","K","2","","","27","main_expt",""
"","bandit","107","342883","0.0-69.0-0.0","38538717","wem/bandit_party_2","A15JXW50UYKBGP","either","2","1335","","","","","","","1","0","0","0.946494378","","0.6","0.4","0.8","0.2","","","","","0.836267867","0.622657036","0.946494378","0.8920593834","","","","","","","","","","75","K","2","","","28","main_expt",""
"","bandit","108","344842","0.0-70.0-0.0","38538717","wem/bandit_party_2","A15JXW50UYKBGP","either","2","450","","","","","","","1","0","0","0.9338647731","","0.6","0.4","0.8","0.2","","","","","0.7158546556","0.5757463716","0.9338647731","0.8234517222","","","","","","","","","","75","K","2","","","29","main_expt",""
"","bandit","109","347081","0.0-71.0-0.0","38538717","wem/bandit_party_2","A15JXW50UYKBGP","either","2","724","","","","","","","1","0","0","0.9354801528","","0.6","0.4","0.8","0.2","","","","","0.7262950886","0.6048158844","0.9354801528","0.7963444676","","","","","","","","","","75","K","2","","","30","main_expt",""
"","bandit","110","349204","0.0-72.0-0.0","38538717","wem/bandit_party_2","A15JXW50UYKBGP","either","2","613","","","","","","","1","0","0","0.9323861487","","0.6","0.4","0.8","0.2","","","","","0.7049485024","0.4831208743","0.9323861487","0.6847131082","","","","","","","","","","75","K","2","","","31","main_expt",""
"","bandit","111","351645","0.0-73.0-0.0","38538717","wem/bandit_party_2","A15JXW50UYKBGP","either","2","933","","","","","","","1","0","0","0.9159531952","","0.6","0.4","0.8","0.2","","","","","0.6294605358","0.4413454117","0.9159531952","0.7745616343","","","","","","","","","","75","K","2","","","32","main_expt",""
"","bandit","112","353562","0.0-74.0-0.0","38538717","wem/bandit_party_2","A15JXW50UYKBGP","either","2","409","","","","","","","0","1","0","","0.9501333659","0.6","0.4","0.8","0.2","0.7097184707","0.589686364","0.9501333659","0.8111568365","","","","","","","","","","","","","","75","K","2","","","33","main_expt",""
"","bandit","113","355639","0.0-75.0-0.0","38538717","wem/bandit_party_2","A15JXW50UYKBGP","either","2","565","","","","","","","1","0","0","0.9485118263","","0.6","0.4","0.8","0.2","","","","","0.6324728327","0.5789977489","0.9485118263","0.7291364049","","","","","","","","","","75","K","2","","","34","main_expt",""
"","bandit","114","357596","0.0-76.0-0.0","38538717","wem/bandit_party_2","A15JXW50UYKBGP","either","2","446","","","","","","","1","0","0","0.959491173","","0.6","0.4","0.8","0.2","","","","","0.6809104991","0.5605822786","0.959491173","0.7920219322","","","","","","","","","","75","K","2","","","35","main_expt",""
"","bandit","115","360189","0.0-77.0-0.0","38538717","wem/bandit_party_2","A15JXW50UYKBGP","either","2","1082","","","","","","","1","0","0","0.9523687656","","0.6","0.4","0.8","0.2","","","","","0.5745256001","0.3330948712","0.9523687656","0.7889809596","","","","","","","","","","75","K","2","","","36","main_expt",""
"","bandit","116","362378","0.0-78.0-0.0","38538717","wem/bandit_party_2","A15JXW50UYKBGP","either","2","675","","","","","","","1","0","0","0.9504344127","","0.6","0.4","0.8","0.2","","","","","0.6249275122","0.2430176499","0.9504344127","0.8060385269","","","","","","","","","","75","K","2","","","37","main_expt",""
"","bandit","117","364462","0.0-79.0-0.0","38538717","wem/bandit_party_2","A15JXW50UYKBGP","either","2","573","","","","","","","1","0","0","0.9321408283","","0.6","0.4","0.8","0.2","","","","","0.5582777804","0.3106083343","0.9321408283","0.7188782676","","","","","","","","","","75","K","2","","","38","main_expt",""
"","bandit","118","367086","0.0-80.0-0.0","38538717","wem/bandit_party_2","A15JXW50UYKBGP","either","2","1112","","","","","","","1","0","0","0.9135525369","","0.6","0.4","0.8","0.2","","","","","0.6619895395","0.3239447463","0.9135525369","0.7387945131","","","","","","","","","","75","K","2","","","39","main_expt",""
"","bandit","119","369899","0.0-81.0-0.0","38538717","wem/bandit_party_2","A15JXW50UYKBGP","either","2","1304","","","","","","","1","0","0","0.8840916364","","0.6","0.4","0.8","0.2","","","","","0.6522152691","0.2946631509","0.8840916364","0.7478035428","","","","","","","","","","75","K","2","","","40","main_expt",""
"","bandit","120","372223","0.0-82.0-0.0","38538717","wem/bandit_party_2","A15JXW50UYKBGP","either","2","811","","","","","","","0","1","0","","0.8747037504","0.6","0.4","0.8","0.2","0.6714070371","0.193597671","0.8747037504","0.7802386085","","","","","","","","","","","","","","75","K","2","","","41","main_expt",""
"","bandit","121","375804","0.0-83.0-0.0","38538717","wem/bandit_party_2","A15JXW50UYKBGP","either","2","2071","","","","","","","1","0","0","0.826315498","","0.6","0.4","0.8","0.2","","","","","0.6390104416","0.1834529884","0.826315498","0.7994277013","","","","","","","","","","75","K","2","","","42","main_expt",""
"","bandit","122","377760","0.0-84.0-0.0","38538717","wem/bandit_party_2","A15JXW50UYKBGP","either","2","448","","","","","","","1","0","0","0.7681371561","","0.6","0.4","0.8","0.2","","","","","0.6318841448","0.1558663495","0.7681371561","0.8718069658","","","","","","","","","","75","K","2","","","43","main_expt",""
"","bandit","123","379855","0.0-85.0-0.0","38538717","wem/bandit_party_2","A15JXW50UYKBGP","either","2","587","","","","","","","1","0","0","0.7584360225","","0.6","0.4","0.8","0.2","","","","","0.5708139437","0.1573065196","0.7584360225","0.7725207311","","","","","","","","","","75","K","2","","","44","main_expt",""
"","bandit","124","382047","0.0-86.0-0.0","38538717","wem/bandit_party_2","A15JXW50UYKBGP","either","2","684","","","","","","","1","0","0","0.816959585","","0.6","0.4","0.8","0.2","","","","","0.5703812278","0.1743203636","0.816959585","0.8399140445","","","","","","","","","","75","K","2","","","45","main_expt",""
"","bandit","125","384239","0.0-87.0-0.0","38538717","wem/bandit_party_2","A15JXW50UYKBGP","either","2","677","","","","","","","0","0","1","0.7571269921","","0.6","0.4","0.8","0.2","","","","","0.4520700595","0.1234040722","0.7571269921","0.7830678696","","","","","","","","","","75","K","2","","","46","main_expt",""
"","bandit","126","386246","0.0-88.0-0.0","38538717","wem/bandit_party_2","A15JXW50UYKBGP","either","2","495","","","","","","","0","1","0","","0.8255209912","0.6","0.4","0.8","0.2","0.4953600952","0.1592846429","0.7086567283","0.8255209912","","","","","","","","","","","","","","76","L","3","","","47","main_expt",""
"","bandit","127","388258","0.0-89.0-0.0","38538717","wem/bandit_party_2","A15JXW50UYKBGP","either","2","503","","","","","","","0","1","0","","0.7728754614","0.6","0.4","0.8","0.2","0.4912921637","0.1880090658","0.6428227569","0.7728754614","","","","","","","","","","","","","","76","L","3","","","48","main_expt",""
"","bandit","128","390169","0.0-90.0-0.0","38538717","wem/bandit_party_2","A15JXW50UYKBGP","either","2","401","","","","","","","0","1","0","","0.8607162984","0.6","0.4","0.8","0.2","0.4694413912","0.3190576765","0.7004196772","0.8607162984","","","","","","","","","","","","","","76","L","3","","","49","main_expt",""
"","bandit","129","392050","0.0-91.0-0.0","38538717","wem/bandit_party_2","A15JXW50UYKBGP","either","2","371","","","","","","","0","0","1","","0.8526113732","0.6","0.4","0.8","0.2","0.5835687148","0.277770718","0.6418514465","0.8526113732","","","","","","","","","","","","","","76","L","3","","","50","main_expt",""
"","bandit","130","393913","0.0-92.0-0.0","38538717","wem/bandit_party_2","A15JXW50UYKBGP","either","2","350","","","","","","","0","1","0","","0.8630835666","0.6","0.4","0.8","0.2","0.581499138","0.3304163056","0.6322169777","0.8630835666","","","","","","","","","","","","","","76","L","3","","","51","main_expt",""
"","bandit","131","395960","0.0-93.0-0.0","38538717","wem/bandit_party_2","A15JXW50UYKBGP","either","2","539","","","","","","","0","1","0","","0.8689990829","0.6","0.4","0.8","0.2","0.6521379128","0.3074301744","0.6160259873","0.8689990829","","","","","","","","","","","","","","76","L","3","","","52","main_expt",""
"","bandit","132","398562","0.0-94.0-0.0","38538717","wem/bandit_party_2","A15JXW50UYKBGP","either","2","1094","","","","","","","0","1","0","","0.8829627288","0.6","0.4","0.8","0.2","0.5743957808","0.3292402402","0.6635838846","0.8829627288","","","","","","","","","","","","","","76","L","3","","","53","main_expt",""
"","bandit","133","401531","0.0-95.0-0.0","38538717","wem/bandit_party_2","A15JXW50UYKBGP","either","2","1458","","","","","","","0","0","1","0.8577096669","","0.6","0.4","0.8","0.2","","","","","0.4765250731","0.3701383524","0.7334380463","0.8577096669","","","","","","","","","","76","L","3","","","54","main_expt",""
"","bandit","134","403557","0.0-96.0-0.0","38538717","wem/bandit_party_2","A15JXW50UYKBGP","either","2","514","","","","","","","0","0","1","","0.7951355038","0.6","0.4","0.8","0.2","0.472038817","0.4023440482","0.6625049704","0.7951355038","","","","","","","","","","","","","","76","L","3","","","55","main_expt",""
"","bandit","135","405452","0.0-97.0-0.0","38538717","wem/bandit_party_2","A15JXW50UYKBGP","either","2","383","","","","","","","0","1","0","","0.7832403428","0.6","0.4","0.8","0.2","0.6060805283","0.3320470731","0.6244126183","0.7832403428","","","","","","","","","","","","","","76","L","3","","","56","main_expt",""
"","bandit","136","407861","0.0-98.0-0.0","38538717","wem/bandit_party_2","A15JXW50UYKBGP","either","2","898","","","","","","","0","1","0","","0.7165346004","0.6","0.4","0.8","0.2","0.5733746242","0.3398704556","0.693445159","0.7165346004","","","","","","","","","","","","","","76","L","3","","","57","main_expt",""
"","bandit","137","410022","0.0-99.0-0.0","38538717","wem/bandit_party_2","A15JXW50UYKBGP","either","2","649","","","","","","","0","0","1","","0.7840704931","0.6","0.4","0.8","0.2","0.5268086549","0.3171476707","0.6603141298","0.7840704931","","","","","","","","","","","","","","76","L","3","","","58","main_expt",""
"","bandit","138","412312","0.0-100.0-0.0","38538717","wem/bandit_party_2","A15JXW50UYKBGP","either","2","775","","","","","","","1","0","0","0.7166558068","","0.6","0.4","0.8","0.2","","","","","0.5298916697","0.1868584885","0.6435133917","0.7166558068","","","","","","","","","","76","L","3","","","59","main_expt",""
"","bandit","139","414239","0.0-101.0-0.0","38538717","wem/bandit_party_2","A15JXW50UYKBGP","either","2","412","","","","","","","0","0","1","","0.6505055492","0.6","0.4","0.8","0.2","0.5547432704","0.2163153633","0.6720075741","0.6505055492","","","","","","","","","","","","","","76","L","3","","","60","main_expt",""
"","bandit","140","416268","0.0-102.0-0.0","38538717","wem/bandit_party_2","A15JXW50UYKBGP","either","2","518","","","","","","","0","0","1","","0.2086512551","0.6","0.4","0.8","0.2","0.5407031957","0.2086512551","0.6703611074","0.6465946667","","","","","","","","","","","","","","74","J","1","","","61","main_expt",""
"","bandit","141","418098","0.0-103.0-0.0","38538717","wem/bandit_party_2","A15JXW50UYKBGP","either","2","321","","","","","","","0","0","1","","0.2250062338","0.6","0.4","0.8","0.2","0.6993449034","0.2250062338","0.64477312","0.709990362","","","","","","","","","","","","","","74","J","1","","","62","main_expt",""
"","bandit","142","420130","0.0-104.0-0.0","38538717","wem/bandit_party_2","A15JXW50UYKBGP","either","2","525","","","","","","","1","0","0","0.6342967703","","0.6","0.4","0.8","0.2","","","","","0.6342967703","0.2739380208","0.509049177","0.7542168012","","","","","","","","","","72","H","0","img/none_selected.jpg","","63","main_expt",""
"","bandit","143","422067","0.0-105.0-0.0","38538717","wem/bandit_party_2","A15JXW50UYKBGP","either","2","426","","","","","","","0","0","1","0.5961490325","","0.6","0.4","0.8","0.2","","","","","0.5961490325","0.3449536465","0.5535424332","0.7660604158","","","","","","","","","","72","H","0","img/none_selected.jpg","","64","main_expt",""
"","bandit","144","424030","0.0-106.0-0.0","38538717","wem/bandit_party_2","A15JXW50UYKBGP","either","2","450","","","","","","","1","0","0","0.5771190674","","0.6","0.4","0.8","0.2","","","","","0.5771190674","0.34640195","0.6608621899","0.7572602099","","","","","","","","","","72","H","0","img/none_selected.jpg","","65","main_expt",""
"","bandit","145","426150","0.0-107.0-0.0","38538717","wem/bandit_party_2","A15JXW50UYKBGP","either","2","606","","","","","","","0","1","0","","0.4765921407","0.6","0.4","0.8","0.2","0.4765921407","0.5266288285","0.6535341977","0.686926195","","","","","","","","","","","","","","72","H","0","img/none_selected.jpg","","66","main_expt",""
"","bandit","146","428181","0.0-108.0-0.0","38538717","wem/bandit_party_2","A15JXW50UYKBGP","either","2","519","","","","","","","1","0","0","0.5714361875","","0.6","0.4","0.8","0.2","","","","","0.5714361875","0.5588671697","0.6592628399","0.7334195653","","","","","","","","","","72","H","0","img/none_selected.jpg","","67","main_expt",""
"","bandit","147","430085","0.0-109.0-0.0","38538717","wem/bandit_party_2","A15JXW50UYKBGP","either","2","393","","","","","","","0","1","0","","0.6231829193","0.6","0.4","0.8","0.2","0.6231829193","0.6097536784","0.6735013879","0.6114245881","","","","","","","","","","","","","","72","H","0","img/none_selected.jpg","","68","main_expt",""
"","bandit","148","432586","0.0-110.0-0.0","38538717","wem/bandit_party_2","A15JXW50UYKBGP","either","2","986","","","","","","","0","0","1","0.5130256365","","0.6","0.4","0.8","0.2","","","","","0.5130256365","0.533457584","0.7209687993","0.6460921668","","","","","","","","","","72","H","0","img/none_selected.jpg","","69","main_expt",""
"","bandit","149","434479","0.0-111.0-0.0","38538717","wem/bandit_party_2","A15JXW50UYKBGP","either","2","379","","","","","","","0","0","1","0.5167166","","0.6","0.4","0.8","0.2","","","","","0.5167166","0.4124750721","0.690528825","0.6700702736","","","","","","","","","","72","H","0","img/none_selected.jpg","","70","main_expt",""
"","bandit","150","436440","0.0-112.0-0.0","38538717","wem/bandit_party_2","A15JXW50UYKBGP","either","2","454","","","","","","","0","0","1","0.6388012411","","0.6","0.4","0.8","0.2","","","","","0.6448170737","0.4486526525","0.6453310316","0.6388012411","","","","","","","","","","76","L","3","","","71","main_expt",""
"","bandit","151","438962","0.0-113.0-0.0","38538717","wem/bandit_party_2","A15JXW50UYKBGP","either","2","1013","","","","","","","0","0","1","","0.6046900378","0.6","0.4","0.8","0.2","0.5640434706","0.4313602212","0.8140348339","0.6046900378","","","","","","","","","","","","","","76","L","3","","","72","main_expt",""
"","bandit","152","440863","0.0-114.0-0.0","38538717","wem/bandit_party_2","A15JXW50UYKBGP","either","2","388","","","","","","","0","1","0","","0.820931829","0.6","0.4","0.8","0.2","0.6296110197","0.3639072561","0.820931829","0.6062428704","","","","","","","","","","","","","","75","K","2","","","73","main_expt",""
"","bandit","153","442996","0.0-115.0-0.0","38538717","wem/bandit_party_2","A15JXW50UYKBGP","either","2","624","","","","","","","1","0","0","0.8096233945","","0.6","0.4","0.8","0.2","","","","","0.6730210969","0.2882181569","0.8096233945","0.6237194739","","","","","","","","","","75","K","2","","","74","main_expt",""
"","bandit","154","444942","0.0-116.0-0.0","38538717","wem/bandit_party_2","A15JXW50UYKBGP","either","2","433","","","","","","","0","0","1","","0.7615001707","0.6","0.4","0.8","0.2","0.5720403827","0.3561187133","0.7615001707","0.5971007372","","","","","","","","","","","","","","75","K","2","","","75","main_expt",""
"","bandit","155","447021","0.0-117.0-0.0","38538717","wem/bandit_party_2","A15JXW50UYKBGP","either","2","568","","","","","","","1","0","0","0.8147365981","","0.6","0.4","0.8","0.2","","","","","0.6303512149","0.4480894403","0.8147365981","0.5810032438","","","","","","","","","","75","K","2","","","76","main_expt",""
"","bandit","156","449482","0.0-118.0-0.0","38538717","wem/bandit_party_2","A15JXW50UYKBGP","either","2","944","","","","","","","1","0","0","0.8926338818","","0.6","0.4","0.8","0.2","","","","","0.5531797874","0.3220850356","0.8926338818","0.5792233978","","","","","","","","","","75","K","2","","","77","main_expt",""
"","bandit","157","452162","0.0-119.0-0.0","38538717","wem/bandit_party_2","A15JXW50UYKBGP","either","2","1173","","","","","","","0","1","0","","0.8669072201","0.6","0.4","0.8","0.2","0.5449672882","0.3281133775","0.8669072201","0.692511921","","","","","","","","","","","","","","75","K","2","","","78","main_expt",""
"","bandit","158","454590","0.0-120.0-0.0","38538717","wem/bandit_party_2","A15JXW50UYKBGP","either","2","918","","","","","","","1","0","0","0.9114006046","","0.6","0.4","0.8","0.2","","","","","0.4484013318","0.3814329202","0.9114006046","0.7019625083","","","","","","","","","","75","K","2","","","79","main_expt",""
"","bandit","159","456790","0.0-121.0-0.0","38538717","wem/bandit_party_2","A15JXW50UYKBGP","either","2","688","","","","","","","1","0","0","0.9268398106","","0.6","0.4","0.8","0.2","","","","","0.5041425745","0.3512572076","0.9268398106","0.6785675641","","","","","","","","","","75","K","2","","","80","main_expt",""
"","bandit","160","459552","0.0-122.0-0.0","38538717","wem/bandit_party_2","A15JXW50UYKBGP","either","2","1248","","","","","","","0","1","0","","0.9582858862","0.6","0.4","0.8","0.2","0.3462078978","0.3624285329","0.9582858862","0.7101061672","","","","","","","","","","","","","","75","K","2","","","81","main_expt",""
"","bandit","161","462046","0.0-123.0-0.0","38538717","wem/bandit_party_2","A15JXW50UYKBGP","either","2","982","","","","","","","1","0","0","0.9590071975","","0.6","0.4","0.8","0.2","","","","","0.3226795418","0.3111883408","0.9590071975","0.7217376576","","","","","","","","","","75","K","2","","","82","main_expt",""
"","bandit","162","464547","0.0-124.0-0.0","38538717","wem/bandit_party_2","A15JXW50UYKBGP","either","2","991","","","","","","","1","0","0","0.9379973093","","0.6","0.4","0.8","0.2","","","","","0.3023868023","0.243162563","0.9379973093","0.6437777395","","","","","","","","","","75","K","2","","","83","main_expt",""
"","bandit","163","466581","0.0-125.0-0.0","38538717","wem/bandit_party_2","A15JXW50UYKBGP","either","2","524","","","","","","","1","0","0","0.9411979228","","0.6","0.4","0.8","0.2","","","","","0.4040419094","0.347146949","0.9411979228","0.6533183273","","","","","","","","","","75","K","2","","","84","main_expt",""
"","bandit","164","469562","0.0-126.0-0.0","38538717","wem/bandit_party_2","A15JXW50UYKBGP","either","2","1473","","","","","","","1","0","0","0.9441700551","","0.6","0.4","0.8","0.2","","","","","0.4716136817","0.4416309426","0.9441700551","0.7469548387","","","","","","","","","","75","K","2","","","85","main_expt",""
"","bandit","165","472009","0.0-127.0-0.0","38538717","wem/bandit_party_2","A15JXW50UYKBGP","either","2","932","","","","","","","0","1","0","","0.9323605113","0.6","0.4","0.8","0.2","0.4455883603","0.4523797492","0.9323605113","0.7366570046","","","","","","","","","","","","","","75","K","2","","","86","main_expt",""
"","bandit","166","474573","0.0-128.0-0.0","38538717","wem/bandit_party_2","A15JXW50UYKBGP","either","2","1053","","","","","","","1","0","0","0.8871332711","","0.6","0.4","0.8","0.2","","","","","0.5952575165","0.4621103264","0.8871332711","0.7142428019","","","","","","","","","","75","K","2","","","87","main_expt",""
"","bandit","167","476749","0.0-129.0-0.0","38538717","wem/bandit_party_2","A15JXW50UYKBGP","either","2","667","","","","","","","0","0","1","0.8520973281","","0.6","0.4","0.8","0.2","","","","","0.5333825583","0.3800084876","0.8520973281","0.7057172343","","","","","","","","","","75","K","2","","","88","main_expt",""
"","bandit","168","478695","0.0-130.0-0.0","38538717","wem/bandit_party_2","A15JXW50UYKBGP","either","2","433","","","","","","","0","0","1","0.7882210871","","0.6","0.4","0.8","0.2","","","","","0.4583166828","0.2354372355","0.7882210871","0.7289934888","","","","","","","","","","75","K","2","","","89","main_expt",""
"","bandit","169","480254","0.0-131.0-0.0","38538717","wem/bandit_party_2","A15JXW50UYKBGP","either","2","48","","","","","","","1","0","0","0.7475354559","","0.6","0.4","0.8","0.2","","","","","0.4782349553","0.2978482647","0.720110267","0.7475354559","","","","","","","","","","76","L","3","","","90","main_expt",""
"","bandit","170","482171","0.0-132.0-0.0","38538717","wem/bandit_party_2","A15JXW50UYKBGP","either","2","408","","","","","","","0","0","1","","0.6316706059","0.6","0.4","0.8","0.2","0.464138054","0.3723871884","0.7390342074","0.6316706059","","","","","","","","","","","","","","76","L","3","","","91","main_expt",""
"","bandit","171","484108","0.0-133.0-0.0","38538717","wem/bandit_party_2","A15JXW50UYKBGP","either","2","427","","","","","","","0","1","0","","0.5400298203","0.6","0.4","0.8","0.2","0.5084128334","0.5400298203","0.8135224625","0.6957908828","","","","","","","","","","","","","","74","J","1","","","92","main_expt",""
"","bandit","172","486710","0.0-134.0-0.0","38538717","wem/bandit_party_2","A15JXW50UYKBGP","either","2","1089","","","","","","","0","0","1","0.5134744583","","0.6","0.4","0.8","0.2","","","","","0.5211356389","0.5134744583","0.7814404678","0.6812665662","","","","","","","","","","74","J","1","","","93","main_expt",""
"","bandit","173","488730","0.0-135.0-0.0","38538717","wem/bandit_party_2","A15JXW50UYKBGP","either","2","504","","","","","","","0","0","1","","0.4101580275","0.6","0.4","0.8","0.2","0.4554037602","0.4101580275","0.7672416568","0.6412933588","","","","","","","","","","","","","","74","J","1","","","94","main_expt",""
"","bandit","174","490679","0.0-136.0-0.0","38538717","wem/bandit_party_2","A15JXW50UYKBGP","either","2","438","","","","","","","1","0","0","0.4195046205","","0.6","0.4","0.8","0.2","","","","","0.4195046205","0.2995167601","0.7573973965","0.5696630174","","","","","","","","","","72","H","0","img/none_selected.jpg","","95","main_expt",""
"","bandit","175","492611","0.0-137.0-0.0","38538717","wem/bandit_party_2","A15JXW50UYKBGP","either","2","423","","","","","","","0","0","1","","0.3638478563","0.6","0.4","0.8","0.2","0.3638478563","0.2934894425","0.8177369732","0.6076398096","","","","","","","","","","","","","","72","H","0","img/none_selected.jpg","","96","main_expt",""
"","bandit","176","494446","0.0-138.0-0.0","38538717","wem/bandit_party_2","A15JXW50UYKBGP","either","2","323","","","","","","","0","0","1","0.2839735208","","0.6","0.4","0.8","0.2","","","","","0.2839735208","0.2802715202","0.8124666872","0.5551612935","","","","","","","","","","72","H","0","img/none_selected.jpg","","97","main_expt",""
"","bandit","177","496229","0.0-139.0-0.0","38538717","wem/bandit_party_2","A15JXW50UYKBGP","either","2","272","","","","","","","0","1","0","","0.6354974245","0.6","0.4","0.8","0.2","0.2109275999","0.2703087955","0.881496875","0.6354974245","","","","","","","","","","","","","","76","L","3","","","98","main_expt",""
"","bandit","178","498101","0.0-140.0-0.0","38538717","wem/bandit_party_2","A15JXW50UYKBGP","either","2","361","","","","","","","0","1","0","","0.5945745664","0.6","0.4","0.8","0.2","0.1531506719","0.3027543159","0.8785981907","0.5945745664","","","","","","","","","","","","","","76","L","3","","","99","main_expt",""
"","bandit","179","500094","0.0-141.0-0.0","38538717","wem/bandit_party_2","A15JXW50UYKBGP","either","2","483","","","","","","","0","1","0","","0.5679097985","0.6","0.4","0.8","0.2","0.1262108991","0.3645318829","0.8494581726","0.5679097985","","","","","","","","","","","","","","76","L","3","","","100","main_expt",""
"","bandit","180","502161","0.0-142.0-0.0","38538717","wem/bandit_party_2","A15JXW50UYKBGP","either","2","553","","","","","","","0","0","1","","0.6430580454","0.6","0.4","0.8","0.2","0.1340220502","0.4315832637","0.7754784616","0.6430580454","","","","","","","","","","","","","","76","L","3","","","101","main_expt",""
"","bandit","181","504132","0.0-143.0-0.0","38538717","wem/bandit_party_2","A15JXW50UYKBGP","either","2","461","","","","","","","0","1","0","","0.6340200926","0.6","0.4","0.8","0.2","0.2167126086","0.3608531129","0.7626736499","0.6340200926","","","","","","","","","","","","","","76","L","3","","","102","main_expt",""
"","bandit","182","505945","0.0-144.0-0.0","38538717","wem/bandit_party_2","A15JXW50UYKBGP","either","2","298","","","","","","","0","0","1","","0.6377668076","0.6","0.4","0.8","0.2","0.2796352144","0.3688981903","0.7329996306","0.6377668076","","","","","","","","","","","","","","76","L","3","","","103","main_expt",""
"","bandit","183","507849","0.0-145.0-0.0","38538717","wem/bandit_party_2","A15JXW50UYKBGP","either","2","391","","","","","","","0","1","0","","0.6578341575","0.6","0.4","0.8","0.2","0.3556406549","0.3758155051","0.7467689404","0.6578341575","","","","","","","","","","","","","","76","L","3","","","104","main_expt",""
"","bandit","184","510496","0.0-146.0-0.0","38538717","wem/bandit_party_2","A15JXW50UYKBGP","either","2","1135","","","","","","","0","1","0","","0.6727034752","0.6","0.4","0.8","0.2","0.3233911601","0.4508947075","0.737018723","0.6727034752","","","","","","","","","","","","","","76","L","3","","","105","main_expt",""
"","bandit","185","512399","0.0-147.0-0.0","38538717","wem/bandit_party_2","A15JXW50UYKBGP","either","2","391","","","","","","","0","1","0","","0.6386482702","0.6","0.4","0.8","0.2","0.2024631506","0.4132181144","0.655194185","0.6386482702","","","","","","","","","","","","","","76","L","3","","","106","main_expt",""
"","bandit","186","514662","0.0-148.0-0.0","38538717","wem/bandit_party_2","A15JXW50UYKBGP","either","2","753","","","","","","","0","0","1","","0.6788938686","0.6","0.4","0.8","0.2","0.2290393164","0.4393512677","0.7122819559","0.6788938686","","","","","","","","","","","","","","76","L","3","","","107","main_expt",""
"","bandit","187","516540","0.0-149.0-0.0","38538717","wem/bandit_party_2","A15JXW50UYKBGP","either","2","368","","","","","","","0","1","0","","0.7076498576","0.6","0.4","0.8","0.2","0.2217712157","0.4964319729","0.7326995505","0.7076498576","","","","","","","","","","","","","","76","L","3","","","108","main_expt",""
"","bandit","188","519395","0.0-150.0-0.0","38538717","wem/bandit_party_2","A15JXW50UYKBGP","either","2","1339","","","","","","","0","1","0","","0.6932550908","0.6","0.4","0.8","0.2","0.1566860935","0.4790921069","0.7165499475","0.6932550908","","","","","","","","","","","","","","76","L","3","","","109","main_expt",""
"","bandit","189","521547","0.0-151.0-0.0","38538717","wem/bandit_party_2","A15JXW50UYKBGP","either","2","638","","","","","","","1","0","0","0.7436061547","","0.6","0.4","0.8","0.2","","","","","0.1083987113","0.5856434505","0.6058017554","0.7436061547","","","","","","","","","","76","L","3","","","110","main_expt",""
"","bandit","190","523981","0.0-152.0-0.0","38538717","wem/bandit_party_2","A15JXW50UYKBGP","either","2","925","","","","","","","0","1","0","","0.657194241","0.6","0.4","0.8","0.2","0.217828795","0.6444230696","0.5476823758","0.657194241","","","","","","","","","","","","","","76","L","3","","","111","main_expt",""
"","bandit","191","526521","0.0-153.0-0.0","38538717","wem/bandit_party_2","A15JXW50UYKBGP","either","2","1026","","","","","","","0","1","0","","0.6317228327","0.6","0.4","0.8","0.2","0.2212119155","0.603417252","0.5688313193","0.6317228327","","","","","","","","","","","","","","76","L","3","","","112","main_expt",""
"","bandit","192","530111","0.0-154.0-0.0","38538717","wem/bandit_party_2","A15JXW50UYKBGP","either","2","2078","","","","","","","0","0","1","","0.4985892417","0.6","0.4","0.8","0.2","0.2374112476","0.420613871","0.50852785","0.4985892417","","","","","","","","","","","","","","76","L","3","","","113","main_expt",""
"","bandit","193","532041","0.0-155.0-0.0","38538717","wem/bandit_party_2","A15JXW50UYKBGP","either","2","416","","","","","","","0","0","1","0.579071345","","0.6","0.4","0.8","0.2","","","","","0.2703699348","0.2851569533","0.5711084253","0.579071345","","","","","","","","","","76","L","3","","","114","main_expt",""
"","bandit","194","533781","0.0-156.0-0.0","38538717","wem/bandit_party_2","A15JXW50UYKBGP","either","2","230","","","","","","","1","0","0","0.4177754351","","0.6","0.4","0.8","0.2","","","","","0.1928485376","0.3166589884","0.4177754351","0.4595939904","","","","","","","","","","75","K","2","","","115","main_expt",""
"","bandit","195","536109","0.0-157.0-0.0","38538717","wem/bandit_party_2","A15JXW50UYKBGP","either","2","817","","","","","","","0","0","1","0.387840809","","0.6","0.4","0.8","0.2","","","","","0.136356343","0.3928451607","0.387840809","0.3744567546","","","","","","","","","","75","K","2","","","116","main_expt",""
"","bandit","196","538140","0.0-158.0-0.0","38538717","wem/bandit_party_2","A15JXW50UYKBGP","either","2","521","","","","","","","0","1","0","","0.560845346","0.6","0.4","0.8","0.2","0.2193113504","0.560845346","0.4456731606","0.302145019","","","","","","","","","","","","","","74","J","1","","","117","main_expt",""
"","bandit","197","540422","0.0-159.0-0.0","38538717","wem/bandit_party_2","A15JXW50UYKBGP","either","2","770","","","","","","","0","0","1","","0.5536818424","0.6","0.4","0.8","0.2","0.2686792008","0.5536818424","0.3045880574","0.3522466686","","","","","","","","","","","","","","74","J","1","","","118","main_expt",""
"","bandit","198","542279","0.0-160.0-0.0","38538717","wem/bandit_party_2","A15JXW50UYKBGP","either","2","347","","","","","","","0","0","1","","0.3617659687","0.6","0.4","0.8","0.2","0.2668270476","0.3617659687","0.3994134075","0.4425542362","","","","","","","","","","","","","","74","J","1","","","119","main_expt",""
"","bandit","199","544287","0.0-161.0-0.0","38538717","wem/bandit_party_2","A15JXW50UYKBGP","either","2","495","","","","","","","0","0","1","0.3723992114","","0.6","0.4","0.8","0.2","","","","","0.3723992114","0.3454740543","0.351449483","0.3377532805","","","","","","","","","","72","H","0","img/none_selected.jpg","","120","main_expt",""
"","bandit","200","546023","0.0-162.0-0.0","38538717","wem/bandit_party_2","A15JXW50UYKBGP","either","2","223","","","","","","","1","0","0","0.4001238515","","0.6","0.4","0.8","0.2","","","","","0.4001238515","0.2798257893","0.3641911367","0.2929504356","","","","","","","","","","72","H","0","img/none_selected.jpg","","121","main_expt",""
"","bandit","201","548605","0.0-163.0-0.0","38538717","wem/bandit_party_2","A15JXW50UYKBGP","either","2","1071","","","","","","","0","1","0","","0.4090120715","0.6","0.4","0.8","0.2","0.4090120715","0.2261540995","0.2673706252","0.2504028886","","","","","","","","","","","","","","72","H","0","img/none_selected.jpg","","122","main_expt",""
"","bandit","202","552155","0.0-164.0-0.0","38538717","wem/bandit_party_2","A15JXW50UYKBGP","either","2","2041","","","","","","","0","0","1","","0.4746108064","0.6","0.4","0.8","0.2","0.4746108064","0.2766663047","0.3455372181","0.2414849785","","","","","","","","","","","","","","72","H","0","img/none_selected.jpg","","123","main_expt",""
"","bandit","203","554291","0.0-165.0-0.0","38538717","wem/bandit_party_2","A15JXW50UYKBGP","either","2","621","","","","","","","0","0","1","0.3524137631","","0.6","0.4","0.8","0.2","","","","","0.453231646","0.3126864395","0.3524137631","0.1791255979","","","","","","","","","","75","K","2","","","124","main_expt",""
"","bandit","204","556720","0.0-166.0-0.0","38538717","wem/bandit_party_2","A15JXW50UYKBGP","either","2","917","","","","","","","0","0","1","0.3680881866","","0.6","0.4","0.8","0.2","","","","","0.4888945922","0.2772507379","0.3680881866","0.1952456852","","","","","","","","","","75","K","2","","","125","main_expt",""
"","bandit","205","558557","0.0-167.0-0.0","38538717","wem/bandit_party_2","A15JXW50UYKBGP","either","2","327","","","","","","","0","1","0","","0.2614303707","0.6","0.4","0.8","0.2","0.396932523","0.2441417391","0.2884444508","0.2614303707","","","","","","","","","","","","","","76","L","3","","","126","main_expt",""
"","bandit","206","560862","0.0-168.0-0.0","38538717","wem/bandit_party_2","A15JXW50UYKBGP","either","2","794","","","","","","","0","0","1","","0.267511235","0.6","0.4","0.8","0.2","0.4026562496","0.2304038214","0.2931854252","0.267511235","","","","","","","","","","","","","","76","L","3","","","127","main_expt",""
"","bandit","207","562773","0.0-169.0-0.0","38538717","wem/bandit_party_2","A15JXW50UYKBGP","either","2","400","","","","","","","0","0","1","","0.2582460394","0.6","0.4","0.8","0.2","0.3072143153","0.2463692943","0.3115494401","0.2582460394","","","","","","","","","","","","","","76","L","3","","","128","main_expt",""
"","bandit","208","565194","0.0-170.0-0.0","38538717","wem/bandit_party_2","A15JXW50UYKBGP","either","2","908","","","","","","","1","0","0","0.287093163","","0.6","0.4","0.8","0.2","","","","","0.3024431642","0.262841392","0.287093163","0.249100023","","","","","","","","","","75","K","2","","","129","main_expt",""
"","bandit","209","567522","0.0-171.0-0.0","38538717","wem/bandit_party_2","A15JXW50UYKBGP","either","2","813","","","","","","","0","0","1","0.242368994","","0.6","0.4","0.8","0.2","","","","","0.383823705","0.3044503748","0.242368994","0.2014680341","","","","","","","","","","75","K","2","","","130","main_expt",""
"","bandit","210","569936","0.0-172.0-0.0","38538717","wem/bandit_party_2","A15JXW50UYKBGP","either","2","902","","","","","","","0","0","1","","0.2514612397","0.6","0.4","0.8","0.2","0.5448185218","0.2231782293","0.3141093292","0.2514612397","","","","","","","","","","","","","","76","L","3","","","131","main_expt",""
"","bandit","211","571936","0.0-173.0-0.0","38538717","wem/bandit_party_2","A15JXW50UYKBGP","either","2","487","","","","","","","0","1","0","","0.265126842","0.6","0.4","0.8","0.2","0.5741986762","0.265126842","0.3186943837","0.1719215191","","","","","","","","","","","","","","74","J","1","","","132","main_expt",""
"","bandit","212","575551","0.0-174.0-0.0","38538717","wem/bandit_party_2","A15JXW50UYKBGP","either","2","2097","","","","","","","0","0","1","","0.1996467811","0.6","0.4","0.8","0.2","0.54298015","0.1996467811","0.3218599317","0.151851594","","","","","","","","","","","","","","74","J","1","","","133","main_expt",""
"","bandit","213","578010","0.0-175.0-0.0","38538717","wem/bandit_party_2","A15JXW50UYKBGP","either","2","944","","","","","","","0","1","0","","0.5504084981","0.6","0.4","0.8","0.2","0.5504084981","0.1900899503","0.3372263261","0.1693242304","","","","","","","","","","","","","","72","H","0","img/none_selected.jpg","","134","main_expt",""
"","bandit","214","580447","0.0-176.0-0.0","38538717","wem/bandit_party_2","A15JXW50UYKBGP","either","2","926","","","","","","","0","0","1","0.4874659601","","0.6","0.4","0.8","0.2","","","","","0.4874659601","0.172295534","0.3515125386","0.1541174352","","","","","","","","","","72","H","0","img/none_selected.jpg","","135","main_expt",""
"","bandit","215","582763","0.0-177.0-0.0","38538717","wem/bandit_party_2","A15JXW50UYKBGP","either","2","799","","","","","","","0","0","1","","0.1171098277","0.6","0.4","0.8","0.2","0.3677382912","0.1171098277","0.2312583875","0.1374012581","","","","","","","","","","","","","","74","J","1","","","136","main_expt",""
"","bandit","216","585039","0.0-178.0-0.0","38538717","wem/bandit_party_2","A15JXW50UYKBGP","either","2","764","","","","","","","1","0","0","0.2944012193","","0.6","0.4","0.8","0.2","","","","","0.2944012193","0.1390909791","0.3496768842","0.2889288236","","","","","","","","","","72","H","0","img/none_selected.jpg","","137","main_expt",""
"","bandit","217","587308","0.0-179.0-0.0","38538717","wem/bandit_party_2","A15JXW50UYKBGP","either","2","753","","","","","","","1","0","0","0.3020033879","","0.6","0.4","0.8","0.2","","","","","0.3020033879","0.1209370274","0.4217982028","0.2177367931","","","","","","","","","","72","H","0","img/none_selected.jpg","","138","main_expt",""
"","bandit","218","589467","0.0-180.0-0.0","38538717","wem/bandit_party_2","A15JXW50UYKBGP","either","2","645","","","","","","","0","1","0","","0.2908104057","0.6","0.4","0.8","0.2","0.2908104057","0.1441291996","0.5123523738","0.1704259453","","","","","","","","","","","","","","72","H","0","img/none_selected.jpg","","139","main_expt",""
"","bandit","219","591384","0.0-181.0-0.0","38538717","wem/bandit_party_2","A15JXW50UYKBGP","either","2","404","","","","","","","0","0","1","0.2738290205","","0.6","0.4","0.8","0.2","","","","","0.2738290205","0.1380406349","0.3892042576","0.1827322183","","","","","","","","","","72","H","0","img/none_selected.jpg","","140","main_expt",""
"","bandit","220","593255","0.0-182.0-0.0","38538717","wem/bandit_party_2","A15JXW50UYKBGP","either","2","359","","","","","","","0","0","1","","0.3865798498","0.6","0.4","0.8","0.2","0.3865798498","0.1312769784","0.4680147771","0.2030288612","","","","","","","","","","","","","","72","H","0","img/none_selected.jpg","","141","main_expt",""
"","bandit","221","596159","0.0-183.0-0.0","38538717","wem/bandit_party_2","A15JXW50UYKBGP","either","2","1391","","","","","","","0","0","1","0.3970866904","","0.6","0.4","0.8","0.2","","","","","0.3507917403","0.1880730553","0.3970866904","0.1760536641","","","","","","","","","","75","K","2","","","142","main_expt",""
"","bandit","222","598005","0.0-184.0-0.0","38538717","wem/bandit_party_2","A15JXW50UYKBGP","either","2","329","","","","","","","0","0","1","","0.3609481858","0.6","0.4","0.8","0.2","0.2787839286","0.1798266991","0.3609481858","0.1428921374","","","","","","","","","","","","","","75","K","2","","","143","main_expt",""
"","bandit","223","600044","0.0-185.0-0.0","38538717","wem/bandit_party_2","A15JXW50UYKBGP","either","2","523","","","","","","","0","0","1","","0.1260474704","0.6","0.4","0.8","0.2","0.2106619402","0.1881666754","0.3701270871","0.1260474704","","","","","","","","","","","","","","76","L","3","","","144","main_expt",""
"","bandit","224","601856","0.0-186.0-0.0","38538717","wem/bandit_party_2","A15JXW50UYKBGP","either","2","301","","","","","","","0","1","0","","0.151337539","0.6","0.4","0.8","0.2","0.3211677341","0.1683386122","0.3110645609","0.151337539","","","","","","","","","","","","","","76","L","3","","","145","main_expt",""
"","bandit","225","603832","0.0-187.0-0.0","38538717","wem/bandit_party_2","A15JXW50UYKBGP","either","2","464","","","","","","","0","0","1","","0.1600114734","0.6","0.4","0.8","0.2","0.4417580917","0.2609121533","0.356964637","0.1600114734","","","","","","","","","","","","","","76","L","3","","","146","main_expt",""
"","bandit","226","606044","0.0-188.0-0.0","38538717","wem/bandit_party_2","A15JXW50UYKBGP","either","2","696","","","","","","","0","0","1","","0.280259565","0.6","0.4","0.8","0.2","0.278611551","0.280259565","0.5143633813","0.1262446547","","","","","","","","","","","","","","74","J","1","","","147","main_expt",""
"","bandit","227","607924","0.0-189.0-0.0","38538717","wem/bandit_party_2","A15JXW50UYKBGP","either","2","364","","","","","","","0","0","1","","0.2972918914","0.6","0.4","0.8","0.2","0.2811332351","0.2972918914","0.5086187798","0.1030311585","","","","","","","","","","","","","","74","J","1","","","148","main_expt",""
"","bandit","228","610044","0.0-190.0-0.0","38538717","wem/bandit_party_2","A15JXW50UYKBGP","either","2","606","","","","","","","0","0","1","0.4676315778","","0.6","0.4","0.8","0.2","","","","","0.2606345315","0.3284309668","0.4676315778","0.123834606","","","","","","","","","","75","K","2","","","149","main_expt",""
"","bandit","229","612098","0.0-191.0-0.0","38538717","wem/bandit_party_2","A15JXW50UYKBGP","either","2","540","","","","","","","0","0","1","0.4737351686","","0.6","0.4","0.8","0.2","","","","","0.260677327","0.3186890608","0.4737351686","0.06566206942","","","","","","","","","","75","K","2","","","150","main_expt",""
"","bandit","230","614041","0.0-192.0-0.0","38538717","wem/bandit_party_2","A15JXW50UYKBGP","either","2","431","","","","","","","1","0","0","0.2579624968","","0.6","0.4","0.8","0.2","","","","","0.2579624968","0.3331747037","0.5387476985","0.06342121736","","","","","","","","","","72","H","0","img/none_selected.jpg","","151","main_expt",""
"","bandit","231","616329","0.0-193.0-0.0","38538717","wem/bandit_party_2","A15JXW50UYKBGP","either","2","773","","","","","","","0","0","1","0.2536911072","","0.6","0.4","0.8","0.2","","","","","0.2536911072","0.364096089","0.5065138565","0.1162046696","","","","","","","","","","72","H","0","img/none_selected.jpg","","152","main_expt",""
"","bandit","232","618498","0.0-194.0-0.0","38538717","wem/bandit_party_2","A15JXW50UYKBGP","either","2","655","","","","","","","0","0","1","0.1388943584","","0.6","0.4","0.8","0.2","","","","","0.1427943183","0.3189440566","0.5190676077","0.1388943584","","","","","","","","","","76","L","3","","","153","main_expt",""
"","bandit","233","620585","0.0-195.0-0.0","38538717","wem/bandit_party_2","A15JXW50UYKBGP","either","2","574","","","","","","","0","0","1","","0.08934943386","0.6","0.4","0.8","0.2","0.08934943386","0.486858514","0.4944482457","0.1188489222","","","","","","","","","","","","","","72","H","0","img/none_selected.jpg","","154","main_expt",""
"","bandit","234","622574","0.0-196.0-0.0","38538717","wem/bandit_party_2","A15JXW50UYKBGP","either","2","479","","","","","","","0","0","1","0.4987902374","","0.6","0.4","0.8","0.2","","","","","0.1048919666","0.398958755","0.4987902374","0.1255079792","","","","","","","","","","75","K","2","","","155","main_expt",""
"","bandit","235","624648","0.0-197.0-0.0","38538717","wem/bandit_party_2","A15JXW50UYKBGP","either","2","562","","","","","","","0","0","1","","0.3508932217","0.6","0.4","0.8","0.2","0.1348874752","0.3508932217","0.4151199053","0.1705129017","","","","","","","","","","","","","","74","J","1","","","156","main_expt",""
"","bandit","236","626491","0.0-198.0-0.0","38538717","wem/bandit_party_2","A15JXW50UYKBGP","either","2","328","","","","","","","0","1","0","","0.1197456909","0.6","0.4","0.8","0.2","0.1197456909","0.3736640956","0.4215128153","0.1892203872","","","","","","","","","","","","","","72","H","0","img/none_selected.jpg","","157","main_expt",""
"","bandit","237","628345","0.0-199.0-0.0","38538717","wem/bandit_party_2","A15JXW50UYKBGP","either","2","342","","","","","","","0","0","1","0.1343935597","","0.6","0.4","0.8","0.2","","","","","0.1343935597","0.3215678611","0.3666899102","0.1589595026","","","","","","","","","","72","H","0","img/none_selected.jpg","","158","main_expt",""
"","bandit","238","630195","0.0-200.0-0.0","38538717","wem/bandit_party_2","A15JXW50UYKBGP","either","2","336","","","","","","","0","0","1","0.04604274909","","0.6","0.4","0.8","0.2","","","","","0.04604274909","0.2732838962","0.3906786657","0.1426383857","","","","","","","","","","72","H","0","img/none_selected.jpg","","159","main_expt",""
"","bandit","239","632139","0.0-201.0-0.0","38538717","wem/bandit_party_2","A15JXW50UYKBGP","either","2","431","","","","","","","0","1","0","","0.08927965808","0.6","0.4","0.8","0.2","0.08927965808","0.2323229575","0.4769972016","0.2747613825","","","","","","","","","","","","","","72","H","0","img/none_selected.jpg","","160","main_expt",""
"","bandit","240","633985","0.0-202.0-0.0","38538717","wem/bandit_party_2","A15JXW50UYKBGP","either","2","332","","","","","","","0","0","1","","0.1038156196","0.6","0.4","0.8","0.2","0.1038156196","0.399022808","0.4405879513","0.2046882866","","","","","","","","","","","","","","72","H","0","img/none_selected.jpg","","161","main_expt",""
"","bandit","241","636672","0.0-203.0-0.0","38538717","wem/bandit_party_2","A15JXW50UYKBGP","either","2","1176","","","","","","","0","0","1","","0.44055992","0.6","0.4","0.8","0.2","0.1470739062","0.4967313539","0.44055992","0.1715152701","","","","","","","","","","","","","","75","K","2","","","162","main_expt",""
"","bandit","242","638631","0.0-204.0-0.0","38538717","wem/bandit_party_2","A15JXW50UYKBGP","either","2","448","","","","","","","0","0","1","0.3434222481","","0.6","0.4","0.8","0.2","","","","","0.1214264794","0.5245029489","0.3434222481","0.2396687428","","","","","","","","","","75","K","2","","","163","main_expt",""
"","bandit","243","640329","0.0-205.0-0.0","38538717","wem/bandit_party_2","A15JXW50UYKBGP","either","2","185","","","","","","","0","0","1","","0.3359744524","0.6","0.4","0.8","0.2","0.1563758897","0.5808119749","0.3862652833","0.3359744524","","","","","","","","","","","","","","76","L","3","","","164","main_expt",""
"","bandit","244","642163","0.0-206.0-0.0","38538717","wem/bandit_party_2","A15JXW50UYKBGP","either","2","321","","","","","","","0","0","1","","0.4940159592","0.6","0.4","0.8","0.2","0.1311500467","0.6473032069","0.4270444342","0.4940159592","","","","","","","","","","","","","","76","L","3","","","165","main_expt",""
"","bandit","245","643986","0.0-207.0-0.0","38538717","wem/bandit_party_2","A15JXW50UYKBGP","either","2","308","","","","","","","0","1","0","","0.6790689848","0.6","0.4","0.8","0.2","0.1419689761","0.6790689848","0.5073102058","0.5922229292","","","","","","","","","","","","","","74","J","1","","","166","main_expt",""
"","bandit","246","646284","0.0-208.0-0.0","38538717","wem/bandit_party_2","A15JXW50UYKBGP","either","2","783","","","","","","","0","1","0","","0.5959653185","0.6","0.4","0.8","0.2","0.150246256","0.5959653185","0.5417092253","0.5562626425","","","","","","","","","","","","","","74","J","1","","","167","main_expt",""
"","bandit","247","648130","0.0-209.0-0.0","38538717","wem/bandit_party_2","A15JXW50UYKBGP","either","2","331","","","","","","","0","0","1","0.361841396","","0.6","0.4","0.8","0.2","","","","","0.2070971521","0.361841396","0.6505471885","0.6489587791","","","","","","","","","","74","J","1","","","168","main_expt",""
"","bandit","248","650144","0.0-210.0-0.0","38538717","wem/bandit_party_2","A15JXW50UYKBGP","either","2","502","","","","","","","0","0","1","","0.2594844845","0.6","0.4","0.8","0.2","0.2564452127","0.2594844845","0.6226729341","0.5652428614","","","","","","","","","","","","","","74","J","1","","","169","main_expt",""
"","bandit","249","652042","0.0-211.0-0.0","38538717","wem/bandit_party_2","A15JXW50UYKBGP","either","2","385","","","","","","","0","0","1","0.1987556041","","0.6","0.4","0.8","0.2","","","","","0.2845729388","0.1987556041","0.7574543886","0.5344749526","","","","","","","","","","74","J","1","","","170","main_expt",""
"","bandit","250","653998","0.0-212.0-0.0","38538717","wem/bandit_party_2","A15JXW50UYKBGP","either","2","441","","","","","","","0","0","1","0.2360657399","","0.6","0.4","0.8","0.2","","","","","0.2360657399","0.1583585206","0.774201251","0.6364900983","","","","","","","","","","72","H","0","img/none_selected.jpg","","171","main_expt",""
"","bandit","251","655976","0.0-213.0-0.0","38538717","wem/bandit_party_2","A15JXW50UYKBGP","either","2","466","","","","","","","1","0","0","0.3453554921","","0.6","0.4","0.8","0.2","","","","","0.3453554921","0.1494938987","0.7739789177","0.5516193693","","","","","","","","","","72","H","0","img/none_selected.jpg","","172","main_expt",""
"","bandit","252","657961","0.0-214.0-0.0","38538717","wem/bandit_party_2","A15JXW50UYKBGP","either","2","472","","","","","","","0","0","1","","0.2909261263","0.6","0.4","0.8","0.2","0.2909261263","0.1996494969","0.7146420849","0.5081608063","","","","","","","","","","","","","","72","H","0","img/none_selected.jpg","","173","main_expt",""
"","bandit","253","660566","0.0-215.0-0.0","38538717","wem/bandit_party_2","A15JXW50UYKBGP","either","2","1095","","","","","","","0","0","1","0.3807546558","","0.6","0.4","0.8","0.2","","","","","0.3807546558","0.2200767262","0.683245412","0.5247340446","","","","","","","","","","72","H","0","img/none_selected.jpg","","174","main_expt",""
"","bandit","254","662849","0.0-216.0-0.0","38538717","wem/bandit_party_2","A15JXW50UYKBGP","either","2","770","","","","","","","0","0","1","0.3889518003","","0.6","0.4","0.8","0.2","","","","","0.3889518003","0.1929710708","0.7163731774","0.5823110366","","","","","","","","","","72","H","0","img/none_selected.jpg","","175","main_expt",""
"","bandit","255","664794","0.0-217.0-0.0","38538717","wem/bandit_party_2","A15JXW50UYKBGP","either","2","433","","","","","","","0","0","1","0.3662842853","","0.6","0.4","0.8","0.2","","","","","0.3662842853","0.1756556012","0.6676116703","0.7693722391","","","","","","","","","","72","H","0","img/none_selected.jpg","","176","main_expt",""
"","bandit","256","666749","0.0-218.0-0.0","38538717","wem/bandit_party_2","A15JXW50UYKBGP","either","2","440","","","","","","","0","0","1","0.2404611203","","0.6","0.4","0.8","0.2","","","","","0.3102656016","0.2404611203","0.711116056","0.8048595062","","","","","","","","","","74","J","1","","","177","main_expt",""
"","bandit","257","668613","0.0-219.0-0.0","38538717","wem/bandit_party_2","A15JXW50UYKBGP","either","2","347","","","","","","","0","0","1","","0.1651874793","0.6","0.4","0.8","0.2","0.3272385177","0.1651874793","0.6541247318","0.8147320782","","","","","","","","","","","","","","74","J","1","","","178","main_expt",""
"","bandit","258","670592","0.0-220.0-0.0","38538717","wem/bandit_party_2","A15JXW50UYKBGP","either","2","468","","","","","","","0","0","1","0.600925469","","0.6","0.4","0.8","0.2","","","","","0.3185807274","0.1297692321","0.600925469","0.7755432213","","","","","","","","","","75","K","2","","","179","main_expt",""
"","bandit","259","672409","0.0-221.0-0.0","38538717","wem/bandit_party_2","A15JXW50UYKBGP","either","2","305","","","","","","","1","0","0","0.6321701674","","0.6","0.4","0.8","0.2","","","","","0.3896265469","0.1311169289","0.6321701674","0.7309951384","","","","","","","","","","75","K","2","","","180","main_expt",""
"","bandit","260","674353","0.0-222.0-0.0","38538717","wem/bandit_party_2","A15JXW50UYKBGP","either","2","432","","","","","","","1","0","0","0.7040606398","","0.6","0.4","0.8","0.2","","","","","0.4381139349","0.2184653543","0.7040606398","0.8068071681","","","","","","","","","","75","K","2","","","181","main_expt",""
"","bandit","261","676303","0.0-223.0-0.0","38538717","wem/bandit_party_2","A15JXW50UYKBGP","either","2","433","","","","","","","1","0","0","0.6551517927","","0.6","0.4","0.8","0.2","","","","","0.4339703771","0.156745214","0.6551517927","0.8096694819","","","","","","","","","","75","K","2","","","182","main_expt",""
"","bandit","262","678177","0.0-224.0-0.0","38538717","wem/bandit_party_2","A15JXW50UYKBGP","either","2","362","","","","","","","1","0","0","0.7709035389","","0.6","0.4","0.8","0.2","","","","","0.5270594011","0.07710569088","0.7709035389","0.8522040983","","","","","","","","","","75","K","2","","","183","main_expt",""
"","bandit","263","680052","0.0-225.0-0.0","38538717","wem/bandit_party_2","A15JXW50UYKBGP","either","2","360","","","","","","","0","1","0","","0.7869666122","0.6","0.4","0.8","0.2","0.4791569234","0.07901501252","0.7869666122","0.8636776132","","","","","","","","","","","","","","75","K","2","","","184","main_expt",""
"","bandit","264","682164","0.0-226.0-0.0","38538717","wem/bandit_party_2","A15JXW50UYKBGP","either","2","597","","","","","","","1","0","0","0.804571828","","0.6","0.4","0.8","0.2","","","","","0.464074867","0.05695362571","0.804571828","0.8605951951","","","","","","","","","","75","K","2","","","185","main_expt",""
"","bandit","265","684141","0.0-227.0-0.0","38538717","wem/bandit_party_2","A15JXW50UYKBGP","either","2","461","","","","","","","1","0","0","0.7866627628","","0.6","0.4","0.8","0.2","","","","","0.4654947356","0.03796608352","0.7866627628","0.8578427848","","","","","","","","","","75","K","2","","","186","main_expt",""
"","bandit","266","686106","0.0-228.0-0.0","38538717","wem/bandit_party_2","A15JXW50UYKBGP","either","2","452","","","","","","","1","0","0","0.8006736442","","0.6","0.4","0.8","0.2","","","","","0.4338668179","0.05986429342","0.8006736442","0.8253306036","","","","","","","","","","75","K","2","","","187","main_expt",""
"","bandit","267","688260","0.0-229.0-0.0","38538717","wem/bandit_party_2","A15JXW50UYKBGP","either","2","640","","","","","","","0","1","0","","0.7687627789","0.6","0.4","0.8","0.2","0.4679469354","0.05827831728","0.7687627789","0.8118593573","","","","","","","","","","","","","","75","K","2","","","188","main_expt",""
"","bandit","268","690858","0.0-230.0-0.0","38538717","wem/bandit_party_2","A15JXW50UYKBGP","either","2","1085","","","","","","","0","1","0","","0.7009429779","0.6","0.4","0.8","0.2","0.4645116859","0.06499387038","0.7009429779","0.8319104568","","","","","","","","","","","","","","75","K","2","","","189","main_expt",""
"","bandit","269","692868","0.0-231.0-0.0","38538717","wem/bandit_party_2","A15JXW50UYKBGP","either","2","495","","","","","","","0","1","0","","0.7531121838","0.6","0.4","0.8","0.2","0.4260553166","0.0878029059","0.7531121838","0.8949986836","","","","","","","","","","","","","","75","K","2","","","190","main_expt",""
"","bandit","270","694769","0.0-232.0-0.0","38538717","wem/bandit_party_2","A15JXW50UYKBGP","either","2","388","","","","","","","0","1","0","","0.6174616994","0.6","0.4","0.8","0.2","0.5323747461","0.1101088583","0.6174616994","0.9258368343","","","","","","","","","","","","","","75","K","2","","","191","main_expt",""
"","bandit","271","696693","0.0-233.0-0.0","38538717","wem/bandit_party_2","A15JXW50UYKBGP","either","2","408","","","","","","","1","0","0","0.6331996982","","0.6","0.4","0.8","0.2","","","","","0.6013900654","0.1559643099","0.6331996982","0.9221438833","","","","","","","","","","75","K","2","","","192","main_expt",""
"","bandit","272","698713","0.0-234.0-0.0","38538717","wem/bandit_party_2","A15JXW50UYKBGP","either","2","510","","","","","","","1","0","0","0.5596167322","","0.6","0.4","0.8","0.2","","","","","0.5332063066","0.1348882638","0.5596167322","0.878376231","","","","","","","","","","75","K","2","","","193","main_expt",""
"","bandit","273","700956","0.0-235.0-0.0","38538717","wem/bandit_party_2","A15JXW50UYKBGP","either","2","727","","","","","","","1","0","0","0.5887018809","","0.6","0.4","0.8","0.2","","","","","0.5499496643","0.243093686","0.5887018809","0.7914694382","","","","","","","","","","75","K","2","","","194","main_expt",""
"","bandit","274","703736","0.0-236.0-0.0","38538717","wem/bandit_party_2","A15JXW50UYKBGP","either","2","1262","","","","","","","0","0","1","","0.561552955","0.6","0.4","0.8","0.2","0.4170732774","0.2792315856","0.561552955","0.7843027812","","","","","","","","","","","","","","75","K","2","","","195","main_expt",""
"","bandit","275","705643","0.0-237.0-0.0","38538717","wem/bandit_party_2","A15JXW50UYKBGP","either","2","394","","","","","","","0","1","0","","0.6199522587","0.6","0.4","0.8","0.2","0.4050854298","0.2075419965","0.6199522587","0.7888241066","","","","","","","","","","","","","","75","K","2","","","196","main_expt",""
"","bandit","276","707733","0.0-238.0-0.0","38538717","wem/bandit_party_2","A15JXW50UYKBGP","either","2","575","","","","","","","1","0","0","0.6886125155","","0.6","0.4","0.8","0.2","","","","","0.4522405917","0.1899284635","0.6886125155","0.8145025162","","","","","","","","","","75","K","2","","","197","main_expt",""
"","bandit","277","710078","0.0-239.0-0.0","38538717","wem/bandit_party_2","A15JXW50UYKBGP","either","2","831","","","","","","","1","0","0","0.6468609917","","0.6","0.4","0.8","0.2","","","","","0.4547961131","0.1632143895","0.6468609917","0.8795467387","","","","","","","","","","75","K","2","","","198","main_expt",""
"","bandit","278","712393","0.0-240.0-0.0","38538717","wem/bandit_party_2","A15JXW50UYKBGP","either","2","804","","","","","","","1","0","0","0.7134983028","","0.6","0.4","0.8","0.2","","","","","0.456709553","0.1580048483","0.7134983028","0.8716255916","","","","","","","","","","75","K","2","","","199","main_expt",""
"","bandit","279","714295","0.0-241.0-0.0","38538717","wem/bandit_party_2","A15JXW50UYKBGP","either","2","393","","","","","","","1","0","0","0.6545285445","","0.6","0.4","0.8","0.2","","","","","0.4197111003","0.1815025648","0.6545285445","0.8596876402","","","","","","","","","","75","K","2","","","200","main_expt",""
"","bandit","280","716436","0.0-242.0-0.0","38538717","wem/bandit_party_2","A15JXW50UYKBGP","either","2","627","","","","","","","0","1","0","","0.6827561938","0.6","0.4","0.8","0.2","0.4468864226","0.1453003075","0.6827561938","0.8714244785","","","","","","","","","","","","","","75","K","2","","","201","main_expt",""
"","bandit","281","718350","0.0-243.0-0.0","38538717","wem/bandit_party_2","A15JXW50UYKBGP","either","2","397","","","","","","","1","0","0","0.6590680519","","0.6","0.4","0.8","0.2","","","","","0.3852152277","0.1061510446","0.6590680519","0.8679491409","","","","","","","","","","75","K","2","","","202","main_expt",""
"","bandit","282","721077","0.0-244.0-0.0","38538717","wem/bandit_party_2","A15JXW50UYKBGP","either","2","1213","","","","","","","1","0","0","0.67998256","","0.6","0.4","0.8","0.2","","","","","0.3481501846","0.09667757311","0.67998256","0.8421855008","","","","","","","","","","75","K","2","","","203","main_expt",""
"","bandit","283","723108","0.0-245.0-0.0","38538717","wem/bandit_party_2","A15JXW50UYKBGP","either","2","517","","","","","","","1","0","0","0.7157802034","","0.6","0.4","0.8","0.2","","","","","0.3688904748","0.109576977","0.7157802034","0.8741547355","","","","","","","","","","75","K","2","","","204","main_expt",""
"","bandit","284","726033","0.0-246.0-0.0","38538717","wem/bandit_party_2","A15JXW50UYKBGP","either","2","1414","","","","","","","0","1","0","","0.6750594522","0.6","0.4","0.8","0.2","0.4196025605","0.1370524017","0.6750594522","0.8589537271","","","","","","","","","","","","","","75","K","2","","","205","main_expt",""
"","bandit","285","727943","0.0-247.0-0.0","38538717","wem/bandit_party_2","A15JXW50UYKBGP","either","2","392","","","","","","","1","0","0","0.7170784861","","0.6","0.4","0.8","0.2","","","","","0.3558717694","0.1005848846","0.7170784861","0.8009191088","","","","","","","","","","75","K","2","","","206","main_expt",""
"","bandit","286","730102","0.0-248.0-0.0","38538717","wem/bandit_party_2","A15JXW50UYKBGP","either","2","643","","","","","","","1","0","0","0.6886550294","","0.6","0.4","0.8","0.2","","","","","0.3978287694","0.1100528349","0.6886550294","0.8146279372","","","","","","","","","","75","K","2","","","207","main_expt",""
"","bandit","287","732493","0.0-249.0-0.0","38538717","wem/bandit_party_2","A15JXW50UYKBGP","either","2","878","","","","","","","1","0","0","0.7340041914","","0.6","0.4","0.8","0.2","","","","","0.3647175361","0.1165568201","0.7340041914","0.7498886323","","","","","","","","","","75","K","2","","","208","main_expt",""
"","bandit","288","734539","0.0-250.0-0.0","38538717","wem/bandit_party_2","A15JXW50UYKBGP","either","2","533","","","","","","","1","0","0","0.7108339061","","0.6","0.4","0.8","0.2","","","","","0.2942091963","0.1607141963","0.7108339061","0.781298432","","","","","","","","","","75","K","2","","","209","main_expt",""
"","bandit","289","736510","0.0-251.0-0.0","38538717","wem/bandit_party_2","A15JXW50UYKBGP","either","2","455","","","","","","","1","0","0","0.7322658343","","0.6","0.4","0.8","0.2","","","","","0.3228874634","0.2005879304","0.7322658343","0.8374694261","","","","","","","","","","75","K","2","","","210","main_expt",""
"","bandit","290","738477","0.0-252.0-0.0","38538717","wem/bandit_party_2","A15JXW50UYKBGP","either","2","453","","","","","","","0","1","0","","0.6220956771","0.6","0.4","0.8","0.2","0.3300931135","0.1999716741","0.6220956771","0.7461264045","","","","","","","","","","","","","","75","K","2","","","211","main_expt",""
"","bandit","291","740335","0.0-253.0-0.0","38538717","wem/bandit_party_2","A15JXW50UYKBGP","either","2","341","","","","","","","0","0","1","0.5400145011","","0.6","0.4","0.8","0.2","","","","","0.4044608811","0.2135957141","0.5400145011","0.7267359419","","","","","","","","","","75","K","2","","","212","main_expt",""
"","bandit","292","742186","0.0-254.0-0.0","38538717","wem/bandit_party_2","A15JXW50UYKBGP","either","2","340","","","","","","","0","0","1","0.5419994818","","0.6","0.4","0.8","0.2","","","","","0.4916994921","0.2041793084","0.5419994818","0.6529835343","","","","","","","","","","75","K","2","","","213","main_expt",""
"","bandit","293","744084","0.0-255.0-0.0","38538717","wem/bandit_party_2","A15JXW50UYKBGP","either","2","386","","","","","","","1","0","0","0.6195319152","","0.6","0.4","0.8","0.2","","","","","0.5387088508","0.2563089198","0.6195319152","0.5734554779","","","","","","","","","","75","K","2","","","214","main_expt",""
"","bandit","294","745918","0.0-256.0-0.0","38538717","wem/bandit_party_2","A15JXW50UYKBGP","either","2","318","","","","","","","1","0","0","0.7405966814","","0.6","0.4","0.8","0.2","","","","","0.567041903","0.2870699064","0.7405966814","0.7056003711","","","","","","","","","","75","K","2","","","215","main_expt",""
"","bandit","295","747780","0.0-257.0-0.0","38538717","wem/bandit_party_2","A15JXW50UYKBGP","either","2","348","","","","","","","1","0","0","0.8005734678","","0.6","0.4","0.8","0.2","","","","","0.539749723","0.2715554895","0.8005734678","0.7717913507","","","","","","","","","","75","K","2","","","216","main_expt",""
"","bandit","296","749645","0.0-258.0-0.0","38538717","wem/bandit_party_2","A15JXW50UYKBGP","either","2","350","","","","","","","0","0","1","0.8392159132","","0.6","0.4","0.8","0.2","","","","","0.3803352486","0.2027777883","0.8392159132","0.834894728","","","","","","","","","","75","K","2","","","217","main_expt",""
"","bandit","297","751734","0.0-259.0-0.0","38538717","wem/bandit_party_2","A15JXW50UYKBGP","either","2","574","","","","","","","0","1","0","","0.7445585264","0.6","0.4","0.8","0.2","0.3236333655","0.2169787163","0.7445585264","0.868580258","","","","","","","","","","","","","","75","K","2","","","218","main_expt",""
"","bandit","298","753789","0.0-260.0-0.0","38538717","wem/bandit_party_2","A15JXW50UYKBGP","either","2","541","","","","","","","0","0","1","0.7174829008","","0.6","0.4","0.8","0.2","","","","","0.2612589469","0.2292932202","0.7174829008","0.8236231074","","","","","","","","","","75","K","2","","","219","main_expt",""
"","bandit","299","755630","0.0-261.0-0.0","38538717","wem/bandit_party_2","A15JXW50UYKBGP","either","2","328","","","","","","","0","1","0","","0.6601767392","0.6","0.4","0.8","0.2","0.2228319794","0.2829053382","0.6601767392","0.7719294443","","","","","","","","","","","","","","75","K","2","","","220","main_expt",""
"","bandit","300","757587","0.0-262.0-0.0","38538717","wem/bandit_party_2","A15JXW50UYKBGP","either","2","444","","","","","","","0","1","0","","0.703996204","0.6","0.4","0.8","0.2","0.2204856404","0.2691731019","0.703996204","0.7609360252","","","","","","","","","","","","","","75","K","2","","","221","main_expt",""
"","bandit","301","759592","0.0-263.0-0.0","38538717","wem/bandit_party_2","A15JXW50UYKBGP","either","2","487","","","","","","","1","0","0","0.6188024556","","0.6","0.4","0.8","0.2","","","","","0.2269951902","0.1974112065","0.6188024556","0.7319851961","","","","","","","","","","75","K","2","","","222","main_expt",""
"","bandit","302","761328","0.0-264.0-0.0","38538717","wem/bandit_party_2","A15JXW50UYKBGP","either","2","219","","","","","","","1","0","0","0.5695888615","","0.6","0.4","0.8","0.2","","","","","0.3417830843","0.08486155027","0.5695888615","0.6994646324","","","","","","","","","","75","K","2","","","223","main_expt",""
"","bandit","303","763081","0.0-265.0-0.0","38538717","wem/bandit_party_2","A15JXW50UYKBGP","either","2","242","","","","","","","0","0","1","0.6590173842","","0.6","0.4","0.8","0.2","","","","","0.4057490183","0.1930609847","0.6590173842","0.6817307813","","","","","","","","","","75","K","2","","","224","main_expt",""
"","bandit","304","765095","0.0-266.0-0.0","38538717","wem/bandit_party_2","A15JXW50UYKBGP","either","2","497","","","","","","","1","0","0","0.6779124893","","0.6","0.4","0.8","0.2","","","","","0.4266979185","0.2026087193","0.6779124893","0.67394888","","","","","","","","","","75","K","2","","","225","main_expt",""
"","bandit","305","767207","0.0-267.0-0.0","38538717","wem/bandit_party_2","A15JXW50UYKBGP","either","2","597","","","","","","","1","0","0","0.6433757785","","0.6","0.4","0.8","0.2","","","","","0.4723095555","0.1295559036","0.6433757785","0.6520670614","","","","","","","","","","75","K","2","","","226","main_expt",""
"","bandit","306","769237","0.0-268.0-0.0","38538717","wem/bandit_party_2","A15JXW50UYKBGP","either","2","515","","","","","","","0","0","1","0.6050090536","","0.6","0.4","0.8","0.2","","","","","0.4396274322","0.1014701128","0.6050090536","0.6598054912","","","","","","","","","","75","K","2","","","227","main_expt",""
"","bandit","307","771166","0.0-269.0-0.0","38538717","wem/bandit_party_2","A15JXW50UYKBGP","either","2","414","","","","","","","0","0","1","0.5614220587","","0.6","0.4","0.8","0.2","","","","","0.4581465293","0.1374428951","0.5614220587","0.7313296172","","","","","","","","","","75","K","2","","","228","main_expt",""
"","bandit","308","773213","0.0-270.0-0.0","38538717","wem/bandit_party_2","A15JXW50UYKBGP","either","2","532","","","","","","","1","0","0","0.536938762","","0.6","0.4","0.8","0.2","","","","","0.3635076811","0.2147377822","0.536938762","0.5771612872","","","","","","","","","","75","K","2","","","229","main_expt",""
"","bandit","309","775310","0.0-271.0-0.0","38538717","wem/bandit_party_2","A15JXW50UYKBGP","either","2","582","","","","","","","0","0","1","","0.4691369301","0.6","0.4","0.8","0.2","0.4109812081","0.2128984172","0.4691369301","0.6474737632","","","","","","","","","","","","","","75","K","2","","","230","main_expt",""
"","bandit","310","777239","0.0-272.0-0.0","38538717","wem/bandit_party_2","A15JXW50UYKBGP","either","2","415","","","","","","","0","0","1","0.3801843724","","0.6","0.4","0.8","0.2","","","","","0.3769467169","0.2566260117","0.3801843724","0.77083729","","","","","","","","","","75","K","2","","","231","main_expt",""
"","bandit","311","779130","0.0-273.0-0.0","38538717","wem/bandit_party_2","A15JXW50UYKBGP","either","2","380","","","","","","","0","1","0","","0.7372448464","0.6","0.4","0.8","0.2","0.4489681289","0.307190163","0.4401380948","0.7372448464","","","","","","","","","","","","","","76","L","3","","","232","main_expt",""
"","bandit","312","781144","0.0-274.0-0.0","38538717","wem/bandit_party_2","A15JXW50UYKBGP","either","2","499","","","","","","","0","1","0","","0.8061851957","0.6","0.4","0.8","0.2","0.5191563331","0.3235632008","0.4589823784","0.8061851957","","","","","","","","","","","","","","76","L","3","","","233","main_expt",""
"","bandit","313","783047","0.0-275.0-0.0","38538717","wem/bandit_party_2","A15JXW50UYKBGP","either","2","388","","","","","","","0","1","0","","0.7628128465","0.6","0.4","0.8","0.2","0.5635532962","0.2229472669","0.412850409","0.7628128465","","","","","","","","","","","","","","76","L","3","","","234","main_expt",""
"","bandit","314","784935","0.0-276.0-0.0","38538717","wem/bandit_party_2","A15JXW50UYKBGP","either","2","365","","","","","","","0","1","0","","0.7139354314","0.6","0.4","0.8","0.2","0.6059211115","0.3245092944","0.3071086281","0.7139354314","","","","","","","","","","","","","","76","L","3","","","235","main_expt",""
"","bandit","315","786971","0.0-277.0-0.0","38538717","wem/bandit_party_2","A15JXW50UYKBGP","either","2","524","","","","","","","0","1","0","","0.8459685894","0.6","0.4","0.8","0.2","0.5767319418","0.3817813951","0.3088172556","0.8459685894","","","","","","","","","","","","","","76","L","3","","","236","main_expt",""
"","bandit","316","789606","0.0-278.0-0.0","38538717","wem/bandit_party_2","A15JXW50UYKBGP","either","2","1122","","","","","","","0","1","0","","0.8258062243","0.6","0.4","0.8","0.2","0.6195352853","0.5108794425","0.2725525041","0.8258062243","","","","","","","","","","","","","","76","L","3","","","237","main_expt",""
"","bandit","317","791450","0.0-279.0-0.0","38538717","wem/bandit_party_2","A15JXW50UYKBGP","either","2","333","","","","","","","0","1","0","","0.7390020401","0.6","0.4","0.8","0.2","0.7504070514","0.545868674","0.2929581335","0.7390020401","","","","","","","","","","","","","","76","L","3","","","238","main_expt",""
"","bandit","318","793425","0.0-280.0-0.0","38538717","wem/bandit_party_2","A15JXW50UYKBGP","either","2","458","","","","","","","0","0","1","","0.7159327665","0.6","0.4","0.8","0.2","0.7863609923","0.5696008367","0.3009301418","0.7159327665","","","","","","","","","","","","","","76","L","3","","","239","main_expt",""
