"consent","trial_type","trial_index","time_elapsed","internal_node_id","subjID","study","MID","cond","drift","rt","responses","button_pressed","key_press","like","value","connected","gems","bombs","no_reward","GemPrChosen","BombPrChosen","GainOverPainPr_0","GainOverPainPr_1","GainOverPainPr_2","GainOverPainPr_3","LosePr_0","LosePr_1","LosePr_2","LosePr_3","WinPr_0","WinPr_1","WinPr_2","WinPr_3","Q0","Q1","Q2","gender","age","ethnicity","label","expt_phase","target","respCharCode","respKey","respChoiceNum","respChoice","practice","trial_counter","trial_label","Q0_index","view_history"
"GDM/GDM_behavioral_consent_30min_online.html","consent","0","19769","0.0-0.0","39054555","wem/bandit_party_2","A35TTZLWEA1OOF","either","8","","","","","","","","","","","","","","","","","","","","","","","","","","","","","","","","","","","","","","","","","",""
"","survey-text","1","30848","0.0-1.0","39054555","wem/bandit_party_2","A35TTZLWEA1OOF","either","8","10058","{""Q0"":""A35TTZLWEA1OOF""}","","","","","","","","","","","","","","","","","","","","","","","","","","","","","","","","","","","","","","","",""
"","button-response","2","33461","0.0-2.0","39054555","wem/bandit_party_2","A35TTZLWEA1OOF","either","8","1603","","1","","","","","","","","","","","","","","","","","","","","","","","","","","","","","","","","","","","","","","",""
"","text-replacement","3","50858","0.0-3.0","39054555","wem/bandit_party_2","A35TTZLWEA1OOF","either","8","16381","","","32","","","","","","","","","","","","","","","","","","","","","","","","","","","","","","","","","","","","","",""
"","text-replacement","4","60083","0.0-4.0","39054555","wem/bandit_party_2","A35TTZLWEA1OOF","either","8","9225","","","32","","","","","","","","","","","","","","","","","","","","","","","","","","","","","","","","","","","","","",""
"","identification","5","74301","0.0-6.0-0.0","39054555","wem/bandit_party_2","A35TTZLWEA1OOF","either","8","14178","","","","2","3","1","","","","","","","","","","","","","","","","","","","","","","","","pre","identification_pre","the Republican Party","","","","","","","","",""
"","identification","6","85217","0.0-6.0-1.0","39054555","wem/bandit_party_2","A35TTZLWEA1OOF","either","8","9875","","","","4","5","4","","","","","","","","","","","","","","","","","","","","","","","","pre","identification_pre","the Democratic Party","","","","","","","","",""
"","text-replacement","7","95675","0.0-7.0","39054555","wem/bandit_party_2","A35TTZLWEA1OOF","either","8","9448","","","32","","","","","","","","","","","","","","","","","","","","","","","","","","","","","","","","","","","","","",""
"","text-replacement","8","106215","0.0-8.0","39054555","wem/bandit_party_2","A35TTZLWEA1OOF","either","8","10536","","","32","","","","","","","","","","","","","","","","","","","","","","","","","","","","","","","","","","","","","",""
"","text-replacement","9","113990","0.0-9.0","39054555","wem/bandit_party_2","A35TTZLWEA1OOF","either","8","7768","","","32","","","","","","","","","","","","","","","","","","","","","","","","","","","","","","","","","","","","","",""
"","text-replacement","10","122148","0.0-10.0","39054555","wem/bandit_party_2","A35TTZLWEA1OOF","either","8","8152","","","32","","","","","","","","","","","","","","","","","","","","","","","","","","","","","","","","","","","","","",""
"","text-replacement","11","128469","0.0-11.0","39054555","wem/bandit_party_2","A35TTZLWEA1OOF","either","8","6321","","","32","","","","","","","","","","","","","","","","","","","","","","","","","","","","","","","","","","","","","",""
"","bandit","12","131663","0.0-12.0-0.0","39054555","wem/bandit_party_2","A35TTZLWEA1OOF","either","8","1673","","","","","","","0","0","1","0","0","","","","","0","","","","0","","","","","","","","","","","","","74","J","0","img/none_selected_demo.jpg","true","0","","",""
"","bandit","13","134058","0.0-13.0-0.0","39054555","wem/bandit_party_2","A35TTZLWEA1OOF","either","8","877","","","","","","","0","0","1","0","0","","","","","0","","","","0","","","","","","","","","","","","","75","K","0","img/none_selected_demo.jpg","true","0","","",""
"","text-replacement","14","139617","0.0-14.0","39054555","wem/bandit_party_2","A35TTZLWEA1OOF","either","8","5555","","","32","","","","","","","","","","","","","","","","","","","","","","","","","","","","","","","","","","","","","",""
"","text-replacement","15","147088","0.0-15.0","39054555","wem/bandit_party_2","A35TTZLWEA1OOF","either","8","7464","","","32","","","","","","","","","","","","","","","","","","","","","","","","","","","","","","","","","","","","","",""
"","text-replacement","16","156415","0.0-16.0","39054555","wem/bandit_party_2","A35TTZLWEA1OOF","either","8","9319","","","32","","","","","","","","","","","","","","","","","","","","","","","","","","","","","","","","","","","","","",""
"","text-replacement","17","160052","0.0-17.0","39054555","wem/bandit_party_2","A35TTZLWEA1OOF","either","8","3637","","","32","","","","","","","","","","","","","","","","","","","","","","","","","","","","","","","","","","","","","",""
"","bandit","18","163180","0.0-18.0-0.0","39054555","wem/bandit_party_2","A35TTZLWEA1OOF","either","8","1613","","","","","","","0","0","1","","0.2","0.5","0.5","","","0.8","0.2","","","","","","","","","","","","","","","","75","K","1","","true","0","80_20_practice","",""
"","bandit","19","165910","0.0-18.0-1.0","39054555","wem/bandit_party_2","A35TTZLWEA1OOF","either","8","1206","","","","","","","0","0","1","","0.8","0.5","0.5","","","0.8","0.2","","","","","","","","","","","","","","","","74","J","0","img/none_selected_demo.jpg","true","0","80_20_practice","",""
"","bandit","20","168816","0.0-18.0-2.0","39054555","wem/bandit_party_2","A35TTZLWEA1OOF","either","8","1386","","","","","","","0","1","0","","0.8","0.5","0.5","","","0.8","0.2","","","","","","","","","","","","","","","","74","J","0","img/none_selected_demo.jpg","true","0","80_20_practice","",""
"","bandit","21","171113","0.0-18.0-3.0","39054555","wem/bandit_party_2","A35TTZLWEA1OOF","either","8","781","","","","","","","1","0","0","0.8","","0.5","0.5","","","","","","","0.8","0.2","","","","","","","","","","","","74","J","0","img/none_selected_demo.jpg","true","0","80_20_practice","",""
"","bandit","22","173249","0.0-18.0-4.0","39054555","wem/bandit_party_2","A35TTZLWEA1OOF","either","8","620","","","","","","","1","0","0","0.8","","0.5","0.5","","","","","","","0.8","0.2","","","","","","","","","","","","74","J","0","img/none_selected_demo.jpg","true","0","80_20_practice","",""
"","bandit","23","175134","0.0-18.0-5.0","39054555","wem/bandit_party_2","A35TTZLWEA1OOF","either","8","370","","","","","","","1","0","0","0.8","","0.5","0.5","","","","","","","0.8","0.2","","","","","","","","","","","","74","J","0","img/none_selected_demo.jpg","true","0","80_20_practice","",""
"","bandit","24","176981","0.0-18.0-6.0","39054555","wem/bandit_party_2","A35TTZLWEA1OOF","either","8","339","","","","","","","1","0","0","0.8","","0.5","0.5","","","","","","","0.8","0.2","","","","","","","","","","","","74","J","0","img/none_selected_demo.jpg","true","0","80_20_practice","",""
"","bandit","25","178765","0.0-18.0-7.0","39054555","wem/bandit_party_2","A35TTZLWEA1OOF","either","8","272","","","","","","","1","0","0","0.8","","0.5","0.5","","","","","","","0.8","0.2","","","","","","","","","","","","74","J","0","img/none_selected_demo.jpg","true","0","80_20_practice","",""
"","bandit","26","180572","0.0-18.0-8.0","39054555","wem/bandit_party_2","A35TTZLWEA1OOF","either","8","293","","","","","","","0","1","0","","0.8","0.5","0.5","","","0.8","0.2","","","","","","","","","","","","","","","","74","J","0","img/none_selected_demo.jpg","true","0","80_20_practice","",""
"","bandit","27","182368","0.0-18.0-9.0","39054555","wem/bandit_party_2","A35TTZLWEA1OOF","either","8","277","","","","","","","0","1","0","","0.8","0.5","0.5","","","0.8","0.2","","","","","","","","","","","","","","","","74","J","0","img/none_selected_demo.jpg","true","0","80_20_practice","",""
"","bandit","28","184182","0.0-18.0-10.0","39054555","wem/bandit_party_2","A35TTZLWEA1OOF","either","8","297","","","","","","","0","1","0","","0.8","0.5","0.5","","","0.8","0.2","","","","","","","","","","","","","","","","74","J","0","img/none_selected_demo.jpg","true","0","80_20_practice","",""
"","bandit","29","185890","0.0-18.0-11.0","39054555","wem/bandit_party_2","A35TTZLWEA1OOF","either","8","194","","","","","","","0","0","1","","0.8","0.5","0.5","","","0.8","0.2","","","","","","","","","","","","","","","","74","J","0","img/none_selected_demo.jpg","true","0","80_20_practice","",""
"","bandit","30","187649","0.0-18.0-12.0","39054555","wem/bandit_party_2","A35TTZLWEA1OOF","either","8","244","","","","","","","0","1","0","","0.8","0.5","0.5","","","0.8","0.2","","","","","","","","","","","","","","","","74","J","0","img/none_selected_demo.jpg","true","0","80_20_practice","",""
"","bandit","31","190078","0.0-18.0-13.0","39054555","wem/bandit_party_2","A35TTZLWEA1OOF","either","8","913","","","","","","","0","0","1","","0.2","0.5","0.5","","","0.8","0.2","","","","","","","","","","","","","","","","75","K","1","","true","0","80_20_practice","",""
"","bandit","32","191683","0.0-18.0-14.0","39054555","wem/bandit_party_2","A35TTZLWEA1OOF","either","8","88","","","","","","","1","0","0","0.8","","0.5","0.5","","","","","","","0.8","0.2","","","","","","","","","","","","74","J","0","img/none_selected_demo.jpg","true","0","80_20_practice","",""
"","bandit","33","193355","0.0-18.0-15.0","39054555","wem/bandit_party_2","A35TTZLWEA1OOF","either","8","156","","","","","","","0","0","1","","0.8","0.5","0.5","","","0.8","0.2","","","","","","","","","","","","","","","","74","J","0","img/none_selected_demo.jpg","true","0","80_20_practice","",""
"","bandit","34","195183","0.0-18.0-16.0","39054555","wem/bandit_party_2","A35TTZLWEA1OOF","either","8","307","","","","","","","1","0","0","0.8","","0.5","0.5","","","","","","","0.8","0.2","","","","","","","","","","","","74","J","0","img/none_selected_demo.jpg","true","0","80_20_practice","",""
"","bandit","35","196930","0.0-18.0-17.0","39054555","wem/bandit_party_2","A35TTZLWEA1OOF","either","8","236","","","","","","","0","0","1","","0.8","0.5","0.5","","","0.8","0.2","","","","","","","","","","","","","","","","74","J","0","img/none_selected_demo.jpg","true","0","80_20_practice","",""
"","bandit","36","199337","0.0-18.0-18.0","39054555","wem/bandit_party_2","A35TTZLWEA1OOF","either","8","890","","","","","","","1","0","0","0.8","","0.5","0.5","","","","","","","0.8","0.2","","","","","","","","","","","","74","J","0","img/none_selected_demo.jpg","true","0","80_20_practice","",""
"","bandit","37","203772","0.0-18.0-19.0","39054555","wem/bandit_party_2","A35TTZLWEA1OOF","either","8","2922","","","","","","","1","0","0","0.8","","0.5","0.5","","","","","","","0.8","0.2","","","","","","","","","","","","74","J","0","img/none_selected_demo.jpg","true","0","80_20_practice","",""
"","text-replacement","38","211055","0.0-19.0","39054555","wem/bandit_party_2","A35TTZLWEA1OOF","either","8","7280","","","32","","","","","","","","","","","","","","","","","","","","","","","","","","","","","","","","","","","","","",""
"","bandit","39","213617","0.0-20.0-0.0","39054555","wem/bandit_party_2","A35TTZLWEA1OOF","either","8","1040","","","","","","","1","0","0","1","0","","","","","0","1","","","1","0","","","","","","","","","","","","74","J","0","img/none_selected_demo.jpg","true","0","","",""
"","text-replacement","40","223990","0.0-21.0","39054555","wem/bandit_party_2","A35TTZLWEA1OOF","either","8","10369","","","32","","","","","","","","","","","","","","","","","","","","","","","","","","","","","","","","","","","","","",""
"","text-replacement","41","225967","0.0-22.0","39054555","wem/bandit_party_2","A35TTZLWEA1OOF","either","8","1969","","","32","","","","","","","","","","","","","","","","","","","","","","","","","","","","","","","","","","","","","",""
"","text-replacement","42","240580","0.0-23.0","39054555","wem/bandit_party_2","A35TTZLWEA1OOF","either","8","14609","","","32","","","","","","","","","","","","","","","","","","","","","","","","","","","","","","","","","","","","","",""
"","text-replacement","43","243588","0.0-24.0","39054555","wem/bandit_party_2","A35TTZLWEA1OOF","either","8","3004","","","32","","","","","","","","","","","","","","","","","","","","","","","","","","","","","","","","","","","","","",""
"","text-replacement","44","251191","0.0-25.0","39054555","wem/bandit_party_2","A35TTZLWEA1OOF","either","8","7592","","","32","","","","","","","","","","","","","","","","","","","","","","","","","","","","","","","","","","","","","",""
"","text-replacement","45","254422","0.0-26.0","39054555","wem/bandit_party_2","A35TTZLWEA1OOF","either","8","3227","","","32","","","","","","","","","","","","","","","","","","","","","","","","","","","","","","","","","","","","","",""
"","text-replacement","46","257745","0.0-27.0","39054555","wem/bandit_party_2","A35TTZLWEA1OOF","either","8","3315","","","32","","","","","","","","","","","","","","","","","","","","","","","","","","","","","","","","","","","","","",""
"","text-replacement","47","265787","0.0-28.0","39054555","wem/bandit_party_2","A35TTZLWEA1OOF","either","8","8042","","","32","","","","","","","","","","","","","","","","","","","","","","","","","","","","","","","","","","","","","",""
"","text-replacement","48","270687","0.0-29.0","39054555","wem/bandit_party_2","A35TTZLWEA1OOF","either","8","4900","","","32","","","","","","","","","","","","","","","","","","","","","","","","","","","","","","","","","","","","","",""
"","text-replacement","49","272132","0.0-30.0","39054555","wem/bandit_party_2","A35TTZLWEA1OOF","either","8","1445","","","32","","","","","","","","","","","","","","","","","","","","","","","","","","","","","","","","","","","","","",""
"","text-replacement","50","276523","0.0-31.0","39054555","wem/bandit_party_2","A35TTZLWEA1OOF","either","8","4385","","","32","","","","","","","","","","","","","","","","","","","","","","","","","","","","","","","","","","","","","",""
"","bandit","51","279109","0.0-32.0-0.0","39054555","wem/bandit_party_2","A35TTZLWEA1OOF","either","8","1069","","","","","","","0","0","1","0.8","","0.5","0.5","0.5","0.5","","","","","0.8","0.2","0.6","0.2","","","","","","","","","","72","H","0","img/none_selected.jpg","true","0","full_practice","",""
"","bandit","52","281179","0.0-32.0-1.0","39054555","wem/bandit_party_2","A35TTZLWEA1OOF","either","8","553","","","","","","","0","0","1","0.2","","0.5","0.5","0.5","0.5","","","","","0.8","0.2","0.6","0.2","","","","","","","","","","74","J","1","","true","0","full_practice","",""
"","bandit","53","282732","0.0-32.0-2.0","39054555","wem/bandit_party_2","A35TTZLWEA1OOF","either","8","44","","","","","","","0","0","1","","0.2","0.5","0.5","0.5","0.5","0.8","0.2","0.6","0.2","","","","","","","","","","","","","","76","L","3","","true","0","full_practice","",""
"","bandit","54","284293","0.0-32.0-3.0","39054555","wem/bandit_party_2","A35TTZLWEA1OOF","either","8","52","","","","","","","0","0","1","0.6","","0.5","0.5","0.5","0.5","","","","","0.8","0.2","0.6","0.2","","","","","","","","","","75","K","2","","true","0","full_practice","",""
"","bandit","55","285895","0.0-32.0-4.0","39054555","wem/bandit_party_2","A35TTZLWEA1OOF","either","8","90","","","","","","","0","1","0","","0.8","0.5","0.5","0.5","0.5","0.8","0.2","0.6","0.2","","","","","","","","","","","","","","72","H","0","img/none_selected.jpg","true","0","full_practice","",""
"","bandit","56","287433","0.0-32.0-5.0","39054555","wem/bandit_party_2","A35TTZLWEA1OOF","either","8","16","","","","","","","0","1","0","","0.8","0.5","0.5","0.5","0.5","0.8","0.2","0.6","0.2","","","","","","","","","","","","","","72","H","0","img/none_selected.jpg","true","0","full_practice","",""
"","bandit","57","289396","0.0-32.0-6.0","39054555","wem/bandit_party_2","A35TTZLWEA1OOF","either","8","449","","","","","","","1","0","0","0.8","","0.5","0.5","0.5","0.5","","","","","0.8","0.2","0.6","0.2","","","","","","","","","","72","H","0","img/none_selected.jpg","true","0","full_practice","",""
"","bandit","58","290977","0.0-32.0-7.0","39054555","wem/bandit_party_2","A35TTZLWEA1OOF","either","8","65","","","","","","","1","0","0","0.8","","0.5","0.5","0.5","0.5","","","","","0.8","0.2","0.6","0.2","","","","","","","","","","72","H","0","img/none_selected.jpg","true","0","full_practice","",""
"","bandit","59","292622","0.0-32.0-8.0","39054555","wem/bandit_party_2","A35TTZLWEA1OOF","either","8","129","","","","","","","0","1","0","","0.8","0.5","0.5","0.5","0.5","0.8","0.2","0.6","0.2","","","","","","","","","","","","","","72","H","0","img/none_selected.jpg","true","0","full_practice","",""
"","bandit","60","294298","0.0-32.0-9.0","39054555","wem/bandit_party_2","A35TTZLWEA1OOF","either","8","157","","","","","","","0","1","0","","0.8","0.5","0.5","0.5","0.5","0.8","0.2","0.6","0.2","","","","","","","","","","","","","","72","H","0","img/none_selected.jpg","true","0","full_practice","",""
"","bandit","61","295999","0.0-32.0-10.0","39054555","wem/bandit_party_2","A35TTZLWEA1OOF","either","8","187","","","","","","","1","0","0","0.8","","0.5","0.5","0.5","0.5","","","","","0.8","0.2","0.6","0.2","","","","","","","","","","72","H","0","img/none_selected.jpg","true","0","full_practice","",""
"","bandit","62","298336","0.0-32.0-11.0","39054555","wem/bandit_party_2","A35TTZLWEA1OOF","either","8","815","","","","","","","0","1","0","","0.8","0.5","0.5","0.5","0.5","0.8","0.2","0.6","0.2","","","","","","","","","","","","","","72","H","0","img/none_selected.jpg","true","0","full_practice","",""
"","bandit","63","300226","0.0-32.0-12.0","39054555","wem/bandit_party_2","A35TTZLWEA1OOF","either","8","372","","","","","","","0","0","1","","0.8","0.5","0.5","0.5","0.5","0.8","0.2","0.6","0.2","","","","","","","","","","","","","","72","H","0","img/none_selected.jpg","true","0","full_practice","",""
"","bandit","64","302101","0.0-32.0-13.0","39054555","wem/bandit_party_2","A35TTZLWEA1OOF","either","8","354","","","","","","","1","0","0","0.8","","0.5","0.5","0.5","0.5","","","","","0.8","0.2","0.6","0.2","","","","","","","","","","72","H","0","img/none_selected.jpg","true","0","full_practice","",""
"","bandit","65","304423","0.0-32.0-14.0","39054555","wem/bandit_party_2","A35TTZLWEA1OOF","either","8","795","","","","","","","0","0","1","","0.8","0.5","0.5","0.5","0.5","0.8","0.2","0.6","0.2","","","","","","","","","","","","","","72","H","0","img/none_selected.jpg","true","0","full_practice","",""
"","bandit","66","306082","0.0-32.0-15.0","39054555","wem/bandit_party_2","A35TTZLWEA1OOF","either","8","140","","","","","","","0","1","0","","0.8","0.5","0.5","0.5","0.5","0.8","0.2","0.6","0.2","","","","","","","","","","","","","","72","H","0","img/none_selected.jpg","true","0","full_practice","",""
"","bandit","67","307603","0.0-32.0-16.0","39054555","wem/bandit_party_2","A35TTZLWEA1OOF","either","8","0","","","","","","","0","1","0","","0.2","0.5","0.5","0.5","0.5","0.8","0.2","0.6","0.2","","","","","","","","","","","","","","74","J","1","","true","0","full_practice","",""
"","bandit","68","309238","0.0-32.0-17.0","39054555","wem/bandit_party_2","A35TTZLWEA1OOF","either","8","116","","","","","","","1","0","0","0.8","","0.5","0.5","0.5","0.5","","","","","0.8","0.2","0.6","0.2","","","","","","","","","","72","H","0","img/none_selected.jpg","true","0","full_practice","",""
"","bandit","69","311612","0.0-32.0-18.0","39054555","wem/bandit_party_2","A35TTZLWEA1OOF","either","8","854","","","","","","","0","1","0","","0.6","0.5","0.5","0.5","0.5","0.8","0.2","0.6","0.2","","","","","","","","","","","","","","75","K","2","","true","0","full_practice","",""
"","bandit","70","313563","0.0-32.0-19.0","39054555","wem/bandit_party_2","A35TTZLWEA1OOF","either","8","430","","","","","","","1","0","0","0.2","","0.5","0.5","0.5","0.5","","","","","0.8","0.2","0.6","0.2","","","","","","","","","","76","L","3","","true","0","full_practice","",""
"","text","71","318578","0.0-33.0","39054555","wem/bandit_party_2","A35TTZLWEA1OOF","either","8","4996","","","32","","","","","","","","","","","","","","","","","","","","","","","","","","","","","","","","","","","","","",""
"","text-replacement","72","332105","0.0-34.0","39054555","wem/bandit_party_2","A35TTZLWEA1OOF","either","8","12520","","","32","","","","","","","","","","","","","","","","","","","","","","","","","","","","","","","","","","","","","",""
"","text-replacement","73","344278","0.0-35.0","39054555","wem/bandit_party_2","A35TTZLWEA1OOF","either","8","12165","","","32","","","","","","","","","","","","","","","","","","","","","","","","","","","","","","","","","","","","","",""
"","text-replacement","74","349995","0.0-36.0","39054555","wem/bandit_party_2","A35TTZLWEA1OOF","either","8","5709","","","32","","","","","","","","","","","","","","","","","","","","","","","","","","","","","","","","","","","","","",""
"","text-replacement","75","356292","0.0-37.0","39054555","wem/bandit_party_2","A35TTZLWEA1OOF","either","8","6288","","","32","","","","","","","","","","","","","","","","","","","","","","","","","","","","","","","","","","","","","",""
"","text-replacement","76","361637","0.0-38.0","39054555","wem/bandit_party_2","A35TTZLWEA1OOF","either","8","5341","","","32","","","","","","","","","","","","","","","","","","","","","","","","","","","","","","","","","","","","","",""
"","survey-multi-choice-replacement","77","370823","0.0-39.0-0.0","39054555","wem/bandit_party_2","A35TTZLWEA1OOF","either","8","9160","","","","","","","","","","","","","","","","","","","","","","","","Money will be added to the pool for <span style='color:blue;'>DEMOCRATS</span>","","","","","","","attn_check","","","","","","","","","0",""
"","survey-multi-choice-replacement","78","375462","0.0-40.0-0.0","39054555","wem/bandit_party_2","A35TTZLWEA1OOF","either","8","3616","","","","","","","","","","","","","","","","","","","","","","","","Money will be subtracted from the pool for <span style='color:red;'>REPUBLICANS</span>","","","","","","","attn_check","","","","","","","","","1",""
"","instructions","79","378107","0.0-40.0-1.0-0.0","39054555","wem/bandit_party_2","A35TTZLWEA1OOF","either","8","1635","","","","","","","","","","","","","","","","","","","","","","","","","","","","","","","","","","","","","","","","","[{""page_index"":0,""viewing_time"":1635}]"
"","survey-multi-choice-replacement","80","383004","0.0-40.1-0.1","39054555","wem/bandit_party_2","A35TTZLWEA1OOF","either","8","3881","","","","","","","","","","","","","","","","","","","","","","","","Equal amounts of money will be added to the pool for <span style='color:blue;'>DEMOCRATS</span> and subtracted from the pool for <span style='color:red;'>REPUBLICANS</span>","","","","","","","attn_check","","","","","","","","","2",""
"","survey-multi-choice-replacement","81","387869","0.0-41.0-0.0","39054555","wem/bandit_party_2","A35TTZLWEA1OOF","either","8","3842","","","","","","","","","","","","","","","","","","","","","","","","No money will be added to either pool","","","","","","","attn_check","","","","","","","","","3",""
"","bandit","82","392414","0.0-42.0-0.0","39054555","wem/bandit_party_2","A35TTZLWEA1OOF","either","8","2013","","","","","","","1","0","0","0.4468950172","","0.8","0.6","0.4","0.2","","","","","0.4468950172","0.2428949588","0.6337563202","0.3040937467","","","","","","","","","","72","H","0","img/none_selected.jpg","","1","main_expt","",""
"","bandit","83","394662","0.0-43.0-0.0","39054555","wem/bandit_party_2","A35TTZLWEA1OOF","either","8","730","","","","","","","1","0","0","0.3846124694","","0.8","0.6","0.4","0.2","","","","","0.3846124694","0.248961424","0.7380673114","0.2687625136","","","","","","","","","","72","H","0","img/none_selected.jpg","","2","main_expt","",""
"","bandit","84","396592","0.0-44.0-0.0","39054555","wem/bandit_party_2","A35TTZLWEA1OOF","either","8","408","","","","","","","0","0","1","0.3885967974","","0.8","0.6","0.4","0.2","","","","","0.3885967974","0.1878604038","0.7715549737","0.3017919557","","","","","","","","","","72","H","0","img/none_selected.jpg","","3","main_expt","",""
"","bandit","85","398426","0.0-45.0-0.0","39054555","wem/bandit_party_2","A35TTZLWEA1OOF","either","8","314","","","","","","","0","0","1","0.2891644394","","0.8","0.6","0.4","0.2","","","","","0.2891644394","0.1194049449","0.8257013646","0.3388517529","","","","","","","","","","72","H","0","img/none_selected.jpg","","4","main_expt","",""
"","bandit","86","399954","0.0-46.0-0.0","39054555","wem/bandit_party_2","A35TTZLWEA1OOF","either","8","9","","","","","","","0","0","1","0.197046458","","0.8","0.6","0.4","0.2","","","","","0.2654579937","0.197046458","0.8617886559","0.389096829","","","","","","","","","","74","J","1","","","5","main_expt","",""
"","bandit","87","401714","0.0-47.0-0.0","39054555","wem/bandit_party_2","A35TTZLWEA1OOF","either","8","243","","","","","","","0","0","1","0.8452125903","","0.8","0.6","0.4","0.2","","","","","0.355160999","0.2312720201","0.8452125903","0.4799636182","","","","","","","","","","75","K","2","","","6","main_expt","",""
"","bandit","88","403542","0.0-48.0-0.0","39054555","wem/bandit_party_2","A35TTZLWEA1OOF","either","8","297","","","","","","","0","1","0","","0.5316557606","0.8","0.6","0.4","0.2","0.4733904832","0.3255591742","0.8765288384","0.5316557606","","","","","","","","","","","","","","76","L","3","","","7","main_expt","",""
"","bandit","89","405160","0.0-49.0-0.0","39054555","wem/bandit_party_2","A35TTZLWEA1OOF","either","8","102","","","","","","","0","0","1","","0.4935712437","0.8","0.6","0.4","0.2","0.4900136729","0.163151729","0.8625068071","0.4935712437","","","","","","","","","","","","","","76","L","3","","","8","main_expt","",""
"","bandit","90","406955","0.0-50.0-0.0","39054555","wem/bandit_party_2","A35TTZLWEA1OOF","either","8","280","","","","","","","0","1","0","","0.5400450001","0.8","0.6","0.4","0.2","0.4543552171","0.1671639775","0.8385781597","0.5400450001","","","","","","","","","","","","","","76","L","3","","","9","main_expt","",""
"","bandit","91","408707","0.0-51.0-0.0","39054555","wem/bandit_party_2","A35TTZLWEA1OOF","either","8","235","","","","","","","0","1","0","","0.6510952772","0.8","0.6","0.4","0.2","0.4523920981","0.1315225434","0.833356221","0.6510952772","","","","","","","","","","","","","","76","L","3","","","10","main_expt","",""
"","bandit","92","410506","0.0-52.0-0.0","39054555","wem/bandit_party_2","A35TTZLWEA1OOF","either","8","279","","","","","","","0","1","0","","0.6117649901","0.8","0.6","0.4","0.2","0.4053083118","0.1287002637","0.9030756702","0.6117649901","","","","","","","","","","","","","","76","L","3","","","11","main_expt","",""
"","bandit","93","412274","0.0-53.0-0.0","39054555","wem/bandit_party_2","A35TTZLWEA1OOF","either","8","245","","","","","","","0","0","1","","0.6360746298","0.8","0.6","0.4","0.2","0.4059907931","0.1026596936","0.9129290363","0.6360746298","","","","","","","","","","","","","","76","L","3","","","12","main_expt","",""
"","bandit","94","413920","0.0-54.0-0.0","39054555","wem/bandit_party_2","A35TTZLWEA1OOF","either","8","134","","","","","","","1","0","0","0.2934167972","","0.8","0.6","0.4","0.2","","","","","0.2934167972","0.1287514256","0.8638417716","0.5673960652","","","","","","","","","","72","H","0","img/none_selected.jpg","","13","main_expt","",""
"","bandit","95","416258","0.0-55.0-0.0","39054555","wem/bandit_party_2","A35TTZLWEA1OOF","either","8","815","","","","","","","1","0","0","0.3260927596","","0.8","0.6","0.4","0.2","","","","","0.3260927596","0.1786171179","0.787806988","0.6747725803","","","","","","","","","","72","H","0","img/none_selected.jpg","","14","main_expt","",""
"","bandit","96","418284","0.0-56.0-0.0","39054555","wem/bandit_party_2","A35TTZLWEA1OOF","either","8","504","","","","","","","0","0","1","0.3355382734","","0.8","0.6","0.4","0.2","","","","","0.3355382734","0.1459410532","0.7254212376","0.6277188345","","","","","","","","","","72","H","0","img/none_selected.jpg","","15","main_expt","",""
"","bandit","97","420302","0.0-57.0-0.0","39054555","wem/bandit_party_2","A35TTZLWEA1OOF","either","8","501","","","","","","","1","0","0","0.5435568235","","0.8","0.6","0.4","0.2","","","","","0.3040928121","0.2255600906","0.7238415528","0.5435568235","","","","","","","","","","76","L","3","","","16","main_expt","",""
"","bandit","98","422163","0.0-58.0-0.0","39054555","wem/bandit_party_2","A35TTZLWEA1OOF","either","8","344","","","","","","","0","1","0","","0.4180161478","0.8","0.6","0.4","0.2","0.2730366263","0.2052013943","0.7796243455","0.4180161478","","","","","","","","","","","","","","76","L","3","","","17","main_expt","",""
"","bandit","99","424248","0.0-59.0-0.0","39054555","wem/bandit_party_2","A35TTZLWEA1OOF","either","8","567","","","","","","","0","0","1","","0.4961111773","0.8","0.6","0.4","0.2","0.4105298721","0.1780354615","0.6928902724","0.4961111773","","","","","","","","","","","","","","76","L","3","","","18","main_expt","",""
"","bandit","100","426042","0.0-60.0-0.0","39054555","wem/bandit_party_2","A35TTZLWEA1OOF","either","8","268","","","","","","","0","1","0","","0.445530788","0.8","0.6","0.4","0.2","0.3586923344","0.1576496117","0.7658630901","0.445530788","","","","","","","","","","","","","","76","L","3","","","19","main_expt","",""
"","bandit","101","427854","0.0-61.0-0.0","39054555","wem/bandit_party_2","A35TTZLWEA1OOF","either","8","294","","","","","","","1","0","0","0.3443163705","","0.8","0.6","0.4","0.2","","","","","0.3220075653","0.1618752313","0.7584200513","0.3443163705","","","","","","","","","","76","L","3","","","20","main_expt","",""
"","bandit","102","429708","0.0-62.0-0.0","39054555","wem/bandit_party_2","A35TTZLWEA1OOF","either","8","335","","","","","","","0","1","0","","0.3012808647","0.8","0.6","0.4","0.2","0.2729660799","0.2152187387","0.7727038765","0.3012808647","","","","","","","","","","","","","","76","L","3","","","21","main_expt","",""
"","bandit","103","431488","0.0-63.0-0.0","39054555","wem/bandit_party_2","A35TTZLWEA1OOF","either","8","261","","","","","","","0","1","0","","0.2882062485","0.8","0.6","0.4","0.2","0.2712352107","0.3547982299","0.8152565923","0.2882062485","","","","","","","","","","","","","","76","L","3","","","22","main_expt","",""
"","bandit","104","433298","0.0-64.0-0.0","39054555","wem/bandit_party_2","A35TTZLWEA1OOF","either","8","291","","","","","","","0","0","1","","0.2113421372","0.8","0.6","0.4","0.2","0.3390855774","0.323805638","0.7537075358","0.2113421372","","","","","","","","","","","","","","76","L","3","","","23","main_expt","",""
"","bandit","105","435087","0.0-65.0-0.0","39054555","wem/bandit_party_2","A35TTZLWEA1OOF","either","8","261","","","","","","","0","1","0","","0.2201805416","0.8","0.6","0.4","0.2","0.3483259141","0.3588909826","0.7108822858","0.2201805416","","","","","","","","","","","","","","76","L","3","","","24","main_expt","",""
"","bandit","106","436910","0.0-66.0-0.0","39054555","wem/bandit_party_2","A35TTZLWEA1OOF","either","8","305","","","","","","","0","0","1","","0.2580956466","0.8","0.6","0.4","0.2","0.3416976173","0.3885553436","0.6930515954","0.2580956466","","","","","","","","","","","","","","76","L","3","","","25","main_expt","",""
"","bandit","107","438733","0.0-67.0-0.0","39054555","wem/bandit_party_2","A35TTZLWEA1OOF","either","8","300","","","","","","","0","0","1","0.2153432854","","0.8","0.6","0.4","0.2","","","","","0.4243476322","0.4871556374","0.6905393417","0.2153432854","","","","","","","","","","76","L","3","","","26","main_expt","",""
"","bandit","108","440505","0.0-68.0-0.0","39054555","wem/bandit_party_2","A35TTZLWEA1OOF","either","8","256","","","","","","","0","0","1","0.7531652131","","0.8","0.6","0.4","0.2","","","","","0.5257754898","0.4934119911","0.7531652131","0.1727955236","","","","","","","","","","75","K","2","","","27","main_expt","",""
"","bandit","109","442332","0.0-69.0-0.0","39054555","wem/bandit_party_2","A35TTZLWEA1OOF","either","8","304","","","","","","","0","0","1","0.4322092846","","0.8","0.6","0.4","0.2","","","","","0.5246232361","0.4322092846","0.8001777041","0.1894296703","","","","","","","","","","74","J","1","","","28","main_expt","",""
"","bandit","110","444232","0.0-70.0-0.0","39054555","wem/bandit_party_2","A35TTZLWEA1OOF","either","8","384","","","","","","","0","0","1","","0.375994784","0.8","0.6","0.4","0.2","0.375994784","0.3459113699","0.8118404327","0.2128919211","","","","","","","","","","","","","","72","H","0","img/none_selected.jpg","","29","main_expt","",""
"","bandit","111","446313","0.0-71.0-0.0","39054555","wem/bandit_party_2","A35TTZLWEA1OOF","either","8","557","","","","","","","0","0","1","0.2936890161","","0.8","0.6","0.4","0.2","","","","","0.2936890161","0.280789843","0.7839534503","0.206056468","","","","","","","","","","72","H","0","img/none_selected.jpg","","30","main_expt","",""
"","bandit","112","448096","0.0-72.0-0.0","39054555","wem/bandit_party_2","A35TTZLWEA1OOF","either","8","262","","","","","","","0","0","1","","0.2613810438","0.8","0.6","0.4","0.2","0.2878812258","0.2613810438","0.8066372971","0.1725623241","","","","","","","","","","","","","","74","J","1","","","31","main_expt","",""
"","bandit","113","449864","0.0-73.0-0.0","39054555","wem/bandit_party_2","A35TTZLWEA1OOF","either","8","245","","","","","","","0","0","1","","0.1629883914","0.8","0.6","0.4","0.2","0.2451492808","0.3821585683","0.8049259064","0.1629883914","","","","","","","","","","","","","","76","L","3","","","32","main_expt","",""
"","bandit","114","451558","0.0-74.0-0.0","39054555","wem/bandit_party_2","A35TTZLWEA1OOF","either","8","177","","","","","","","0","0","1","0.7891664673","","0.8","0.6","0.4","0.2","","","","","0.2802113289","0.2714925976","0.7891664673","0.2107911223","","","","","","","","","","75","K","2","","","33","main_expt","",""
"","bandit","115","453197","0.0-75.0-0.0","39054555","wem/bandit_party_2","A35TTZLWEA1OOF","either","8","116","","","","","","","0","0","1","","0.1025901997","0.8","0.6","0.4","0.2","0.2892342718","0.2755575364","0.7854278051","0.1025901997","","","","","","","","","","","","","","76","L","3","","","34","main_expt","",""
"","bandit","116","455010","0.0-76.0-0.0","39054555","wem/bandit_party_2","A35TTZLWEA1OOF","either","8","293","","","","","","","0","0","1","","0.1289879153","0.8","0.6","0.4","0.2","0.2486893666","0.2697856654","0.7260182018","0.1289879153","","","","","","","","","","","","","","76","L","3","","","35","main_expt","",""
"","bandit","117","456772","0.0-77.0-0.0","39054555","wem/bandit_party_2","A35TTZLWEA1OOF","either","8","232","","","","","","","0","0","1","0.3536408983","","0.8","0.6","0.4","0.2","","","","","0.3536408983","0.2483646443","0.7910957192","0.1645491317","","","","","","","","","","72","H","0","img/none_selected.jpg","","36","main_expt","",""
"","bandit","118","458472","0.0-78.0-0.0","39054555","wem/bandit_party_2","A35TTZLWEA1OOF","either","8","182","","","","","","","0","0","1","0.2493566902","","0.8","0.6","0.4","0.2","","","","","0.2493566902","0.2103950957","0.7996551039","0.1698046746","","","","","","","","","","72","H","0","img/none_selected.jpg","","37","main_expt","",""
"","bandit","119","460281","0.0-79.0-0.0","39054555","wem/bandit_party_2","A35TTZLWEA1OOF","either","8","288","","","","","","","0","0","1","","0.2128944509","0.8","0.6","0.4","0.2","0.2948354516","0.2128944509","0.6717479894","0.2281502886","","","","","","","","","","","","","","74","J","1","","","38","main_expt","",""
"","bandit","120","461950","0.0-80.0-0.0","39054555","wem/bandit_party_2","A35TTZLWEA1OOF","either","8","149","","","","","","","0","1","0","","0.7121128808","0.8","0.6","0.4","0.2","0.3373274679","0.2965153327","0.7121128808","0.1561271762","","","","","","","","","","","","","","75","K","2","","","39","main_expt","",""
"","bandit","121","463671","0.0-81.0-0.0","39054555","wem/bandit_party_2","A35TTZLWEA1OOF","either","8","201","","","","","","","0","1","0","","0.7157410044","0.8","0.6","0.4","0.2","0.4138768052","0.4447532253","0.7157410044","0.1543620621","","","","","","","","","","","","","","75","K","2","","","40","main_expt","",""
"","bandit","122","465457","0.0-82.0-0.0","39054555","wem/bandit_party_2","A35TTZLWEA1OOF","either","8","264","","","","","","","0","1","0","","0.681196038","0.8","0.6","0.4","0.2","0.438096834","0.5330008696","0.681196038","0.2271499981","","","","","","","","","","","","","","75","K","2","","","41","main_expt","",""
"","bandit","123","467255","0.0-83.0-0.0","39054555","wem/bandit_party_2","A35TTZLWEA1OOF","either","8","275","","","","","","","0","1","0","","0.6504320647","0.8","0.6","0.4","0.2","0.4185173612","0.573861049","0.6504320647","0.2882452936","","","","","","","","","","","","","","75","K","2","","","42","main_expt","",""
"","bandit","124","469143","0.0-84.0-0.0","39054555","wem/bandit_party_2","A35TTZLWEA1OOF","either","8","366","","","","","","","0","0","1","0.7369830744","","0.8","0.6","0.4","0.2","","","","","0.3796335567","0.6654349765","0.7369830744","0.298522686","","","","","","","","","","75","K","2","","","43","main_expt","",""
"","bandit","125","470782","0.0-85.0-0.0","39054555","wem/bandit_party_2","A35TTZLWEA1OOF","either","8","112","","","","","","","0","0","1","0.6797935378","","0.8","0.6","0.4","0.2","","","","","0.31766129","0.691198465","0.6797935378","0.3188886026","","","","","","","","","","75","K","2","","","44","main_expt","",""
"","bandit","126","472415","0.0-86.0-0.0","39054555","wem/bandit_party_2","A35TTZLWEA1OOF","either","8","108","","","","","","","1","0","0","0.7652674903","","0.8","0.6","0.4","0.2","","","","","0.4047397141","0.7652674903","0.6507473666","0.2705760174","","","","","","","","","","74","J","1","","","45","main_expt","",""
"","bandit","127","474431","0.0-87.0-0.0","39054555","wem/bandit_party_2","A35TTZLWEA1OOF","either","8","497","","","","","","","1","0","0","0.8065230058","","0.8","0.6","0.4","0.2","","","","","0.4961613307","0.8065230058","0.6334510787","0.2506880939","","","","","","","","","","74","J","1","","","46","main_expt","",""
"","bandit","128","476215","0.0-88.0-0.0","39054555","wem/bandit_party_2","A35TTZLWEA1OOF","either","8","262","","","","","","","1","0","0","0.7774474893","","0.8","0.6","0.4","0.2","","","","","0.4624468315","0.7774474893","0.6143175143","0.2491585872","","","","","","","","","","74","J","1","","","47","main_expt","",""
"","bandit","129","478003","0.0-89.0-0.0","39054555","wem/bandit_party_2","A35TTZLWEA1OOF","either","8","264","","","","","","","1","0","0","0.7693176975","","0.8","0.6","0.4","0.2","","","","","0.4886537242","0.7693176975","0.6404512611","0.1997021219","","","","","","","","","","74","J","1","","","48","main_expt","",""
"","bandit","130","479844","0.0-90.0-0.0","39054555","wem/bandit_party_2","A35TTZLWEA1OOF","either","8","315","","","","","","","0","1","0","","0.807419373","0.8","0.6","0.4","0.2","0.4270302022","0.807419373","0.6758621215","0.2119577724","","","","","","","","","","","","","","74","J","1","","","49","main_expt","",""
"","bandit","131","481625","0.0-91.0-0.0","39054555","wem/bandit_party_2","A35TTZLWEA1OOF","either","8","268","","","","","","","1","0","0","0.8562769227","","0.8","0.6","0.4","0.2","","","","","0.5151345658","0.8562769227","0.6873234502","0.2615271711","","","","","","","","","","74","J","1","","","50","main_expt","",""
"","bandit","132","483588","0.0-92.0-0.0","39054555","wem/bandit_party_2","A35TTZLWEA1OOF","either","8","437","","","","","","","0","1","0","","0.8705114925","0.8","0.6","0.4","0.2","0.5134524181","0.8705114925","0.7776044395","0.2764427577","","","","","","","","","","","","","","74","J","1","","","51","main_expt","",""
"","bandit","133","485421","0.0-93.0-0.0","39054555","wem/bandit_party_2","A35TTZLWEA1OOF","either","8","313","","","","","","","1","0","0","0.9310361031","","0.8","0.6","0.4","0.2","","","","","0.4842684999","0.9310361031","0.8403410939","0.3833776697","","","","","","","","","","74","J","1","","","52","main_expt","",""
"","bandit","134","487233","0.0-94.0-0.0","39054555","wem/bandit_party_2","A35TTZLWEA1OOF","either","8","291","","","","","","","1","0","0","0.905794742","","0.8","0.6","0.4","0.2","","","","","0.4412850773","0.905794742","0.8151983534","0.4356502318","","","","","","","","","","74","J","1","","","53","main_expt","",""
"","bandit","135","488965","0.0-95.0-0.0","39054555","wem/bandit_party_2","A35TTZLWEA1OOF","either","8","213","","","","","","","1","0","0","0.9391541593","","0.8","0.6","0.4","0.2","","","","","0.4397693946","0.9391541593","0.8081222638","0.4120588364","","","","","","","","","","74","J","1","","","54","main_expt","",""
"","bandit","136","490761","0.0-96.0-0.0","39054555","wem/bandit_party_2","A35TTZLWEA1OOF","either","8","272","","","","","","","1","0","0","0.9596285882","","0.8","0.6","0.4","0.2","","","","","0.3928202278","0.9596285882","0.742009976","0.2714296105","","","","","","","","","","74","J","1","","","55","main_expt","",""
"","bandit","137","492552","0.0-97.0-0.0","39054555","wem/bandit_party_2","A35TTZLWEA1OOF","either","8","270","","","","","","","0","1","0","","0.9565658233","0.8","0.6","0.4","0.2","0.4593665993","0.9565658233","0.7065076074","0.2122311877","","","","","","","","","","","","","","74","J","1","","","56","main_expt","",""
"","bandit","138","494329","0.0-98.0-0.0","39054555","wem/bandit_party_2","A35TTZLWEA1OOF","either","8","249","","","","","","","0","1","0","","0.9681540372","0.8","0.6","0.4","0.2","0.4006145211","0.9681540372","0.6860695476","0.2282278588","","","","","","","","","","","","","","74","J","1","","","57","main_expt","",""
"","bandit","139","496164","0.0-99.0-0.0","39054555","wem/bandit_party_2","A35TTZLWEA1OOF","either","8","314","","","","","","","1","0","0","0.9207083952","","0.8","0.6","0.4","0.2","","","","","0.4597890412","0.9207083952","0.742301155","0.1392076118","","","","","","","","","","74","J","1","","","58","main_expt","",""
"","bandit","140","497896","0.0-100.0-0.0","39054555","wem/bandit_party_2","A35TTZLWEA1OOF","either","8","207","","","","","","","0","1","0","","0.9178227258","0.8","0.6","0.4","0.2","0.4232266093","0.9178227258","0.5291004622","0.1706239206","","","","","","","","","","","","","","74","J","1","","","59","main_expt","",""
"","bandit","141","499748","0.0-101.0-0.0","39054555","wem/bandit_party_2","A35TTZLWEA1OOF","either","8","329","","","","","","","0","1","0","","0.8951285427","0.8","0.6","0.4","0.2","0.3565880291","0.8951285427","0.6348838793","0.1674269281","","","","","","","","","","","","","","74","J","1","","","60","main_expt","",""
"","bandit","142","501557","0.0-102.0-0.0","39054555","wem/bandit_party_2","A35TTZLWEA1OOF","either","8","288","","","","","","","1","0","0","0.8506814954","","0.8","0.6","0.4","0.2","","","","","0.3663276413","0.8506814954","0.6796423313","0.2182313474","","","","","","","","","","74","J","1","","","61","main_expt","",""
"","bandit","143","503358","0.0-103.0-0.0","39054555","wem/bandit_party_2","A35TTZLWEA1OOF","either","8","276","","","","","","","0","1","0","","0.8513854559","0.8","0.6","0.4","0.2","0.3193005293","0.8513854559","0.6928172916","0.2949218256","","","","","","","","","","","","","","74","J","1","","","62","main_expt","",""
"","bandit","144","505188","0.0-104.0-0.0","39054555","wem/bandit_party_2","A35TTZLWEA1OOF","either","8","309","","","","","","","1","0","0","0.8927579502","","0.8","0.6","0.4","0.2","","","","","0.1562068481","0.8927579502","0.6996506825","0.3170222383","","","","","","","","","","74","J","1","","","63","main_expt","",""
"","bandit","145","506825","0.0-105.0-0.0","39054555","wem/bandit_party_2","A35TTZLWEA1OOF","either","8","115","","","","","","","1","0","0","0.9217936765","","0.8","0.6","0.4","0.2","","","","","0.2300477965","0.9217936765","0.7294442249","0.3033511374","","","","","","","","","","74","J","1","","","64","main_expt","",""
"","bandit","146","508683","0.0-106.0-0.0","39054555","wem/bandit_party_2","A35TTZLWEA1OOF","either","8","336","","","","","","","1","0","0","0.9357047413","","0.8","0.6","0.4","0.2","","","","","0.2869838185","0.9357047413","0.6605354899","0.3973690147","","","","","","","","","","74","J","1","","","65","main_expt","",""
"","bandit","147","510433","0.0-107.0-0.0","39054555","wem/bandit_party_2","A35TTZLWEA1OOF","either","8","222","","","","","","","1","0","0","0.910343843","","0.8","0.6","0.4","0.2","","","","","0.3287476356","0.910343843","0.6959621059","0.4320294497","","","","","","","","","","74","J","1","","","66","main_expt","",""
"","bandit","148","512202","0.0-108.0-0.0","39054555","wem/bandit_party_2","A35TTZLWEA1OOF","either","8","246","","","","","","","1","0","0","0.9022080512","","0.8","0.6","0.4","0.2","","","","","0.3018365728","0.9022080512","0.653899752","0.3208465419","","","","","","","","","","74","J","1","","","67","main_expt","",""
"","bandit","149","513842","0.0-109.0-0.0","39054555","wem/bandit_party_2","A35TTZLWEA1OOF","either","8","116","","","","","","","1","0","0","0.8492414063","","0.8","0.6","0.4","0.2","","","","","0.3208616414","0.8492414063","0.6517851336","0.3570730799","","","","","","","","","","74","J","1","","","68","main_expt","",""
"","bandit","150","515668","0.0-110.0-0.0","39054555","wem/bandit_party_2","A35TTZLWEA1OOF","either","8","304","","","","","","","1","0","0","0.768219052","","0.8","0.6","0.4","0.2","","","","","0.386863802","0.768219052","0.7011615004","0.3451514791","","","","","","","","","","74","J","1","","","69","main_expt","",""
"","bandit","151","517503","0.0-111.0-0.0","39054555","wem/bandit_party_2","A35TTZLWEA1OOF","either","8","319","","","","","","","0","1","0","","0.7996218848","0.8","0.6","0.4","0.2","0.3628244161","0.7996218848","0.6278947594","0.3127714871","","","","","","","","","","","","","","74","J","1","","","70","main_expt","",""
"","bandit","152","519324","0.0-112.0-0.0","39054555","wem/bandit_party_2","A35TTZLWEA1OOF","either","8","297","","","","","","","0","1","0","","0.9130189757","0.8","0.6","0.4","0.2","0.2969295023","0.9130189757","0.688517509","0.3855297895","","","","","","","","","","","","","","74","J","1","","","71","main_expt","",""
"","bandit","153","521152","0.0-113.0-0.0","39054555","wem/bandit_party_2","A35TTZLWEA1OOF","either","8","313","","","","","","","1","0","0","0.9016843832","","0.8","0.6","0.4","0.2","","","","","0.3512325323","0.9016843832","0.6125440106","0.3555010044","","","","","","","","","","74","J","1","","","72","main_expt","",""
"","bandit","154","523025","0.0-114.0-0.0","39054555","wem/bandit_party_2","A35TTZLWEA1OOF","either","8","348","","","","","","","0","1","0","","0.9166584401","0.8","0.6","0.4","0.2","0.3845321254","0.9166584401","0.4884410468","0.3278360739","","","","","","","","","","","","","","74","J","1","","","73","main_expt","",""
"","bandit","155","524833","0.0-115.0-0.0","39054555","wem/bandit_party_2","A35TTZLWEA1OOF","either","8","287","","","","","","","1","0","0","0.8699410266","","0.8","0.6","0.4","0.2","","","","","0.3760614253","0.8699410266","0.5800760741","0.3275161349","","","","","","","","","","74","J","1","","","74","main_expt","",""
"","bandit","156","526644","0.0-116.0-0.0","39054555","wem/bandit_party_2","A35TTZLWEA1OOF","either","8","289","","","","","","","1","0","0","0.8192171788","","0.8","0.6","0.4","0.2","","","","","0.370831352","0.8192171788","0.6614390465","0.3454333807","","","","","","","","","","74","J","1","","","75","main_expt","",""
"","bandit","157","528455","0.0-117.0-0.0","39054555","wem/bandit_party_2","A35TTZLWEA1OOF","either","8","292","","","","","","","1","0","0","0.8990587115","","0.8","0.6","0.4","0.2","","","","","0.4008199491","0.8990587115","0.6861570843","0.4213924804","","","","","","","","","","74","J","1","","","76","main_expt","",""
"","bandit","158","530282","0.0-118.0-0.0","39054555","wem/bandit_party_2","A35TTZLWEA1OOF","either","8","311","","","","","","","0","1","0","","0.9062137116","0.8","0.6","0.4","0.2","0.3928984844","0.9062137116","0.5980737028","0.439510692","","","","","","","","","","","","","","74","J","1","","","77","main_expt","",""
"","bandit","159","532215","0.0-119.0-0.0","39054555","wem/bandit_party_2","A35TTZLWEA1OOF","either","8","410","","","","","","","0","1","0","","0.9215914722","0.8","0.6","0.4","0.2","0.4709058574","0.9215914722","0.6754083514","0.4419424199","","","","","","","","","","","","","","74","J","1","","","78","main_expt","",""
"","bandit","160","534097","0.0-120.0-0.0","39054555","wem/bandit_party_2","A35TTZLWEA1OOF","either","8","354","","","","","","","1","0","0","0.895443078","","0.8","0.6","0.4","0.2","","","","","0.4971614577","0.895443078","0.7012934339","0.5056762283","","","","","","","","","","74","J","1","","","79","main_expt","",""
"","bandit","161","536043","0.0-121.0-0.0","39054555","wem/bandit_party_2","A35TTZLWEA1OOF","either","8","419","","","","","","","1","0","0","0.7789772955","","0.8","0.6","0.4","0.2","","","","","0.4828267768","0.7789772955","0.7067798052","0.4558190996","","","","","","","","","","74","J","1","","","80","main_expt","",""
"","bandit","162","537822","0.0-122.0-0.0","39054555","wem/bandit_party_2","A35TTZLWEA1OOF","either","8","257","","","","","","","0","0","1","","0.755426824","0.8","0.6","0.4","0.2","0.4280570329","0.755426824","0.7259433061","0.4774921548","","","","","","","","","","","","","","74","J","1","","","81","main_expt","",""
"","bandit","163","539666","0.0-123.0-0.0","39054555","wem/bandit_party_2","A35TTZLWEA1OOF","either","8","319","","","","","","","0","1","0","","0.8356426425","0.8","0.6","0.4","0.2","0.486136241","0.8356426425","0.7022130872","0.3611036613","","","","","","","","","","","","","","74","J","1","","","82","main_expt","",""
"","bandit","164","541564","0.0-124.0-0.0","39054555","wem/bandit_party_2","A35TTZLWEA1OOF","either","8","372","","","","","","","0","1","0","","0.8783145762","0.8","0.6","0.4","0.2","0.3539143083","0.8783145762","0.75927227","0.3341354767","","","","","","","","","","","","","","74","J","1","","","83","main_expt","",""
"","bandit","165","543484","0.0-125.0-0.0","39054555","wem/bandit_party_2","A35TTZLWEA1OOF","either","8","400","","","","","","","1","0","0","0.9087743635","","0.8","0.6","0.4","0.2","","","","","0.374811954","0.9087743635","0.8556046088","0.288479151","","","","","","","","","","74","J","1","","","84","main_expt","",""
"","bandit","166","545332","0.0-126.0-0.0","39054555","wem/bandit_party_2","A35TTZLWEA1OOF","either","8","330","","","","","","","0","1","0","","0.8632011641","0.8","0.6","0.4","0.2","0.4518264681","0.8632011641","0.7835234447","0.3061923995","","","","","","","","","","","","","","74","J","1","","","85","main_expt","",""
"","bandit","167","547327","0.0-127.0-0.0","39054555","wem/bandit_party_2","A35TTZLWEA1OOF","either","8","470","","","","","","","1","0","0","0.8341253046","","0.8","0.6","0.4","0.2","","","","","0.461936863","0.8341253046","0.7037548709","0.3370204437","","","","","","","","","","74","J","1","","","86","main_expt","",""
"","bandit","168","549183","0.0-128.0-0.0","39054555","wem/bandit_party_2","A35TTZLWEA1OOF","either","8","329","","","","","","","0","1","0","","0.8728746981","0.8","0.6","0.4","0.2","0.3681660755","0.8728746981","0.6903674631","0.3900809043","","","","","","","","","","","","","","74","J","1","","","87","main_expt","",""
"","bandit","169","551052","0.0-129.0-0.0","39054555","wem/bandit_party_2","A35TTZLWEA1OOF","either","8","346","","","","","","","1","0","0","0.8408980459","","0.8","0.6","0.4","0.2","","","","","0.3788462328","0.8408980459","0.5883284312","0.4296615172","","","","","","","","","","74","J","1","","","88","main_expt","",""
"","bandit","170","552912","0.0-130.0-0.0","39054555","wem/bandit_party_2","A35TTZLWEA1OOF","either","8","334","","","","","","","0","1","0","","0.8585781628","0.8","0.6","0.4","0.2","0.3316952272","0.8585781628","0.5258490985","0.4636560077","","","","","","","","","","","","","","74","J","1","","","89","main_expt","",""
"","bandit","171","554707","0.0-131.0-0.0","39054555","wem/bandit_party_2","A35TTZLWEA1OOF","either","8","268","","","","","","","0","0","1","0.925840658","","0.8","0.6","0.4","0.2","","","","","0.438068917","0.925840658","0.6395041767","0.4463585346","","","","","","","","","","74","J","1","","","90","main_expt","",""
"","bandit","172","556601","0.0-132.0-0.0","39054555","wem/bandit_party_2","A35TTZLWEA1OOF","either","8","368","","","","","","","0","0","1","0.9201841885","","0.8","0.6","0.4","0.2","","","","","0.5158843935","0.9201841885","0.6931091445","0.4734463503","","","","","","","","","","74","J","1","","","91","main_expt","",""
"","bandit","173","559002","0.0-133.0-0.0","39054555","wem/bandit_party_2","A35TTZLWEA1OOF","either","8","879","","","","","","","0","1","0","","0.8508076908","0.8","0.6","0.4","0.2","0.5182757575","0.8508076908","0.6725373887","0.5248255385","","","","","","","","","","","","","","74","J","1","","","92","main_expt","",""
"","bandit","174","561058","0.0-134.0-0.0","39054555","wem/bandit_party_2","A35TTZLWEA1OOF","either","8","521","","","","","","","1","0","0","0.8106711147","","0.8","0.6","0.4","0.2","","","","","0.5498130742","0.8106711147","0.7388835399","0.3386726181","","","","","","","","","","74","J","1","","","93","main_expt","",""
"","bandit","175","562900","0.0-135.0-0.0","39054555","wem/bandit_party_2","A35TTZLWEA1OOF","either","8","320","","","","","","","1","0","0","0.8543263914","","0.8","0.6","0.4","0.2","","","","","0.6049407638","0.8543263914","0.697373586","0.3718894848","","","","","","","","","","74","J","1","","","94","main_expt","",""
"","bandit","176","566825","0.0-136.0-0.0","39054555","wem/bandit_party_2","A35TTZLWEA1OOF","either","8","2396","","","","","","","1","0","0","0.8387782901","","0.8","0.6","0.4","0.2","","","","","0.6604115927","0.8387782901","0.7550322224","0.4005278521","","","","","","","","","","74","J","1","","","95","main_expt","",""
"","bandit","177","569893","0.0-137.0-0.0","39054555","wem/bandit_party_2","A35TTZLWEA1OOF","either","8","1545","","","","","","","0","0","1","","0.8208071174","0.8","0.6","0.4","0.2","0.7003847986","0.8208071174","0.6576962358","0.3694595514","","","","","","","","","","","","","","74","J","1","","","96","main_expt","",""
"","bandit","178","571726","0.0-138.0-0.0","39054555","wem/bandit_party_2","A35TTZLWEA1OOF","either","8","309","","","","","","","1","0","0","0.765358829","","0.8","0.6","0.4","0.2","","","","","0.6793148949","0.765358829","0.6802484638","0.3186037095","","","","","","","","","","74","J","1","","","97","main_expt","",""
"","bandit","179","574071","0.0-139.0-0.0","39054555","wem/bandit_party_2","A35TTZLWEA1OOF","either","8","823","","","","","","","0","1","0","","0.7823463211","0.8","0.6","0.4","0.2","0.6204607354","0.7823463211","0.7042077447","0.2786717818","","","","","","","","","","","","","","74","J","1","","","98","main_expt","",""
"","bandit","180","576434","0.0-140.0-0.0","39054555","wem/bandit_party_2","A35TTZLWEA1OOF","either","8","835","","","","","","","0","1","0","","0.7523003034","0.8","0.6","0.4","0.2","0.6166262367","0.7523003034","0.7355617892","0.32929866","","","","","","","","","","","","","","74","J","1","","","99","main_expt","",""
"","bandit","181","580001","0.0-141.0-0.0","39054555","wem/bandit_party_2","A35TTZLWEA1OOF","either","8","2041","","","","","","","1","0","0","0.7174790615","","0.8","0.6","0.4","0.2","","","","","0.5347115766","0.7174790615","0.7117411671","0.3115323478","","","","","","","","","","74","J","1","","","100","main_expt","",""
"","bandit","182","582763","0.0-142.0-0.0","39054555","wem/bandit_party_2","A35TTZLWEA1OOF","either","8","1239","","","","","","","1","0","0","0.7660578318","","0.8","0.6","0.4","0.2","","","","","0.3418016043","0.7660578318","0.7263903312","0.4221749579","","","","","","","","","","74","J","1","","","101","main_expt","",""
"","bandit","183","588452","0.0-143.0-0.0","39054555","wem/bandit_party_2","A35TTZLWEA1OOF","either","8","4161","","","","","","","0","1","0","","0.7201180075","0.8","0.6","0.4","0.2","0.2550922237","0.7201180075","0.7357346189","0.2718078598","","","","","","","","","","","","","","74","J","1","","","102","main_expt","",""
"","bandit","184","590279","0.0-144.0-0.0","39054555","wem/bandit_party_2","A35TTZLWEA1OOF","either","8","309","","","","","","","1","0","0","0.8452780714","","0.8","0.6","0.4","0.2","","","","","0.3181696353","0.8452780714","0.7026134783","0.3011307106","","","","","","","","","","74","J","1","","","103","main_expt","",""
"","bandit","185","592138","0.0-145.0-0.0","39054555","wem/bandit_party_2","A35TTZLWEA1OOF","either","8","338","","","","","","","0","1","0","","0.7236924273","0.8","0.6","0.4","0.2","0.3383579412","0.7236924273","0.8073666152","0.3659291838","","","","","","","","","","","","","","74","J","1","","","104","main_expt","",""
"","bandit","186","593925","0.0-146.0-0.0","39054555","wem/bandit_party_2","A35TTZLWEA1OOF","either","8","268","","","","","","","1","0","0","0.743719778","","0.8","0.6","0.4","0.2","","","","","0.2354673658","0.743719778","0.824483439","0.3499435223","","","","","","","","","","74","J","1","","","105","main_expt","",""
"","bandit","187","595734","0.0-147.0-0.0","39054555","wem/bandit_party_2","A35TTZLWEA1OOF","either","8","281","","","","","","","1","0","0","0.7985687284","","0.8","0.6","0.4","0.2","","","","","0.159398249","0.7985687284","0.9208810438","0.3602262465","","","","","","","","","","74","J","1","","","106","main_expt","",""
"","bandit","188","597633","0.0-148.0-0.0","39054555","wem/bandit_party_2","A35TTZLWEA1OOF","either","8","379","","","","","","","0","1","0","","0.799345197","0.8","0.6","0.4","0.2","0.1295169146","0.799345197","0.8911910097","0.3252215163","","","","","","","","","","","","","","74","J","1","","","107","main_expt","",""
"","bandit","189","599626","0.0-149.0-0.0","39054555","wem/bandit_party_2","A35TTZLWEA1OOF","either","8","476","","","","","","","0","0","1","0.8681690713","","0.8","0.6","0.4","0.2","","","","","0.07754053308","0.8681690713","0.8450149587","0.2812406992","","","","","","","","","","74","J","1","","","108","main_expt","",""
"","bandit","190","601449","0.0-150.0-0.0","39054555","wem/bandit_party_2","A35TTZLWEA1OOF","either","8","301","","","","","","","1","0","0","0.8556732204","","0.8","0.6","0.4","0.2","","","","","0.06591215473","0.8556732204","0.868327257","0.2559497519","","","","","","","","","","74","J","1","","","109","main_expt","",""
"","bandit","191","603259","0.0-151.0-0.0","39054555","wem/bandit_party_2","A35TTZLWEA1OOF","either","8","284","","","","","","","0","1","0","","0.8669893864","0.8","0.6","0.4","0.2","0.1189546392","0.8669893864","0.8868335222","0.2817400418","","","","","","","","","","","","","","74","J","1","","","110","main_expt","",""
"","bandit","192","605011","0.0-152.0-0.0","39054555","wem/bandit_party_2","A35TTZLWEA1OOF","either","8","230","","","","","","","0","1","0","","0.799383849","0.8","0.6","0.4","0.2","0.09523351692","0.799383849","0.8770728171","0.2773620367","","","","","","","","","","","","","","74","J","1","","","111","main_expt","",""
"","bandit","193","606818","0.0-153.0-0.0","39054555","wem/bandit_party_2","A35TTZLWEA1OOF","either","8","286","","","","","","","1","0","0","0.859799476","","0.8","0.6","0.4","0.2","","","","","0.107489667","0.859799476","0.8481710002","0.2833316415","","","","","","","","","","74","J","1","","","112","main_expt","",""
"","bandit","194","608666","0.0-154.0-0.0","39054555","wem/bandit_party_2","A35TTZLWEA1OOF","either","8","321","","","","","","","0","1","0","","0.7932436089","0.8","0.6","0.4","0.2","0.1026187258","0.7932436089","0.8573528835","0.3433702059","","","","","","","","","","","","","","74","J","1","","","113","main_expt","",""
"","bandit","195","610736","0.0-155.0-0.0","39054555","wem/bandit_party_2","A35TTZLWEA1OOF","either","8","545","","","","","","","1","0","0","0.849407262","","0.8","0.6","0.4","0.2","","","","","0.1044839951","0.849407262","0.8291807482","0.4828882278","","","","","","","","","","74","J","1","","","114","main_expt","",""
"","bandit","196","612706","0.0-156.0-0.0","39054555","wem/bandit_party_2","A35TTZLWEA1OOF","either","8","447","","","","","","","0","1","0","","0.8882716547","0.8","0.6","0.4","0.2","0.1213931844","0.8882716547","0.761972944","0.54932579","","","","","","","","","","","","","","74","J","1","","","115","main_expt","",""
"","bandit","197","615632","0.0-157.0-0.0","39054555","wem/bandit_party_2","A35TTZLWEA1OOF","either","8","1399","","","","","","","1","0","0","0.8741354715","","0.8","0.6","0.4","0.2","","","","","0.1184144227","0.8741354715","0.786197192","0.6971345968","","","","","","","","","","74","J","1","","","116","main_expt","",""
"","bandit","198","617579","0.0-158.0-0.0","39054555","wem/bandit_party_2","A35TTZLWEA1OOF","either","8","431","","","","","","","0","0","1","0.8083823922","","0.8","0.6","0.4","0.2","","","","","0.1983931569","0.8083823922","0.7834453561","0.5396272374","","","","","","","","","","74","J","1","","","117","main_expt","",""
"","bandit","199","619492","0.0-159.0-0.0","39054555","wem/bandit_party_2","A35TTZLWEA1OOF","either","8","396","","","","","","","1","0","0","0.868525306","","0.8","0.6","0.4","0.2","","","","","0.2840039584","0.868525306","0.6742380839","0.5544567993","","","","","","","","","","74","J","1","","","118","main_expt","",""
"","bandit","200","625571","0.0-160.0-0.0","39054555","wem/bandit_party_2","A35TTZLWEA1OOF","either","8","4555","","","","","","","1","0","0","0.8386471998","","0.8","0.6","0.4","0.2","","","","","0.3563325119","0.8386471998","0.7350700153","0.5504896642","","","","","","","","","","74","J","1","","","119","main_expt","",""
"","bandit","201","627383","0.0-161.0-0.0","39054555","wem/bandit_party_2","A35TTZLWEA1OOF","either","8","289","","","","","","","0","1","0","","0.8103559508","0.8","0.6","0.4","0.2","0.5682387565","0.8103559508","0.70601835","0.5812137135","","","","","","","","","","","","","","74","J","1","","","120","main_expt","",""
"","bandit","202","629435","0.0-162.0-0.0","39054555","wem/bandit_party_2","A35TTZLWEA1OOF","either","8","526","","","","","","","0","0","1","0.8193015173","","0.8","0.6","0.4","0.2","","","","","0.5189107771","0.8193015173","0.7347719752","0.6033058466","","","","","","","","","","74","J","1","","","121","main_expt","",""
"","bandit","203","631152","0.0-163.0-0.0","39054555","wem/bandit_party_2","A35TTZLWEA1OOF","either","8","191","","","","","","","1","0","0","0.8025146027","","0.8","0.6","0.4","0.2","","","","","0.4428493372","0.8025146027","0.8270923978","0.6102220397","","","","","","","","","","74","J","1","","","122","main_expt","",""
"","bandit","204","633109","0.0-164.0-0.0","39054555","wem/bandit_party_2","A35TTZLWEA1OOF","either","8","432","","","","","","","1","0","0","0.8121847492","","0.8","0.6","0.4","0.2","","","","","0.472724465","0.8121847492","0.7980631313","0.6108151959","","","","","","","","","","74","J","1","","","123","main_expt","",""
"","bandit","205","634969","0.0-165.0-0.0","39054555","wem/bandit_party_2","A35TTZLWEA1OOF","either","8","332","","","","","","","0","0","1","","0.8299418439","0.8","0.6","0.4","0.2","0.4799585558","0.8299418439","0.7369852887","0.7117385939","","","","","","","","","","","","","","74","J","1","","","124","main_expt","",""
"","bandit","206","641894","0.0-166.0-0.0","39054555","wem/bandit_party_2","A35TTZLWEA1OOF","either","8","5404","","","","","","","0","0","1","","0.825688343","0.8","0.6","0.4","0.2","0.5080184993","0.825688343","0.7465944313","0.7554186078","","","","","","","","","","","","","","74","J","1","","","125","main_expt","",""
"","bandit","207","643501","0.0-167.0-0.0","39054555","wem/bandit_party_2","A35TTZLWEA1OOF","either","8","83","","","","","","","0","1","0","","0.8372054396","0.8","0.6","0.4","0.2","0.4555098289","0.8372054396","0.7596834852","0.8855751833","","","","","","","","","","","","","","74","J","1","","","126","main_expt","",""
"","bandit","208","645328","0.0-168.0-0.0","39054555","wem/bandit_party_2","A35TTZLWEA1OOF","either","8","295","","","","","","","1","0","0","0.7906689898","","0.8","0.6","0.4","0.2","","","","","0.5475411796","0.7906689898","0.7398299979","0.8003015049","","","","","","","","","","74","J","1","","","127","main_expt","",""
"","bandit","209","646887","0.0-169.0-0.0","39054555","wem/bandit_party_2","A35TTZLWEA1OOF","either","8","37","","","","","","","1","0","0","0.8008571507","","0.8","0.6","0.4","0.2","","","","","0.612647382","0.8008571507","0.7764866849","0.8403113951","","","","","","","","","","74","J","1","","","128","main_expt","",""
"","bandit","210","648714","0.0-170.0-0.0","39054555","wem/bandit_party_2","A35TTZLWEA1OOF","either","8","302","","","","","","","0","1","0","","0.7829297973","0.8","0.6","0.4","0.2","0.7128970287","0.7829297973","0.6435675963","0.8826872071","","","","","","","","","","","","","","74","J","1","","","129","main_expt","",""
"","bandit","211","650608","0.0-171.0-0.0","39054555","wem/bandit_party_2","A35TTZLWEA1OOF","either","8","360","","","","","","","0","0","1","","0.6898445721","0.8","0.6","0.4","0.2","0.7309911721","0.6898445721","0.7030252038","0.8641000085","","","","","","","","","","","","","","74","J","1","","","130","main_expt","",""
"","bandit","212","652949","0.0-172.0-0.0","39054555","wem/bandit_party_2","A35TTZLWEA1OOF","either","8","818","","","","","","","0","0","1","0.5864867529","","0.8","0.6","0.4","0.2","","","","","0.73180147","0.5864867529","0.6829232191","0.8752037592","","","","","","","","","","74","J","1","","","131","main_expt","",""
"","bandit","213","654967","0.0-173.0-0.0","39054555","wem/bandit_party_2","A35TTZLWEA1OOF","either","8","490","","","","","","","1","0","0","0.560122833","","0.8","0.6","0.4","0.2","","","","","0.8467134838","0.560122833","0.7406452387","0.8279556795","","","","","","","","","","74","J","1","","","132","main_expt","",""
"","bandit","214","656804","0.0-174.0-0.0","39054555","wem/bandit_party_2","A35TTZLWEA1OOF","either","8","316","","","","","","","0","0","1","","0.48439517","0.8","0.6","0.4","0.2","0.8481264083","0.48439517","0.6666234363","0.8194722428","","","","","","","","","","","","","","74","J","1","","","133","main_expt","",""
"","bandit","215","658714","0.0-175.0-0.0","39054555","wem/bandit_party_2","A35TTZLWEA1OOF","either","8","380","","","","","","","1","0","0","0.3919863126","","0.8","0.6","0.4","0.2","","","","","0.8771050955","0.3919863126","0.680542061","0.8037084922","","","","","","","","","","74","J","1","","","134","main_expt","",""
"","bandit","216","661438","0.0-176.0-0.0","39054555","wem/bandit_party_2","A35TTZLWEA1OOF","either","8","1195","","","","","","","1","0","0","0.5174750093","","0.8","0.6","0.4","0.2","","","","","0.9103241533","0.5174750093","0.7006187635","0.8155916457","","","","","","","","","","74","J","1","","","135","main_expt","",""
"","bandit","217","664459","0.0-177.0-0.0","39054555","wem/bandit_party_2","A35TTZLWEA1OOF","either","8","1497","","","","","","","1","0","0","0.4264762493","","0.8","0.6","0.4","0.2","","","","","0.9126032517","0.4264762493","0.6936815578","0.8281957705","","","","","","","","","","74","J","1","","","136","main_expt","",""
"","bandit","218","666277","0.0-178.0-0.0","39054555","wem/bandit_party_2","A35TTZLWEA1OOF","either","8","294","","","","","","","0","0","1","","0.5351999402","0.8","0.6","0.4","0.2","0.8983360858","0.5351999402","0.6531428085","0.7055403129","","","","","","","","","","","","","","74","J","1","","","137","main_expt","",""
"","bandit","219","668736","0.0-179.0-0.0","39054555","wem/bandit_party_2","A35TTZLWEA1OOF","either","8","931","","","","","","","0","0","1","0.4758748922","","0.8","0.6","0.4","0.2","","","","","0.8851370462","0.4758748922","0.6769758131","0.6884351598","","","","","","","","","","74","J","1","","","138","main_expt","",""
"","bandit","220","670589","0.0-180.0-0.0","39054555","wem/bandit_party_2","A35TTZLWEA1OOF","either","8","319","","","","","","","0","1","0","","0.4039793023","0.8","0.6","0.4","0.2","0.8662270416","0.4039793023","0.7649589049","0.6090423031","","","","","","","","","","","","","","74","J","1","","","139","main_expt","",""
"","bandit","221","672415","0.0-181.0-0.0","39054555","wem/bandit_party_2","A35TTZLWEA1OOF","either","8","296","","","","","","","0","0","1","0.384774136","","0.8","0.6","0.4","0.2","","","","","0.8345767194","0.384774136","0.7674202191","0.7000077187","","","","","","","","","","74","J","1","","","140","main_expt","",""
"","bandit","222","674203","0.0-182.0-0.0","39054555","wem/bandit_party_2","A35TTZLWEA1OOF","either","8","268","","","","","","","0","0","1","0.327254859","","0.8","0.6","0.4","0.2","","","","","0.8783670964","0.327254859","0.8575114448","0.6643185619","","","","","","","","","","74","J","1","","","141","main_expt","",""
"","bandit","223","675757","0.0-183.0-0.0","39054555","wem/bandit_party_2","A35TTZLWEA1OOF","either","8","27","","","","","","","1","0","0","0.8895828315","","0.8","0.6","0.4","0.2","","","","","0.8895828315","0.4536641492","0.8134430427","0.7079845674","","","","","","","","","","72","H","0","img/none_selected.jpg","","142","main_expt","",""
"","bandit","224","677321","0.0-184.0-0.0","39054555","wem/bandit_party_2","A35TTZLWEA1OOF","either","8","48","","","","","","","1","0","0","0.9053928798","","0.8","0.6","0.4","0.2","","","","","0.9053928798","0.4348486293","0.8345505038","0.6624187643","","","","","","","","","","72","H","0","img/none_selected.jpg","","143","main_expt","",""
"","bandit","225","679760","0.0-185.0-0.0","39054555","wem/bandit_party_2","A35TTZLWEA1OOF","either","8","914","","","","","","","1","0","0","0.9033088386","","0.8","0.6","0.4","0.2","","","","","0.9033088386","0.4086594597","0.7482817554","0.6779247185","","","","","","","","","","72","H","0","img/none_selected.jpg","","144","main_expt","",""
"","bandit","226","681584","0.0-186.0-0.0","39054555","wem/bandit_party_2","A35TTZLWEA1OOF","either","8","296","","","","","","","1","0","0","0.8572864227","","0.8","0.6","0.4","0.2","","","","","0.8572864227","0.4420772456","0.7400387939","0.7216102374","","","","","","","","","","72","H","0","img/none_selected.jpg","","145","main_expt","",""
"","bandit","227","683419","0.0-187.0-0.0","39054555","wem/bandit_party_2","A35TTZLWEA1OOF","either","8","316","","","","","","","1","0","0","0.8687508917","","0.8","0.6","0.4","0.2","","","","","0.8687508917","0.508741462","0.795971973","0.7837267619","","","","","","","","","","72","H","0","img/none_selected.jpg","","146","main_expt","",""
"","bandit","228","685637","0.0-188.0-0.0","39054555","wem/bandit_party_2","A35TTZLWEA1OOF","either","8","693","","","","","","","1","0","0","0.8657621525","","0.8","0.6","0.4","0.2","","","","","0.8657621525","0.4624398998","0.7503502301","0.7652264833","","","","","","","","","","72","H","0","img/none_selected.jpg","","147","main_expt","",""
"","bandit","229","687460","0.0-189.0-0.0","39054555","wem/bandit_party_2","A35TTZLWEA1OOF","either","8","300","","","","","","","1","0","0","0.8362891365","","0.8","0.6","0.4","0.2","","","","","0.8362891365","0.4062589849","0.8200474043","0.7358716413","","","","","","","","","","72","H","0","img/none_selected.jpg","","148","main_expt","",""
"","bandit","230","689607","0.0-190.0-0.0","39054555","wem/bandit_party_2","A35TTZLWEA1OOF","either","8","626","","","","","","","0","0","1","0.8144386017","","0.8","0.6","0.4","0.2","","","","","0.8144386017","0.4895331913","0.8509010271","0.7129200786","","","","","","","","","","72","H","0","img/none_selected.jpg","","149","main_expt","",""
"","bandit","231","691368","0.0-191.0-0.0","39054555","wem/bandit_party_2","A35TTZLWEA1OOF","either","8","235","","","","","","","1","0","0","0.6948055455","","0.8","0.6","0.4","0.2","","","","","0.6948055455","0.4704746919","0.8298908313","0.705531668","","","","","","","","","","72","H","0","img/none_selected.jpg","","150","main_expt","",""
"","bandit","232","693154","0.0-192.0-0.0","39054555","wem/bandit_party_2","A35TTZLWEA1OOF","either","8","269","","","","","","","1","0","0","0.6231991314","","0.8","0.6","0.4","0.2","","","","","0.6231991314","0.4725745774","0.7362749002","0.5744604188","","","","","","","","","","72","H","0","img/none_selected.jpg","","151","main_expt","",""
"","bandit","233","694907","0.0-193.0-0.0","39054555","wem/bandit_party_2","A35TTZLWEA1OOF","either","8","229","","","","","","","1","0","0","0.7045057733","","0.8","0.6","0.4","0.2","","","","","0.7045057733","0.4943906398","0.7601791643","0.5372669321","","","","","","","","","","72","H","0","img/none_selected.jpg","","152","main_expt","",""
"","bandit","234","696877","0.0-194.0-0.0","39054555","wem/bandit_party_2","A35TTZLWEA1OOF","either","8","448","","","","","","","1","0","0","0.5331338622","","0.8","0.6","0.4","0.2","","","","","0.5331338622","0.4639524782","0.7590648118","0.5447545218","","","","","","","","","","72","H","0","img/none_selected.jpg","","153","main_expt","",""
"","bandit","235","698664","0.0-195.0-0.0","39054555","wem/bandit_party_2","A35TTZLWEA1OOF","either","8","266","","","","","","","0","0","1","0.5096720896","","0.8","0.6","0.4","0.2","","","","","0.5096720896","0.3935792086","0.7805387907","0.4191749193","","","","","","","","","","72","H","0","img/none_selected.jpg","","154","main_expt","",""
"","bandit","236","700482","0.0-196.0-0.0","39054555","wem/bandit_party_2","A35TTZLWEA1OOF","either","8","289","","","","","","","1","0","0","0.4719011365","","0.8","0.6","0.4","0.2","","","","","0.4719011365","0.4127348605","0.8450805748","0.4269770229","","","","","","","","","","72","H","0","img/none_selected.jpg","","155","main_expt","",""
"","bandit","237","703145","0.0-197.0-0.0","39054555","wem/bandit_party_2","A35TTZLWEA1OOF","either","8","1141","","","","","","","0","1","0","","0.5818713095","0.8","0.6","0.4","0.2","0.5818713095","0.3697675558","0.8513110265","0.4589862704","","","","","","","","","","","","","","72","H","0","img/none_selected.jpg","","156","main_expt","",""
"","bandit","238","704880","0.0-198.0-0.0","39054555","wem/bandit_party_2","A35TTZLWEA1OOF","either","8","210","","","","","","","0","0","1","","0.5804022203","0.8","0.6","0.4","0.2","0.5804022203","0.3604398023","0.8226236001","0.5370818316","","","","","","","","","","","","","","72","H","0","img/none_selected.jpg","","157","main_expt","",""
"","bandit","239","706554","0.0-199.0-0.0","39054555","wem/bandit_party_2","A35TTZLWEA1OOF","either","8","152","","","","","","","0","0","1","","0.4773166223","0.8","0.6","0.4","0.2","0.4773166223","0.4061750625","0.8843141367","0.4757376888","","","","","","","","","","","","","","72","H","0","img/none_selected.jpg","","158","main_expt","",""
"","bandit","240","709532","0.0-200.0-0.0","39054555","wem/bandit_party_2","A35TTZLWEA1OOF","either","8","1452","","","","","","","1","0","0","0.419048585","","0.8","0.6","0.4","0.2","","","","","0.419048585","0.4696417586","0.8078798749","0.4887287223","","","","","","","","","","72","H","0","img/none_selected.jpg","","159","main_expt","",""
"","bandit","241","714229","0.0-201.0-0.0","39054555","wem/bandit_party_2","A35TTZLWEA1OOF","either","8","3173","","","","","","","0","0","1","0.4672574386","","0.8","0.6","0.4","0.2","","","","","0.4672574386","0.4659569923","0.7689164465","0.4588489809","","","","","","","","","","72","H","0","img/none_selected.jpg","","160","main_expt","",""
"","bandit","242","716241","0.0-202.0-0.0","39054555","wem/bandit_party_2","A35TTZLWEA1OOF","either","8","485","","","","","","","0","0","1","0.5612985374","","0.8","0.6","0.4","0.2","","","","","0.5612985374","0.3947207546","0.7863156869","0.4920004413","","","","","","","","","","72","H","0","img/none_selected.jpg","","161","main_expt","",""
"","bandit","243","719564","0.0-203.0-0.0","39054555","wem/bandit_party_2","A35TTZLWEA1OOF","either","8","1794","","","","","","","1","0","0","0.5288680036","","0.8","0.6","0.4","0.2","","","","","0.5288680036","0.2460097942","0.8098475403","0.5389881207","","","","","","","","","","72","H","0","img/none_selected.jpg","","162","main_expt","",""
"","bandit","244","721362","0.0-204.0-0.0","39054555","wem/bandit_party_2","A35TTZLWEA1OOF","either","8","268","","","","","","","1","0","0","0.6096883849","","0.8","0.6","0.4","0.2","","","","","0.6096883849","0.3603606056","0.8222712862","0.6040136001","","","","","","","","","","72","H","0","img/none_selected.jpg","","163","main_expt","",""
"","bandit","245","723324","0.0-205.0-0.0","39054555","wem/bandit_party_2","A35TTZLWEA1OOF","either","8","437","","","","","","","0","0","1","0.4868922288","","0.8","0.6","0.4","0.2","","","","","0.4868922288","0.2507209727","0.7876031225","0.623756827","","","","","","","","","","72","H","0","img/none_selected.jpg","","164","main_expt","",""
"","bandit","246","728670","0.0-206.0-0.0","39054555","wem/bandit_party_2","A35TTZLWEA1OOF","either","8","3819","","","","","","","0","1","0","","0.4055552053","0.8","0.6","0.4","0.2","0.4055552053","0.2162043423","0.7435052823","0.6164515281","","","","","","","","","","","","","","72","H","0","img/none_selected.jpg","","165","main_expt","",""
"","bandit","247","730455","0.0-207.0-0.0","39054555","wem/bandit_party_2","A35TTZLWEA1OOF","either","8","262","","","","","","","0","0","1","0.4748236382","","0.8","0.6","0.4","0.2","","","","","0.4748236382","0.2573409732","0.6545739251","0.4660222187","","","","","","","","","","72","H","0","img/none_selected.jpg","","166","main_expt","",""
"","bandit","248","732222","0.0-208.0-0.0","39054555","wem/bandit_party_2","A35TTZLWEA1OOF","either","8","236","","","","","","","0","0","1","","0.4016088623","0.8","0.6","0.4","0.2","0.4725242185","0.4016088623","0.6645907447","0.3336058786","","","","","","","","","","","","","","74","J","1","","","167","main_expt","",""
"","bandit","249","733783","0.0-209.0-0.0","39054555","wem/bandit_party_2","A35TTZLWEA1OOF","either","8","36","","","","","","","0","0","1","","0.7243751722","0.8","0.6","0.4","0.2","0.4775208721","0.5522858252","0.7243751722","0.2887723434","","","","","","","","","","","","","","75","K","2","","","168","main_expt","",""
"","bandit","250","736602","0.0-210.0-0.0","39054555","wem/bandit_party_2","A35TTZLWEA1OOF","either","8","1291","","","","","","","0","0","1","0.3357056981","","0.8","0.6","0.4","0.2","","","","","0.4682732781","0.5461138513","0.6453105543","0.3357056981","","","","","","","","","","76","L","3","","","169","main_expt","",""
"","bandit","251","738449","0.0-211.0-0.0","39054555","wem/bandit_party_2","A35TTZLWEA1OOF","either","8","309","","","","","","","0","0","1","0.4246621539","","0.8","0.6","0.4","0.2","","","","","0.4246621539","0.4402798015","0.5334010147","0.4179693295","","","","","","","","","","72","H","0","img/none_selected.jpg","","170","main_expt","",""
"","bandit","252","753277","0.0-212.0-0.0","39054555","wem/bandit_party_2","A35TTZLWEA1OOF","either","8","13305","","","","","","","0","0","1","","0.2843380906","0.8","0.6","0.4","0.2","0.2843380906","0.450294849","0.498122785","0.3050406521","","","","","","","","","","","","","","72","H","0","img/none_selected.jpg","","171","main_expt","",""
"","bandit","253","755517","0.0-213.0-0.0","39054555","wem/bandit_party_2","A35TTZLWEA1OOF","either","8","709","","","","","","","0","1","0","","0.6475755847","0.8","0.6","0.4","0.2","0.2668952485","0.6475755847","0.4356988635","0.3364500029","","","","","","","","","","","","","","74","J","1","","","172","main_expt","",""
"","bandit","254","757242","0.0-214.0-0.0","39054555","wem/bandit_party_2","A35TTZLWEA1OOF","either","8","191","","","","","","","0","0","1","","0.6095255177","0.8","0.6","0.4","0.2","0.3802819164","0.6095255177","0.3964199688","0.421339117","","","","","","","","","","","","","","74","J","1","","","173","main_expt","",""
"","bandit","255","759039","0.0-215.0-0.0","39054555","wem/bandit_party_2","A35TTZLWEA1OOF","either","8","276","","","","","","","0","0","1","0.4042455133","","0.8","0.6","0.4","0.2","","","","","0.4042455133","0.5003628493","0.3194345802","0.4913704717","","","","","","","","","","72","H","0","img/none_selected.jpg","","174","main_expt","",""
"","bandit","256","760632","0.0-216.0-0.0","39054555","wem/bandit_party_2","A35TTZLWEA1OOF","either","8","65","","","","","","","1","0","0","0.5576212716","","0.8","0.6","0.4","0.2","","","","","0.4393989914","0.5576212716","0.2865230234","0.5882611891","","","","","","","","","","74","J","1","","","175","main_expt","",""
"","bandit","257","762342","0.0-217.0-0.0","39054555","wem/bandit_party_2","A35TTZLWEA1OOF","either","8","175","","","","","","","0","0","1","0.6230679906","","0.8","0.6","0.4","0.2","","","","","0.4705173801","0.6230679906","0.3352692614","0.6313830356","","","","","","","","","","74","J","1","","","176","main_expt","",""
"","bandit","258","764089","0.0-218.0-0.0","39054555","wem/bandit_party_2","A35TTZLWEA1OOF","either","8","220","","","","","","","1","0","0","0.6501784685","","0.8","0.6","0.4","0.2","","","","","0.4698597734","0.6501784685","0.3389264817","0.5531265137","","","","","","","","","","74","J","1","","","177","main_expt","",""
"","bandit","259","766255","0.0-219.0-0.0","39054555","wem/bandit_party_2","A35TTZLWEA1OOF","either","8","641","","","","","","","0","1","0","","0.6334155083","0.8","0.6","0.4","0.2","0.3570804947","0.6334155083","0.3709673039","0.4621004187","","","","","","","","","","","","","","74","J","1","","","178","main_expt","",""
"","bandit","260","770908","0.0-220.0-0.0","39054555","wem/bandit_party_2","A35TTZLWEA1OOF","either","8","3122","","","","","","","1","0","0","0.7548338289","","0.8","0.6","0.4","0.2","","","","","0.3441184995","0.7548338289","0.2940579202","0.512884041","","","","","","","","","","74","J","1","","","179","main_expt","",""
"","bandit","261","779598","0.0-221.0-0.0","39054555","wem/bandit_party_2","A35TTZLWEA1OOF","either","8","7157","","","","","","","1","0","0","0.8074073351","","0.8","0.6","0.4","0.2","","","","","0.3646136501","0.8074073351","0.3218724025","0.506744284","","","","","","","","","","74","J","1","","","180","main_expt","",""
"","bandit","262","782317","0.0-222.0-0.0","39054555","wem/bandit_party_2","A35TTZLWEA1OOF","either","8","1183","","","","","","","0","1","0","","0.780721516","0.8","0.6","0.4","0.2","0.3777688814","0.780721516","0.3633286182","0.4556494723","","","","","","","","","","","","","","74","J","1","","","181","main_expt","",""
"","bandit","263","784284","0.0-223.0-0.0","39054555","wem/bandit_party_2","A35TTZLWEA1OOF","either","8","440","","","","","","","1","0","0","0.7647415088","","0.8","0.6","0.4","0.2","","","","","0.4578236703","0.7647415088","0.3324048704","0.4494525508","","","","","","","","","","74","J","1","","","182","main_expt","",""
"","bandit","264","786325","0.0-224.0-0.0","39054555","wem/bandit_party_2","A35TTZLWEA1OOF","either","8","514","","","","","","","1","0","0","0.7349307529","","0.8","0.6","0.4","0.2","","","","","0.4244895098","0.7349307529","0.3092830871","0.5189143621","","","","","","","","","","74","J","1","","","183","main_expt","",""
"","bandit","265","795467","0.0-225.0-0.0","39054555","wem/bandit_party_2","A35TTZLWEA1OOF","either","8","7613","","","","","","","0","1","0","","0.8298088288","0.8","0.6","0.4","0.2","0.3566779322","0.8298088288","0.3905692936","0.5167606333","","","","","","","","","","","","","","74","J","1","","","184","main_expt","",""
"","bandit","266","797369","0.0-226.0-0.0","39054555","wem/bandit_party_2","A35TTZLWEA1OOF","either","8","380","","","","","","","1","0","0","0.7894193193","","0.8","0.6","0.4","0.2","","","","","0.3737416658","0.7894193193","0.4626192444","0.5270237034","","","","","","","","","","74","J","1","","","185","main_expt","",""
"","bandit","267","804068","0.0-227.0-0.0","39054555","wem/bandit_party_2","A35TTZLWEA1OOF","either","8","5170","","","","","","","0","0","1","0.7665022487","","0.8","0.6","0.4","0.2","","","","","0.3120176694","0.7665022487","0.6061762586","0.5556036571","","","","","","","","","","74","J","1","","","186","main_expt","",""
"","bandit","268","808280","0.0-228.0-0.0","39054555","wem/bandit_party_2","A35TTZLWEA1OOF","either","8","2680","","","","","","","0","1","0","","0.7394266891","0.8","0.6","0.4","0.2","0.4134691065","0.7394266891","0.530958695","0.5865134094","","","","","","","","","","","","","","74","J","1","","","187","main_expt","",""
"","bandit","269","811743","0.0-229.0-0.0","39054555","wem/bandit_party_2","A35TTZLWEA1OOF","either","8","1934","","","","","","","0","0","1","0.6567361442","","0.8","0.6","0.4","0.2","","","","","0.4637770407","0.6567361442","0.380024655","0.5034866795","","","","","","","","","","74","J","1","","","188","main_expt","",""
"","bandit","270","813569","0.0-230.0-0.0","39054555","wem/bandit_party_2","A35TTZLWEA1OOF","either","8","298","","","","","","","1","0","0","0.6572443956","","0.8","0.6","0.4","0.2","","","","","0.5739034088","0.6572443956","0.4563575644","0.5761715841","","","","","","","","","","74","J","1","","","189","main_expt","",""
"","bandit","271","815296","0.0-231.0-0.0","39054555","wem/bandit_party_2","A35TTZLWEA1OOF","either","8","200","","","","","","","1","0","0","0.6735764162","","0.8","0.6","0.4","0.2","","","","","0.5859504021","0.6735764162","0.4540853102","0.5325489933","","","","","","","","","","74","J","1","","","190","main_expt","",""
"","bandit","272","818022","0.0-232.0-0.0","39054555","wem/bandit_party_2","A35TTZLWEA1OOF","either","8","1197","","","","","","","1","0","0","0.5997518312","","0.8","0.6","0.4","0.2","","","","","0.5325822721","0.5997518312","0.4328006462","0.5614919892","","","","","","","","","","74","J","1","","","191","main_expt","",""
"","bandit","273","819934","0.0-233.0-0.0","39054555","wem/bandit_party_2","A35TTZLWEA1OOF","either","8","380","","","","","","","0","1","0","","0.6582178794","0.8","0.6","0.4","0.2","0.4622441745","0.6582178794","0.4979354652","0.5972832049","","","","","","","","","","","","","","74","J","1","","","192","main_expt","",""
"","bandit","274","821879","0.0-234.0-0.0","39054555","wem/bandit_party_2","A35TTZLWEA1OOF","either","8","416","","","","","","","0","1","0","","0.7246172867","0.8","0.6","0.4","0.2","0.4765036663","0.7246172867","0.4887187701","0.6997951875","","","","","","","","","","","","","","74","J","1","","","193","main_expt","",""
"","bandit","275","823661","0.0-235.0-0.0","39054555","wem/bandit_party_2","A35TTZLWEA1OOF","either","8","251","","","","","","","0","0","1","","0.7721250451","0.8","0.6","0.4","0.2","0.4504155567","0.7721250451","0.4993882896","0.7511051992","","","","","","","","","","","","","","74","J","1","","","194","main_expt","",""
"","bandit","276","825648","0.0-236.0-0.0","39054555","wem/bandit_party_2","A35TTZLWEA1OOF","either","8","457","","","","","","","1","0","0","0.8366496483","","0.8","0.6","0.4","0.2","","","","","0.4354252764","0.8366496483","0.5011331455","0.8281457055","","","","","","","","","","74","J","1","","","195","main_expt","",""
"","bandit","277","827443","0.0-237.0-0.0","39054555","wem/bandit_party_2","A35TTZLWEA1OOF","either","8","261","","","","","","","1","0","0","0.8484646997","","0.8","0.6","0.4","0.2","","","","","0.4170899215","0.8484646997","0.4487960683","0.8248544968","","","","","","","","","","74","J","1","","","196","main_expt","",""
"","bandit","278","829165","0.0-238.0-0.0","39054555","wem/bandit_party_2","A35TTZLWEA1OOF","either","8","196","","","","","","","1","0","0","0.8734060335","","0.8","0.6","0.4","0.2","","","","","0.4149059055","0.8734060335","0.3975590019","0.8532714289","","","","","","","","","","74","J","1","","","197","main_expt","",""
"","bandit","279","830877","0.0-239.0-0.0","39054555","wem/bandit_party_2","A35TTZLWEA1OOF","either","8","190","","","","","","","0","0","1","0.8515360685","","0.8","0.6","0.4","0.2","","","","","0.4737306044","0.8515360685","0.4161601929","0.7587337752","","","","","","","","","","74","J","1","","","198","main_expt","",""
"","bandit","280","832796","0.0-240.0-0.0","39054555","wem/bandit_party_2","A35TTZLWEA1OOF","either","8","395","","","","","","","1","0","0","0.8805923715","","0.8","0.6","0.4","0.2","","","","","0.4541760911","0.8805923715","0.4483979408","0.8124408481","","","","","","","","","","74","J","1","","","199","main_expt","",""
"","bandit","281","834746","0.0-241.0-0.0","39054555","wem/bandit_party_2","A35TTZLWEA1OOF","either","8","417","","","","","","","1","0","0","0.9645818821","","0.8","0.6","0.4","0.2","","","","","0.3964714959","0.9645818821","0.5303380975","0.7935778268","","","","","","","","","","74","J","1","","","200","main_expt","",""
"","bandit","282","836291","0.0-242.0-0.0","39054555","wem/bandit_party_2","A35TTZLWEA1OOF","either","8","12","","","","","","","0","1","0","","0.9689478708","0.8","0.6","0.4","0.2","0.3815447649","0.9689478708","0.4014045657","0.736942723","","","","","","","","","","","","","","74","J","1","","","201","main_expt","",""
"","bandit","283","838238","0.0-243.0-0.0","39054555","wem/bandit_party_2","A35TTZLWEA1OOF","either","8","432","","","","","","","0","1","0","","0.9678291885","0.8","0.6","0.4","0.2","0.3726367513","0.9678291885","0.5115169607","0.7001951276","","","","","","","","","","","","","","74","J","1","","","202","main_expt","",""
"","bandit","284","840023","0.0-244.0-0.0","39054555","wem/bandit_party_2","A35TTZLWEA1OOF","either","8","268","","","","","","","0","1","0","","0.9633244117","0.8","0.6","0.4","0.2","0.3062653216","0.9633244117","0.5026191452","0.7209300446","","","","","","","","","","","","","","74","J","1","","","203","main_expt","",""
"","bandit","285","841828","0.0-245.0-0.0","39054555","wem/bandit_party_2","A35TTZLWEA1OOF","either","8","276","","","","","","","1","0","0","0.9730812582","","0.8","0.6","0.4","0.2","","","","","0.2848501254","0.9730812582","0.4736298566","0.8574132932","","","","","","","","","","74","J","1","","","204","main_expt","",""
"","bandit","286","843518","0.0-246.0-0.0","39054555","wem/bandit_party_2","A35TTZLWEA1OOF","either","8","157","","","","","","","1","0","0","0.9521206422","","0.8","0.6","0.4","0.2","","","","","0.3457586416","0.9521206422","0.6121858428","0.9038760074","","","","","","","","","","74","J","1","","","205","main_expt","",""
"","bandit","287","849847","0.0-247.0-0.0","39054555","wem/bandit_party_2","A35TTZLWEA1OOF","either","8","4800","","","","","","","0","1","0","","0.9614764056","0.8","0.6","0.4","0.2","0.4609097875","0.9614764056","0.6377028942","0.9273356803","","","","","","","","","","","","","","74","J","1","","","206","main_expt","",""
"","bandit","288","859270","0.0-248.0-0.0","39054555","wem/bandit_party_2","A35TTZLWEA1OOF","either","8","7900","","","","","","","1","0","0","0.9625830716","","0.8","0.6","0.4","0.2","","","","","0.4980316736","0.9625830716","0.5700483165","0.9502037039","","","","","","","","","","74","J","1","","","207","main_expt","",""
"","bandit","289","860850","0.0-249.0-0.0","39054555","wem/bandit_party_2","A35TTZLWEA1OOF","either","8","56","","","","","","","0","1","0","","0.9359306517","0.8","0.6","0.4","0.2","0.4537691537","0.9359306517","0.624428721","0.944094639","","","","","","","","","","","","","","74","J","1","","","208","main_expt","",""
"","bandit","290","863072","0.0-250.0-0.0","39054555","wem/bandit_party_2","A35TTZLWEA1OOF","either","8","697","","","","","","","0","1","0","","0.9632917203","0.8","0.6","0.4","0.2","0.4475842875","0.9632917203","0.4861871301","0.9070839441","","","","","","","","","","","","","","74","J","1","","","209","main_expt","",""
"","bandit","291","865050","0.0-251.0-0.0","39054555","wem/bandit_party_2","A35TTZLWEA1OOF","either","8","446","","","","","","","0","1","0","","0.9633226214","0.8","0.6","0.4","0.2","0.4803454055","0.9633226214","0.3956361612","0.8960653589","","","","","","","","","","","","","","74","J","1","","","210","main_expt","",""
"","bandit","292","866970","0.0-252.0-0.0","39054555","wem/bandit_party_2","A35TTZLWEA1OOF","either","8","389","","","","","","","1","0","0","0.9719781217","","0.8","0.6","0.4","0.2","","","","","0.4126443349","0.9719781217","0.3599204452","0.9155455821","","","","","","","","","","74","J","1","","","211","main_expt","",""
"","bandit","293","869059","0.0-253.0-0.0","39054555","wem/bandit_party_2","A35TTZLWEA1OOF","either","8","564","","","","","","","1","0","0","0.9700781686","","0.8","0.6","0.4","0.2","","","","","0.3384802849","0.9700781686","0.3349000901","0.9087954588","","","","","","","","","","74","J","1","","","212","main_expt","",""
"","bandit","294","870906","0.0-254.0-0.0","39054555","wem/bandit_party_2","A35TTZLWEA1OOF","either","8","313","","","","","","","1","0","0","0.971165811","","0.8","0.6","0.4","0.2","","","","","0.3039242722","0.971165811","0.3183344176","0.8528540962","","","","","","","","","","74","J","1","","","213","main_expt","",""
"","bandit","295","872781","0.0-255.0-0.0","39054555","wem/bandit_party_2","A35TTZLWEA1OOF","either","8","341","","","","","","","1","0","0","0.9627117","","0.8","0.6","0.4","0.2","","","","","0.4541530846","0.9627117","0.2390758011","0.8506041988","","","","","","","","","","74","J","1","","","214","main_expt","",""
"","bandit","296","874522","0.0-256.0-0.0","39054555","wem/bandit_party_2","A35TTZLWEA1OOF","either","8","209","","","","","","","0","1","0","","0.9552130497","0.8","0.6","0.4","0.2","0.5101749692","0.9552130497","0.1997060473","0.8001829978","","","","","","","","","","","","","","74","J","1","","","215","main_expt","",""
"","bandit","297","876346","0.0-257.0-0.0","39054555","wem/bandit_party_2","A35TTZLWEA1OOF","either","8","289","","","","","","","1","0","0","0.9220350188","","0.8","0.6","0.4","0.2","","","","","0.5580520347","0.9220350188","0.2326539104","0.733614842","","","","","","","","","","74","J","1","","","216","main_expt","",""
"","bandit","298","878237","0.0-258.0-0.0","39054555","wem/bandit_party_2","A35TTZLWEA1OOF","either","8","359","","","","","","","1","0","0","0.8736667029","","0.8","0.6","0.4","0.2","","","","","0.4368451062","0.8736667029","0.2319826337","0.7479737912","","","","","","","","","","74","J","1","","","217","main_expt","",""
"","bandit","299","880035","0.0-259.0-0.0","39054555","wem/bandit_party_2","A35TTZLWEA1OOF","either","8","268","","","","","","","0","1","0","","0.7602784417","0.8","0.6","0.4","0.2","0.3963441813","0.7602784417","0.3143382807","0.7713398237","","","","","","","","","","","","","","74","J","1","","","218","main_expt","",""
"","bandit","300","881956","0.0-260.0-0.0","39054555","wem/bandit_party_2","A35TTZLWEA1OOF","either","8","390","","","","","","","1","0","0","0.7643050859","","0.8","0.6","0.4","0.2","","","","","0.4809426617","0.7643050859","0.3304972923","0.8077055691","","","","","","","","","","74","J","1","","","219","main_expt","",""
"","bandit","301","883647","0.0-261.0-0.0","39054555","wem/bandit_party_2","A35TTZLWEA1OOF","either","8","161","","","","","","","1","0","0","0.7793587236","","0.8","0.6","0.4","0.2","","","","","0.397759556","0.7793587236","0.2866104843","0.7778114837","","","","","","","","","","74","J","1","","","220","main_expt","",""
"","bandit","302","885342","0.0-262.0-0.0","39054555","wem/bandit_party_2","A35TTZLWEA1OOF","either","8","173","","","","","","","1","0","0","0.82086311","","0.8","0.6","0.4","0.2","","","","","0.4087677593","0.82086311","0.3602561646","0.7214198583","","","","","","","","","","74","J","1","","","221","main_expt","",""
"","bandit","303","886960","0.0-263.0-0.0","39054555","wem/bandit_party_2","A35TTZLWEA1OOF","either","8","88","","","","","","","1","0","0","0.8543662658","","0.8","0.6","0.4","0.2","","","","","0.4561280915","0.8543662658","0.3228749062","0.8091526303","","","","","","","","","","74","J","1","","","222","main_expt","",""
"","bandit","304","888765","0.0-264.0-0.0","39054555","wem/bandit_party_2","A35TTZLWEA1OOF","either","8","274","","","","","","","1","0","0","0.8599459829","","0.8","0.6","0.4","0.2","","","","","0.4419858618","0.8599459829","0.2549485676","0.8240838469","","","","","","","","","","74","J","1","","","223","main_expt","",""
"","bandit","305","890560","0.0-265.0-0.0","39054555","wem/bandit_party_2","A35TTZLWEA1OOF","either","8","268","","","","","","","1","0","0","0.8747991669","","0.8","0.6","0.4","0.2","","","","","0.494409337","0.8747991669","0.2389333491","0.7670685714","","","","","","","","","","74","J","1","","","224","main_expt","",""
"","bandit","306","892429","0.0-266.0-0.0","39054555","wem/bandit_party_2","A35TTZLWEA1OOF","either","8","343","","","","","","","0","0","1","","0.7910409491","0.8","0.6","0.4","0.2","0.3713348049","0.7910409491","0.1517307125","0.8775689376","","","","","","","","","","","","","","74","J","1","","","225","main_expt","",""
"","bandit","307","894312","0.0-267.0-0.0","39054555","wem/bandit_party_2","A35TTZLWEA1OOF","either","8","355","","","","","","","0","1","0","","0.7212928749","0.8","0.6","0.4","0.2","0.4013452417","0.7212928749","0.1002450003","0.8846504348","","","","","","","","","","","","","","74","J","1","","","226","main_expt","",""
"","bandit","308","896181","0.0-268.0-0.0","39054555","wem/bandit_party_2","A35TTZLWEA1OOF","either","8","337","","","","","","","1","0","0","0.7090989562","","0.8","0.6","0.4","0.2","","","","","0.393451628","0.7090989562","0.1049945928","0.851087938","","","","","","","","","","74","J","1","","","227","main_expt","",""
"","bandit","309","900285","0.0-269.0-0.0","39054555","wem/bandit_party_2","A35TTZLWEA1OOF","either","8","2574","","","","","","","0","1","0","","0.6606736223","0.8","0.6","0.4","0.2","0.4175844788","0.6606736223","0.03915988122","0.9074720337","","","","","","","","","","","","","","74","J","1","","","228","main_expt","",""
"","bandit","310","912145","0.0-270.0-0.0","39054555","wem/bandit_party_2","A35TTZLWEA1OOF","either","8","10334","","","","","","","1","0","0","0.6893924153","","0.8","0.6","0.4","0.2","","","","","0.408368909","0.6893924153","0.03767516843","0.872332114","","","","","","","","","","74","J","1","","","229","main_expt","",""
"","bandit","311","913821","0.0-271.0-0.0","39054555","wem/bandit_party_2","A35TTZLWEA1OOF","either","8","143","","","","","","","0","0","1","","0.6067604319","0.8","0.6","0.4","0.2","0.4777699032","0.6067604319","0.05804790214","0.7967167456","","","","","","","","","","","","","","74","J","1","","","230","main_expt","",""
"","bandit","312","915467","0.0-272.0-0.0","39054555","wem/bandit_party_2","A35TTZLWEA1OOF","either","8","116","","","","","","","0","0","1","","0.5037419277","0.8","0.6","0.4","0.2","0.4935442242","0.5037419277","0.04963095007","0.7760618079","","","","","","","","","","","","","","74","J","1","","","231","main_expt","",""
"","bandit","313","918430","0.0-273.0-0.0","39054555","wem/bandit_party_2","A35TTZLWEA1OOF","either","8","1430","","","","","","","0","0","1","0.4889590317","","0.8","0.6","0.4","0.2","","","","","0.4889590317","0.4339479185","0.03759782928","0.7765467853","","","","","","","","","","72","H","0","img/none_selected.jpg","","232","main_expt","",""
"","bandit","314","920977","0.0-274.0-0.0","39054555","wem/bandit_party_2","A35TTZLWEA1OOF","either","8","1026","","","","","","","1","0","0","0.4525546635","","0.8","0.6","0.4","0.2","","","","","0.5212294662","0.4525546635","0.03147013274","0.7895219362","","","","","","","","","","74","J","1","","","233","main_expt","",""
