"consent","trial_type","trial_index","time_elapsed","internal_node_id","subjID","study","MID","cond","drift","rt","responses","button_pressed","key_press","like","value","connected","gems","bombs","no_reward","GemPrChosen","BombPrChosen","GainOverPainPr_0","GainOverPainPr_1","GainOverPainPr_2","GainOverPainPr_3","LosePr_0","LosePr_1","LosePr_2","LosePr_3","WinPr_0","WinPr_1","WinPr_2","WinPr_3","Q0","Q1","Q2","gender","age","ethnicity","label","expt_phase","target","respCharCode","respKey","respChoiceNum","respChoice","practice","trial_counter","trial_label","Q0_index","view_history"
"GDM/GDM_behavioral_consent_30min_online.html","consent","0","27669","0.0-0.0","39517486","wem/bandit_party_2","A19XD3FEXHERAQ","either","4","","","","","","","","","","","","","","","","","","","","","","","","","","","","","","","","","","","","","","","","","",""
"","survey-text","1","30953","0.0-1.0","39517486","wem/bandit_party_2","A19XD3FEXHERAQ","either","4","2263","{""Q0"":""A19XD3FEXHERAQ""}","","","","","","","","","","","","","","","","","","","","","","","","","","","","","","","","","","","","","","","",""
"","button-response","2","33674","0.0-2.0","39517486","wem/bandit_party_2","A19XD3FEXHERAQ","either","4","1712","","1","","","","","","","","","","","","","","","","","","","","","","","","","","","","","","","","","","","","","","",""
"","text-replacement","3","44916","0.0-3.0","39517486","wem/bandit_party_2","A19XD3FEXHERAQ","either","4","10235","","","32","","","","","","","","","","","","","","","","","","","","","","","","","","","","","","","","","","","","","",""
"","text-replacement","4","49571","0.0-4.0","39517486","wem/bandit_party_2","A19XD3FEXHERAQ","either","4","4651","","","32","","","","","","","","","","","","","","","","","","","","","","","","","","","","","","","","","","","","","",""
"","identification","5","54378","0.0-6.0-0.0","39517486","wem/bandit_party_2","A19XD3FEXHERAQ","either","4","4777","","","","4","4","4","","","","","","","","","","","","","","","","","","","","","","","","pre","identification_pre","the Democratic Party","","","","","","","","",""
"","identification","6","58986","0.0-6.0-1.0","39517486","wem/bandit_party_2","A19XD3FEXHERAQ","either","4","3581","","","","4","5","4","","","","","","","","","","","","","","","","","","","","","","","","pre","identification_pre","the Republican Party","","","","","","","","",""
"","text-replacement","7","71509","0.0-7.0","39517486","wem/bandit_party_2","A19XD3FEXHERAQ","either","4","11517","","","32","","","","","","","","","","","","","","","","","","","","","","","","","","","","","","","","","","","","","",""
"","text-replacement","8","74436","0.0-8.0","39517486","wem/bandit_party_2","A19XD3FEXHERAQ","either","4","2923","","","32","","","","","","","","","","","","","","","","","","","","","","","","","","","","","","","","","","","","","",""
"","text-replacement","9","76094","0.0-9.0","39517486","wem/bandit_party_2","A19XD3FEXHERAQ","either","4","1653","","","32","","","","","","","","","","","","","","","","","","","","","","","","","","","","","","","","","","","","","",""
"","text-replacement","10","78461","0.0-10.0","39517486","wem/bandit_party_2","A19XD3FEXHERAQ","either","4","2365","","","32","","","","","","","","","","","","","","","","","","","","","","","","","","","","","","","","","","","","","",""
"","text-replacement","11","80612","0.0-11.0","39517486","wem/bandit_party_2","A19XD3FEXHERAQ","either","4","2146","","","32","","","","","","","","","","","","","","","","","","","","","","","","","","","","","","","","","","","","","",""
"","bandit","12","83801","0.0-12.0-0.0","39517486","wem/bandit_party_2","A19XD3FEXHERAQ","either","4","1670","","","","","","","0","0","1","0","0","","","","","0","","","","0","","","","","","","","","","","","","74","J","0","img/none_selected_demo.jpg","true","0","","",""
"","bandit","13","86515","0.0-13.0-0.0","39517486","wem/bandit_party_2","A19XD3FEXHERAQ","either","4","1199","","","","","","","0","0","1","0","0","","","","","0","","","","0","","","","","","","","","","","","","75","K","0","img/none_selected_demo.jpg","true","0","","",""
"","text-replacement","14","92484","0.0-14.0","39517486","wem/bandit_party_2","A19XD3FEXHERAQ","either","4","5965","","","32","","","","","","","","","","","","","","","","","","","","","","","","","","","","","","","","","","","","","",""
"","text-replacement","15","94624","0.0-15.0","39517486","wem/bandit_party_2","A19XD3FEXHERAQ","either","4","2136","","","32","","","","","","","","","","","","","","","","","","","","","","","","","","","","","","","","","","","","","",""
"","text-replacement","16","99862","0.0-16.0","39517486","wem/bandit_party_2","A19XD3FEXHERAQ","either","4","5235","","","32","","","","","","","","","","","","","","","","","","","","","","","","","","","","","","","","","","","","","",""
"","text-replacement","17","103233","0.0-17.0","39517486","wem/bandit_party_2","A19XD3FEXHERAQ","either","4","3367","","","32","","","","","","","","","","","","","","","","","","","","","","","","","","","","","","","","","","","","","",""
"","bandit","18","105408","0.0-18.0-0.0","39517486","wem/bandit_party_2","A19XD3FEXHERAQ","either","4","663","","","","","","","0","1","0","","0.8","0.5","0.5","","","0.8","0.2","","","","","","","","","","","","","","","","74","J","0","img/none_selected_demo.jpg","true","0","80_20_practice","",""
"","bandit","19","107342","0.0-18.0-1.0","39517486","wem/bandit_party_2","A19XD3FEXHERAQ","either","4","421","","","","","","","1","0","0","0.8","","0.5","0.5","","","","","","","0.8","0.2","","","","","","","","","","","","74","J","0","img/none_selected_demo.jpg","true","0","80_20_practice","",""
"","bandit","20","109448","0.0-18.0-2.0","39517486","wem/bandit_party_2","A19XD3FEXHERAQ","either","4","592","","","","","","","0","1","0","","0.8","0.5","0.5","","","0.8","0.2","","","","","","","","","","","","","","","","74","J","0","img/none_selected_demo.jpg","true","0","80_20_practice","",""
"","bandit","21","111470","0.0-18.0-3.0","39517486","wem/bandit_party_2","A19XD3FEXHERAQ","either","4","507","","","","","","","0","1","0","","0.8","0.5","0.5","","","0.8","0.2","","","","","","","","","","","","","","","","74","J","0","img/none_selected_demo.jpg","true","0","80_20_practice","",""
"","bandit","22","113395","0.0-18.0-4.0","39517486","wem/bandit_party_2","A19XD3FEXHERAQ","either","4","415","","","","","","","0","1","0","","0.2","0.5","0.5","","","0.8","0.2","","","","","","","","","","","","","","","","75","K","1","","true","0","80_20_practice","",""
"","bandit","23","115218","0.0-18.0-5.0","39517486","wem/bandit_party_2","A19XD3FEXHERAQ","either","4","310","","","","","","","1","0","0","0.2","","0.5","0.5","","","","","","","0.8","0.2","","","","","","","","","","","","75","K","1","","true","0","80_20_practice","",""
"","bandit","24","117001","0.0-18.0-6.0","39517486","wem/bandit_party_2","A19XD3FEXHERAQ","either","4","272","","","","","","","0","0","1","0.2","","0.5","0.5","","","","","","","0.8","0.2","","","","","","","","","","","","75","K","1","","true","0","80_20_practice","",""
"","bandit","25","118759","0.0-18.0-7.0","39517486","wem/bandit_party_2","A19XD3FEXHERAQ","either","4","245","","","","","","","1","0","0","0.2","","0.5","0.5","","","","","","","0.8","0.2","","","","","","","","","","","","75","K","1","","true","0","80_20_practice","",""
"","bandit","26","120618","0.0-18.0-8.0","39517486","wem/bandit_party_2","A19XD3FEXHERAQ","either","4","344","","","","","","","0","0","1","","0.2","0.5","0.5","","","0.8","0.2","","","","","","","","","","","","","","","","75","K","1","","true","0","80_20_practice","",""
"","bandit","27","122186","0.0-18.0-9.0","39517486","wem/bandit_party_2","A19XD3FEXHERAQ","either","4","57","","","","","","","0","0","1","","0.2","0.5","0.5","","","0.8","0.2","","","","","","","","","","","","","","","","75","K","1","","true","0","80_20_practice","",""
"","bandit","28","124032","0.0-18.0-10.0","39517486","wem/bandit_party_2","A19XD3FEXHERAQ","either","4","334","","","","","","","1","0","0","0.2","","0.5","0.5","","","","","","","0.8","0.2","","","","","","","","","","","","75","K","1","","true","0","80_20_practice","",""
"","bandit","29","126248","0.0-18.0-11.0","39517486","wem/bandit_party_2","A19XD3FEXHERAQ","either","4","703","","","","","","","0","0","1","","0.2","0.5","0.5","","","0.8","0.2","","","","","","","","","","","","","","","","75","K","1","","true","0","80_20_practice","",""
"","bandit","30","128268","0.0-18.0-12.0","39517486","wem/bandit_party_2","A19XD3FEXHERAQ","either","4","508","","","","","","","0","0","1","","0.2","0.5","0.5","","","0.8","0.2","","","","","","","","","","","","","","","","75","K","1","","true","0","80_20_practice","",""
"","bandit","31","130226","0.0-18.0-13.0","39517486","wem/bandit_party_2","A19XD3FEXHERAQ","either","4","447","","","","","","","0","1","0","","0.2","0.5","0.5","","","0.8","0.2","","","","","","","","","","","","","","","","75","K","1","","true","0","80_20_practice","",""
"","bandit","32","132105","0.0-18.0-14.0","39517486","wem/bandit_party_2","A19XD3FEXHERAQ","either","4","363","","","","","","","0","0","1","0.2","","0.5","0.5","","","","","","","0.8","0.2","","","","","","","","","","","","75","K","1","","true","0","80_20_practice","",""
"","bandit","33","134342","0.0-18.0-15.0","39517486","wem/bandit_party_2","A19XD3FEXHERAQ","either","4","723","","","","","","","0","0","1","","0.2","0.5","0.5","","","0.8","0.2","","","","","","","","","","","","","","","","75","K","1","","true","0","80_20_practice","",""
"","bandit","34","136537","0.0-18.0-16.0","39517486","wem/bandit_party_2","A19XD3FEXHERAQ","either","4","679","","","","","","","0","0","1","0.2","","0.5","0.5","","","","","","","0.8","0.2","","","","","","","","","","","","75","K","1","","true","0","80_20_practice","",""
"","bandit","35","138635","0.0-18.0-17.0","39517486","wem/bandit_party_2","A19XD3FEXHERAQ","either","4","583","","","","","","","0","0","1","0.2","","0.5","0.5","","","","","","","0.8","0.2","","","","","","","","","","","","75","K","1","","true","0","80_20_practice","",""
"","bandit","36","140744","0.0-18.0-18.0","39517486","wem/bandit_party_2","A19XD3FEXHERAQ","either","4","597","","","","","","","0","0","1","0.2","","0.5","0.5","","","","","","","0.8","0.2","","","","","","","","","","","","75","K","1","","true","0","80_20_practice","",""
"","bandit","37","142716","0.0-18.0-19.0","39517486","wem/bandit_party_2","A19XD3FEXHERAQ","either","4","459","","","","","","","1","0","0","0.8","","0.5","0.5","","","","","","","0.8","0.2","","","","","","","","","","","","74","J","0","img/none_selected_demo.jpg","true","0","80_20_practice","",""
"","text-replacement","38","145244","0.0-19.0","39517486","wem/bandit_party_2","A19XD3FEXHERAQ","either","4","2524","","","32","","","","","","","","","","","","","","","","","","","","","","","","","","","","","","","","","","","","","",""
"","bandit","39","147456","0.0-20.0-0.0","39517486","wem/bandit_party_2","A19XD3FEXHERAQ","either","4","699","","","","","","","0","1","0","0","1","","","","","0","1","","","1","0","","","","","","","","","","","","75","K","1","","true","0","","",""
"","text-replacement","40","150531","0.0-21.0","39517486","wem/bandit_party_2","A19XD3FEXHERAQ","either","4","3070","","","32","","","","","","","","","","","","","","","","","","","","","","","","","","","","","","","","","","","","","",""
"","text-replacement","41","152311","0.0-22.0","39517486","wem/bandit_party_2","A19XD3FEXHERAQ","either","4","1777","","","32","","","","","","","","","","","","","","","","","","","","","","","","","","","","","","","","","","","","","",""
"","text-replacement","42","153718","0.0-23.0","39517486","wem/bandit_party_2","A19XD3FEXHERAQ","either","4","1403","","","32","","","","","","","","","","","","","","","","","","","","","","","","","","","","","","","","","","","","","",""
"","text-replacement","43","155764","0.0-24.0","39517486","wem/bandit_party_2","A19XD3FEXHERAQ","either","4","2041","","","32","","","","","","","","","","","","","","","","","","","","","","","","","","","","","","","","","","","","","",""
"","text-replacement","44","159964","0.0-25.0","39517486","wem/bandit_party_2","A19XD3FEXHERAQ","either","4","4196","","","32","","","","","","","","","","","","","","","","","","","","","","","","","","","","","","","","","","","","","",""
"","text-replacement","45","162208","0.0-26.0","39517486","wem/bandit_party_2","A19XD3FEXHERAQ","either","4","2241","","","32","","","","","","","","","","","","","","","","","","","","","","","","","","","","","","","","","","","","","",""
"","text-replacement","46","164596","0.0-27.0","39517486","wem/bandit_party_2","A19XD3FEXHERAQ","either","4","2387","","","32","","","","","","","","","","","","","","","","","","","","","","","","","","","","","","","","","","","","","",""
"","text-replacement","47","166394","0.0-28.0","39517486","wem/bandit_party_2","A19XD3FEXHERAQ","either","4","1796","","","32","","","","","","","","","","","","","","","","","","","","","","","","","","","","","","","","","","","","","",""
"","text-replacement","48","173865","0.0-29.0","39517486","wem/bandit_party_2","A19XD3FEXHERAQ","either","4","7468","","","32","","","","","","","","","","","","","","","","","","","","","","","","","","","","","","","","","","","","","",""
"","text-replacement","49","175311","0.0-30.0","39517486","wem/bandit_party_2","A19XD3FEXHERAQ","either","4","1442","","","32","","","","","","","","","","","","","","","","","","","","","","","","","","","","","","","","","","","","","",""
"","text-replacement","50","177672","0.0-31.0","39517486","wem/bandit_party_2","A19XD3FEXHERAQ","either","4","2356","","","32","","","","","","","","","","","","","","","","","","","","","","","","","","","","","","","","","","","","","",""
"","bandit","51","179655","0.0-32.0-0.0","39517486","wem/bandit_party_2","A19XD3FEXHERAQ","either","4","468","","","","","","","0","0","1","","0.8","0.5","0.5","0.5","0.5","0.8","0.2","0.6","0.2","","","","","","","","","","","","","","72","H","0","img/none_selected.jpg","true","0","full_practice","",""
"","bandit","52","181506","0.0-32.0-1.0","39517486","wem/bandit_party_2","A19XD3FEXHERAQ","either","4","340","","","","","","","0","1","0","","0.8","0.5","0.5","0.5","0.5","0.8","0.2","0.6","0.2","","","","","","","","","","","","","","72","H","0","img/none_selected.jpg","true","0","full_practice","",""
"","bandit","53","183405","0.0-32.0-2.0","39517486","wem/bandit_party_2","A19XD3FEXHERAQ","either","4","385","","","","","","","1","0","0","0.8","","0.5","0.5","0.5","0.5","","","","","0.8","0.2","0.6","0.2","","","","","","","","","","72","H","0","img/none_selected.jpg","true","0","full_practice","",""
"","bandit","54","185334","0.0-32.0-3.0","39517486","wem/bandit_party_2","A19XD3FEXHERAQ","either","4","415","","","","","","","1","0","0","0.8","","0.5","0.5","0.5","0.5","","","","","0.8","0.2","0.6","0.2","","","","","","","","","","72","H","0","img/none_selected.jpg","true","0","full_practice","",""
"","bandit","55","187279","0.0-32.0-4.0","39517486","wem/bandit_party_2","A19XD3FEXHERAQ","either","4","430","","","","","","","1","0","0","0.8","","0.5","0.5","0.5","0.5","","","","","0.8","0.2","0.6","0.2","","","","","","","","","","72","H","0","img/none_selected.jpg","true","0","full_practice","",""
"","bandit","56","189152","0.0-32.0-5.0","39517486","wem/bandit_party_2","A19XD3FEXHERAQ","either","4","361","","","","","","","0","1","0","","0.8","0.5","0.5","0.5","0.5","0.8","0.2","0.6","0.2","","","","","","","","","","","","","","72","H","0","img/none_selected.jpg","true","0","full_practice","",""
"","bandit","57","191009","0.0-32.0-6.0","39517486","wem/bandit_party_2","A19XD3FEXHERAQ","either","4","345","","","","","","","1","0","0","0.8","","0.5","0.5","0.5","0.5","","","","","0.8","0.2","0.6","0.2","","","","","","","","","","72","H","0","img/none_selected.jpg","true","0","full_practice","",""
"","bandit","58","192687","0.0-32.0-7.0","39517486","wem/bandit_party_2","A19XD3FEXHERAQ","either","4","162","","","","","","","0","0","1","","0.2","0.5","0.5","0.5","0.5","0.8","0.2","0.6","0.2","","","","","","","","","","","","","","74","J","1","","true","0","full_practice","",""
"","bandit","59","194509","0.0-32.0-8.0","39517486","wem/bandit_party_2","A19XD3FEXHERAQ","either","4","307","","","","","","","0","0","1","","0.2","0.5","0.5","0.5","0.5","0.8","0.2","0.6","0.2","","","","","","","","","","","","","","74","J","1","","true","0","full_practice","",""
"","bandit","60","196418","0.0-32.0-9.0","39517486","wem/bandit_party_2","A19XD3FEXHERAQ","either","4","396","","","","","","","0","1","0","","0.8","0.5","0.5","0.5","0.5","0.8","0.2","0.6","0.2","","","","","","","","","","","","","","72","H","0","img/none_selected.jpg","true","0","full_practice","",""
"","bandit","61","198226","0.0-32.0-10.0","39517486","wem/bandit_party_2","A19XD3FEXHERAQ","either","4","292","","","","","","","0","1","0","","0.8","0.5","0.5","0.5","0.5","0.8","0.2","0.6","0.2","","","","","","","","","","","","","","72","H","0","img/none_selected.jpg","true","0","full_practice","",""
"","bandit","62","200073","0.0-32.0-11.0","39517486","wem/bandit_party_2","A19XD3FEXHERAQ","either","4","336","","","","","","","0","0","1","0.2","","0.5","0.5","0.5","0.5","","","","","0.8","0.2","0.6","0.2","","","","","","","","","","74","J","1","","true","0","full_practice","",""
"","bandit","63","201906","0.0-32.0-12.0","39517486","wem/bandit_party_2","A19XD3FEXHERAQ","either","4","318","","","","","","","0","0","1","","0.2","0.5","0.5","0.5","0.5","0.8","0.2","0.6","0.2","","","","","","","","","","","","","","74","J","1","","true","0","full_practice","",""
"","bandit","64","204002","0.0-32.0-13.0","39517486","wem/bandit_party_2","A19XD3FEXHERAQ","either","4","581","","","","","","","0","1","0","","0.6","0.5","0.5","0.5","0.5","0.8","0.2","0.6","0.2","","","","","","","","","","","","","","75","K","2","","true","0","full_practice","",""
"","bandit","65","205776","0.0-32.0-14.0","39517486","wem/bandit_party_2","A19XD3FEXHERAQ","either","4","260","","","","","","","0","0","1","","0.6","0.5","0.5","0.5","0.5","0.8","0.2","0.6","0.2","","","","","","","","","","","","","","75","K","2","","true","0","full_practice","",""
"","bandit","66","207594","0.0-32.0-15.0","39517486","wem/bandit_party_2","A19XD3FEXHERAQ","either","4","300","","","","","","","0","1","0","","0.6","0.5","0.5","0.5","0.5","0.8","0.2","0.6","0.2","","","","","","","","","","","","","","75","K","2","","true","0","full_practice","",""
"","bandit","67","209531","0.0-32.0-16.0","39517486","wem/bandit_party_2","A19XD3FEXHERAQ","either","4","423","","","","","","","0","0","1","","0.6","0.5","0.5","0.5","0.5","0.8","0.2","0.6","0.2","","","","","","","","","","","","","","75","K","2","","true","0","full_practice","",""
"","bandit","68","211792","0.0-32.0-17.0","39517486","wem/bandit_party_2","A19XD3FEXHERAQ","either","4","746","","","","","","","1","0","0","0.8","","0.5","0.5","0.5","0.5","","","","","0.8","0.2","0.6","0.2","","","","","","","","","","72","H","0","img/none_selected.jpg","true","0","full_practice","",""
"","bandit","69","213640","0.0-32.0-18.0","39517486","wem/bandit_party_2","A19XD3FEXHERAQ","either","4","331","","","","","","","0","0","1","0.8","","0.5","0.5","0.5","0.5","","","","","0.8","0.2","0.6","0.2","","","","","","","","","","72","H","0","img/none_selected.jpg","true","0","full_practice","",""
"","bandit","70","215666","0.0-32.0-19.0","39517486","wem/bandit_party_2","A19XD3FEXHERAQ","either","4","511","","","","","","","0","0","1","0.2","","0.5","0.5","0.5","0.5","","","","","0.8","0.2","0.6","0.2","","","","","","","","","","76","L","3","","true","0","full_practice","",""
"","text","71","218194","0.0-33.0","39517486","wem/bandit_party_2","A19XD3FEXHERAQ","either","4","2506","","","32","","","","","","","","","","","","","","","","","","","","","","","","","","","","","","","","","","","","","",""
"","text-replacement","72","226433","0.0-34.0","39517486","wem/bandit_party_2","A19XD3FEXHERAQ","either","4","7230","","","32","","","","","","","","","","","","","","","","","","","","","","","","","","","","","","","","","","","","","",""
"","text-replacement","73","251468","0.0-35.0","39517486","wem/bandit_party_2","A19XD3FEXHERAQ","either","4","25031","","","32","","","","","","","","","","","","","","","","","","","","","","","","","","","","","","","","","","","","","",""
"","text-replacement","74","255171","0.0-36.0","39517486","wem/bandit_party_2","A19XD3FEXHERAQ","either","4","3697","","","32","","","","","","","","","","","","","","","","","","","","","","","","","","","","","","","","","","","","","",""
"","text-replacement","75","258770","0.0-37.0","39517486","wem/bandit_party_2","A19XD3FEXHERAQ","either","4","3592","","","32","","","","","","","","","","","","","","","","","","","","","","","","","","","","","","","","","","","","","",""
"","text-replacement","76","261302","0.0-38.0","39517486","wem/bandit_party_2","A19XD3FEXHERAQ","either","4","2526","","","32","","","","","","","","","","","","","","","","","","","","","","","","","","","","","","","","","","","","","",""
"","survey-multi-choice-replacement","77","265411","0.0-39.0-0.0","39517486","wem/bandit_party_2","A19XD3FEXHERAQ","either","4","4091","","","","","","","","","","","","","","","","","","","","","","","","Money will be added to the pool for <span style='color:blue;'>DEMOCRATS</span>","","","","","","","attn_check","","","","","","","","","0",""
"","survey-multi-choice-replacement","78","284443","0.0-40.0-0.0","39517486","wem/bandit_party_2","A19XD3FEXHERAQ","either","4","18008","","","","","","","","","","","","","","","","","","","","","","","","Money will be subtracted from the pool for <span style='color:red;'>REPUBLICANS</span>","","","","","","","attn_check","","","","","","","","","1",""
"","instructions","79","286558","0.0-40.0-1.0-0.0","39517486","wem/bandit_party_2","A19XD3FEXHERAQ","either","4","1103","","","","","","","","","","","","","","","","","","","","","","","","","","","","","","","","","","","","","","","","","[{""page_index"":0,""viewing_time"":1102}]"
"","survey-multi-choice-replacement","80","289088","0.0-40.1-0.1","39517486","wem/bandit_party_2","A19XD3FEXHERAQ","either","4","1515","","","","","","","","","","","","","","","","","","","","","","","","No money will be added to either pool","","","","","","","attn_check","","","","","","","","","3",""
"","instructions","81","290638","0.0-40.1-1.1-0.1","39517486","wem/bandit_party_2","A19XD3FEXHERAQ","either","4","539","","","","","","","","","","","","","","","","","","","","","","","","","","","","","","","","","","","","","","","","","[{""page_index"":0,""viewing_time"":539}]"
"","survey-multi-choice-replacement","82","293297","0.0-40.2-0.2","39517486","wem/bandit_party_2","A19XD3FEXHERAQ","either","4","1642","","","","","","","","","","","","","","","","","","","","","","","","Equal amounts of money will be added to the pool for <span style='color:blue;'>DEMOCRATS</span> and subtracted from the pool for <span style='color:red;'>REPUBLICANS</span>","","","","","","","attn_check","","","","","","","","","2",""
"","survey-multi-choice-replacement","83","297654","0.0-41.0-0.0","39517486","wem/bandit_party_2","A19XD3FEXHERAQ","either","4","3335","","","","","","","","","","","","","","","","","","","","","","","","No money will be added to either pool","","","","","","","attn_check","","","","","","","","","3",""
"","bandit","84","301665","0.0-42.0-0.0","39517486","wem/bandit_party_2","A19XD3FEXHERAQ","either","4","1489","","","","","","","1","0","0","0.7267404998","","0.4","0.8","0.2","0.6","","","","","0.7267404998","0.2887693562","0.9858900825","0.8209843215","","","","","","","","","","72","H","0","img/none_selected.jpg","","1","main_expt","",""
"","bandit","85","303679","0.0-43.0-0.0","39517486","wem/bandit_party_2","A19XD3FEXHERAQ","either","4","498","","","","","","","0","1","0","","0.7034907646","0.4","0.8","0.2","0.6","0.7034907646","0.2986217167","0.9854924354","0.8179122382","","","","","","","","","","","","","","72","H","0","img/none_selected.jpg","","2","main_expt","",""
"","bandit","86","305947","0.0-44.0-0.0","39517486","wem/bandit_party_2","A19XD3FEXHERAQ","either","4","744","","","","","","","0","1","0","","0.6574847675","0.4","0.8","0.2","0.6","0.6574847675","0.261346942","0.9789624529","0.8301291561","","","","","","","","","","","","","","72","H","0","img/none_selected.jpg","","3","main_expt","",""
"","bandit","87","307714","0.0-45.0-0.0","39517486","wem/bandit_party_2","A19XD3FEXHERAQ","either","4","249","","","","","","","0","1","0","","0.2757740293","0.4","0.8","0.2","0.6","0.5092805277","0.2757740293","0.9565345184","0.8219157537","","","","","","","","","","","","","","74","J","1","","","4","main_expt","",""
"","bandit","88","309549","0.0-46.0-0.0","39517486","wem/bandit_party_2","A19XD3FEXHERAQ","either","4","324","","","","","","","1","0","0","0.3329857669","","0.4","0.8","0.2","0.6","","","","","0.5952926025","0.3329857669","0.941194936","0.7759220463","","","","","","","","","","74","J","1","","","5","main_expt","",""
"","bandit","89","311418","0.0-47.0-0.0","39517486","wem/bandit_party_2","A19XD3FEXHERAQ","either","4","355","","","","","","","0","0","1","","0.331878758","0.4","0.8","0.2","0.6","0.6160758637","0.331878758","0.9305219143","0.7495930044","","","","","","","","","","","","","","74","J","1","","","6","main_expt","",""
"","bandit","90","313350","0.0-48.0-0.0","39517486","wem/bandit_party_2","A19XD3FEXHERAQ","either","4","417","","","","","","","1","0","0","0.3863389794","","0.4","0.8","0.2","0.6","","","","","0.6381806331","0.3863389794","0.937738562","0.7078030286","","","","","","","","","","74","J","1","","","7","main_expt","",""
"","bandit","91","315343","0.0-49.0-0.0","39517486","wem/bandit_party_2","A19XD3FEXHERAQ","either","4","478","","","","","","","1","0","0","0.4242016385","","0.4","0.8","0.2","0.6","","","","","0.7047831713","0.4242016385","0.8269671957","0.689407674","","","","","","","","","","74","J","1","","","8","main_expt","",""
"","bandit","92","317222","0.0-50.0-0.0","39517486","wem/bandit_party_2","A19XD3FEXHERAQ","either","4","366","","","","","","","1","0","0","0.379169242","","0.4","0.8","0.2","0.6","","","","","0.6222923336","0.379169242","0.7696709776","0.7848236408","","","","","","","","","","74","J","1","","","9","main_expt","",""
"","bandit","93","319120","0.0-51.0-0.0","39517486","wem/bandit_party_2","A19XD3FEXHERAQ","either","4","382","","","","","","","0","0","1","0.40569916","","0.4","0.8","0.2","0.6","","","","","0.5629201009","0.40569916","0.7313552403","0.791363481","","","","","","","","","","74","J","1","","","10","main_expt","",""
"","bandit","94","321037","0.0-52.0-0.0","39517486","wem/bandit_party_2","A19XD3FEXHERAQ","either","4","403","","","","","","","0","1","0","","0.4188021694","0.4","0.8","0.2","0.6","0.644159789","0.4188021694","0.8129169819","0.7800632456","","","","","","","","","","","","","","74","J","1","","","11","main_expt","",""
"","bandit","95","322934","0.0-53.0-0.0","39517486","wem/bandit_party_2","A19XD3FEXHERAQ","either","4","383","","","","","","","0","0","1","","0.7611571711","0.4","0.8","0.2","0.6","0.6840372722","0.3689559917","0.7611571711","0.7559884596","","","","","","","","","","","","","","75","K","2","","","12","main_expt","",""
"","bandit","96","324792","0.0-54.0-0.0","39517486","wem/bandit_party_2","A19XD3FEXHERAQ","either","4","341","","","","","","","0","1","0","","0.7628417147","0.4","0.8","0.2","0.6","0.6236151953","0.4584943612","0.7628417147","0.7695577991","","","","","","","","","","","","","","75","K","2","","","13","main_expt","",""
"","bandit","97","326368","0.0-55.0-0.0","39517486","wem/bandit_party_2","A19XD3FEXHERAQ","either","4","63","","","","","","","0","0","1","0.455083938","","0.4","0.8","0.2","0.6","","","","","0.5388331182","0.455083938","0.7436451733","0.8509931145","","","","","","","","","","74","J","1","","","14","main_expt","",""
"","bandit","98","328100","0.0-56.0-0.0","39517486","wem/bandit_party_2","A19XD3FEXHERAQ","either","4","220","","","","","","","0","0","1","","0.5360112786","0.4","0.8","0.2","0.6","0.4802769188","0.5360112786","0.8256008488","0.7745856811","","","","","","","","","","","","","","74","J","1","","","15","main_expt","",""
"","bandit","99","329898","0.0-57.0-0.0","39517486","wem/bandit_party_2","A19XD3FEXHERAQ","either","4","281","","","","","","","1","0","0","0.4791571541","","0.4","0.8","0.2","0.6","","","","","0.4688000192","0.4791571541","0.7683027423","0.7576521113","","","","","","","","","","74","J","1","","","16","main_expt","",""
"","bandit","100","331796","0.0-58.0-0.0","39517486","wem/bandit_party_2","A19XD3FEXHERAQ","either","4","380","","","","","","","0","0","1","","0.5263630166","0.4","0.8","0.2","0.6","0.6000602573","0.5263630166","0.7857675768","0.8099558365","","","","","","","","","","","","","","74","J","1","","","17","main_expt","",""
"","bandit","101","333910","0.0-59.0-0.0","39517486","wem/bandit_party_2","A19XD3FEXHERAQ","either","4","597","","","","","","","1","0","0","0.543945959","","0.4","0.8","0.2","0.6","","","","","0.6046592687","0.543945959","0.7303419725","0.7535280451","","","","","","","","","","74","J","1","","","18","main_expt","",""
"","bandit","102","335856","0.0-60.0-0.0","39517486","wem/bandit_party_2","A19XD3FEXHERAQ","either","4","429","","","","","","","0","0","1","0.4579801682","","0.4","0.8","0.2","0.6","","","","","0.6177236116","0.4579801682","0.7243255268","0.7206444799","","","","","","","","","","74","J","1","","","19","main_expt","",""
"","bandit","103","337808","0.0-61.0-0.0","39517486","wem/bandit_party_2","A19XD3FEXHERAQ","either","4","436","","","","","","","0","0","1","0.5439896582","","0.4","0.8","0.2","0.6","","","","","0.5484637992","0.5439896582","0.7691283854","0.6388551968","","","","","","","","","","74","J","1","","","20","main_expt","",""
"","bandit","104","339636","0.0-62.0-0.0","39517486","wem/bandit_party_2","A19XD3FEXHERAQ","either","4","311","","","","","","","0","0","1","0.4956822649","","0.4","0.8","0.2","0.6","","","","","0.6646151354","0.5796019833","0.7068464658","0.4956822649","","","","","","","","","","76","L","3","","","21","main_expt","",""
"","bandit","105","341675","0.0-63.0-0.0","39517486","wem/bandit_party_2","A19XD3FEXHERAQ","either","4","523","","","","","","","1","0","0","0.4316307404","","0.4","0.8","0.2","0.6","","","","","0.7223938077","0.5885929095","0.7407239748","0.4316307404","","","","","","","","","","76","L","3","","","22","main_expt","",""
"","bandit","106","344018","0.0-64.0-0.0","39517486","wem/bandit_party_2","A19XD3FEXHERAQ","either","4","831","","","","","","","1","0","0","0.4158022912","","0.4","0.8","0.2","0.6","","","","","0.7548690184","0.4899642796","0.7300920021","0.4158022912","","","","","","","","","","76","L","3","","","23","main_expt","",""
"","bandit","107","346005","0.0-65.0-0.0","39517486","wem/bandit_party_2","A19XD3FEXHERAQ","either","4","479","","","","","","","0","0","1","","0.4099928258","0.4","0.8","0.2","0.6","0.7794954679","0.4984159311","0.7074307303","0.4099928258","","","","","","","","","","","","","","76","L","3","","","24","main_expt","",""
"","bandit","108","347885","0.0-66.0-0.0","39517486","wem/bandit_party_2","A19XD3FEXHERAQ","either","4","361","","","","","","","0","0","1","0.4303724308","","0.4","0.8","0.2","0.6","","","","","0.8029664172","0.5885503773","0.6228099684","0.4303724308","","","","","","","","","","76","L","3","","","25","main_expt","",""
"","bandit","109","349742","0.0-67.0-0.0","39517486","wem/bandit_party_2","A19XD3FEXHERAQ","either","4","340","","","","","","","0","0","1","","0.3291624114","0.4","0.8","0.2","0.6","0.6980766755","0.6978100054","0.5588879168","0.3291624114","","","","","","","","","","","","","","76","L","3","","","26","main_expt","",""
"","bandit","110","352085","0.0-68.0-0.0","39517486","wem/bandit_party_2","A19XD3FEXHERAQ","either","4","832","","","","","","","0","0","1","0.6442468271","","0.4","0.8","0.2","0.6","","","","","0.7021498626","0.6442468271","0.5033257713","0.3795789415","","","","","","","","","","74","J","1","","","27","main_expt","",""
"","bandit","111","354005","0.0-69.0-0.0","39517486","wem/bandit_party_2","A19XD3FEXHERAQ","either","4","404","","","","","","","0","0","1","","0.7399213538","0.4","0.8","0.2","0.6","0.7802436781","0.7399213538","0.4915102133","0.3208573938","","","","","","","","","","","","","","74","J","1","","","28","main_expt","",""
"","bandit","112","355939","0.0-70.0-0.0","39517486","wem/bandit_party_2","A19XD3FEXHERAQ","either","4","420","","","","","","","0","1","0","","0.4291187576","0.4","0.8","0.2","0.6","0.6907923131","0.7520253205","0.4291187576","0.3352919619","","","","","","","","","","","","","","75","K","2","","","29","main_expt","",""
"","bandit","113","357913","0.0-71.0-0.0","39517486","wem/bandit_party_2","A19XD3FEXHERAQ","either","4","460","","","","","","","0","1","0","","0.5379907803","0.4","0.8","0.2","0.6","0.6771306444","0.7528469829","0.5379907803","0.3452717309","","","","","","","","","","","","","","75","K","2","","","30","main_expt","",""
"","bandit","114","359789","0.0-72.0-0.0","39517486","wem/bandit_party_2","A19XD3FEXHERAQ","either","4","355","","","","","","","0","0","1","","0.7130915948","0.4","0.8","0.2","0.6","0.7130915948","0.7571908429","0.646046857","0.2967094522","","","","","","","","","","","","","","72","H","0","img/none_selected.jpg","","31","main_expt","",""
"","bandit","115","361837","0.0-73.0-0.0","39517486","wem/bandit_party_2","A19XD3FEXHERAQ","either","4","533","","","","","","","0","0","1","0.6849190202","","0.4","0.8","0.2","0.6","","","","","0.6849190202","0.7530934884","0.5608885347","0.255781972","","","","","","","","","","72","H","0","img/none_selected.jpg","","32","main_expt","",""
"","bandit","116","363776","0.0-74.0-0.0","39517486","wem/bandit_party_2","A19XD3FEXHERAQ","either","4","420","","","","","","","1","0","0","0.7163673585","","0.4","0.8","0.2","0.6","","","","","0.7392612035","0.7163673585","0.5952322697","0.2703771925","","","","","","","","","","74","J","1","","","33","main_expt","",""
"","bandit","117","367543","0.0-75.0-0.0","39517486","wem/bandit_party_2","A19XD3FEXHERAQ","either","4","2252","","","","","","","0","0","1","0.3572673824","","0.4","0.8","0.2","0.6","","","","","0.7026009082","0.6817248107","0.6206609301","0.3572673824","","","","","","","","","","76","L","3","","","34","main_expt","",""
"","bandit","118","369839","0.0-76.0-0.0","39517486","wem/bandit_party_2","A19XD3FEXHERAQ","either","4","781","","","","","","","1","0","0","0.6903641832","","0.4","0.8","0.2","0.6","","","","","0.632003728","0.6903641832","0.6223058769","0.3237575066","","","","","","","","","","74","J","1","","","35","main_expt","",""
"","bandit","119","371901","0.0-77.0-0.0","39517486","wem/bandit_party_2","A19XD3FEXHERAQ","either","4","550","","","","","","","0","0","1","0.6953747248","","0.4","0.8","0.2","0.6","","","","","0.7266912659","0.6953747248","0.7304722347","0.3724209237","","","","","","","","","","74","J","1","","","36","main_expt","",""
"","bandit","120","373701","0.0-78.0-0.0","39517486","wem/bandit_party_2","A19XD3FEXHERAQ","either","4","282","","","","","","","1","0","0","0.3848591071","","0.4","0.8","0.2","0.6","","","","","0.5512211225","0.7552078918","0.6789706255","0.3848591071","","","","","","","","","","76","L","3","","","37","main_expt","",""
"","bandit","121","375844","0.0-79.0-0.0","39517486","wem/bandit_party_2","A19XD3FEXHERAQ","either","4","627","","","","","","","1","0","0","0.7095976639","","0.4","0.8","0.2","0.6","","","","","0.5888446875","0.7095976639","0.6758320082","0.4026628424","","","","","","","","","","74","J","1","","","38","main_expt","",""
"","bandit","122","377799","0.0-80.0-0.0","39517486","wem/bandit_party_2","A19XD3FEXHERAQ","either","4","438","","","","","","","0","0","1","","0.460229008","0.4","0.8","0.2","0.6","0.7349010221","0.7813817897","0.753286291","0.460229008","","","","","","","","","","","","","","76","L","3","","","39","main_expt","",""
"","bandit","123","379567","0.0-81.0-0.0","39517486","wem/bandit_party_2","A19XD3FEXHERAQ","either","4","253","","","","","","","0","0","1","0.7604460558","","0.4","0.8","0.2","0.6","","","","","0.6715391024","0.7604460558","0.7527041006","0.3392787789","","","","","","","","","","74","J","1","","","40","main_expt","",""
"","bandit","124","381614","0.0-82.0-0.0","39517486","wem/bandit_party_2","A19XD3FEXHERAQ","either","4","529","","","","","","","0","1","0","","0.688235262","0.4","0.8","0.2","0.6","0.688235262","0.7588214983","0.7900808451","0.2983701942","","","","","","","","","","","","","","72","H","0","img/none_selected.jpg","","41","main_expt","",""
"","bandit","125","383405","0.0-83.0-0.0","39517486","wem/bandit_party_2","A19XD3FEXHERAQ","either","4","274","","","","","","","0","1","0","","0.8204813903","0.4","0.8","0.2","0.6","0.750516412","0.8204813903","0.7261157662","0.2390858253","","","","","","","","","","","","","","74","J","1","","","42","main_expt","",""
"","bandit","126","385349","0.0-84.0-0.0","39517486","wem/bandit_party_2","A19XD3FEXHERAQ","either","4","429","","","","","","","1","0","0","0.8310219988","","0.4","0.8","0.2","0.6","","","","","0.775378891","0.8310219988","0.772887471","0.1877526289","","","","","","","","","","74","J","1","","","43","main_expt","",""
"","bandit","127","387276","0.0-85.0-0.0","39517486","wem/bandit_party_2","A19XD3FEXHERAQ","either","4","411","","","","","","","1","0","0","0.8165903167","","0.4","0.8","0.2","0.6","","","","","0.5983035632","0.8165903167","0.7359848823","0.2713877418","","","","","","","","","","74","J","1","","","44","main_expt","",""
"","bandit","128","389314","0.0-86.0-0.0","39517486","wem/bandit_party_2","A19XD3FEXHERAQ","either","4","518","","","","","","","1","0","0","0.6765015189","","0.4","0.8","0.2","0.6","","","","","0.6453890447","0.6765015189","0.6223954065","0.2600408605","","","","","","","","","","74","J","1","","","45","main_expt","",""
"","bandit","129","391211","0.0-87.0-0.0","39517486","wem/bandit_party_2","A19XD3FEXHERAQ","either","4","383","","","","","","","1","0","0","0.6613510417","","0.4","0.8","0.2","0.6","","","","","0.4979639723","0.6613510417","0.5963379238","0.2435580982","","","","","","","","","","74","J","1","","","46","main_expt","",""
"","bandit","130","393091","0.0-88.0-0.0","39517486","wem/bandit_party_2","A19XD3FEXHERAQ","either","4","363","","","","","","","0","1","0","","0.7373034573","0.4","0.8","0.2","0.6","0.4475739324","0.7373034573","0.6161308884","0.3258971046","","","","","","","","","","","","","","74","J","1","","","47","main_expt","",""
"","bandit","131","394928","0.0-89.0-0.0","39517486","wem/bandit_party_2","A19XD3FEXHERAQ","either","4","320","","","","","","","1","0","0","0.6580913366","","0.4","0.8","0.2","0.6","","","","","0.570942939","0.6580913366","0.6354722558","0.2934977076","","","","","","","","","","74","J","1","","","48","main_expt","",""
"","bandit","132","396922","0.0-90.0-0.0","39517486","wem/bandit_party_2","A19XD3FEXHERAQ","either","4","475","","","","","","","0","0","1","0.6518545324","","0.4","0.8","0.2","0.6","","","","","0.5943858444","0.6518545324","0.5941747261","0.3381222087","","","","","","","","","","74","J","1","","","49","main_expt","",""
"","bandit","133","398909","0.0-91.0-0.0","39517486","wem/bandit_party_2","A19XD3FEXHERAQ","either","4","470","","","","","","","1","0","0","0.6362385309","","0.4","0.8","0.2","0.6","","","","","0.72156704","0.6362385309","0.5510631732","0.4149653651","","","","","","","","","","74","J","1","","","50","main_expt","",""
"","bandit","134","400928","0.0-92.0-0.0","39517486","wem/bandit_party_2","A19XD3FEXHERAQ","either","4","503","","","","","","","1","0","0","0.6673370403","","0.4","0.8","0.2","0.6","","","","","0.6453884322","0.6673370403","0.5580995271","0.315936401","","","","","","","","","","74","J","1","","","51","main_expt","",""
"","bandit","135","402961","0.0-93.0-0.0","39517486","wem/bandit_party_2","A19XD3FEXHERAQ","either","4","515","","","","","","","1","0","0","0.6614759556","","0.4","0.8","0.2","0.6","","","","","0.635653338","0.6614759556","0.4492126091","0.34776451","","","","","","","","","","74","J","1","","","52","main_expt","",""
"","bandit","136","405016","0.0-94.0-0.0","39517486","wem/bandit_party_2","A19XD3FEXHERAQ","either","4","538","","","","","","","1","0","0","0.5099009019","","0.4","0.8","0.2","0.6","","","","","0.5700640027","0.5099009019","0.4600129001","0.2946288454","","","","","","","","","","74","J","1","","","53","main_expt","",""
"","bandit","137","406940","0.0-95.0-0.0","39517486","wem/bandit_party_2","A19XD3FEXHERAQ","either","4","408","","","","","","","0","1","0","","0.5323874036","0.4","0.8","0.2","0.6","0.4535518587","0.5323874036","0.4005354829","0.3757560715","","","","","","","","","","","","","","74","J","1","","","54","main_expt","",""
"","bandit","138","408828","0.0-96.0-0.0","39517486","wem/bandit_party_2","A19XD3FEXHERAQ","either","4","369","","","","","","","0","0","1","0.5410243768","","0.4","0.8","0.2","0.6","","","","","0.4271895083","0.5410243768","0.3305694417","0.3258455482","","","","","","","","","","74","J","1","","","55","main_expt","",""
"","bandit","139","411484","0.0-97.0-0.0","39517486","wem/bandit_party_2","A19XD3FEXHERAQ","either","4","1140","","","","","","","0","0","1","0.5594159285","","0.4","0.8","0.2","0.6","","","","","0.3506641683","0.5594159285","0.3443449075","0.4350401219","","","","","","","","","","74","J","1","","","56","main_expt","",""
"","bandit","140","413469","0.0-98.0-0.0","39517486","wem/bandit_party_2","A19XD3FEXHERAQ","either","4","468","","","","","","","0","0","1","","0.5057935102","0.4","0.8","0.2","0.6","0.3266461122","0.5057935102","0.3719720486","0.3707313189","","","","","","","","","","","","","","74","J","1","","","57","main_expt","",""
"","bandit","141","415319","0.0-99.0-0.0","39517486","wem/bandit_party_2","A19XD3FEXHERAQ","either","4","331","","","","","","","0","1","0","","0.4921421838","0.4","0.8","0.2","0.6","0.3024401834","0.4921421838","0.2230753252","0.5588799977","","","","","","","","","","","","","","74","J","1","","","58","main_expt","",""
"","bandit","142","417176","0.0-100.0-0.0","39517486","wem/bandit_party_2","A19XD3FEXHERAQ","either","4","339","","","","","","","0","1","0","","0.6863198467","0.4","0.8","0.2","0.6","0.4306619987","0.4740341295","0.2255195526","0.6863198467","","","","","","","","","","","","","","76","L","3","","","59","main_expt","",""
"","bandit","143","419018","0.0-101.0-0.0","39517486","wem/bandit_party_2","A19XD3FEXHERAQ","either","4","322","","","","","","","0","0","1","","0.6998437478","0.4","0.8","0.2","0.6","0.4710521126","0.4853159436","0.2150487889","0.6998437478","","","","","","","","","","","","","","76","L","3","","","60","main_expt","",""
"","bandit","144","420901","0.0-102.0-0.0","39517486","wem/bandit_party_2","A19XD3FEXHERAQ","either","4","368","","","","","","","0","0","1","0.7027468204","","0.4","0.8","0.2","0.6","","","","","0.4797168847","0.4843563089","0.2670703017","0.7027468204","","","","","","","","","","76","L","3","","","61","main_expt","",""
"","bandit","145","422830","0.0-103.0-0.0","39517486","wem/bandit_party_2","A19XD3FEXHERAQ","either","4","410","","","","","","","0","0","1","0.7461433662","","0.4","0.8","0.2","0.6","","","","","0.441351191","0.4970562682","0.1622034337","0.7461433662","","","","","","","","","","76","L","3","","","62","main_expt","",""
"","bandit","146","424740","0.0-104.0-0.0","39517486","wem/bandit_party_2","A19XD3FEXHERAQ","either","4","390","","","","","","","0","0","1","0.1872430185","","0.4","0.8","0.2","0.6","","","","","0.6405696824","0.4870743105","0.1872430185","0.7956877632","","","","","","","","","","75","K","2","","","63","main_expt","",""
"","bandit","147","426705","0.0-105.0-0.0","39517486","wem/bandit_party_2","A19XD3FEXHERAQ","either","4","450","","","","","","","0","0","1","0.7533911137","","0.4","0.8","0.2","0.6","","","","","0.5093225209","0.5297884171","0.1921602407","0.7533911137","","","","","","","","","","76","L","3","","","64","main_expt","",""
"","bandit","148","428489","0.0-106.0-0.0","39517486","wem/bandit_party_2","A19XD3FEXHERAQ","either","4","270","","","","","","","0","0","1","","0.1747679693","0.4","0.8","0.2","0.6","0.5190422554","0.5510281753","0.1747679693","0.8407665504","","","","","","","","","","","","","","75","K","2","","","65","main_expt","",""
"","bandit","149","430163","0.0-107.0-0.0","39517486","wem/bandit_party_2","A19XD3FEXHERAQ","either","4","156","","","","","","","0","1","0","","0.8392190168","0.4","0.8","0.2","0.6","0.4367989657","0.6548378986","0.149475979","0.8392190168","","","","","","","","","","","","","","76","L","3","","","66","main_expt","",""
"","bandit","150","432034","0.0-108.0-0.0","39517486","wem/bandit_party_2","A19XD3FEXHERAQ","either","4","355","","","","","","","1","0","0","0.7998105719","","0.4","0.8","0.2","0.6","","","","","0.4515976155","0.7873643744","0.1340316754","0.7998105719","","","","","","","","","","76","L","3","","","67","main_expt","",""
"","bandit","151","433906","0.0-109.0-0.0","39517486","wem/bandit_party_2","A19XD3FEXHERAQ","either","4","355","","","","","","","1","0","0","0.8055175736","","0.4","0.8","0.2","0.6","","","","","0.4605235732","0.8374830125","0.1635100664","0.8055175736","","","","","","","","","","76","L","3","","","68","main_expt","",""
"","bandit","152","435808","0.0-110.0-0.0","39517486","wem/bandit_party_2","A19XD3FEXHERAQ","either","4","387","","","","","","","1","0","0","0.9157616325","","0.4","0.8","0.2","0.6","","","","","0.3799115548","0.7948054761","0.1227365859","0.9157616325","","","","","","","","","","76","L","3","","","69","main_expt","",""
"","bandit","153","437654","0.0-111.0-0.0","39517486","wem/bandit_party_2","A19XD3FEXHERAQ","either","4","331","","","","","","","0","1","0","","0.9575411193","0.4","0.8","0.2","0.6","0.4215965018","0.8257183208","0.1248437045","0.9575411193","","","","","","","","","","","","","","76","L","3","","","70","main_expt","",""
"","bandit","154","439429","0.0-112.0-0.0","39517486","wem/bandit_party_2","A19XD3FEXHERAQ","either","4","257","","","","","","","1","0","0","0.9604429572","","0.4","0.8","0.2","0.6","","","","","0.4069040491","0.7378076352","0.1153860856","0.9604429572","","","","","","","","","","76","L","3","","","71","main_expt","",""
"","bandit","155","441326","0.0-113.0-0.0","39517486","wem/bandit_party_2","A19XD3FEXHERAQ","either","4","380","","","","","","","1","0","0","0.9598545795","","0.4","0.8","0.2","0.6","","","","","0.4396577013","0.7402058239","0.1355011504","0.9598545795","","","","","","","","","","76","L","3","","","72","main_expt","",""
"","bandit","156","443159","0.0-114.0-0.0","39517486","wem/bandit_party_2","A19XD3FEXHERAQ","either","4","316","","","","","","","0","1","0","","0.944667289","0.4","0.8","0.2","0.6","0.6562772762","0.6976791507","0.05996807606","0.944667289","","","","","","","","","","","","","","76","L","3","","","73","main_expt","",""
"","bandit","157","444975","0.0-115.0-0.0","39517486","wem/bandit_party_2","A19XD3FEXHERAQ","either","4","299","","","","","","","0","1","0","","0.9226304804","0.4","0.8","0.2","0.6","0.6973429816","0.7918365236","0.05405538329","0.9226304804","","","","","","","","","","","","","","76","L","3","","","74","main_expt","",""
"","bandit","158","446924","0.0-116.0-0.0","39517486","wem/bandit_party_2","A19XD3FEXHERAQ","either","4","430","","","","","","","1","0","0","0.7736122178","","0.4","0.8","0.2","0.6","","","","","0.7736122178","0.7822783488","0.02989929625","0.9398646798","","","","","","","","","","72","H","0","img/none_selected.jpg","","75","main_expt","",""
"","bandit","159","448748","0.0-117.0-0.0","39517486","wem/bandit_party_2","A19XD3FEXHERAQ","either","4","307","","","","","","","1","0","0","0.8130420724","","0.4","0.8","0.2","0.6","","","","","0.8130420724","0.7290889389","0.0563551135","0.9344412274","","","","","","","","","","72","H","0","img/none_selected.jpg","","76","main_expt","",""
"","bandit","160","450635","0.0-118.0-0.0","39517486","wem/bandit_party_2","A19XD3FEXHERAQ","either","4","372","","","","","","","0","0","1","0.8182773084","","0.4","0.8","0.2","0.6","","","","","0.8182773084","0.7903383215","0.0510075381","0.9512527415","","","","","","","","","","72","H","0","img/none_selected.jpg","","77","main_expt","",""
"","bandit","161","452569","0.0-119.0-0.0","39517486","wem/bandit_party_2","A19XD3FEXHERAQ","either","4","414","","","","","","","1","0","0","0.910984946","","0.4","0.8","0.2","0.6","","","","","0.910984946","0.8093770606","0.07280641377","0.945324638","","","","","","","","","","72","H","0","img/none_selected.jpg","","78","main_expt","",""
"","bandit","162","454526","0.0-120.0-0.0","39517486","wem/bandit_party_2","A19XD3FEXHERAQ","either","4","436","","","","","","","1","0","0","0.9303795674","","0.4","0.8","0.2","0.6","","","","","0.9303795674","0.7310189459","0.06591604593","0.9313693401","","","","","","","","","","72","H","0","img/none_selected.jpg","","79","main_expt","",""
"","bandit","163","456579","0.0-121.0-0.0","39517486","wem/bandit_party_2","A19XD3FEXHERAQ","either","4","536","","","","","","","0","1","0","","0.9581515868","0.4","0.8","0.2","0.6","0.9581515868","0.7915113188","0.02790121052","0.9272018461","","","","","","","","","","","","","","72","H","0","img/none_selected.jpg","","80","main_expt","",""
"","bandit","164","458518","0.0-122.0-0.0","39517486","wem/bandit_party_2","A19XD3FEXHERAQ","either","4","423","","","","","","","1","0","0","0.9107397581","","0.4","0.8","0.2","0.6","","","","","0.9107397581","0.8463201033","0.03997429631","0.9340165544","","","","","","","","","","72","H","0","img/none_selected.jpg","","81","main_expt","",""
"","bandit","165","460532","0.0-123.0-0.0","39517486","wem/bandit_party_2","A19XD3FEXHERAQ","either","4","498","","","","","","","0","1","0","","0.9531247327","0.4","0.8","0.2","0.6","0.9531247327","0.9043915002","0.03692483048","0.9778602254","","","","","","","","","","","","","","72","H","0","img/none_selected.jpg","","82","main_expt","",""
"","bandit","166","462523","0.0-124.0-0.0","39517486","wem/bandit_party_2","A19XD3FEXHERAQ","either","4","475","","","","","","","1","0","0","0.91574064","","0.4","0.8","0.2","0.6","","","","","0.91574064","0.922294541","0.04167024954","0.9593015187","","","","","","","","","","72","H","0","img/none_selected.jpg","","83","main_expt","",""
"","bandit","167","464535","0.0-125.0-0.0","39517486","wem/bandit_party_2","A19XD3FEXHERAQ","either","4","495","","","","","","","0","1","0","","0.9287460716","0.4","0.8","0.2","0.6","0.9287460716","0.9079954767","0.03449326924","0.9398758864","","","","","","","","","","","","","","72","H","0","img/none_selected.jpg","","84","main_expt","",""
"","bandit","168","466319","0.0-126.0-0.0","39517486","wem/bandit_party_2","A19XD3FEXHERAQ","either","4","262","","","","","","","0","1","0","","0.9817994773","0.4","0.8","0.2","0.6","0.9817994773","0.92293493","0.07382848834","0.9256746213","","","","","","","","","","","","","","72","H","0","img/none_selected.jpg","","85","main_expt","",""
"","bandit","169","468795","0.0-127.0-0.0","39517486","wem/bandit_party_2","A19XD3FEXHERAQ","either","4","956","","","","","","","1","0","0","0.8831043051","","0.4","0.8","0.2","0.6","","","","","0.9651028603","0.8831043051","0.08839198485","0.8910640916","","","","","","","","","","74","J","1","","","86","main_expt","",""
"","bandit","170","470978","0.0-128.0-0.0","39517486","wem/bandit_party_2","A19XD3FEXHERAQ","either","4","666","","","","","","","1","0","0","0.876749115","","0.4","0.8","0.2","0.6","","","","","0.9364705545","0.876749115","0.08767612821","0.8729480744","","","","","","","","","","74","J","1","","","87","main_expt","",""
"","bandit","171","474153","0.0-129.0-0.0","39517486","wem/bandit_party_2","A19XD3FEXHERAQ","either","4","1656","","","","","","","1","0","0","0.9189432589","","0.4","0.8","0.2","0.6","","","","","0.9235767634","0.9189432589","0.1606359608","0.8780151739","","","","","","","","","","74","J","1","","","88","main_expt","",""
"","bandit","172","476164","0.0-130.0-0.0","39517486","wem/bandit_party_2","A19XD3FEXHERAQ","either","4","489","","","","","","","1","0","0","0.8770582065","","0.4","0.8","0.2","0.6","","","","","0.9375107972","0.8770582065","0.2051996915","0.8856980863","","","","","","","","","","74","J","1","","","89","main_expt","",""
"","bandit","173","478311","0.0-131.0-0.0","39517486","wem/bandit_party_2","A19XD3FEXHERAQ","either","4","628","","","","","","","1","0","0","0.9303780437","","0.4","0.8","0.2","0.6","","","","","0.9201099193","0.9303780437","0.1757431166","0.8828292745","","","","","","","","","","74","J","1","","","90","main_expt","",""
"","bandit","174","480444","0.0-132.0-0.0","39517486","wem/bandit_party_2","A19XD3FEXHERAQ","either","4","614","","","","","","","1","0","0","0.8870296602","","0.4","0.8","0.2","0.6","","","","","0.9416722714","0.8870296602","0.3470073597","0.9016480115","","","","","","","","","","74","J","1","","","91","main_expt","",""
"","bandit","175","482389","0.0-133.0-0.0","39517486","wem/bandit_party_2","A19XD3FEXHERAQ","either","4","427","","","","","","","0","0","1","0.8466670433","","0.4","0.8","0.2","0.6","","","","","0.943817784","0.8466670433","0.4969118024","0.9077272713","","","","","","","","","","74","J","1","","","92","main_expt","",""
"","bandit","176","518965","0.0-134.0-0.0","39517486","wem/bandit_party_2","A19XD3FEXHERAQ","either","4","35058","","","","","","","0","1","0","","0.9078517942","0.4","0.8","0.2","0.6","0.9078517942","0.850017275","0.5773598144","0.875936713","","","","","","","","","","","","","","72","H","0","img/none_selected.jpg","","93","main_expt","",""
"","bandit","177","520486","0.0-135.0-0.0","39517486","wem/bandit_party_2","A19XD3FEXHERAQ","either","4","1","","","","","","","0","0","1","","0.6893652978","0.4","0.8","0.2","0.6","0.8983200186","0.6893652978","0.5513550223","0.8089346838","","","","","","","","","","","","","","74","J","1","","","94","main_expt","",""
"","bandit","178","522038","0.0-136.0-0.0","39517486","wem/bandit_party_2","A19XD3FEXHERAQ","either","4","32","","","","","","","0","1","0","","0.5461825447","0.4","0.8","0.2","0.6","0.8744309931","0.6025630118","0.5461825447","0.7472177953","","","","","","","","","","","","","","75","K","2","","","95","main_expt","",""
"","bandit","179","523805","0.0-137.0-0.0","39517486","wem/bandit_party_2","A19XD3FEXHERAQ","either","4","245","","","","","","","1","0","0","0.631257407","","0.4","0.8","0.2","0.6","","","","","0.8894212924","0.5565182624","0.5564841108","0.631257407","","","","","","","","","","76","L","3","","","96","main_expt","",""
"","bandit","180","525772","0.0-138.0-0.0","39517486","wem/bandit_party_2","A19XD3FEXHERAQ","either","4","447","","","","","","","0","1","0","","0.7474787878","0.4","0.8","0.2","0.6","0.891162681","0.4820287155","0.6513715187","0.7474787878","","","","","","","","","","","","","","76","L","3","","","97","main_expt","",""
"","bandit","181","527555","0.0-139.0-0.0","39517486","wem/bandit_party_2","A19XD3FEXHERAQ","either","4","261","","","","","","","1","0","0","0.4599621431","","0.4","0.8","0.2","0.6","","","","","0.8495400438","0.4599621431","0.7004254565","0.7753317291","","","","","","","","","","74","J","1","","","98","main_expt","",""
"","bandit","182","529394","0.0-140.0-0.0","39517486","wem/bandit_party_2","A19XD3FEXHERAQ","either","4","318","","","","","","","0","0","1","0.4109144258","","0.4","0.8","0.2","0.6","","","","","0.8671572546","0.4109144258","0.6473310623","0.7088399779","","","","","","","","","","74","J","1","","","99","main_expt","",""
"","bandit","183","530916","0.0-141.0-0.0","39517486","wem/bandit_party_2","A19XD3FEXHERAQ","either","4","5","","","","","","","1","0","0","0.3466085394","","0.4","0.8","0.2","0.6","","","","","0.8312294914","0.3466085394","0.6160818326","0.7328055719","","","","","","","","","","74","J","1","","","100","main_expt","",""
"","bandit","184","536204","0.0-142.0-0.0","39517486","wem/bandit_party_2","A19XD3FEXHERAQ","either","4","3766","","","","","","","1","0","0","0.3712289037","","0.4","0.8","0.2","0.6","","","","","0.8135240708","0.3712289037","0.6963675268","0.8183789849","","","","","","","","","","74","J","1","","","101","main_expt","",""
"","bandit","185","538354","0.0-143.0-0.0","39517486","wem/bandit_party_2","A19XD3FEXHERAQ","either","4","630","","","","","","","0","1","0","","0.3626324234","0.4","0.8","0.2","0.6","0.8556055773","0.3626324234","0.6339579424","0.7854635714","","","","","","","","","","","","","","74","J","1","","","102","main_expt","",""
"","bandit","186","539996","0.0-144.0-0.0","39517486","wem/bandit_party_2","A19XD3FEXHERAQ","either","4","124","","","","","","","1","0","0","0.8481411385","","0.4","0.8","0.2","0.6","","","","","0.7632006143","0.2748825764","0.6908430899","0.8481411385","","","","","","","","","","76","L","3","","","103","main_expt","",""
"","bandit","187","542177","0.0-145.0-0.0","39517486","wem/bandit_party_2","A19XD3FEXHERAQ","either","4","663","","","","","","","0","1","0","","0.8129446485","0.4","0.8","0.2","0.6","0.8273213265","0.2381725209","0.6866318891","0.8129446485","","","","","","","","","","","","","","76","L","3","","","104","main_expt","",""
"","bandit","188","544443","0.0-146.0-0.0","39517486","wem/bandit_party_2","A19XD3FEXHERAQ","either","4","749","","","","","","","0","0","1","0.1939551764","","0.4","0.8","0.2","0.6","","","","","0.7930501456","0.1939551764","0.6749941214","0.7898688037","","","","","","","","","","74","J","1","","","105","main_expt","",""
"","bandit","189","570873","0.0-147.0-0.0","39517486","wem/bandit_party_2","A19XD3FEXHERAQ","either","4","24911","","","","","","","0","0","1","","0.7300347885","0.4","0.8","0.2","0.6","0.7186603115","0.1884153881","0.7300347885","0.7810744832","","","","","","","","","","","","","","75","K","2","","","106","main_expt","",""
"","bandit","190","572788","0.0-148.0-0.0","39517486","wem/bandit_party_2","A19XD3FEXHERAQ","either","4","397","","","","","","","1","0","0","0.7837395221","","0.4","0.8","0.2","0.6","","","","","0.7155595947","0.1011451677","0.8133516847","0.7837395221","","","","","","","","","","76","L","3","","","107","main_expt","",""
"","bandit","191","574785","0.0-149.0-0.0","39517486","wem/bandit_party_2","A19XD3FEXHERAQ","either","4","482","","","","","","","0","1","0","","0.787971135","0.4","0.8","0.2","0.6","0.7654707556","0.1500242655","0.8009432675","0.787971135","","","","","","","","","","","","","","76","L","3","","","108","main_expt","",""
"","bandit","192","576672","0.0-150.0-0.0","39517486","wem/bandit_party_2","A19XD3FEXHERAQ","either","4","365","","","","","","","1","0","0","0.6866525704","","0.4","0.8","0.2","0.6","","","","","0.6288612937","0.1285750889","0.7379370491","0.6866525704","","","","","","","","","","76","L","3","","","109","main_expt","",""
"","bandit","193","578681","0.0-151.0-0.0","39517486","wem/bandit_party_2","A19XD3FEXHERAQ","either","4","491","","","","","","","0","1","0","","0.5824748378","0.4","0.8","0.2","0.6","0.6309058105","0.06279291231","0.7379992527","0.5824748378","","","","","","","","","","","","","","76","L","3","","","110","main_expt","",""
"","bandit","194","580972","0.0-152.0-0.0","39517486","wem/bandit_party_2","A19XD3FEXHERAQ","either","4","771","","","","","","","1","0","0","0.659702805","","0.4","0.8","0.2","0.6","","","","","0.6218965746","0.07144278273","0.7464430213","0.659702805","","","","","","","","","","76","L","3","","","111","main_expt","",""
"","bandit","195","582794","0.0-153.0-0.0","39517486","wem/bandit_party_2","A19XD3FEXHERAQ","either","4","304","","","","","","","0","1","0","","0.5111205641","0.4","0.8","0.2","0.6","0.6741482942","0.06013221683","0.7736339118","0.5111205641","","","","","","","","","","","","","","76","L","3","","","112","main_expt","",""
"","bandit","196","584578","0.0-154.0-0.0","39517486","wem/bandit_party_2","A19XD3FEXHERAQ","either","4","267","","","","","","","0","0","1","0.4852392648","","0.4","0.8","0.2","0.6","","","","","0.7405202534","0.1442356489","0.8480767854","0.4852392648","","","","","","","","","","76","L","3","","","113","main_expt","",""
"","bandit","197","586441","0.0-155.0-0.0","39517486","wem/bandit_party_2","A19XD3FEXHERAQ","either","4","338","","","","","","","0","0","1","","0.3531287621","0.4","0.8","0.2","0.6","0.743157628","0.1733870882","0.8016933152","0.3531287621","","","","","","","","","","","","","","76","L","3","","","114","main_expt","",""
"","bandit","198","588217","0.0-156.0-0.0","39517486","wem/bandit_party_2","A19XD3FEXHERAQ","either","4","258","","","","","","","0","1","0","","0.4090792957","0.4","0.8","0.2","0.6","0.7732583829","0.2198725907","0.8200260584","0.4090792957","","","","","","","","","","","","","","76","L","3","","","115","main_expt","",""
"","bandit","199","589850","0.0-157.0-0.0","39517486","wem/bandit_party_2","A19XD3FEXHERAQ","either","4","111","","","","","","","0","1","0","","0.6224016225","0.4","0.8","0.2","0.6","0.6224016225","0.2116870815","0.7761954976","0.4927933112","","","","","","","","","","","","","","72","H","0","img/none_selected.jpg","","116","main_expt","",""
"","bandit","200","591693","0.0-158.0-0.0","39517486","wem/bandit_party_2","A19XD3FEXHERAQ","either","4","324","","","","","","","1","0","0","0.6784399158","","0.4","0.8","0.2","0.6","","","","","0.6784399158","0.1293815938","0.7722233998","0.4255499736","","","","","","","","","","72","H","0","img/none_selected.jpg","","117","main_expt","",""
"","bandit","201","593669","0.0-159.0-0.0","39517486","wem/bandit_party_2","A19XD3FEXHERAQ","either","4","457","","","","","","","0","1","0","","0.7499631032","0.4","0.8","0.2","0.6","0.7499631032","0.1442073762","0.8049831996","0.4073726931","","","","","","","","","","","","","","72","H","0","img/none_selected.jpg","","118","main_expt","",""
"","bandit","202","595448","0.0-160.0-0.0","39517486","wem/bandit_party_2","A19XD3FEXHERAQ","either","4","259","","","","","","","0","0","1","0.6258432538","","0.4","0.8","0.2","0.6","","","","","0.6258432538","0.2098334931","0.8469405197","0.5447318884","","","","","","","","","","72","H","0","img/none_selected.jpg","","119","main_expt","",""
"","bandit","203","597397","0.0-161.0-0.0","39517486","wem/bandit_party_2","A19XD3FEXHERAQ","either","4","430","","","","","","","0","1","0","","0.5602994123","0.4","0.8","0.2","0.6","0.5602994123","0.243218138","0.783925966","0.5336717705","","","","","","","","","","","","","","72","H","0","img/none_selected.jpg","","120","main_expt","",""
"","bandit","204","599288","0.0-162.0-0.0","39517486","wem/bandit_party_2","A19XD3FEXHERAQ","either","4","374","","","","","","","0","0","1","0.1595445902","","0.4","0.8","0.2","0.6","","","","","0.5850644561","0.1595445902","0.8031476983","0.5621279662","","","","","","","","","","74","J","1","","","121","main_expt","",""
"","bandit","205","601336","0.0-163.0-0.0","39517486","wem/bandit_party_2","A19XD3FEXHERAQ","either","4","528","","","","","","","0","0","1","0.1939767007","","0.4","0.8","0.2","0.6","","","","","0.6205732407","0.1939767007","0.776878313","0.5664238538","","","","","","","","","","74","J","1","","","122","main_expt","",""
"","bandit","206","603374","0.0-164.0-0.0","39517486","wem/bandit_party_2","A19XD3FEXHERAQ","either","4","521","","","","","","","1","0","0","0.2265728871","","0.4","0.8","0.2","0.6","","","","","0.7954206102","0.2265728871","0.7695343448","0.6501842916","","","","","","","","","","74","J","1","","","123","main_expt","",""
"","bandit","207","605250","0.0-165.0-0.0","39517486","wem/bandit_party_2","A19XD3FEXHERAQ","either","4","358","","","","","","","1","0","0","0.2027469411","","0.4","0.8","0.2","0.6","","","","","0.881213352","0.2027469411","0.6154230174","0.5413703051","","","","","","","","","","74","J","1","","","124","main_expt","",""
"","bandit","208","607518","0.0-166.0-0.0","39517486","wem/bandit_party_2","A19XD3FEXHERAQ","either","4","752","","","","","","","0","0","1","0.1506135949","","0.4","0.8","0.2","0.6","","","","","0.8598562332","0.1506135949","0.4710930195","0.5191338098","","","","","","","","","","74","J","1","","","125","main_expt","",""
"","bandit","209","610077","0.0-167.0-0.0","39517486","wem/bandit_party_2","A19XD3FEXHERAQ","either","4","1039","","","","","","","0","1","0","","0.1875851228","0.4","0.8","0.2","0.6","0.867144728","0.1875851228","0.5258886302","0.6232591378","","","","","","","","","","","","","","74","J","1","","","126","main_expt","",""
"","bandit","210","611894","0.0-168.0-0.0","39517486","wem/bandit_party_2","A19XD3FEXHERAQ","either","4","299","","","","","","","0","0","1","","0.3996486754","0.4","0.8","0.2","0.6","0.8677917819","0.2106184636","0.3996486754","0.601333273","","","","","","","","","","","","","","75","K","2","","","127","main_expt","",""
"","bandit","211","613646","0.0-169.0-0.0","39517486","wem/bandit_party_2","A19XD3FEXHERAQ","either","4","229","","","","","","","0","0","1","0.3557241191","","0.4","0.8","0.2","0.6","","","","","0.8194058857","0.1276240755","0.3557241191","0.6312294041","","","","","","","","","","75","K","2","","","128","main_expt","",""
"","bandit","212","615415","0.0-170.0-0.0","39517486","wem/bandit_party_2","A19XD3FEXHERAQ","either","4","249","","","","","","","0","0","1","0.2432070908","","0.4","0.8","0.2","0.6","","","","","0.813940224","0.2163335705","0.2432070908","0.6655034733","","","","","","","","","","75","K","2","","","129","main_expt","",""
"","bandit","213","617075","0.0-171.0-0.0","39517486","wem/bandit_party_2","A19XD3FEXHERAQ","either","4","142","","","","","","","0","0","1","","0.1722843937","0.4","0.8","0.2","0.6","0.7296764962","0.2448863899","0.1722843937","0.6882303755","","","","","","","","","","","","","","75","K","2","","","130","main_expt","",""
"","bandit","214","619226","0.0-172.0-0.0","39517486","wem/bandit_party_2","A19XD3FEXHERAQ","either","4","631","","","","","","","0","1","0","","0.1336027919","0.4","0.8","0.2","0.6","0.614258276","0.3447645787","0.1336027919","0.6772884453","","","","","","","","","","","","","","75","K","2","","","131","main_expt","",""
"","bandit","215","621054","0.0-173.0-0.0","39517486","wem/bandit_party_2","A19XD3FEXHERAQ","either","4","308","","","","","","","0","0","1","0.3622527956","","0.4","0.8","0.2","0.6","","","","","0.5349540706","0.3622527956","0.1351629047","0.6773684555","","","","","","","","","","74","J","1","","","132","main_expt","",""
"","bandit","216","622879","0.0-174.0-0.0","39517486","wem/bandit_party_2","A19XD3FEXHERAQ","either","4","308","","","","","","","0","0","1","0.2961885878","","0.4","0.8","0.2","0.6","","","","","0.5449090787","0.2961885878","0.2495029","0.7437755928","","","","","","","","","","74","J","1","","","133","main_expt","",""
"","bandit","217","625317","0.0-175.0-0.0","39517486","wem/bandit_party_2","A19XD3FEXHERAQ","either","4","919","","","","","","","0","0","1","0.2932126781","","0.4","0.8","0.2","0.6","","","","","0.5037108559","0.2932126781","0.2118512663","0.7423545867","","","","","","","","","","74","J","1","","","134","main_expt","",""
"","bandit","218","627206","0.0-176.0-0.0","39517486","wem/bandit_party_2","A19XD3FEXHERAQ","either","4","368","","","","","","","1","0","0","0.2836439675","","0.4","0.8","0.2","0.6","","","","","0.5131336393","0.2836439675","0.2474577379","0.7462440124","","","","","","","","","","74","J","1","","","135","main_expt","",""
"","bandit","219","629061","0.0-177.0-0.0","39517486","wem/bandit_party_2","A19XD3FEXHERAQ","either","4","332","","","","","","","0","0","1","0.1985775905","","0.4","0.8","0.2","0.6","","","","","0.5847952324","0.1985775905","0.1496333288","0.6372772774","","","","","","","","","","74","J","1","","","136","main_expt","",""
"","bandit","220","630926","0.0-178.0-0.0","39517486","wem/bandit_party_2","A19XD3FEXHERAQ","either","4","343","","","","","","","0","0","1","","0.164835495","0.4","0.8","0.2","0.6","0.5191620222","0.2655975","0.164835495","0.6587707878","","","","","","","","","","","","","","75","K","2","","","137","main_expt","",""
"","bandit","221","632863","0.0-179.0-0.0","39517486","wem/bandit_party_2","A19XD3FEXHERAQ","either","4","417","","","","","","","1","0","0","0.6545472314","","0.4","0.8","0.2","0.6","","","","","0.3830682141","0.4066298912","0.1629561883","0.6545472314","","","","","","","","","","76","L","3","","","138","main_expt","",""
"","bandit","222","634869","0.0-180.0-0.0","39517486","wem/bandit_party_2","A19XD3FEXHERAQ","either","4","488","","","","","","","0","1","0","","0.4537429859","0.4","0.8","0.2","0.6","0.3036015776","0.4537429859","0.1162724323","0.5773899651","","","","","","","","","","","","","","74","J","1","","","139","main_expt","",""
"","bandit","223","636796","0.0-181.0-0.0","39517486","wem/bandit_party_2","A19XD3FEXHERAQ","either","4","404","","","","","","","1","0","0","0.5786924042","","0.4","0.8","0.2","0.6","","","","","0.2541790234","0.410026376","0.1262651596","0.5786924042","","","","","","","","","","76","L","3","","","140","main_expt","",""
"","bandit","224","638841","0.0-182.0-0.0","39517486","wem/bandit_party_2","A19XD3FEXHERAQ","either","4","525","","","","","","","0","1","0","","0.4589731036","0.4","0.8","0.2","0.6","0.1899663758","0.3978668086","0.1258799353","0.4589731036","","","","","","","","","","","","","","76","L","3","","","141","main_expt","",""
"","bandit","225","640746","0.0-183.0-0.0","39517486","wem/bandit_party_2","A19XD3FEXHERAQ","either","4","382","","","","","","","0","0","1","","0.1220135665","0.4","0.8","0.2","0.6","0.214868544","0.4096738096","0.1220135665","0.3667804619","","","","","","","","","","","","","","75","K","2","","","142","main_expt","",""
"","bandit","226","642616","0.0-184.0-0.0","39517486","wem/bandit_party_2","A19XD3FEXHERAQ","either","4","351","","","","","","","0","0","1","0.5422751762","","0.4","0.8","0.2","0.6","","","","","0.1549416237","0.5422751762","0.1600355681","0.3563831379","","","","","","","","","","74","J","1","","","143","main_expt","",""
"","bandit","227","644959","0.0-185.0-0.0","39517486","wem/bandit_party_2","A19XD3FEXHERAQ","either","4","824","","","","","","","1","0","0","0.6045197677","","0.4","0.8","0.2","0.6","","","","","0.2142728447","0.6045197677","0.103653669","0.3675361202","","","","","","","","","","74","J","1","","","144","main_expt","",""
"","bandit","228","647090","0.0-186.0-0.0","39517486","wem/bandit_party_2","A19XD3FEXHERAQ","either","4","616","","","","","","","1","0","0","0.6140727406","","0.4","0.8","0.2","0.6","","","","","0.2166472609","0.6140727406","0.1417267119","0.3266856562","","","","","","","","","","74","J","1","","","145","main_expt","",""
"","bandit","229","649206","0.0-187.0-0.0","39517486","wem/bandit_party_2","A19XD3FEXHERAQ","either","4","597","","","","","","","1","0","0","0.5553742365","","0.4","0.8","0.2","0.6","","","","","0.2446047688","0.5553742365","0.1508894681","0.2815179259","","","","","","","","","","74","J","1","","","146","main_expt","",""
"","bandit","230","651195","0.0-188.0-0.0","39517486","wem/bandit_party_2","A19XD3FEXHERAQ","either","4","467","","","","","","","0","0","1","","0.52787167","0.4","0.8","0.2","0.6","0.3011136322","0.52787167","0.1207147728","0.3560244833","","","","","","","","","","","","","","74","J","1","","","147","main_expt","",""
"","bandit","231","653321","0.0-189.0-0.0","39517486","wem/bandit_party_2","A19XD3FEXHERAQ","either","4","605","","","","","","","1","0","0","0.5053851794","","0.4","0.8","0.2","0.6","","","","","0.2519777133","0.5053851794","0.1362234148","0.3585854149","","","","","","","","","","74","J","1","","","148","main_expt","",""
"","bandit","232","655278","0.0-190.0-0.0","39517486","wem/bandit_party_2","A19XD3FEXHERAQ","either","4","437","","","","","","","1","0","0","0.5431256022","","0.4","0.8","0.2","0.6","","","","","0.2996109941","0.5431256022","0.1244444975","0.284478414","","","","","","","","","","74","J","1","","","149","main_expt","",""
"","bandit","233","657112","0.0-191.0-0.0","39517486","wem/bandit_party_2","A19XD3FEXHERAQ","either","4","313","","","","","","","1","0","0","0.422574086","","0.4","0.8","0.2","0.6","","","","","0.2963563975","0.422574086","0.1109305632","0.2617238314","","","","","","","","","","74","J","1","","","150","main_expt","",""
"","bandit","234","658968","0.0-192.0-0.0","39517486","wem/bandit_party_2","A19XD3FEXHERAQ","either","4","336","","","","","","","0","0","1","0.3907227364","","0.4","0.8","0.2","0.6","","","","","0.4327396174","0.3907227364","0.11412436","0.2709462114","","","","","","","","","","74","J","1","","","151","main_expt","",""
"","bandit","235","660784","0.0-193.0-0.0","39517486","wem/bandit_party_2","A19XD3FEXHERAQ","either","4","294","","","","","","","0","0","1","","0.5580814469","0.4","0.8","0.2","0.6","0.4303068123","0.5580814469","0.1469045903","0.2993716907","","","","","","","","","","","","","","74","J","1","","","152","main_expt","",""
"","bandit","236","662596","0.0-194.0-0.0","39517486","wem/bandit_party_2","A19XD3FEXHERAQ","either","4","295","","","","","","","1","0","0","0.51223936","","0.4","0.8","0.2","0.6","","","","","0.455197397","0.51223936","0.1633028487","0.2733354782","","","","","","","","","","74","J","1","","","153","main_expt","",""
"","bandit","237","664892","0.0-195.0-0.0","39517486","wem/bandit_party_2","A19XD3FEXHERAQ","either","4","773","","","","","","","1","0","0","0.4811601507","","0.4","0.8","0.2","0.6","","","","","0.6184454144","0.4811601507","0.1340882311","0.3264007987","","","","","","","","","","74","J","1","","","154","main_expt","",""
"","bandit","238","666822","0.0-196.0-0.0","39517486","wem/bandit_party_2","A19XD3FEXHERAQ","either","4","411","","","","","","","0","0","1","0.575425417","","0.4","0.8","0.2","0.6","","","","","0.5833601464","0.575425417","0.1041462846","0.204433578","","","","","","","","","","74","J","1","","","155","main_expt","",""
"","bandit","239","668767","0.0-197.0-0.0","39517486","wem/bandit_party_2","A19XD3FEXHERAQ","either","4","427","","","","","","","1","0","0","0.6109018817","","0.4","0.8","0.2","0.6","","","","","0.646897734","0.6109018817","0.08564190031","0.07451572188","","","","","","","","","","74","J","1","","","156","main_expt","",""
"","bandit","240","672130","0.0-198.0-0.0","39517486","wem/bandit_party_2","A19XD3FEXHERAQ","either","4","1845","","","","","","","0","0","1","0.6812883852","","0.4","0.8","0.2","0.6","","","","","0.6912470103","0.6812883852","0.06977116317","0.1251686374","","","","","","","","","","74","J","1","","","157","main_expt","",""
"","bandit","241","674487","0.0-199.0-0.0","39517486","wem/bandit_party_2","A19XD3FEXHERAQ","either","4","837","","","","","","","0","0","1","0.73777041","","0.4","0.8","0.2","0.6","","","","","0.7865398282","0.73777041","0.1504927074","0.1292052795","","","","","","","","","","74","J","1","","","158","main_expt","",""
"","bandit","242","676476","0.0-200.0-0.0","39517486","wem/bandit_party_2","A19XD3FEXHERAQ","either","4","471","","","","","","","1","0","0","0.8388849062","","0.4","0.8","0.2","0.6","","","","","0.7220910122","0.8388849062","0.1429264201","0.1200050714","","","","","","","","","","74","J","1","","","159","main_expt","",""
"","bandit","243","679885","0.0-201.0-0.0","39517486","wem/bandit_party_2","A19XD3FEXHERAQ","either","4","1879","","","","","","","1","0","0","0.8006667519","","0.4","0.8","0.2","0.6","","","","","0.710563805","0.8006667519","0.1832893837","0.1156014834","","","","","","","","","","74","J","1","","","160","main_expt","",""
"","bandit","244","685742","0.0-202.0-0.0","39517486","wem/bandit_party_2","A19XD3FEXHERAQ","either","4","4335","","","","","","","0","0","1","0.7406956812","","0.4","0.8","0.2","0.6","","","","","0.6205281072","0.7406956812","0.2337310763","0.1425751263","","","","","","","","","","74","J","1","","","161","main_expt","",""
"","bandit","245","702068","0.0-203.0-0.0","39517486","wem/bandit_party_2","A19XD3FEXHERAQ","either","4","14807","","","","","","","0","0","1","0.775259894","","0.4","0.8","0.2","0.6","","","","","0.5246840185","0.775259894","0.2326198937","0.2108345254","","","","","","","","","","74","J","1","","","162","main_expt","",""
"","bandit","246","704027","0.0-204.0-0.0","39517486","wem/bandit_party_2","A19XD3FEXHERAQ","either","4","438","","","","","","","1","0","0","0.6539471222","","0.4","0.8","0.2","0.6","","","","","0.569340372","0.6539471222","0.1584290897","0.1664621688","","","","","","","","","","74","J","1","","","163","main_expt","",""
"","bandit","247","705860","0.0-205.0-0.0","39517486","wem/bandit_party_2","A19XD3FEXHERAQ","either","4","312","","","","","","","1","0","0","0.7914062868","","0.4","0.8","0.2","0.6","","","","","0.5688323765","0.7914062868","0.1417900361","0.1741279052","","","","","","","","","","74","J","1","","","164","main_expt","",""
"","bandit","248","707662","0.0-206.0-0.0","39517486","wem/bandit_party_2","A19XD3FEXHERAQ","either","4","280","","","","","","","1","0","0","0.8415061218","","0.4","0.8","0.2","0.6","","","","","0.5195648955","0.8415061218","0.08849486786","0.1891196979","","","","","","","","","","74","J","1","","","165","main_expt","",""
"","bandit","249","709513","0.0-207.0-0.0","39517486","wem/bandit_party_2","A19XD3FEXHERAQ","either","4","327","","","","","","","0","0","1","0.9084068317","","0.4","0.8","0.2","0.6","","","","","0.536500984","0.9084068317","0.1010416226","0.3016440744","","","","","","","","","","74","J","1","","","166","main_expt","",""
"","bandit","250","711317","0.0-208.0-0.0","39517486","wem/bandit_party_2","A19XD3FEXHERAQ","either","4","282","","","","","","","1","0","0","0.8857506799","","0.4","0.8","0.2","0.6","","","","","0.4243381616","0.8857506799","0.1506776516","0.3427468607","","","","","","","","","","74","J","1","","","167","main_expt","",""
"","bandit","251","713184","0.0-209.0-0.0","39517486","wem/bandit_party_2","A19XD3FEXHERAQ","either","4","346","","","","","","","1","0","0","0.9247721234","","0.4","0.8","0.2","0.6","","","","","0.4877327119","0.9247721234","0.2532220847","0.3759001064","","","","","","","","","","74","J","1","","","168","main_expt","",""
"","bandit","252","715003","0.0-210.0-0.0","39517486","wem/bandit_party_2","A19XD3FEXHERAQ","either","4","298","","","","","","","1","0","0","0.8870410368","","0.4","0.8","0.2","0.6","","","","","0.5096331713","0.8870410368","0.2223654062","0.3824832387","","","","","","","","","","74","J","1","","","169","main_expt","",""
"","bandit","253","716794","0.0-211.0-0.0","39517486","wem/bandit_party_2","A19XD3FEXHERAQ","either","4","273","","","","","","","0","0","1","0.8782412079","","0.4","0.8","0.2","0.6","","","","","0.6111595203","0.8782412079","0.2161840498","0.3257043992","","","","","","","","","","74","J","1","","","170","main_expt","",""
"","bandit","254","718608","0.0-212.0-0.0","39517486","wem/bandit_party_2","A19XD3FEXHERAQ","either","4","294","","","","","","","0","0","1","","0.7978982074","0.4","0.8","0.2","0.6","0.5888321224","0.7978982074","0.1996440145","0.2943589708","","","","","","","","","","","","","","74","J","1","","","171","main_expt","",""
"","bandit","255","720571","0.0-213.0-0.0","39517486","wem/bandit_party_2","A19XD3FEXHERAQ","either","4","444","","","","","","","0","0","1","","0.7896885826","0.4","0.8","0.2","0.6","0.6295404033","0.7896885826","0.275753823","0.4298537702","","","","","","","","","","","","","","74","J","1","","","172","main_expt","",""
"","bandit","256","722496","0.0-214.0-0.0","39517486","wem/bandit_party_2","A19XD3FEXHERAQ","either","4","404","","","","","","","0","0","1","0.7771385218","","0.4","0.8","0.2","0.6","","","","","0.5976712981","0.7771385218","0.2850946521","0.4196262671","","","","","","","","","","74","J","1","","","173","main_expt","",""
"","bandit","257","724782","0.0-215.0-0.0","39517486","wem/bandit_party_2","A19XD3FEXHERAQ","either","4","765","","","","","","","0","0","1","0.8412209493","","0.4","0.8","0.2","0.6","","","","","0.5936331925","0.8412209493","0.2836726952","0.4056978145","","","","","","","","","","74","J","1","","","174","main_expt","",""
"","bandit","258","726780","0.0-216.0-0.0","39517486","wem/bandit_party_2","A19XD3FEXHERAQ","either","4","476","","","","","","","1","0","0","0.8433491626","","0.4","0.8","0.2","0.6","","","","","0.544145328","0.8433491626","0.27413619","0.3323311207","","","","","","","","","","74","J","1","","","175","main_expt","",""
"","bandit","259","728830","0.0-217.0-0.0","39517486","wem/bandit_party_2","A19XD3FEXHERAQ","either","4","527","","","","","","","0","1","0","","0.778586436","0.4","0.8","0.2","0.6","0.3584947592","0.778586436","0.2369491767","0.3087900888","","","","","","","","","","","","","","74","J","1","","","176","main_expt","",""
"","bandit","260","730694","0.0-218.0-0.0","39517486","wem/bandit_party_2","A19XD3FEXHERAQ","either","4","337","","","","","","","1","0","0","0.7488794252","","0.4","0.8","0.2","0.6","","","","","0.436171931","0.7488794252","0.3440943848","0.3898613412","","","","","","","","","","74","J","1","","","177","main_expt","",""
"","bandit","261","732613","0.0-219.0-0.0","39517486","wem/bandit_party_2","A19XD3FEXHERAQ","either","4","396","","","","","","","0","0","1","0.7738581751","","0.4","0.8","0.2","0.6","","","","","0.5193680035","0.7738581751","0.3529135521","0.5236321052","","","","","","","","","","74","J","1","","","178","main_expt","",""
"","bandit","262","734637","0.0-220.0-0.0","39517486","wem/bandit_party_2","A19XD3FEXHERAQ","either","4","500","","","","","","","1","0","0","0.7527820287","","0.4","0.8","0.2","0.6","","","","","0.3957798075","0.7527820287","0.3787243664","0.2955080601","","","","","","","","","","74","J","1","","","179","main_expt","",""
"","bandit","263","736871","0.0-221.0-0.0","39517486","wem/bandit_party_2","A19XD3FEXHERAQ","either","4","712","","","","","","","1","0","0","0.8022950929","","0.4","0.8","0.2","0.6","","","","","0.4249873197","0.8022950929","0.3092677326","0.3174151272","","","","","","","","","","74","J","1","","","180","main_expt","",""
"","bandit","264","738839","0.0-222.0-0.0","39517486","wem/bandit_party_2","A19XD3FEXHERAQ","either","4","446","","","","","","","0","0","1","0.7505347306","","0.4","0.8","0.2","0.6","","","","","0.4260342439","0.7505347306","0.3701559146","0.3560995969","","","","","","","","","","74","J","1","","","181","main_expt","",""
"","bandit","265","740802","0.0-223.0-0.0","39517486","wem/bandit_party_2","A19XD3FEXHERAQ","either","4","439","","","","","","","1","0","0","0.603349844","","0.4","0.8","0.2","0.6","","","","","0.4305619521","0.603349844","0.2672844749","0.4649908644","","","","","","","","","","74","J","1","","","182","main_expt","",""
"","bandit","266","742594","0.0-224.0-0.0","39517486","wem/bandit_party_2","A19XD3FEXHERAQ","either","4","267","","","","","","","0","0","1","0.6464544124","","0.4","0.8","0.2","0.6","","","","","0.4638513582","0.6464544124","0.3046315644","0.4588174784","","","","","","","","","","74","J","1","","","183","main_expt","",""
"","bandit","267","744357","0.0-225.0-0.0","39517486","wem/bandit_party_2","A19XD3FEXHERAQ","either","4","242","","","","","","","0","0","1","","0.6606024443","0.4","0.8","0.2","0.6","0.5084330557","0.6606024443","0.3507685813","0.509799977","","","","","","","","","","","","","","74","J","1","","","184","main_expt","",""
"","bandit","268","746099","0.0-226.0-0.0","39517486","wem/bandit_party_2","A19XD3FEXHERAQ","either","4","221","","","","","","","0","0","1","","0.7034535028","0.4","0.8","0.2","0.6","0.5853778332","0.7034535028","0.3250269766","0.4557178443","","","","","","","","","","","","","","74","J","1","","","185","main_expt","",""
"","bandit","269","747944","0.0-227.0-0.0","39517486","wem/bandit_party_2","A19XD3FEXHERAQ","either","4","320","","","","","","","1","0","0","0.7672503758","","0.4","0.8","0.2","0.6","","","","","0.5009207633","0.7672503758","0.3636669497","0.3250172706","","","","","","","","","","74","J","1","","","186","main_expt","",""
"","bandit","270","749738","0.0-228.0-0.0","39517486","wem/bandit_party_2","A19XD3FEXHERAQ","either","4","270","","","","","","","1","0","0","0.7505037824","","0.4","0.8","0.2","0.6","","","","","0.4376492532","0.7505037824","0.4095027401","0.2982192525","","","","","","","","","","74","J","1","","","187","main_expt","",""
"","bandit","271","751453","0.0-229.0-0.0","39517486","wem/bandit_party_2","A19XD3FEXHERAQ","either","4","192","","","","","","","1","0","0","0.7458261356","","0.4","0.8","0.2","0.6","","","","","0.317868257","0.7458261356","0.3356624093","0.2647713636","","","","","","","","","","74","J","1","","","188","main_expt","",""
"","bandit","272","753307","0.0-230.0-0.0","39517486","wem/bandit_party_2","A19XD3FEXHERAQ","either","4","334","","","","","","","0","1","0","","0.747965221","0.4","0.8","0.2","0.6","0.3700786551","0.747965221","0.3717951419","0.2798663258","","","","","","","","","","","","","","74","J","1","","","189","main_expt","",""
"","bandit","273","755104","0.0-231.0-0.0","39517486","wem/bandit_party_2","A19XD3FEXHERAQ","either","4","272","","","","","","","0","0","1","0.7459095382","","0.4","0.8","0.2","0.6","","","","","0.3423477616","0.7459095382","0.3266606931","0.2146362806","","","","","","","","","","74","J","1","","","190","main_expt","",""
"","bandit","274","756935","0.0-232.0-0.0","39517486","wem/bandit_party_2","A19XD3FEXHERAQ","either","4","307","","","","","","","0","1","0","","0.6299055833","0.4","0.8","0.2","0.6","0.2488230813","0.6299055833","0.4206899072","0.3132783624","","","","","","","","","","","","","","74","J","1","","","191","main_expt","",""
"","bandit","275","758850","0.0-233.0-0.0","39517486","wem/bandit_party_2","A19XD3FEXHERAQ","either","4","391","","","","","","","0","1","0","","0.2488083766","0.4","0.8","0.2","0.6","0.2193108308","0.688533977","0.4982817076","0.2488083766","","","","","","","","","","","","","","76","L","3","","","192","main_expt","",""
"","bandit","276","760613","0.0-234.0-0.0","39517486","wem/bandit_party_2","A19XD3FEXHERAQ","either","4","235","","","","","","","0","0","1","0.225611763","","0.4","0.8","0.2","0.6","","","","","0.4057276106","0.7176496952","0.4820211017","0.225611763","","","","","","","","","","76","L","3","","","193","main_expt","",""
"","bandit","277","762372","0.0-235.0-0.0","39517486","wem/bandit_party_2","A19XD3FEXHERAQ","either","4","235","","","","","","","0","0","1","0.2159393038","","0.4","0.8","0.2","0.6","","","","","0.3826056333","0.746212457","0.5373891537","0.2159393038","","","","","","","","","","76","L","3","","","194","main_expt","",""
"","bandit","278","764129","0.0-236.0-0.0","39517486","wem/bandit_party_2","A19XD3FEXHERAQ","either","4","232","","","","","","","0","0","1","0.3112228701","","0.4","0.8","0.2","0.6","","","","","0.4922935908","0.6800784202","0.3890275207","0.3112228701","","","","","","","","","","76","L","3","","","195","main_expt","",""
"","bandit","279","765847","0.0-237.0-0.0","39517486","wem/bandit_party_2","A19XD3FEXHERAQ","either","4","195","","","","","","","0","0","1","0.3249051539","","0.4","0.8","0.2","0.6","","","","","0.5475793877","0.5986295964","0.4329462643","0.3249051539","","","","","","","","","","76","L","3","","","196","main_expt","",""
"","bandit","280","767478","0.0-238.0-0.0","39517486","wem/bandit_party_2","A19XD3FEXHERAQ","either","4","108","","","","","","","0","0","1","0.2985018541","","0.4","0.8","0.2","0.6","","","","","0.6069385875","0.5323622673","0.416825946","0.2985018541","","","","","","","","","","76","L","3","","","197","main_expt","",""
"","bandit","281","769104","0.0-239.0-0.0","39517486","wem/bandit_party_2","A19XD3FEXHERAQ","either","4","105","","","","","","","0","0","1","0.3109366799","","0.4","0.8","0.2","0.6","","","","","0.4946816555","0.5348043844","0.4063336836","0.3109366799","","","","","","","","","","76","L","3","","","198","main_expt","",""
"","bandit","282","770842","0.0-240.0-0.0","39517486","wem/bandit_party_2","A19XD3FEXHERAQ","either","4","211","","","","","","","0","0","1","0.3143364341","","0.4","0.8","0.2","0.6","","","","","0.479635203","0.4534403339","0.361264989","0.3143364341","","","","","","","","","","76","L","3","","","199","main_expt","",""
"","bandit","283","772502","0.0-241.0-0.0","39517486","wem/bandit_party_2","A19XD3FEXHERAQ","either","4","134","","","","","","","1","0","0","0.3176919365","","0.4","0.8","0.2","0.6","","","","","0.4969837249","0.4185876589","0.4700223374","0.3176919365","","","","","","","","","","76","L","3","","","200","main_expt","",""
"","bandit","284","774231","0.0-242.0-0.0","39517486","wem/bandit_party_2","A19XD3FEXHERAQ","either","4","206","","","","","","","0","0","1","0.2848283651","","0.4","0.8","0.2","0.6","","","","","0.4548125401","0.3812211227","0.4751543938","0.2848283651","","","","","","","","","","76","L","3","","","201","main_expt","",""
"","bandit","285","775827","0.0-243.0-0.0","39517486","wem/bandit_party_2","A19XD3FEXHERAQ","either","4","69","","","","","","","0","0","1","0.2439676923","","0.4","0.8","0.2","0.6","","","","","0.5767771981","0.4414728031","0.4044794657","0.2439676923","","","","","","","","","","76","L","3","","","202","main_expt","",""
"","bandit","286","777381","0.0-244.0-0.0","39517486","wem/bandit_party_2","A19XD3FEXHERAQ","either","4","30","","","","","","","0","0","1","0.2582922662","","0.4","0.8","0.2","0.6","","","","","0.6118171827","0.3698030662","0.3321077444","0.2582922662","","","","","","","","","","76","L","3","","","203","main_expt","",""
"","bandit","287","778987","0.0-245.0-0.0","39517486","wem/bandit_party_2","A19XD3FEXHERAQ","either","4","84","","","","","","","1","0","0","0.3697340749","","0.4","0.8","0.2","0.6","","","","","0.5373194108","0.4899087748","0.3697340749","0.3799793739","","","","","","","","","","75","K","2","","","204","main_expt","",""
"","bandit","288","780680","0.0-246.0-0.0","39517486","wem/bandit_party_2","A19XD3FEXHERAQ","either","4","169","","","","","","","0","0","1","","0.3998168993","0.4","0.8","0.2","0.6","0.5501461309","0.4310108402","0.3998168993","0.4441528059","","","","","","","","","","","","","","75","K","2","","","205","main_expt","",""
"","bandit","289","782410","0.0-247.0-0.0","39517486","wem/bandit_party_2","A19XD3FEXHERAQ","either","4","205","","","","","","","0","1","0","","0.5094027242","0.4","0.8","0.2","0.6","0.5094027242","0.3912115078","0.4929909192","0.4468516792","","","","","","","","","","","","","","72","H","0","img/none_selected.jpg","","206","main_expt","",""
"","bandit","290","784137","0.0-248.0-0.0","39517486","wem/bandit_party_2","A19XD3FEXHERAQ","either","4","204","","","","","","","1","0","0","0.6449696869","","0.4","0.8","0.2","0.6","","","","","0.6449696869","0.3195818707","0.4960693894","0.399366085","","","","","","","","","","72","H","0","img/none_selected.jpg","","207","main_expt","",""
"","bandit","291","785814","0.0-249.0-0.0","39517486","wem/bandit_party_2","A19XD3FEXHERAQ","either","4","154","","","","","","","0","1","0","","0.549996868","0.4","0.8","0.2","0.6","0.549996868","0.2378171997","0.3912862986","0.4206610772","","","","","","","","","","","","","","72","H","0","img/none_selected.jpg","","208","main_expt","",""
"","bandit","292","788065","0.0-250.0-0.0","39517486","wem/bandit_party_2","A19XD3FEXHERAQ","either","4","728","","","","","","","0","0","1","","0.5258833792","0.4","0.8","0.2","0.6","0.5258833792","0.2339104391","0.4218938049","0.5145499259","","","","","","","","","","","","","","72","H","0","img/none_selected.jpg","","209","main_expt","",""
"","bandit","293","789669","0.0-251.0-0.0","39517486","wem/bandit_party_2","A19XD3FEXHERAQ","either","4","77","","","","","","","0","0","1","0.2506558306","","0.4","0.8","0.2","0.6","","","","","0.5453980868","0.2506558306","0.6003160005","0.3497539355","","","","","","","","","","74","J","1","","","210","main_expt","",""
"","bandit","294","791552","0.0-252.0-0.0","39517486","wem/bandit_party_2","A19XD3FEXHERAQ","either","4","360","","","","","","","0","1","0","","0.5481562991","0.4","0.8","0.2","0.6","0.5370950561","0.3466578502","0.5481562991","0.3335821388","","","","","","","","","","","","","","75","K","2","","","211","main_expt","",""
"","bandit","295","793456","0.0-253.0-0.0","39517486","wem/bandit_party_2","A19XD3FEXHERAQ","either","4","379","","","","","","","1","0","0","0.5774996514","","0.4","0.8","0.2","0.6","","","","","0.5774996514","0.4162959965","0.6210595125","0.2778022227","","","","","","","","","","72","H","0","img/none_selected.jpg","","212","main_expt","",""
"","bandit","296","795285","0.0-254.0-0.0","39517486","wem/bandit_party_2","A19XD3FEXHERAQ","either","4","305","","","","","","","0","0","1","","0.4826056363","0.4","0.8","0.2","0.6","0.4826056363","0.545788555","0.7732161257","0.2949104287","","","","","","","","","","","","","","72","H","0","img/none_selected.jpg","","213","main_expt","",""
"","bandit","297","797212","0.0-255.0-0.0","39517486","wem/bandit_party_2","A19XD3FEXHERAQ","either","4","403","","","","","","","0","0","1","0.4913277851","","0.4","0.8","0.2","0.6","","","","","0.4913277851","0.6077749924","0.7689771773","0.2443343027","","","","","","","","","","72","H","0","img/none_selected.jpg","","214","main_expt","",""
"","bandit","298","799011","0.0-256.0-0.0","39517486","wem/bandit_party_2","A19XD3FEXHERAQ","either","4","275","","","","","","","0","0","1","","0.5415006571","0.4","0.8","0.2","0.6","0.5415006571","0.4883429648","0.6841712945","0.2232989174","","","","","","","","","","","","","","72","H","0","img/none_selected.jpg","","215","main_expt","",""
"","bandit","299","800884","0.0-257.0-0.0","39517486","wem/bandit_party_2","A19XD3FEXHERAQ","either","4","349","","","","","","","0","0","1","","0.5198015267","0.4","0.8","0.2","0.6","0.5198015267","0.3309854328","0.7019934296","0.2918619336","","","","","","","","","","","","","","72","H","0","img/none_selected.jpg","","216","main_expt","",""
"","bandit","300","802691","0.0-258.0-0.0","39517486","wem/bandit_party_2","A19XD3FEXHERAQ","either","4","284","","","","","","","0","1","0","","0.545097872","0.4","0.8","0.2","0.6","0.545097872","0.3310528633","0.7537099884","0.3571058798","","","","","","","","","","","","","","72","H","0","img/none_selected.jpg","","217","main_expt","",""
"","bandit","301","804467","0.0-259.0-0.0","39517486","wem/bandit_party_2","A19XD3FEXHERAQ","either","4","253","","","","","","","0","1","0","","0.5776025334","0.4","0.8","0.2","0.6","0.5776025334","0.4147218791","0.8428980993","0.3738303097","","","","","","","","","","","","","","72","H","0","img/none_selected.jpg","","218","main_expt","",""
"","bandit","302","806225","0.0-260.0-0.0","39517486","wem/bandit_party_2","A19XD3FEXHERAQ","either","4","236","","","","","","","1","0","0","0.5616346574","","0.4","0.8","0.2","0.6","","","","","0.5616346574","0.3402104323","0.8007326434","0.4832874948","","","","","","","","","","72","H","0","img/none_selected.jpg","","219","main_expt","",""
"","bandit","303","808119","0.0-261.0-0.0","39517486","wem/bandit_party_2","A19XD3FEXHERAQ","either","4","371","","","","","","","0","0","1","","0.6261942659","0.4","0.8","0.2","0.6","0.6261942659","0.3448871422","0.8518850648","0.475455537","","","","","","","","","","","","","","72","H","0","img/none_selected.jpg","","220","main_expt","",""
"","bandit","304","809890","0.0-262.0-0.0","39517486","wem/bandit_party_2","A19XD3FEXHERAQ","either","4","245","","","","","","","1","0","0","0.4438284365","","0.4","0.8","0.2","0.6","","","","","0.6533416475","0.4438284365","0.8488451861","0.3849790123","","","","","","","","","","74","J","1","","","221","main_expt","",""
"","bandit","305","811700","0.0-263.0-0.0","39517486","wem/bandit_party_2","A19XD3FEXHERAQ","either","4","287","","","","","","","0","1","0","","0.3768672835","0.4","0.8","0.2","0.6","0.6780524799","0.3768672835","0.8202185963","0.2708628555","","","","","","","","","","","","","","74","J","1","","","222","main_expt","",""
"","bandit","306","813514","0.0-264.0-0.0","39517486","wem/bandit_party_2","A19XD3FEXHERAQ","either","4","288","","","","","","","0","0","1","0.4599748191","","0.4","0.8","0.2","0.6","","","","","0.638470603","0.4599748191","0.839196386","0.3886191555","","","","","","","","","","74","J","1","","","223","main_expt","",""
"","bandit","307","815287","0.0-265.0-0.0","39517486","wem/bandit_party_2","A19XD3FEXHERAQ","either","4","250","","","","","","","1","0","0","0.5868274652","","0.4","0.8","0.2","0.6","","","","","0.560582988","0.5868274652","0.8340435664","0.3352763987","","","","","","","","","","74","J","1","","","224","main_expt","",""
"","bandit","308","817095","0.0-266.0-0.0","39517486","wem/bandit_party_2","A19XD3FEXHERAQ","either","4","283","","","","","","","0","1","0","","0.510759767","0.4","0.8","0.2","0.6","0.5004803289","0.510759767","0.8229669419","0.3948846532","","","","","","","","","","","","","","74","J","1","","","225","main_expt","",""
"","bandit","309","818925","0.0-267.0-0.0","39517486","wem/bandit_party_2","A19XD3FEXHERAQ","either","4","308","","","","","","","1","0","0","0.6026028704","","0.4","0.8","0.2","0.6","","","","","0.5109709899","0.6026028704","0.8326575293","0.385279681","","","","","","","","","","74","J","1","","","226","main_expt","",""
"","bandit","310","820853","0.0-268.0-0.0","39517486","wem/bandit_party_2","A19XD3FEXHERAQ","either","4","402","","","","","","","0","0","1","","0.588132951","0.4","0.8","0.2","0.6","0.4271661703","0.588132951","0.8904476858","0.3296530349","","","","","","","","","","","","","","74","J","1","","","227","main_expt","",""
"","bandit","311","822598","0.0-269.0-0.0","39517486","wem/bandit_party_2","A19XD3FEXHERAQ","either","4","223","","","","","","","1","0","0","0.8877596604","","0.4","0.8","0.2","0.6","","","","","0.374673526","0.5754590721","0.8877596604","0.4227788413","","","","","","","","","","75","K","2","","","228","main_expt","",""
"","bandit","312","824436","0.0-270.0-0.0","39517486","wem/bandit_party_2","A19XD3FEXHERAQ","either","4","313","","","","","","","0","1","0","","0.8647697669","0.4","0.8","0.2","0.6","0.393435759","0.6311951266","0.8647697669","0.4470353227","","","","","","","","","","","","","","75","K","2","","","229","main_expt","",""
"","bandit","313","826237","0.0-271.0-0.0","39517486","wem/bandit_party_2","A19XD3FEXHERAQ","either","4","274","","","","","","","0","1","0","","0.8704214291","0.4","0.8","0.2","0.6","0.3299431778","0.6164228117","0.8704214291","0.2986819632","","","","","","","","","","","","","","75","K","2","","","230","main_expt","",""
"","bandit","314","837471","0.0-272.0-0.0","39517486","wem/bandit_party_2","A19XD3FEXHERAQ","either","4","9711","","","","","","","0","0","1","","0.4508866759","0.4","0.8","0.2","0.6","0.3477061432","0.5943568022","0.8598686354","0.4508866759","","","","","","","","","","","","","","76","L","3","","","231","main_expt","",""
"","bandit","315","840646","0.0-273.0-0.0","39517486","wem/bandit_party_2","A19XD3FEXHERAQ","either","4","1653","","","","","","","1","0","0","0.5125968159","","0.4","0.8","0.2","0.6","","","","","0.3430234075","0.6032910051","0.7939027672","0.5125968159","","","","","","","","","","76","L","3","","","232","main_expt","",""
