"consent","trial_type","trial_index","time_elapsed","internal_node_id","subjID","study","MID","cond","drift","rt","responses","button_pressed","key_press","like","value","connected","gems","bombs","no_reward","GemPrChosen","BombPrChosen","GainOverPainPr_0","GainOverPainPr_1","GainOverPainPr_2","GainOverPainPr_3","LosePr_0","LosePr_1","LosePr_2","LosePr_3","WinPr_0","WinPr_1","WinPr_2","WinPr_3","Q0","Q1","Q2","gender","age","ethnicity","label","expt_phase","target","respCharCode","respKey","respChoiceNum","respChoice","practice","trial_counter","trial_label","Q0_index","view_history"
"GDM/GDM_behavioral_consent_30min_online.html","consent","0","10584","0.0-0.0","42231721","wem/bandit_party_2","A3UNLVZ3F1EZBS","either","1","","","","","","","","","","","","","","","","","","","","","","","","","","","","","","","","","","","","","","","","","",""
"","survey-text","1","19609","0.0-1.0","42231721","wem/bandit_party_2","A3UNLVZ3F1EZBS","either","1","7994","{""Q0"":""A3UNLVZ3F1EZBS""}","","","","","","","","","","","","","","","","","","","","","","","","","","","","","","","","","","","","","","","",""
"","button-response","2","22589","0.0-2.0","42231721","wem/bandit_party_2","A3UNLVZ3F1EZBS","either","1","1958","","1","","","","","","","","","","","","","","","","","","","","","","","","","","","","","","","","","","","","","","",""
"","text-replacement","3","34353","0.0-3.0","42231721","wem/bandit_party_2","A3UNLVZ3F1EZBS","either","1","10747","","","32","","","","","","","","","","","","","","","","","","","","","","","","","","","","","","","","","","","","","",""
"","text-replacement","4","45410","0.0-4.0","42231721","wem/bandit_party_2","A3UNLVZ3F1EZBS","either","1","11045","","","32","","","","","","","","","","","","","","","","","","","","","","","","","","","","","","","","","","","","","",""
"","identification","5","53732","0.0-6.0-0.0","42231721","wem/bandit_party_2","A3UNLVZ3F1EZBS","either","1","8249","","","","6","6","6","","","","","","","","","","","","","","","","","","","","","","","","pre","identification_pre","the Democratic Party","","","","","","","","",""
"","identification","6","58771","0.0-6.0-1.0","42231721","wem/bandit_party_2","A3UNLVZ3F1EZBS","either","1","3962","","","","4","4","4","","","","","","","","","","","","","","","","","","","","","","","","pre","identification_pre","the Republican Party","","","","","","","","",""
"","text-replacement","7","75858","0.0-7.0","42231721","wem/bandit_party_2","A3UNLVZ3F1EZBS","either","1","16082","","","32","","","","","","","","","","","","","","","","","","","","","","","","","","","","","","","","","","","","","",""
"","text-replacement","8","90243","0.0-8.0","42231721","wem/bandit_party_2","A3UNLVZ3F1EZBS","either","1","14377","","","32","","","","","","","","","","","","","","","","","","","","","","","","","","","","","","","","","","","","","",""
"","text-replacement","9","103110","0.0-9.0","42231721","wem/bandit_party_2","A3UNLVZ3F1EZBS","either","1","12852","","","32","","","","","","","","","","","","","","","","","","","","","","","","","","","","","","","","","","","","","",""
"","text-replacement","10","109339","0.0-10.0","42231721","wem/bandit_party_2","A3UNLVZ3F1EZBS","either","1","6219","","","32","","","","","","","","","","","","","","","","","","","","","","","","","","","","","","","","","","","","","",""
"","text-replacement","11","113713","0.0-11.0","42231721","wem/bandit_party_2","A3UNLVZ3F1EZBS","either","1","4366","","","32","","","","","","","","","","","","","","","","","","","","","","","","","","","","","","","","","","","","","",""
"","bandit","12","118850","0.0-12.0-0.0","42231721","wem/bandit_party_2","A3UNLVZ3F1EZBS","either","1","3581","","","","","","","0","0","1","0","0","","","","","0","","","","0","","","","","","","","","","","","","74","J","0","img/none_selected_demo.jpg","true","0","","",""
"","bandit","13","122182","0.0-13.0-0.0","42231721","wem/bandit_party_2","A3UNLVZ3F1EZBS","either","1","1794","","","","","","","0","0","1","0","0","","","","","0","","","","0","","","","","","","","","","","","","75","K","0","img/none_selected_demo.jpg","true","0","","",""
"","text-replacement","14","130491","0.0-14.0","42231721","wem/bandit_party_2","A3UNLVZ3F1EZBS","either","1","8298","","","32","","","","","","","","","","","","","","","","","","","","","","","","","","","","","","","","","","","","","",""
"","text-replacement","15","136262","0.0-15.0","42231721","wem/bandit_party_2","A3UNLVZ3F1EZBS","either","1","5760","","","32","","","","","","","","","","","","","","","","","","","","","","","","","","","","","","","","","","","","","",""
"","text-replacement","16","142721","0.0-16.0","42231721","wem/bandit_party_2","A3UNLVZ3F1EZBS","either","1","6449","","","32","","","","","","","","","","","","","","","","","","","","","","","","","","","","","","","","","","","","","",""
"","text-replacement","17","146029","0.0-17.0","42231721","wem/bandit_party_2","A3UNLVZ3F1EZBS","either","1","3299","","","32","","","","","","","","","","","","","","","","","","","","","","","","","","","","","","","","","","","","","",""
"","bandit","18","149935","0.0-18.0-0.0","42231721","wem/bandit_party_2","A3UNLVZ3F1EZBS","either","1","2368","","","","","","","0","0","1","","0.2","0.5","0.5","","","0.8","0.2","","","","","","","","","","","","","","","","75","K","1","","true","0","80_20_practice","",""
"","bandit","19","153269","0.0-18.0-1.0","42231721","wem/bandit_party_2","A3UNLVZ3F1EZBS","either","1","1796","","","","","","","0","0","1","0.8","","0.5","0.5","","","","","","","0.8","0.2","","","","","","","","","","","","74","J","0","img/none_selected_demo.jpg","true","0","80_20_practice","",""
"","bandit","20","155897","0.0-18.0-2.0","42231721","wem/bandit_party_2","A3UNLVZ3F1EZBS","either","1","1094","","","","","","","1","0","0","0.8","","0.5","0.5","","","","","","","0.8","0.2","","","","","","","","","","","","74","J","0","img/none_selected_demo.jpg","true","0","80_20_practice","",""
"","bandit","21","158669","0.0-18.0-3.0","42231721","wem/bandit_party_2","A3UNLVZ3F1EZBS","either","1","1229","","","","","","","0","0","1","","0.2","0.5","0.5","","","0.8","0.2","","","","","","","","","","","","","","","","75","K","1","","true","0","80_20_practice","",""
"","bandit","22","162853","0.0-18.0-4.0","42231721","wem/bandit_party_2","A3UNLVZ3F1EZBS","either","1","2650","","","","","","","0","1","0","","0.8","0.5","0.5","","","0.8","0.2","","","","","","","","","","","","","","","","74","J","0","img/none_selected_demo.jpg","true","0","80_20_practice","",""
"","bandit","23","165840","0.0-18.0-5.0","42231721","wem/bandit_party_2","A3UNLVZ3F1EZBS","either","1","1446","","","","","","","0","0","1","0.8","","0.5","0.5","","","","","","","0.8","0.2","","","","","","","","","","","","74","J","0","img/none_selected_demo.jpg","true","0","80_20_practice","",""
"","bandit","24","167378","0.0-18.0-6.0","42231721","wem/bandit_party_2","A3UNLVZ3F1EZBS","either","1","4","","","","","","","0","1","0","","0.8","0.5","0.5","","","0.8","0.2","","","","","","","","","","","","","","","","74","J","0","img/none_selected_demo.jpg","true","0","80_20_practice","",""
"","bandit","25","169053","0.0-18.0-7.0","42231721","wem/bandit_party_2","A3UNLVZ3F1EZBS","either","1","141","","","","","","","1","0","0","0.8","","0.5","0.5","","","","","","","0.8","0.2","","","","","","","","","","","","74","J","0","img/none_selected_demo.jpg","true","0","80_20_practice","",""
"","bandit","26","171337","0.0-18.0-8.0","42231721","wem/bandit_party_2","A3UNLVZ3F1EZBS","either","1","750","","","","","","","1","0","0","0.8","","0.5","0.5","","","","","","","0.8","0.2","","","","","","","","","","","","74","J","0","img/none_selected_demo.jpg","true","0","80_20_practice","",""
"","bandit","27","173397","0.0-18.0-9.0","42231721","wem/bandit_party_2","A3UNLVZ3F1EZBS","either","1","520","","","","","","","0","1","0","","0.2","0.5","0.5","","","0.8","0.2","","","","","","","","","","","","","","","","75","K","1","","true","0","80_20_practice","",""
"","bandit","28","175976","0.0-18.0-10.0","42231721","wem/bandit_party_2","A3UNLVZ3F1EZBS","either","1","1042","","","","","","","0","0","1","0.2","","0.5","0.5","","","","","","","0.8","0.2","","","","","","","","","","","","75","K","1","","true","0","80_20_practice","",""
"","bandit","29","177760","0.0-18.0-11.0","42231721","wem/bandit_party_2","A3UNLVZ3F1EZBS","either","1","254","","","","","","","0","0","1","","0.2","0.5","0.5","","","0.8","0.2","","","","","","","","","","","","","","","","75","K","1","","true","0","80_20_practice","",""
"","bandit","30","179351","0.0-18.0-12.0","42231721","wem/bandit_party_2","A3UNLVZ3F1EZBS","either","1","68","","","","","","","0","0","1","","0.2","0.5","0.5","","","0.8","0.2","","","","","","","","","","","","","","","","75","K","1","","true","0","80_20_practice","",""
"","bandit","31","181521","0.0-18.0-13.0","42231721","wem/bandit_party_2","A3UNLVZ3F1EZBS","either","1","633","","","","","","","0","0","1","0.8","","0.5","0.5","","","","","","","0.8","0.2","","","","","","","","","","","","74","J","0","img/none_selected_demo.jpg","true","0","80_20_practice","",""
"","bandit","32","183724","0.0-18.0-14.0","42231721","wem/bandit_party_2","A3UNLVZ3F1EZBS","either","1","665","","","","","","","0","0","1","0.8","","0.5","0.5","","","","","","","0.8","0.2","","","","","","","","","","","","74","J","0","img/none_selected_demo.jpg","true","0","80_20_practice","",""
"","bandit","33","185915","0.0-18.0-15.0","42231721","wem/bandit_party_2","A3UNLVZ3F1EZBS","either","1","332","","","","","","","0","1","0","","0.8","0.5","0.5","","","0.8","0.2","","","","","","","","","","","","","","","","74","J","0","img/none_selected_demo.jpg","true","0","80_20_practice","",""
"","bandit","34","187963","0.0-18.0-16.0","42231721","wem/bandit_party_2","A3UNLVZ3F1EZBS","either","1","515","","","","","","","1","0","0","0.2","","0.5","0.5","","","","","","","0.8","0.2","","","","","","","","","","","","75","K","1","","true","0","80_20_practice","",""
"","bandit","35","189530","0.0-18.0-17.0","42231721","wem/bandit_party_2","A3UNLVZ3F1EZBS","either","1","32","","","","","","","0","0","1","0.2","","0.5","0.5","","","","","","","0.8","0.2","","","","","","","","","","","","75","K","1","","true","0","80_20_practice","",""
"","bandit","36","191689","0.0-18.0-18.0","42231721","wem/bandit_party_2","A3UNLVZ3F1EZBS","either","1","619","","","","","","","0","0","1","0.2","","0.5","0.5","","","","","","","0.8","0.2","","","","","","","","","","","","75","K","1","","true","0","80_20_practice","",""
"","bandit","37","193642","0.0-18.0-19.0","42231721","wem/bandit_party_2","A3UNLVZ3F1EZBS","either","1","417","","","","","","","1","0","0","0.2","","0.5","0.5","","","","","","","0.8","0.2","","","","","","","","","","","","75","K","1","","true","0","80_20_practice","",""
"","text-replacement","38","199653","0.0-19.0","42231721","wem/bandit_party_2","A3UNLVZ3F1EZBS","either","1","5997","","","32","","","","","","","","","","","","","","","","","","","","","","","","","","","","","","","","","","","","","",""
"","bandit","39","202067","0.0-20.0-0.0","42231721","wem/bandit_party_2","A3UNLVZ3F1EZBS","either","1","876","","","","","","","1","0","0","1","0","","","","","0","1","","","1","0","","","","","","","","","","","","74","J","0","img/none_selected_demo.jpg","true","0","","",""
"","text-replacement","40","212826","0.0-21.0","42231721","wem/bandit_party_2","A3UNLVZ3F1EZBS","either","1","10742","","","32","","","","","","","","","","","","","","","","","","","","","","","","","","","","","","","","","","","","","",""
"","text-replacement","41","217778","0.0-22.0","42231721","wem/bandit_party_2","A3UNLVZ3F1EZBS","either","1","4936","","","32","","","","","","","","","","","","","","","","","","","","","","","","","","","","","","","","","","","","","",""
"","text-replacement","42","221249","0.0-23.0","42231721","wem/bandit_party_2","A3UNLVZ3F1EZBS","either","1","3458","","","32","","","","","","","","","","","","","","","","","","","","","","","","","","","","","","","","","","","","","",""
"","text-replacement","43","225209","0.0-24.0","42231721","wem/bandit_party_2","A3UNLVZ3F1EZBS","either","1","3947","","","32","","","","","","","","","","","","","","","","","","","","","","","","","","","","","","","","","","","","","",""
"","text-replacement","44","227121","0.0-25.0","42231721","wem/bandit_party_2","A3UNLVZ3F1EZBS","either","1","1899","","","32","","","","","","","","","","","","","","","","","","","","","","","","","","","","","","","","","","","","","",""
"","text-replacement","45","230488","0.0-26.0","42231721","wem/bandit_party_2","A3UNLVZ3F1EZBS","either","1","3353","","","32","","","","","","","","","","","","","","","","","","","","","","","","","","","","","","","","","","","","","",""
"","text-replacement","46","232835","0.0-27.0","42231721","wem/bandit_party_2","A3UNLVZ3F1EZBS","either","1","2335","","","32","","","","","","","","","","","","","","","","","","","","","","","","","","","","","","","","","","","","","",""
"","text-replacement","47","234414","0.0-28.0","42231721","wem/bandit_party_2","A3UNLVZ3F1EZBS","either","1","1560","","","32","","","","","","","","","","","","","","","","","","","","","","","","","","","","","","","","","","","","","",""
"","text-replacement","48","237790","0.0-29.0","42231721","wem/bandit_party_2","A3UNLVZ3F1EZBS","either","1","3362","","","32","","","","","","","","","","","","","","","","","","","","","","","","","","","","","","","","","","","","","",""
"","text-replacement","49","240943","0.0-30.0","42231721","wem/bandit_party_2","A3UNLVZ3F1EZBS","either","1","3138","","","32","","","","","","","","","","","","","","","","","","","","","","","","","","","","","","","","","","","","","",""
"","text-replacement","50","247548","0.0-31.0","42231721","wem/bandit_party_2","A3UNLVZ3F1EZBS","either","1","6591","","","32","","","","","","","","","","","","","","","","","","","","","","","","","","","","","","","","","","","","","",""
"","bandit","51","250285","0.0-32.0-0.0","42231721","wem/bandit_party_2","A3UNLVZ3F1EZBS","either","1","1191","","","","","","","0","0","1","0.6","","0.5","0.5","0.5","0.5","","","","","0.8","0.2","0.6","0.2","","","","","","","","","","75","K","2","","true","0","full_practice","",""
"","bandit","52","252573","0.0-32.0-1.0","42231721","wem/bandit_party_2","A3UNLVZ3F1EZBS","either","1","746","","","","","","","0","0","1","0.8","","0.5","0.5","0.5","0.5","","","","","0.8","0.2","0.6","0.2","","","","","","","","","","72","H","0","img/none_selected.jpg","true","0","full_practice","",""
"","bandit","53","254135","0.0-32.0-2.0","42231721","wem/bandit_party_2","A3UNLVZ3F1EZBS","either","1","25","","","","","","","0","0","1","","0.2","0.5","0.5","0.5","0.5","0.8","0.2","0.6","0.2","","","","","","","","","","","","","","74","J","1","","true","0","full_practice","",""
"","bandit","54","256637","0.0-32.0-3.0","42231721","wem/bandit_party_2","A3UNLVZ3F1EZBS","either","1","963","","","","","","","0","0","1","","0.2","0.5","0.5","0.5","0.5","0.8","0.2","0.6","0.2","","","","","","","","","","","","","","74","J","1","","true","0","full_practice","",""
"","bandit","55","258865","0.0-32.0-4.0","42231721","wem/bandit_party_2","A3UNLVZ3F1EZBS","either","1","696","","","","","","","0","0","1","0.2","","0.5","0.5","0.5","0.5","","","","","0.8","0.2","0.6","0.2","","","","","","","","","","76","L","3","","true","0","full_practice","",""
"","bandit","56","260742","0.0-32.0-5.0","42231721","wem/bandit_party_2","A3UNLVZ3F1EZBS","either","1","338","","","","","","","0","1","0","","0.6","0.5","0.5","0.5","0.5","0.8","0.2","0.6","0.2","","","","","","","","","","","","","","75","K","2","","true","0","full_practice","",""
"","bandit","57","262450","0.0-32.0-6.0","42231721","wem/bandit_party_2","A3UNLVZ3F1EZBS","either","1","167","","","","","","","0","1","0","","0.8","0.5","0.5","0.5","0.5","0.8","0.2","0.6","0.2","","","","","","","","","","","","","","72","H","0","img/none_selected.jpg","true","0","full_practice","",""
"","bandit","58","264767","0.0-32.0-7.0","42231721","wem/bandit_party_2","A3UNLVZ3F1EZBS","either","1","782","","","","","","","0","0","1","","0.6","0.5","0.5","0.5","0.5","0.8","0.2","0.6","0.2","","","","","","","","","","","","","","75","K","2","","true","0","full_practice","",""
"","bandit","59","266892","0.0-32.0-8.0","42231721","wem/bandit_party_2","A3UNLVZ3F1EZBS","either","1","578","","","","","","","0","0","1","0.2","","0.5","0.5","0.5","0.5","","","","","0.8","0.2","0.6","0.2","","","","","","","","","","76","L","3","","true","0","full_practice","",""
"","bandit","60","268797","0.0-32.0-9.0","42231721","wem/bandit_party_2","A3UNLVZ3F1EZBS","either","1","367","","","","","","","0","0","1","","0.2","0.5","0.5","0.5","0.5","0.8","0.2","0.6","0.2","","","","","","","","","","","","","","74","J","1","","true","0","full_practice","",""
"","bandit","61","270366","0.0-32.0-10.0","42231721","wem/bandit_party_2","A3UNLVZ3F1EZBS","either","1","32","","","","","","","0","0","1","0.2","","0.5","0.5","0.5","0.5","","","","","0.8","0.2","0.6","0.2","","","","","","","","","","76","L","3","","true","0","full_practice","",""
"","bandit","62","272265","0.0-32.0-11.0","42231721","wem/bandit_party_2","A3UNLVZ3F1EZBS","either","1","350","","","","","","","0","1","0","","0.8","0.5","0.5","0.5","0.5","0.8","0.2","0.6","0.2","","","","","","","","","","","","","","72","H","0","img/none_selected.jpg","true","0","full_practice","",""
"","bandit","63","274062","0.0-32.0-12.0","42231721","wem/bandit_party_2","A3UNLVZ3F1EZBS","either","1","257","","","","","","","0","0","1","","0.2","0.5","0.5","0.5","0.5","0.8","0.2","0.6","0.2","","","","","","","","","","","","","","74","J","1","","true","0","full_practice","",""
"","bandit","64","276222","0.0-32.0-13.0","42231721","wem/bandit_party_2","A3UNLVZ3F1EZBS","either","1","621","","","","","","","0","0","1","","0.2","0.5","0.5","0.5","0.5","0.8","0.2","0.6","0.2","","","","","","","","","","","","","","74","J","1","","true","0","full_practice","",""
"","bandit","65","279316","0.0-32.0-14.0","42231721","wem/bandit_party_2","A3UNLVZ3F1EZBS","either","1","1552","","","","","","","1","0","0","0.6","","0.5","0.5","0.5","0.5","","","","","0.8","0.2","0.6","0.2","","","","","","","","","","75","K","2","","true","0","full_practice","",""
"","bandit","66","282404","0.0-32.0-15.0","42231721","wem/bandit_party_2","A3UNLVZ3F1EZBS","either","1","1540","","","","","","","0","0","1","","0.2","0.5","0.5","0.5","0.5","0.8","0.2","0.6","0.2","","","","","","","","","","","","","","74","J","1","","true","0","full_practice","",""
"","bandit","67","283954","0.0-32.0-16.0","42231721","wem/bandit_party_2","A3UNLVZ3F1EZBS","either","1","4","","","","","","","1","0","0","0.6","","0.5","0.5","0.5","0.5","","","","","0.8","0.2","0.6","0.2","","","","","","","","","","75","K","2","","true","0","full_practice","",""
"","bandit","68","286966","0.0-32.0-17.0","42231721","wem/bandit_party_2","A3UNLVZ3F1EZBS","either","1","1473","","","","","","","0","0","1","0.2","","0.5","0.5","0.5","0.5","","","","","0.8","0.2","0.6","0.2","","","","","","","","","","76","L","3","","true","0","full_practice","",""
"","bandit","69","288908","0.0-32.0-18.0","42231721","wem/bandit_party_2","A3UNLVZ3F1EZBS","either","1","394","","","","","","","0","0","1","","0.6","0.5","0.5","0.5","0.5","0.8","0.2","0.6","0.2","","","","","","","","","","","","","","75","K","2","","true","0","full_practice","",""
"","bandit","70","291879","0.0-32.0-19.0","42231721","wem/bandit_party_2","A3UNLVZ3F1EZBS","either","1","1434","","","","","","","0","0","1","","0.8","0.5","0.5","0.5","0.5","0.8","0.2","0.6","0.2","","","","","","","","","","","","","","72","H","0","img/none_selected.jpg","true","0","full_practice","",""
"","text","71","298519","0.0-33.0","42231721","wem/bandit_party_2","A3UNLVZ3F1EZBS","either","1","6575","","","32","","","","","","","","","","","","","","","","","","","","","","","","","","","","","","","","","","","","","",""
"","text-replacement","72","306181","0.0-34.0","42231721","wem/bandit_party_2","A3UNLVZ3F1EZBS","either","1","6640","","","32","","","","","","","","","","","","","","","","","","","","","","","","","","","","","","","","","","","","","",""
"","text-replacement","73","307259","0.0-35.0","42231721","wem/bandit_party_2","A3UNLVZ3F1EZBS","either","1","1058","","","32","","","","","","","","","","","","","","","","","","","","","","","","","","","","","","","","","","","","","",""
"","text-replacement","74","308257","0.0-36.0","42231721","wem/bandit_party_2","A3UNLVZ3F1EZBS","either","1","979","","","32","","","","","","","","","","","","","","","","","","","","","","","","","","","","","","","","","","","","","",""
"","text-replacement","75","308937","0.0-37.0","42231721","wem/bandit_party_2","A3UNLVZ3F1EZBS","either","1","661","","","32","","","","","","","","","","","","","","","","","","","","","","","","","","","","","","","","","","","","","",""
"","text-replacement","76","310216","0.0-38.0","42231721","wem/bandit_party_2","A3UNLVZ3F1EZBS","either","1","1257","","","32","","","","","","","","","","","","","","","","","","","","","","","","","","","","","","","","","","","","","",""
"","survey-multi-choice-replacement","77","317300","0.0-39.0-0.0","42231721","wem/bandit_party_2","A3UNLVZ3F1EZBS","either","1","7035","","","","","","","","","","","","","","","","","","","","","","","","Money will be added to the pool for <span style='color:blue;'>DEMOCRATS</span>","","","","","","","attn_check","","","","","","","","","0",""
"","survey-multi-choice-replacement","78","321729","0.0-40.0-0.0","42231721","wem/bandit_party_2","A3UNLVZ3F1EZBS","either","1","3369","","","","","","","","","","","","","","","","","","","","","","","","Money will be subtracted from the pool for <span style='color:red;'>REPUBLICANS</span>","","","","","","","attn_check","","","","","","","","","1",""
"","instructions","79","324700","0.0-40.0-1.0-0.0","42231721","wem/bandit_party_2","A3UNLVZ3F1EZBS","either","1","1948","","","","","","","","","","","","","","","","","","","","","","","","","","","","","","","","","","","","","","","","","[{""page_index"":0,""viewing_time"":1947}]"
"","survey-multi-choice-replacement","80","336096","0.0-40.1-0.1","42231721","wem/bandit_party_2","A3UNLVZ3F1EZBS","either","1","10362","","","","","","","","","","","","","","","","","","","","","","","","Equal amounts of money will be added to the pool for <span style='color:blue;'>DEMOCRATS</span> and subtracted from the pool for <span style='color:red;'>REPUBLICANS</span>","","","","","","","attn_check","","","","","","","","","2",""
"","survey-multi-choice-replacement","81","343048","0.0-41.0-0.0","42231721","wem/bandit_party_2","A3UNLVZ3F1EZBS","either","1","5908","","","","","","","","","","","","","","","","","","","","","","","","No money will be added to either pool","","","","","","","attn_check","","","","","","","","","3",""
"","bandit","82","348203","0.0-42.0-0.0","42231721","wem/bandit_party_2","A3UNLVZ3F1EZBS","either","1","2600","","","","","","","1","0","0","0.7674833066","","0.6","0.2","0.4","0.8","","","","","0.7674833066","0.4995060561","0.8101107889","0.5202783506","","","","","","","","","","72","H","0","img/none_selected.jpg","","1","main_expt","",""
"","bandit","83","350426","0.0-43.0-0.0","42231721","wem/bandit_party_2","A3UNLVZ3F1EZBS","either","1","688","","","","","","","0","1","0","","0.4452888422","0.6","0.2","0.4","0.8","0.7786696111","0.4452888422","0.8827976921","0.4559554218","","","","","","","","","","","","","","74","J","1","","","2","main_expt","",""
"","bandit","84","352993","0.0-44.0-0.0","42231721","wem/bandit_party_2","A3UNLVZ3F1EZBS","either","1","1023","","","","","","","0","1","0","","0.918633781","0.6","0.2","0.4","0.8","0.7883912796","0.4956599627","0.918633781","0.3791335739","","","","","","","","","","","","","","75","K","2","","","3","main_expt","",""
"","bandit","85","354671","0.0-45.0-0.0","42231721","wem/bandit_party_2","A3UNLVZ3F1EZBS","either","1","137","","","","","","","0","0","1","0.362446662","","0.6","0.2","0.4","0.8","","","","","0.8311681014","0.3939226057","0.8961075186","0.362446662","","","","","","","","","","76","L","3","","","4","main_expt","",""
"","bandit","86","357155","0.0-46.0-0.0","42231721","wem/bandit_party_2","A3UNLVZ3F1EZBS","either","1","936","","","","","","","0","0","1","0.706748425","","0.6","0.2","0.4","0.8","","","","","0.706748425","0.4737796053","0.9065038385","0.4337427147","","","","","","","","","","72","H","0","img/none_selected.jpg","","5","main_expt","",""
"","bandit","87","358720","0.0-47.0-0.0","42231721","wem/bandit_party_2","A3UNLVZ3F1EZBS","either","1","25","","","","","","","1","0","0","0.7246132019","","0.6","0.2","0.4","0.8","","","","","0.7246132019","0.5798080576","0.9628954729","0.4260566605","","","","","","","","","","72","H","0","img/none_selected.jpg","","6","main_expt","",""
"","bandit","88","360846","0.0-48.0-0.0","42231721","wem/bandit_party_2","A3UNLVZ3F1EZBS","either","1","559","","","","","","","1","0","0","0.822103072","","0.6","0.2","0.4","0.8","","","","","0.822103072","0.6184433593","0.9244273404","0.5595739282","","","","","","","","","","72","H","0","img/none_selected.jpg","","7","main_expt","",""
"","bandit","89","362848","0.0-49.0-0.0","42231721","wem/bandit_party_2","A3UNLVZ3F1EZBS","either","1","451","","","","","","","0","1","0","","0.8176183596","0.6","0.2","0.4","0.8","0.8176183596","0.5380809204","0.9214665689","0.5757792393","","","","","","","","","","","","","","72","H","0","img/none_selected.jpg","","8","main_expt","",""
"","bandit","90","364615","0.0-50.0-0.0","42231721","wem/bandit_party_2","A3UNLVZ3F1EZBS","either","1","216","","","","","","","1","0","0","0.7421782695","","0.6","0.2","0.4","0.8","","","","","0.7421782695","0.4884558296","0.9604963414","0.5508288143","","","","","","","","","","72","H","0","img/none_selected.jpg","","9","main_expt","",""
"","bandit","91","366656","0.0-51.0-0.0","42231721","wem/bandit_party_2","A3UNLVZ3F1EZBS","either","1","496","","","","","","","0","0","1","","0.6062827564","0.6","0.2","0.4","0.8","0.7112185725","0.6062827564","0.973544224","0.4615344473","","","","","","","","","","","","","","74","J","1","","","10","main_expt","",""
"","bandit","92","369105","0.0-52.0-0.0","42231721","wem/bandit_party_2","A3UNLVZ3F1EZBS","either","1","906","","","","","","","1","0","0","0.6656122322","","0.6","0.2","0.4","0.8","","","","","0.6656122322","0.6618996933","0.9756729976","0.4731032433","","","","","","","","","","72","H","0","img/none_selected.jpg","","11","main_expt","",""
"","bandit","93","371189","0.0-53.0-0.0","42231721","wem/bandit_party_2","A3UNLVZ3F1EZBS","either","1","533","","","","","","","0","1","0","","0.6589688621","0.6","0.2","0.4","0.8","0.632951522","0.6589688621","0.9824084628","0.5028989732","","","","","","","","","","","","","","74","J","1","","","12","main_expt","",""
"","bandit","94","373577","0.0-54.0-0.0","42231721","wem/bandit_party_2","A3UNLVZ3F1EZBS","either","1","843","","","","","","","0","0","1","","0.6428643634","0.6","0.2","0.4","0.8","0.6428643634","0.7483501345","0.9852841122","0.5252386458","","","","","","","","","","","","","","72","H","0","img/none_selected.jpg","","13","main_expt","",""
"","bandit","95","375610","0.0-55.0-0.0","42231721","wem/bandit_party_2","A3UNLVZ3F1EZBS","either","1","484","","","","","","","0","0","1","0.5693663763","","0.6","0.2","0.4","0.8","","","","","0.5693663763","0.7642220585","0.9844185579","0.4883642101","","","","","","","","","","72","H","0","img/none_selected.jpg","","14","main_expt","",""
"","bandit","96","378233","0.0-56.0-0.0","42231721","wem/bandit_party_2","A3UNLVZ3F1EZBS","either","1","1069","","","","","","","0","1","0","","0.6354763258","0.6","0.2","0.4","0.8","0.6354763258","0.8255663415","0.9716790186","0.5125695872","","","","","","","","","","","","","","72","H","0","img/none_selected.jpg","","15","main_expt","",""
"","bandit","97","380303","0.0-57.0-0.0","42231721","wem/bandit_party_2","A3UNLVZ3F1EZBS","either","1","542","","","","","","","0","1","0","","0.8262734196","0.6","0.2","0.4","0.8","0.6074668868","0.8262734196","0.9724226268","0.483313844","","","","","","","","","","","","","","74","J","1","","","16","main_expt","",""
"","bandit","98","383457","0.0-58.0-0.0","42231721","wem/bandit_party_2","A3UNLVZ3F1EZBS","either","1","1604","","","","","","","1","0","0","0.969397438","","0.6","0.2","0.4","0.8","","","","","0.634379517","0.8957105494","0.969397438","0.4764119597","","","","","","","","","","75","K","2","","","17","main_expt","",""
"","bandit","99","385426","0.0-59.0-0.0","42231721","wem/bandit_party_2","A3UNLVZ3F1EZBS","either","1","426","","","","","","","0","1","0","","0.9487821198","0.6","0.2","0.4","0.8","0.7399013172","0.8243017832","0.9487821198","0.4742144938","","","","","","","","","","","","","","75","K","2","","","18","main_expt","",""
"","bandit","100","387064","0.0-60.0-0.0","42231721","wem/bandit_party_2","A3UNLVZ3F1EZBS","either","1","87","","","","","","","0","0","1","","0.5445729057","0.6","0.2","0.4","0.8","0.6892422428","0.8174393347","0.8822386923","0.5445729057","","","","","","","","","","","","","","76","L","3","","","19","main_expt","",""
"","bandit","101","389004","0.0-61.0-0.0","42231721","wem/bandit_party_2","A3UNLVZ3F1EZBS","either","1","396","","","","","","","0","1","0","","0.8658452863","0.6","0.2","0.4","0.8","0.5544472153","0.8457625901","0.8658452863","0.5114357523","","","","","","","","","","","","","","75","K","2","","","20","main_expt","",""
"","bandit","102","390784","0.0-62.0-0.0","42231721","wem/bandit_party_2","A3UNLVZ3F1EZBS","either","1","232","","","","","","","0","0","1","0.4705077418","","0.6","0.2","0.4","0.8","","","","","0.4705077418","0.8565453533","0.8597265301","0.4948626968","","","","","","","","","","72","H","0","img/none_selected.jpg","","21","main_expt","",""
"","bandit","103","393610","0.0-63.0-0.0","42231721","wem/bandit_party_2","A3UNLVZ3F1EZBS","either","1","1277","","","","","","","0","1","0","","0.8821281293","0.6","0.2","0.4","0.8","0.5364913494","0.8821281293","0.929530396","0.3750889156","","","","","","","","","","","","","","74","J","1","","","22","main_expt","",""
"","bandit","104","395166","0.0-64.0-0.0","42231721","wem/bandit_party_2","A3UNLVZ3F1EZBS","either","1","4","","","","","","","1","0","0","0.9149061772","","0.6","0.2","0.4","0.8","","","","","0.5450887529","0.8253896901","0.9149061772","0.3874093852","","","","","","","","","","75","K","2","","","23","main_expt","",""
"","bandit","105","398178","0.0-65.0-0.0","42231721","wem/bandit_party_2","A3UNLVZ3F1EZBS","either","1","1465","","","","","","","0","1","0","","0.9389899916","0.6","0.2","0.4","0.8","0.6013055931","0.8682133559","0.9389899916","0.4126546177","","","","","","","","","","","","","","75","K","2","","","24","main_expt","",""
"","bandit","106","400158","0.0-66.0-0.0","42231721","wem/bandit_party_2","A3UNLVZ3F1EZBS","either","1","431","","","","","","","1","0","0","0.7116226269","","0.6","0.2","0.4","0.8","","","","","0.7116226269","0.8186134727","0.9583062328","0.3871809826","","","","","","","","","","72","H","0","img/none_selected.jpg","","25","main_expt","",""
"","bandit","107","402509","0.0-67.0-0.0","42231721","wem/bandit_party_2","A3UNLVZ3F1EZBS","either","1","795","","","","","","","0","0","1","","0.841170918","0.6","0.2","0.4","0.8","0.7284905038","0.841170918","0.9349434311","0.4162773602","","","","","","","","","","","","","","74","J","1","","","26","main_expt","",""
"","bandit","108","404695","0.0-68.0-0.0","42231721","wem/bandit_party_2","A3UNLVZ3F1EZBS","either","1","641","","","","","","","0","1","0","","0.8332298301","0.6","0.2","0.4","0.8","0.7007901837","0.8332298301","0.9147743466","0.4153433109","","","","","","","","","","","","","","74","J","1","","","27","main_expt","",""
"","bandit","109","406783","0.0-69.0-0.0","42231721","wem/bandit_party_2","A3UNLVZ3F1EZBS","either","1","539","","","","","","","1","0","0","0.7197690037","","0.6","0.2","0.4","0.8","","","","","0.7197690037","0.8340804883","0.8913744663","0.3083156359","","","","","","","","","","72","H","0","img/none_selected.jpg","","28","main_expt","",""
"","bandit","110","409320","0.0-70.0-0.0","42231721","wem/bandit_party_2","A3UNLVZ3F1EZBS","either","1","988","","","","","","","0","1","0","","0.8800986549","0.6","0.2","0.4","0.8","0.7569205749","0.8800986549","0.9004815278","0.4048150761","","","","","","","","","","","","","","74","J","1","","","29","main_expt","",""
"","bandit","111","411492","0.0-71.0-0.0","42231721","wem/bandit_party_2","A3UNLVZ3F1EZBS","either","1","625","","","","","","","0","1","0","","0.8335499875","0.6","0.2","0.4","0.8","0.7007062976","0.800988266","0.8335499875","0.5604470694","","","","","","","","","","","","","","75","K","2","","","30","main_expt","",""
"","bandit","112","413088","0.0-72.0-0.0","42231721","wem/bandit_party_2","A3UNLVZ3F1EZBS","either","1","49","","","","","","","1","0","0","0.5114456598","","0.6","0.2","0.4","0.8","","","","","0.6218809145","0.8092707987","0.7904098286","0.5114456598","","","","","","","","","","76","L","3","","","31","main_expt","",""
"","bandit","113","415160","0.0-73.0-0.0","42231721","wem/bandit_party_2","A3UNLVZ3F1EZBS","either","1","532","","","","","","","1","0","0","0.5195843055","","0.6","0.2","0.4","0.8","","","","","0.5448888872","0.7600689364","0.8156470634","0.5195843055","","","","","","","","","","76","L","3","","","32","main_expt","",""
"","bandit","114","416796","0.0-74.0-0.0","42231721","wem/bandit_party_2","A3UNLVZ3F1EZBS","either","1","86","","","","","","","0","0","1","","0.4396040002","0.6","0.2","0.4","0.8","0.4396040002","0.7268405739","0.7458483223","0.4278216128","","","","","","","","","","","","","","72","H","0","img/none_selected.jpg","","33","main_expt","",""
"","bandit","115","418622","0.0-75.0-0.0","42231721","wem/bandit_party_2","A3UNLVZ3F1EZBS","either","1","281","","","","","","","1","0","0","0.4581725564","","0.6","0.2","0.4","0.8","","","","","0.3418027302","0.7867385379","0.8745519215","0.4581725564","","","","","","","","","","76","L","3","","","34","main_expt","",""
"","bandit","116","420210","0.0-76.0-0.0","42231721","wem/bandit_party_2","A3UNLVZ3F1EZBS","either","1","60","","","","","","","0","0","1","","0.3770378826","0.6","0.2","0.4","0.8","0.3770378826","0.7776722478","0.8761773117","0.5170179058","","","","","","","","","","","","","","72","H","0","img/none_selected.jpg","","35","main_expt","",""
"","bandit","117","422160","0.0-77.0-0.0","42231721","wem/bandit_party_2","A3UNLVZ3F1EZBS","either","1","407","","","","","","","0","1","0","","0.5761285305","0.6","0.2","0.4","0.8","0.3264650107","0.8110731924","0.8898579413","0.5761285305","","","","","","","","","","","","","","76","L","3","","","36","main_expt","",""
"","bandit","118","423847","0.0-78.0-0.0","42231721","wem/bandit_party_2","A3UNLVZ3F1EZBS","either","1","139","","","","","","","0","0","1","","0.1696248696","0.6","0.2","0.4","0.8","0.1696248696","0.8371501114","0.9189960073","0.5824592389","","","","","","","","","","","","","","72","H","0","img/none_selected.jpg","","37","main_expt","",""
"","bandit","119","425814","0.0-79.0-0.0","42231721","wem/bandit_party_2","A3UNLVZ3F1EZBS","either","1","428","","","","","","","0","0","1","","0.3008725236","0.6","0.2","0.4","0.8","0.3008725236","0.801984358","0.9429067042","0.5039158184","","","","","","","","","","","","","","72","H","0","img/none_selected.jpg","","38","main_expt","",""
"","bandit","120","427357","0.0-80.0-0.0","42231721","wem/bandit_party_2","A3UNLVZ3F1EZBS","either","1","2","","","","","","","1","0","0","0.4906961915","","0.6","0.2","0.4","0.8","","","","","0.3612597963","0.836760671","0.8860185862","0.4906961915","","","","","","","","","","76","L","3","","","39","main_expt","",""
"","bandit","121","429517","0.0-81.0-0.0","42231721","wem/bandit_party_2","A3UNLVZ3F1EZBS","either","1","619","","","","","","","0","0","1","","0.5118773476","0.6","0.2","0.4","0.8","0.3316001813","0.7930168878","0.8958725565","0.5118773476","","","","","","","","","","","","","","76","L","3","","","40","main_expt","",""
"","bandit","122","431375","0.0-82.0-0.0","42231721","wem/bandit_party_2","A3UNLVZ3F1EZBS","either","1","306","","","","","","","0","0","1","0.251761063","","0.6","0.2","0.4","0.8","","","","","0.251761063","0.6758505439","0.8369757826","0.5207000815","","","","","","","","","","72","H","0","img/none_selected.jpg","","41","main_expt","",""
"","bandit","123","433485","0.0-83.0-0.0","42231721","wem/bandit_party_2","A3UNLVZ3F1EZBS","either","1","562","","","","","","","1","0","0","0.3764367217","","0.6","0.2","0.4","0.8","","","","","0.3764367217","0.669091732","0.8724413244","0.6208632684","","","","","","","","","","72","H","0","img/none_selected.jpg","","42","main_expt","",""
"","bandit","124","435061","0.0-84.0-0.0","42231721","wem/bandit_party_2","A3UNLVZ3F1EZBS","either","1","15","","","","","","","1","0","0","0.6736877605","","0.6","0.2","0.4","0.8","","","","","0.4280411123","0.5774386383","0.8721156492","0.6736877605","","","","","","","","","","76","L","3","","","43","main_expt","",""
"","bandit","125","436982","0.0-85.0-0.0","42231721","wem/bandit_party_2","A3UNLVZ3F1EZBS","either","1","369","","","","","","","0","0","1","0.6770598463","","0.6","0.2","0.4","0.8","","","","","0.4250007774","0.5402750746","0.874486911","0.6770598463","","","","","","","","","","76","L","3","","","44","main_expt","",""
"","bandit","126","438523","0.0-86.0-0.0","42231721","wem/bandit_party_2","A3UNLVZ3F1EZBS","either","1","2","","","","","","","0","0","1","","0.3964774122","0.6","0.2","0.4","0.8","0.3964774122","0.4769525635","0.7653026016","0.6811336834","","","","","","","","","","","","","","72","H","0","img/none_selected.jpg","","45","main_expt","",""
"","bandit","127","440082","0.0-87.0-0.0","42231721","wem/bandit_party_2","A3UNLVZ3F1EZBS","either","1","29","","","","","","","0","0","1","","0.3755541509","0.6","0.2","0.4","0.8","0.3755541509","0.460739512","0.6884850605","0.7409040253","","","","","","","","","","","","","","72","H","0","img/none_selected.jpg","","46","main_expt","",""
"","bandit","128","442351","0.0-88.0-0.0","42231721","wem/bandit_party_2","A3UNLVZ3F1EZBS","either","1","718","","","","","","","0","0","1","0.3698766084","","0.6","0.2","0.4","0.8","","","","","0.3698766084","0.3953603582","0.6869729855","0.8602274841","","","","","","","","","","72","H","0","img/none_selected.jpg","","47","main_expt","",""
"","bandit","129","447357","0.0-89.0-0.0","42231721","wem/bandit_party_2","A3UNLVZ3F1EZBS","either","1","3452","","","","","","","1","0","0","0.8947369126","","0.6","0.2","0.4","0.8","","","","","0.2924141828","0.5194217752","0.624749708","0.8947369126","","","","","","","","","","76","L","3","","","48","main_expt","",""
"","bandit","130","449426","0.0-90.0-0.0","42231721","wem/bandit_party_2","A3UNLVZ3F1EZBS","either","1","521","","","","","","","1","0","0","0.2506794134","","0.6","0.2","0.4","0.8","","","","","0.2506794134","0.5015721984","0.6269608649","0.9071052574","","","","","","","","","","72","H","0","img/none_selected.jpg","","49","main_expt","",""
"","bandit","131","451427","0.0-91.0-0.0","42231721","wem/bandit_party_2","A3UNLVZ3F1EZBS","either","1","451","","","","","","","0","1","0","","0.2200095001","0.6","0.2","0.4","0.8","0.2200095001","0.4427204185","0.5394470416","0.8569531155","","","","","","","","","","","","","","72","H","0","img/none_selected.jpg","","50","main_expt","",""
"","bandit","132","452995","0.0-92.0-0.0","42231721","wem/bandit_party_2","A3UNLVZ3F1EZBS","either","1","12","","","","","","","1","0","0","0.8728609703","","0.6","0.2","0.4","0.8","","","","","0.2703780474","0.5194544998","0.4991806479","0.8728609703","","","","","","","","","","76","L","3","","","51","main_expt","",""
"","bandit","133","458301","0.0-93.0-0.0","42231721","wem/bandit_party_2","A3UNLVZ3F1EZBS","either","1","3753","","","","","","","1","0","0","0.902184381","","0.6","0.2","0.4","0.8","","","","","0.3215640211","0.4420680866","0.5431464126","0.902184381","","","","","","","","","","76","L","3","","","52","main_expt","",""
"","bandit","134","460041","0.0-94.0-0.0","42231721","wem/bandit_party_2","A3UNLVZ3F1EZBS","either","1","186","","","","","","","0","0","1","","0.8975054296","0.6","0.2","0.4","0.8","0.2918797996","0.5541791803","0.4799783957","0.8975054296","","","","","","","","","","","","","","76","L","3","","","53","main_expt","",""
"","bandit","135","461950","0.0-95.0-0.0","42231721","wem/bandit_party_2","A3UNLVZ3F1EZBS","either","1","350","","","","","","","1","0","0","0.9436546011","","0.6","0.2","0.4","0.8","","","","","0.2432815539","0.6187664305","0.3946877269","0.9436546011","","","","","","","","","","76","L","3","","","54","main_expt","",""
"","bandit","136","463530","0.0-96.0-0.0","42231721","wem/bandit_party_2","A3UNLVZ3F1EZBS","either","1","23","","","","","","","1","0","0","0.9411334538","","0.6","0.2","0.4","0.8","","","","","0.1993500609","0.538030076","0.3892466866","0.9411334538","","","","","","","","","","76","L","3","","","55","main_expt","",""
"","bandit","137","465388","0.0-97.0-0.0","42231721","wem/bandit_party_2","A3UNLVZ3F1EZBS","either","1","318","","","","","","","1","0","0","0.862285227","","0.6","0.2","0.4","0.8","","","","","0.1832364248","0.5137881872","0.347268188","0.862285227","","","","","","","","","","76","L","3","","","56","main_expt","",""
"","bandit","138","466972","0.0-98.0-0.0","42231721","wem/bandit_party_2","A3UNLVZ3F1EZBS","either","1","38","","","","","","","1","0","0","0.9034803314","","0.6","0.2","0.4","0.8","","","","","0.1703919496","0.6274604021","0.3462231845","0.9034803314","","","","","","","","","","76","L","3","","","57","main_expt","",""
"","bandit","139","468563","0.0-99.0-0.0","42231721","wem/bandit_party_2","A3UNLVZ3F1EZBS","either","1","38","","","","","","","1","0","0","0.9062052911","","0.6","0.2","0.4","0.8","","","","","0.2146973212","0.5636132077","0.3707442777","0.9062052911","","","","","","","","","","76","L","3","","","58","main_expt","",""
"","bandit","140","470383","0.0-100.0-0.0","42231721","wem/bandit_party_2","A3UNLVZ3F1EZBS","either","1","257","","","","","","","0","1","0","","0.9169546289","0.6","0.2","0.4","0.8","0.2118107272","0.6555757088","0.4530366532","0.9169546289","","","","","","","","","","","","","","76","L","3","","","59","main_expt","",""
"","bandit","141","472277","0.0-101.0-0.0","42231721","wem/bandit_party_2","A3UNLVZ3F1EZBS","either","1","338","","","","","","","0","1","0","","0.9048679239","0.6","0.2","0.4","0.8","0.2096036334","0.6555481193","0.4335409142","0.9048679239","","","","","","","","","","","","","","76","L","3","","","60","main_expt","",""
"","bandit","142","474111","0.0-102.0-0.0","42231721","wem/bandit_party_2","A3UNLVZ3F1EZBS","either","1","275","","","","","","","0","0","1","","0.9346572725","0.6","0.2","0.4","0.8","0.1985607356","0.6988977931","0.3601573371","0.9346572725","","","","","","","","","","","","","","76","L","3","","","61","main_expt","",""
"","bandit","143","476148","0.0-103.0-0.0","42231721","wem/bandit_party_2","A3UNLVZ3F1EZBS","either","1","500","","","","","","","0","1","0","","0.9332729597","0.6","0.2","0.4","0.8","0.2352246004","0.6124712875","0.3187004912","0.9332729597","","","","","","","","","","","","","","76","L","3","","","62","main_expt","",""
"","bandit","144","478266","0.0-104.0-0.0","42231721","wem/bandit_party_2","A3UNLVZ3F1EZBS","either","1","594","","","","","","","0","0","1","","0.1989126294","0.6","0.2","0.4","0.8","0.1989126294","0.4881994696","0.331276396","0.9300142507","","","","","","","","","","","","","","72","H","0","img/none_selected.jpg","","63","main_expt","",""
"","bandit","145","480245","0.0-105.0-0.0","42231721","wem/bandit_party_2","A3UNLVZ3F1EZBS","either","1","422","","","","","","","0","1","0","","0.2231035509","0.6","0.2","0.4","0.8","0.2231035509","0.5007509184","0.3984677","0.8992917639","","","","","","","","","","","","","","72","H","0","img/none_selected.jpg","","64","main_expt","",""
"","bandit","146","481865","0.0-106.0-0.0","42231721","wem/bandit_party_2","A3UNLVZ3F1EZBS","either","1","73","","","","","","","0","0","1","0.174077904","","0.6","0.2","0.4","0.8","","","","","0.174077904","0.6077525222","0.3012021372","0.7939475476","","","","","","","","","","72","H","0","img/none_selected.jpg","","65","main_expt","",""
"","bandit","147","483519","0.0-107.0-0.0","42231721","wem/bandit_party_2","A3UNLVZ3F1EZBS","either","1","94","","","","","","","0","0","1","0.1505104035","","0.6","0.2","0.4","0.8","","","","","0.1505104035","0.4876759876","0.2848395029","0.7848839068","","","","","","","","","","72","H","0","img/none_selected.jpg","","66","main_expt","",""
"","bandit","148","485353","0.0-108.0-0.0","42231721","wem/bandit_party_2","A3UNLVZ3F1EZBS","either","1","286","","","","","","","0","0","1","","0.1706094741","0.6","0.2","0.4","0.8","0.1706094741","0.4705728971","0.2908363747","0.7712869283","","","","","","","","","","","","","","72","H","0","img/none_selected.jpg","","67","main_expt","",""
"","bandit","149","487287","0.0-109.0-0.0","42231721","wem/bandit_party_2","A3UNLVZ3F1EZBS","either","1","371","","","","","","","0","0","1","0.193375558","","0.6","0.2","0.4","0.8","","","","","0.193375558","0.5822594153","0.3226378352","0.7426915226","","","","","","","","","","72","H","0","img/none_selected.jpg","","68","main_expt","",""
"","bandit","150","489415","0.0-110.0-0.0","42231721","wem/bandit_party_2","A3UNLVZ3F1EZBS","either","1","573","","","","","","","0","0","1","","0.4490581071","0.6","0.2","0.4","0.8","0.226811003","0.6189715015","0.4490581071","0.592712881","","","","","","","","","","","","","","75","K","2","","","69","main_expt","",""
"","bandit","151","491226","0.0-111.0-0.0","42231721","wem/bandit_party_2","A3UNLVZ3F1EZBS","either","1","258","","","","","","","0","0","1","","0.42365523","0.6","0.2","0.4","0.8","0.191142909","0.5307799745","0.42365523","0.6587085967","","","","","","","","","","","","","","75","K","2","","","70","main_expt","",""
"","bandit","152","493115","0.0-112.0-0.0","42231721","wem/bandit_party_2","A3UNLVZ3F1EZBS","either","1","335","","","","","","","0","1","0","","0.427101634","0.6","0.2","0.4","0.8","0.2371486809","0.5205551237","0.427101634","0.7562029562","","","","","","","","","","","","","","75","K","2","","","71","main_expt","",""
"","bandit","153","494689","0.0-113.0-0.0","42231721","wem/bandit_party_2","A3UNLVZ3F1EZBS","either","1","11","","","","","","","1","0","0","0.670676276","","0.6","0.2","0.4","0.8","","","","","0.2602117984","0.5913901284","0.5387899421","0.670676276","","","","","","","","","","76","L","3","","","72","main_expt","",""
"","bandit","154","496372","0.0-114.0-0.0","42231721","wem/bandit_party_2","A3UNLVZ3F1EZBS","either","1","126","","","","","","","0","0","1","","0.6870219419","0.6","0.2","0.4","0.8","0.1837165363","0.7127465592","0.4931252492","0.6870219419","","","","","","","","","","","","","","76","L","3","","","73","main_expt","",""
"","bandit","155","498138","0.0-115.0-0.0","42231721","wem/bandit_party_2","A3UNLVZ3F1EZBS","either","1","216","","","","","","","1","0","0","0.582898469","","0.6","0.2","0.4","0.8","","","","","0.2032334464","0.7804212289","0.3888626504","0.582898469","","","","","","","","","","76","L","3","","","74","main_expt","",""
"","bandit","156","500002","0.0-116.0-0.0","42231721","wem/bandit_party_2","A3UNLVZ3F1EZBS","either","1","305","","","","","","","0","0","1","0.6452442043","","0.6","0.2","0.4","0.8","","","","","0.2782751631","0.7966502287","0.3866429177","0.6452442043","","","","","","","","","","76","L","3","","","75","main_expt","",""
"","bandit","157","502000","0.0-117.0-0.0","42231721","wem/bandit_party_2","A3UNLVZ3F1EZBS","either","1","456","","","","","","","1","0","0","0.7031137023","","0.6","0.2","0.4","0.8","","","","","0.3318782676","0.7775959854","0.3948468247","0.7031137023","","","","","","","","","","76","L","3","","","76","main_expt","",""
"","bandit","158","503944","0.0-118.0-0.0","42231721","wem/bandit_party_2","A3UNLVZ3F1EZBS","either","1","381","","","","","","","0","0","1","0.6096498107","","0.6","0.2","0.4","0.8","","","","","0.312607664","0.8523583745","0.4853082722","0.6096498107","","","","","","","","","","76","L","3","","","77","main_expt","",""
"","bandit","159","505586","0.0-119.0-0.0","42231721","wem/bandit_party_2","A3UNLVZ3F1EZBS","either","1","87","","","","","","","1","0","0","0.532302087","","0.6","0.2","0.4","0.8","","","","","0.3250695504","0.7707034136","0.4971609959","0.532302087","","","","","","","","","","76","L","3","","","78","main_expt","",""
"","bandit","160","507161","0.0-120.0-0.0","42231721","wem/bandit_party_2","A3UNLVZ3F1EZBS","either","1","24","","","","","","","0","0","1","0.4448734945","","0.6","0.2","0.4","0.8","","","","","0.277144637","0.7919080975","0.5349041547","0.4448734945","","","","","","","","","","76","L","3","","","79","main_expt","",""
"","bandit","161","509117","0.0-121.0-0.0","42231721","wem/bandit_party_2","A3UNLVZ3F1EZBS","either","1","393","","","","","","","0","0","1","0.34513516","","0.6","0.2","0.4","0.8","","","","","0.293018971","0.8107458935","0.4713204996","0.34513516","","","","","","","","","","76","L","3","","","80","main_expt","",""
"","bandit","162","511090","0.0-122.0-0.0","42231721","wem/bandit_party_2","A3UNLVZ3F1EZBS","either","1","414","","","","","","","1","0","0","0.406584365","","0.6","0.2","0.4","0.8","","","","","0.2730851157","0.7851591746","0.4132476049","0.406584365","","","","","","","","","","76","L","3","","","81","main_expt","",""
"","bandit","163","512886","0.0-123.0-0.0","42231721","wem/bandit_party_2","A3UNLVZ3F1EZBS","either","1","231","","","","","","","0","0","1","","0.5068312928","0.6","0.2","0.4","0.8","0.2436011542","0.8067558171","0.4640808921","0.5068312928","","","","","","","","","","","","","","76","L","3","","","82","main_expt","",""
"","bandit","164","514723","0.0-124.0-0.0","42231721","wem/bandit_party_2","A3UNLVZ3F1EZBS","either","1","275","","","","","","","1","0","0","0.5209063211","","0.6","0.2","0.4","0.8","","","","","0.2009218657","0.7777816444","0.442115463","0.5209063211","","","","","","","","","","76","L","3","","","83","main_expt","",""
"","bandit","165","516501","0.0-125.0-0.0","42231721","wem/bandit_party_2","A3UNLVZ3F1EZBS","either","1","218","","","","","","","1","0","0","0.6221591745","","0.6","0.2","0.4","0.8","","","","","0.1550904625","0.7801041195","0.5117806844","0.6221591745","","","","","","","","","","76","L","3","","","84","main_expt","",""
"","bandit","166","518353","0.0-126.0-0.0","42231721","wem/bandit_party_2","A3UNLVZ3F1EZBS","either","1","294","","","","","","","1","0","0","0.6939346182","","0.6","0.2","0.4","0.8","","","","","0.1193398435","0.7593249252","0.5309627618","0.6939346182","","","","","","","","","","76","L","3","","","85","main_expt","",""
"","bandit","167","520144","0.0-127.0-0.0","42231721","wem/bandit_party_2","A3UNLVZ3F1EZBS","either","1","218","","","","","","","0","0","1","0.7533471596","","0.6","0.2","0.4","0.8","","","","","0.1398572341","0.7911667705","0.5482659382","0.7533471596","","","","","","","","","","76","L","3","","","86","main_expt","",""
"","bandit","168","521747","0.0-128.0-0.0","42231721","wem/bandit_party_2","A3UNLVZ3F1EZBS","either","1","39","","","","","","","1","0","0","0.8040573679","","0.6","0.2","0.4","0.8","","","","","0.1941505275","0.8480662183","0.4772076429","0.8040573679","","","","","","","","","","76","L","3","","","87","main_expt","",""
"","bandit","169","523382","0.0-129.0-0.0","42231721","wem/bandit_party_2","A3UNLVZ3F1EZBS","either","1","77","","","","","","","0","0","1","0.7800800897","","0.6","0.2","0.4","0.8","","","","","0.09645570925","0.8110462569","0.5202977678","0.7800800897","","","","","","","","","","76","L","3","","","88","main_expt","",""
"","bandit","170","525155","0.0-130.0-0.0","42231721","wem/bandit_party_2","A3UNLVZ3F1EZBS","either","1","220","","","","","","","0","0","1","0.7329239748","","0.6","0.2","0.4","0.8","","","","","0.1304326216","0.7924414871","0.4970482359","0.7329239748","","","","","","","","","","76","L","3","","","89","main_expt","",""
"","bandit","171","526900","0.0-131.0-0.0","42231721","wem/bandit_party_2","A3UNLVZ3F1EZBS","either","1","182","","","","","","","0","0","1","0.7202813078","","0.6","0.2","0.4","0.8","","","","","0.1410434261","0.8190855249","0.4671205494","0.7202813078","","","","","","","","","","76","L","3","","","90","main_expt","",""
"","bandit","172","528487","0.0-132.0-0.0","42231721","wem/bandit_party_2","A3UNLVZ3F1EZBS","either","1","16","","","","","","","1","0","0","0.698586111","","0.6","0.2","0.4","0.8","","","","","0.1277095213","0.858270253","0.5518401665","0.698586111","","","","","","","","","","76","L","3","","","91","main_expt","",""
"","bandit","173","530272","0.0-133.0-0.0","42231721","wem/bandit_party_2","A3UNLVZ3F1EZBS","either","1","210","","","","","","","1","0","0","0.6054304462","","0.6","0.2","0.4","0.8","","","","","0.08596821216","0.8583259383","0.620788192","0.6054304462","","","","","","","","","","76","L","3","","","92","main_expt","",""
"","bandit","174","531843","0.0-134.0-0.0","42231721","wem/bandit_party_2","A3UNLVZ3F1EZBS","either","1","5","","","","","","","1","0","0","0.6829204303","","0.6","0.2","0.4","0.8","","","","","0.05652587691","0.8335107661","0.679669404","0.6829204303","","","","","","","","","","76","L","3","","","93","main_expt","",""
"","bandit","175","533595","0.0-135.0-0.0","42231721","wem/bandit_party_2","A3UNLVZ3F1EZBS","either","1","197","","","","","","","0","0","1","0.6084783934","","0.6","0.2","0.4","0.8","","","","","0.07490457358","0.8849423118","0.6726581754","0.6084783934","","","","","","","","","","76","L","3","","","94","main_expt","",""
"","bandit","176","535359","0.0-136.0-0.0","42231721","wem/bandit_party_2","A3UNLVZ3F1EZBS","either","1","221","","","","","","","1","0","0","0.51962455","","0.6","0.2","0.4","0.8","","","","","0.05201682933","0.9175662658","0.5983950962","0.51962455","","","","","","","","","","76","L","3","","","95","main_expt","",""
"","bandit","177","537061","0.0-137.0-0.0","42231721","wem/bandit_party_2","A3UNLVZ3F1EZBS","either","1","136","","","","","","","1","0","0","0.453067158","","0.6","0.2","0.4","0.8","","","","","0.0353667714","0.8726153548","0.6316158747","0.453067158","","","","","","","","","","76","L","3","","","96","main_expt","",""
"","bandit","178","538868","0.0-138.0-0.0","42231721","wem/bandit_party_2","A3UNLVZ3F1EZBS","either","1","247","","","","","","","0","1","0","","0.4090095009","0.6","0.2","0.4","0.8","0.04301306848","0.7260562137","0.6660601513","0.4090095009","","","","","","","","","","","","","","76","L","3","","","97","main_expt","",""
"","bandit","179","540739","0.0-139.0-0.0","42231721","wem/bandit_party_2","A3UNLVZ3F1EZBS","either","1","330","","","","","","","0","0","1","0.360727585","","0.6","0.2","0.4","0.8","","","","","0.03950067624","0.6506148609","0.6185462561","0.360727585","","","","","","","","","","76","L","3","","","98","main_expt","",""
"","bandit","180","542417","0.0-140.0-0.0","42231721","wem/bandit_party_2","A3UNLVZ3F1EZBS","either","1","113","","","","","","","0","0","1","0.3351327477","","0.6","0.2","0.4","0.8","","","","","0.03156699585","0.5816342488","0.581128502","0.3351327477","","","","","","","","","","76","L","3","","","99","main_expt","",""
"","bandit","181","544327","0.0-141.0-0.0","42231721","wem/bandit_party_2","A3UNLVZ3F1EZBS","either","1","363","","","","","","","0","0","1","0.3491912274","","0.6","0.2","0.4","0.8","","","","","0.0248161238","0.5521464449","0.479775063","0.3491912274","","","","","","","","","","76","L","3","","","100","main_expt","",""
"","bandit","182","545900","0.0-142.0-0.0","42231721","wem/bandit_party_2","A3UNLVZ3F1EZBS","either","1","5","","","","","","","1","0","0","0.4105375765","","0.6","0.2","0.4","0.8","","","","","0.02218075004","0.6063232436","0.5114647241","0.4105375765","","","","","","","","","","76","L","3","","","101","main_expt","",""
"","bandit","183","557671","0.0-143.0-0.0","42231721","wem/bandit_party_2","A3UNLVZ3F1EZBS","either","1","10211","","","","","","","0","0","1","","0.01802152149","0.6","0.2","0.4","0.8","0.01802152149","0.5636213764","0.4718740674","0.438632671","","","","","","","","","","","","","","72","H","0","img/none_selected.jpg","","102","main_expt","",""
"","bandit","184","559440","0.0-144.0-0.0","42231721","wem/bandit_party_2","A3UNLVZ3F1EZBS","either","1","239","","","","","","","0","0","1","0.01877214671","","0.6","0.2","0.4","0.8","","","","","0.01877214671","0.5370473259","0.5245129891","0.372838406","","","","","","","","","","72","H","0","img/none_selected.jpg","","103","main_expt","",""
"","bandit","185","561979","0.0-145.0-0.0","42231721","wem/bandit_party_2","A3UNLVZ3F1EZBS","either","1","977","","","","","","","0","1","0","","0.5170751474","0.6","0.2","0.4","0.8","0.01556743346","0.549647281","0.5170751474","0.3057692375","","","","","","","","","","","","","","75","K","2","","","104","main_expt","",""
"","bandit","186","563790","0.0-146.0-0.0","42231721","wem/bandit_party_2","A3UNLVZ3F1EZBS","either","1","248","","","","","","","0","1","0","","0.472330124","0.6","0.2","0.4","0.8","0.03717147126","0.4225976111","0.472330124","0.37369274","","","","","","","","","","","","","","75","K","2","","","105","main_expt","",""
"","bandit","187","565846","0.0-147.0-0.0","42231721","wem/bandit_party_2","A3UNLVZ3F1EZBS","either","1","503","","","","","","","0","0","1","","0.5005163425","0.6","0.2","0.4","0.8","0.07687033395","0.5005163425","0.568133852","0.3179799449","","","","","","","","","","","","","","74","J","1","","","106","main_expt","",""
"","bandit","188","567402","0.0-148.0-0.0","42231721","wem/bandit_party_2","A3UNLVZ3F1EZBS","either","1","2","","","","","","","0","1","0","","0.3995396385","0.6","0.2","0.4","0.8","0.07659049968","0.3995396385","0.536018559","0.3053765494","","","","","","","","","","","","","","74","J","1","","","107","main_expt","",""
"","bandit","189","568969","0.0-149.0-0.0","42231721","wem/bandit_party_2","A3UNLVZ3F1EZBS","either","1","1","","","","","","","0","0","1","","0.3855926336","0.6","0.2","0.4","0.8","0.07827602418","0.3855926336","0.3880888981","0.2732860947","","","","","","","","","","","","","","74","J","1","","","108","main_expt","",""
"","bandit","190","570560","0.0-150.0-0.0","42231721","wem/bandit_party_2","A3UNLVZ3F1EZBS","either","1","36","","","","","","","0","0","1","0.2624197952","","0.6","0.2","0.4","0.8","","","","","0.1352418701","0.3059937163","0.3675045314","0.2624197952","","","","","","","","","","76","L","3","","","109","main_expt","",""
"","bandit","191","572435","0.0-151.0-0.0","42231721","wem/bandit_party_2","A3UNLVZ3F1EZBS","either","1","313","","","","","","","1","0","0","0.3303210632","","0.6","0.2","0.4","0.8","","","","","0.1705666919","0.2752892785","0.4560700489","0.3303210632","","","","","","","","","","76","L","3","","","110","main_expt","",""
"","bandit","192","574009","0.0-152.0-0.0","42231721","wem/bandit_party_2","A3UNLVZ3F1EZBS","either","1","24","","","","","","","0","1","0","","0.3541452024","0.6","0.2","0.4","0.8","0.2202970635","0.3038626008","0.5366389876","0.3541452024","","","","","","","","","","","","","","76","L","3","","","111","main_expt","",""
"","bandit","193","575807","0.0-153.0-0.0","42231721","wem/bandit_party_2","A3UNLVZ3F1EZBS","either","1","239","","","","","","","0","0","1","0.4468573219","","0.6","0.2","0.4","0.8","","","","","0.2368742277","0.2308866464","0.5742054707","0.4468573219","","","","","","","","","","76","L","3","","","112","main_expt","",""
"","bandit","194","577487","0.0-154.0-0.0","42231721","wem/bandit_party_2","A3UNLVZ3F1EZBS","either","1","117","","","","","","","0","1","0","","0.5163231944","0.6","0.2","0.4","0.8","0.2487241586","0.2420052043","0.6014260319","0.5163231944","","","","","","","","","","","","","","76","L","3","","","113","main_expt","",""
"","bandit","195","579243","0.0-155.0-0.0","42231721","wem/bandit_party_2","A3UNLVZ3F1EZBS","either","1","191","","","","","","","0","0","1","0.4064640458","","0.6","0.2","0.4","0.8","","","","","0.238824581","0.3277817495","0.5398035654","0.4064640458","","","","","","","","","","76","L","3","","","114","main_expt","",""
"","bandit","196","581096","0.0-156.0-0.0","42231721","wem/bandit_party_2","A3UNLVZ3F1EZBS","either","1","297","","","","","","","1","0","0","0.4085425191","","0.6","0.2","0.4","0.8","","","","","0.1480638281","0.3280884562","0.5008208772","0.4085425191","","","","","","","","","","76","L","3","","","115","main_expt","",""
"","bandit","197","582911","0.0-157.0-0.0","42231721","wem/bandit_party_2","A3UNLVZ3F1EZBS","either","1","255","","","","","","","1","0","0","0.4412864427","","0.6","0.2","0.4","0.8","","","","","0.1246447603","0.4137256642","0.4200837231","0.4412864427","","","","","","","","","","76","L","3","","","116","main_expt","",""
"","bandit","198","584475","0.0-158.0-0.0","42231721","wem/bandit_party_2","A3UNLVZ3F1EZBS","either","1","2","","","","","","","1","0","0","0.5188885271","","0.6","0.2","0.4","0.8","","","","","0.1308085784","0.372751341","0.4094987027","0.5188885271","","","","","","","","","","76","L","3","","","117","main_expt","",""
"","bandit","199","586439","0.0-159.0-0.0","42231721","wem/bandit_party_2","A3UNLVZ3F1EZBS","either","1","403","","","","","","","1","0","0","0.5728151575","","0.6","0.2","0.4","0.8","","","","","0.09076242324","0.4225631273","0.3862907493","0.5728151575","","","","","","","","","","76","L","3","","","118","main_expt","",""
"","bandit","200","588172","0.0-160.0-0.0","42231721","wem/bandit_party_2","A3UNLVZ3F1EZBS","either","1","177","","","","","","","0","0","1","0.5065624602","","0.6","0.2","0.4","0.8","","","","","0.09057925276","0.4188482812","0.4437318585","0.5065624602","","","","","","","","","","76","L","3","","","119","main_expt","",""
"","bandit","201","589840","0.0-161.0-0.0","42231721","wem/bandit_party_2","A3UNLVZ3F1EZBS","either","1","107","","","","","","","0","0","1","0.4064427813","","0.6","0.2","0.4","0.8","","","","","0.1288926122","0.3729077829","0.293469011","0.4064427813","","","","","","","","","","76","L","3","","","120","main_expt","",""
"","bandit","202","591406","0.0-162.0-0.0","42231721","wem/bandit_party_2","A3UNLVZ3F1EZBS","either","1","2","","","","","","","0","0","1","","0.3948988447","0.6","0.2","0.4","0.8","0.1479701512","0.3817262037","0.2141601759","0.3948988447","","","","","","","","","","","","","","76","L","3","","","121","main_expt","",""
"","bandit","203","592981","0.0-163.0-0.0","42231721","wem/bandit_party_2","A3UNLVZ3F1EZBS","either","1","14","","","","","","","1","0","0","0.316823658","","0.6","0.2","0.4","0.8","","","","","0.1663524813","0.3537210734","0.2594293103","0.316823658","","","","","","","","","","76","L","3","","","122","main_expt","",""
"","bandit","204","594950","0.0-164.0-0.0","42231721","wem/bandit_party_2","A3UNLVZ3F1EZBS","either","1","425","","","","","","","0","0","1","","0.3045978244","0.6","0.2","0.4","0.8","0.1993917655","0.3633727708","0.1519240937","0.3045978244","","","","","","","","","","","","","","76","L","3","","","123","main_expt","",""
"","bandit","205","596614","0.0-165.0-0.0","42231721","wem/bandit_party_2","A3UNLVZ3F1EZBS","either","1","100","","","","","","","0","0","1","","0.2389028675","0.6","0.2","0.4","0.8","0.2948689786","0.4139908316","0.2311656533","0.2389028675","","","","","","","","","","","","","","76","L","3","","","124","main_expt","",""
"","bandit","206","598396","0.0-166.0-0.0","42231721","wem/bandit_party_2","A3UNLVZ3F1EZBS","either","1","224","","","","","","","0","0","1","0.2166803268","","0.6","0.2","0.4","0.8","","","","","0.4054398129","0.3619800754","0.1956748967","0.2166803268","","","","","","","","","","76","L","3","","","125","main_expt","",""
"","bandit","207","600635","0.0-167.0-0.0","42231721","wem/bandit_party_2","A3UNLVZ3F1EZBS","either","1","676","","","","","","","0","0","1","","0.1613674106","0.6","0.2","0.4","0.8","0.5337661481","0.353362548","0.1419383156","0.1613674106","","","","","","","","","","","","","","76","L","3","","","126","main_expt","",""
"","bandit","208","602234","0.0-168.0-0.0","42231721","wem/bandit_party_2","A3UNLVZ3F1EZBS","either","1","41","","","","","","","1","0","0","0.1682412955","","0.6","0.2","0.4","0.8","","","","","0.5510518781","0.2888217425","0.1768105291","0.1682412955","","","","","","","","","","76","L","3","","","127","main_expt","",""
"","bandit","209","604570","0.0-169.0-0.0","42231721","wem/bandit_party_2","A3UNLVZ3F1EZBS","either","1","760","","","","","","","0","0","1","0.1655910943","","0.6","0.2","0.4","0.8","","","","","0.4746642732","0.3131893798","0.1187699492","0.1655910943","","","","","","","","","","76","L","3","","","128","main_expt","",""
"","bandit","210","606314","0.0-170.0-0.0","42231721","wem/bandit_party_2","A3UNLVZ3F1EZBS","either","1","177","","","","","","","0","0","1","0.1845506081","","0.6","0.2","0.4","0.8","","","","","0.5345142674","0.2826861836","0.1860330609","0.1845506081","","","","","","","","","","76","L","3","","","129","main_expt","",""
"","bandit","211","608277","0.0-171.0-0.0","42231721","wem/bandit_party_2","A3UNLVZ3F1EZBS","either","1","398","","","","","","","0","0","1","","0.1548240476","0.6","0.2","0.4","0.8","0.6617219445","0.3434973012","0.09722607165","0.1548240476","","","","","","","","","","","","","","76","L","3","","","130","main_expt","",""
"","bandit","212","610291","0.0-172.0-0.0","42231721","wem/bandit_party_2","A3UNLVZ3F1EZBS","either","1","457","","","","","","","0","0","1","0.1503989","","0.6","0.2","0.4","0.8","","","","","0.6183560712","0.3848082556","0.05626421391","0.1503989","","","","","","","","","","76","L","3","","","131","main_expt","",""
"","bandit","213","612036","0.0-173.0-0.0","42231721","wem/bandit_party_2","A3UNLVZ3F1EZBS","either","1","190","","","","","","","0","0","1","0.1199593994","","0.6","0.2","0.4","0.8","","","","","0.7009512511","0.4140069858","0.1149854728","0.1199593994","","","","","","","","","","76","L","3","","","132","main_expt","",""
"","bandit","214","613760","0.0-174.0-0.0","42231721","wem/bandit_party_2","A3UNLVZ3F1EZBS","either","1","164","","","","","","","0","0","1","0.1518383839","","0.6","0.2","0.4","0.8","","","","","0.5838974895","0.3745017877","0.1698175541","0.1518383839","","","","","","","","","","76","L","3","","","133","main_expt","",""
"","bandit","215","615735","0.0-175.0-0.0","42231721","wem/bandit_party_2","A3UNLVZ3F1EZBS","either","1","413","","","","","","","0","0","1","0.1855528241","","0.6","0.2","0.4","0.8","","","","","0.6628563986","0.3918835711","0.1925371395","0.1855528241","","","","","","","","","","76","L","3","","","134","main_expt","",""
"","bandit","216","617298","0.0-176.0-0.0","42231721","wem/bandit_party_2","A3UNLVZ3F1EZBS","either","1","1","","","","","","","0","0","1","0.2187769305","","0.6","0.2","0.4","0.8","","","","","0.5610912218","0.3405764209","0.246136332","0.2187769305","","","","","","","","","","76","L","3","","","135","main_expt","",""
"","bandit","217","618940","0.0-177.0-0.0","42231721","wem/bandit_party_2","A3UNLVZ3F1EZBS","either","1","64","","","","","","","0","0","1","","0.2001534018","0.6","0.2","0.4","0.8","0.4834649218","0.4155430462","0.2277518718","0.2001534018","","","","","","","","","","","","","","76","L","3","","","136","main_expt","",""
"","bandit","218","620680","0.0-178.0-0.0","42231721","wem/bandit_party_2","A3UNLVZ3F1EZBS","either","1","176","","","","","","","0","0","1","0.176995917","","0.6","0.2","0.4","0.8","","","","","0.513072369","0.3389252929","0.252962458","0.176995917","","","","","","","","","","76","L","3","","","137","main_expt","",""
"","bandit","219","622250","0.0-179.0-0.0","42231721","wem/bandit_party_2","A3UNLVZ3F1EZBS","either","1","2","","","","","","","1","0","0","0.5502636267","","0.6","0.2","0.4","0.8","","","","","0.5502636267","0.2698753193","0.3018696236","0.1460019238","","","","","","","","","","72","H","0","img/none_selected.jpg","","138","main_expt","",""
"","bandit","220","624035","0.0-180.0-0.0","42231721","wem/bandit_party_2","A3UNLVZ3F1EZBS","either","1","222","","","","","","","1","0","0","0.4564922144","","0.6","0.2","0.4","0.8","","","","","0.4564922144","0.2821570394","0.347353107","0.06707115951","","","","","","","","","","72","H","0","img/none_selected.jpg","","139","main_expt","",""
"","bandit","221","625817","0.0-181.0-0.0","42231721","wem/bandit_party_2","A3UNLVZ3F1EZBS","either","1","219","","","","","","","1","0","0","0.4116013625","","0.6","0.2","0.4","0.8","","","","","0.4116013625","0.3577533322","0.2477375586","0.1071331831","","","","","","","","","","72","H","0","img/none_selected.jpg","","140","main_expt","",""
"","bandit","222","627599","0.0-182.0-0.0","42231721","wem/bandit_party_2","A3UNLVZ3F1EZBS","either","1","218","","","","","","","0","0","1","","0.4498847811","0.6","0.2","0.4","0.8","0.4498847811","0.4250900652","0.2880826197","0.1224459691","","","","","","","","","","","","","","72","H","0","img/none_selected.jpg","","141","main_expt","",""
"","bandit","223","629454","0.0-183.0-0.0","42231721","wem/bandit_party_2","A3UNLVZ3F1EZBS","either","1","295","","","","","","","1","0","0","0.4822150968","","0.6","0.2","0.4","0.8","","","","","0.4822150968","0.3451055681","0.2287108423","0.1127900777","","","","","","","","","","72","H","0","img/none_selected.jpg","","142","main_expt","",""
"","bandit","224","631309","0.0-184.0-0.0","42231721","wem/bandit_party_2","A3UNLVZ3F1EZBS","either","1","295","","","","","","","1","0","0","0.513506041","","0.6","0.2","0.4","0.8","","","","","0.513506041","0.4661026996","0.2096850542","0.1736101882","","","","","","","","","","72","H","0","img/none_selected.jpg","","143","main_expt","",""
"","bandit","225","632898","0.0-185.0-0.0","42231721","wem/bandit_party_2","A3UNLVZ3F1EZBS","either","1","23","","","","","","","0","1","0","","0.556822441","0.6","0.2","0.4","0.8","0.556822441","0.4683168179","0.2214165798","0.1231714597","","","","","","","","","","","","","","72","H","0","img/none_selected.jpg","","144","main_expt","",""
"","bandit","226","634552","0.0-186.0-0.0","42231721","wem/bandit_party_2","A3UNLVZ3F1EZBS","either","1","93","","","","","","","0","0","1","","0.5633269006","0.6","0.2","0.4","0.8","0.5633269006","0.448697065","0.2412424024","0.10514291","","","","","","","","","","","","","","72","H","0","img/none_selected.jpg","","145","main_expt","",""
"","bandit","227","636367","0.0-187.0-0.0","42231721","wem/bandit_party_2","A3UNLVZ3F1EZBS","either","1","239","","","","","","","0","0","1","0.6482805244","","0.6","0.2","0.4","0.8","","","","","0.6482805244","0.4560677512","0.1841611904","0.0972381369","","","","","","","","","","72","H","0","img/none_selected.jpg","","146","main_expt","",""
"","bandit","228","638827","0.0-188.0-0.0","42231721","wem/bandit_party_2","A3UNLVZ3F1EZBS","either","1","900","","","","","","","0","0","1","0.6036290043","","0.6","0.2","0.4","0.8","","","","","0.6036290043","0.513472809","0.1577922033","0.1897119627","","","","","","","","","","72","H","0","img/none_selected.jpg","","147","main_expt","",""
"","bandit","229","640565","0.0-189.0-0.0","42231721","wem/bandit_party_2","A3UNLVZ3F1EZBS","either","1","197","","","","","","","0","1","0","","0.6110248825","0.6","0.2","0.4","0.8","0.6110248825","0.3820674583","0.1663963597","0.1759094881","","","","","","","","","","","","","","72","H","0","img/none_selected.jpg","","148","main_expt","",""
"","bandit","230","642369","0.0-190.0-0.0","42231721","wem/bandit_party_2","A3UNLVZ3F1EZBS","either","1","248","","","","","","","1","0","0","0.6453676348","","0.6","0.2","0.4","0.8","","","","","0.6453676348","0.3116557105","0.319747154","0.2204336569","","","","","","","","","","72","H","0","img/none_selected.jpg","","149","main_expt","",""
"","bandit","231","645060","0.0-191.0-0.0","42231721","wem/bandit_party_2","A3UNLVZ3F1EZBS","either","1","1122","","","","","","","0","0","1","0.2328853871","","0.6","0.2","0.4","0.8","","","","","0.66235511","0.3039338698","0.5410110608","0.2328853871","","","","","","","","","","76","L","3","","","150","main_expt","",""
"","bandit","232","647204","0.0-192.0-0.0","42231721","wem/bandit_party_2","A3UNLVZ3F1EZBS","either","1","587","","","","","","","0","0","1","0.2652525627","","0.6","0.2","0.4","0.8","","","","","0.5547575852","0.3092958796","0.5584745132","0.2652525627","","","","","","","","","","76","L","3","","","151","main_expt","",""
"","bandit","233","649447","0.0-193.0-0.0","42231721","wem/bandit_party_2","A3UNLVZ3F1EZBS","either","1","675","","","","","","","0","0","1","0.2654363334","","0.6","0.2","0.4","0.8","","","","","0.5223098228","0.3097370874","0.5709378499","0.2654363334","","","","","","","","","","76","L","3","","","152","main_expt","",""
"","bandit","234","651485","0.0-194.0-0.0","42231721","wem/bandit_party_2","A3UNLVZ3F1EZBS","either","1","484","","","","","","","0","0","1","0.3505589273","","0.6","0.2","0.4","0.8","","","","","0.5137303037","0.2955649657","0.6314515046","0.3505589273","","","","","","","","","","76","L","3","","","153","main_expt","",""
"","bandit","235","654010","0.0-195.0-0.0","42231721","wem/bandit_party_2","A3UNLVZ3F1EZBS","either","1","951","","","","","","","0","0","1","0.39889796","","0.6","0.2","0.4","0.8","","","","","0.5193194566","0.221553637","0.6734276465","0.39889796","","","","","","","","","","76","L","3","","","154","main_expt","",""
"","bandit","236","655604","0.0-196.0-0.0","42231721","wem/bandit_party_2","A3UNLVZ3F1EZBS","either","1","21","","","","","","","1","0","0","0.4202606707","","0.6","0.2","0.4","0.8","","","","","0.4736812385","0.2231547498","0.7019144477","0.4202606707","","","","","","","","","","76","L","3","","","155","main_expt","",""
"","bandit","237","657407","0.0-197.0-0.0","42231721","wem/bandit_party_2","A3UNLVZ3F1EZBS","either","1","234","","","","","","","0","0","1","0.4814159609","","0.6","0.2","0.4","0.8","","","","","0.4616442501","0.2750957943","0.6695455193","0.4814159609","","","","","","","","","","76","L","3","","","156","main_expt","",""
"","bandit","238","659136","0.0-198.0-0.0","42231721","wem/bandit_party_2","A3UNLVZ3F1EZBS","either","1","161","","","","","","","1","0","0","0.5316807058","","0.6","0.2","0.4","0.8","","","","","0.5025740222","0.2005793054","0.6179864128","0.5316807058","","","","","","","","","","76","L","3","","","157","main_expt","",""
"","bandit","239","660926","0.0-199.0-0.0","42231721","wem/bandit_party_2","A3UNLVZ3F1EZBS","either","1","219","","","","","","","0","0","1","","0.4548105643","0.6","0.2","0.4","0.8","0.4548105643","0.2502080146","0.7380689997","0.5429668589","","","","","","","","","","","","","","72","H","0","img/none_selected.jpg","","158","main_expt","",""
"","bandit","240","662719","0.0-200.0-0.0","42231721","wem/bandit_party_2","A3UNLVZ3F1EZBS","either","1","239","","","","","","","1","0","0","0.4622667215","","0.6","0.2","0.4","0.8","","","","","0.4622667215","0.2729805177","0.7632184112","0.5991419929","","","","","","","","","","72","H","0","img/none_selected.jpg","","159","main_expt","",""
"","bandit","241","664394","0.0-201.0-0.0","42231721","wem/bandit_party_2","A3UNLVZ3F1EZBS","either","1","111","","","","","","","0","0","1","","0.4600517474","0.6","0.2","0.4","0.8","0.4600517474","0.2801697818","0.6917664031","0.6480894682","","","","","","","","","","","","","","72","H","0","img/none_selected.jpg","","160","main_expt","",""
"","bandit","242","666704","0.0-202.0-0.0","42231721","wem/bandit_party_2","A3UNLVZ3F1EZBS","either","1","744","","","","","","","1","0","0","0.481388234","","0.6","0.2","0.4","0.8","","","","","0.481388234","0.2437938608","0.7106531984","0.6776161973","","","","","","","","","","72","H","0","img/none_selected.jpg","","161","main_expt","",""
"","bandit","243","668693","0.0-203.0-0.0","42231721","wem/bandit_party_2","A3UNLVZ3F1EZBS","either","1","417","","","","","","","0","1","0","","0.3850106192","0.6","0.2","0.4","0.8","0.3850106192","0.2687553501","0.809310282","0.7134031715","","","","","","","","","","","","","","72","H","0","img/none_selected.jpg","","162","main_expt","",""
"","bandit","244","670564","0.0-204.0-0.0","42231721","wem/bandit_party_2","A3UNLVZ3F1EZBS","either","1","317","","","","","","","0","0","1","0.3498723973","","0.6","0.2","0.4","0.8","","","","","0.3498723973","0.245991677","0.7492875705","0.6215635068","","","","","","","","","","72","H","0","img/none_selected.jpg","","163","main_expt","",""
"","bandit","245","672417","0.0-205.0-0.0","42231721","wem/bandit_party_2","A3UNLVZ3F1EZBS","either","1","287","","","","","","","0","0","1","0.5219240024","","0.6","0.2","0.4","0.8","","","","","0.4287417444","0.270385563","0.7561394707","0.5219240024","","","","","","","","","","76","L","3","","","164","main_expt","",""
"","bandit","246","673982","0.0-206.0-0.0","42231721","wem/bandit_party_2","A3UNLVZ3F1EZBS","either","1","7","","","","","","","0","1","0","","0.4727302842","0.6","0.2","0.4","0.8","0.3150145745","0.3037855967","0.8111415702","0.4727302842","","","","","","","","","","","","","","76","L","3","","","165","main_expt","",""
"","bandit","247","676378","0.0-207.0-0.0","42231721","wem/bandit_party_2","A3UNLVZ3F1EZBS","either","1","834","","","","","","","0","0","1","0.2927018344","","0.6","0.2","0.4","0.8","","","","","0.2927018344","0.3395577104","0.7759938205","0.5181018645","","","","","","","","","","72","H","0","img/none_selected.jpg","","166","main_expt","",""
"","bandit","248","677942","0.0-208.0-0.0","42231721","wem/bandit_party_2","A3UNLVZ3F1EZBS","either","1","2","","","","","","","1","0","0","0.3610256338","","0.6","0.2","0.4","0.8","","","","","0.3610256338","0.3443901906","0.8267633335","0.5280433419","","","","","","","","","","72","H","0","img/none_selected.jpg","","167","main_expt","",""
"","bandit","249","679740","0.0-209.0-0.0","42231721","wem/bandit_party_2","A3UNLVZ3F1EZBS","either","1","234","","","","","","","1","0","0","0.3137127159","","0.6","0.2","0.4","0.8","","","","","0.3137127159","0.2552323567","0.8136073627","0.5470010145","","","","","","","","","","72","H","0","img/none_selected.jpg","","168","main_expt","",""
"","bandit","250","681350","0.0-210.0-0.0","42231721","wem/bandit_party_2","A3UNLVZ3F1EZBS","either","1","60","","","","","","","0","0","1","","0.2292796242","0.6","0.2","0.4","0.8","0.2292796242","0.289352286","0.7308533614","0.5558845962","","","","","","","","","","","","","","72","H","0","img/none_selected.jpg","","169","main_expt","",""
"","bandit","251","682921","0.0-211.0-0.0","42231721","wem/bandit_party_2","A3UNLVZ3F1EZBS","either","1","5","","","","","","","0","0","1","0.221948569","","0.6","0.2","0.4","0.8","","","","","0.221948569","0.2262743404","0.7090730391","0.5799309324","","","","","","","","","","72","H","0","img/none_selected.jpg","","170","main_expt","",""
"","bandit","252","684729","0.0-212.0-0.0","42231721","wem/bandit_party_2","A3UNLVZ3F1EZBS","either","1","257","","","","","","","0","0","1","","0.159615594","0.6","0.2","0.4","0.8","0.159615594","0.2644351609","0.7229684446","0.6643953266","","","","","","","","","","","","","","72","H","0","img/none_selected.jpg","","171","main_expt","",""
"","bandit","253","688069","0.0-213.0-0.0","42231721","wem/bandit_party_2","A3UNLVZ3F1EZBS","either","1","1771","","","","","","","0","0","1","","0.1303854457","0.6","0.2","0.4","0.8","0.1303854457","0.4136296373","0.6612043244","0.7610666705","","","","","","","","","","","","","","72","H","0","img/none_selected.jpg","","172","main_expt","",""
"","bandit","254","689636","0.0-214.0-0.0","42231721","wem/bandit_party_2","A3UNLVZ3F1EZBS","either","1","2","","","","","","","0","0","1","","0.07729024622","0.6","0.2","0.4","0.8","0.07729024622","0.491318492","0.7669021743","0.8006149786","","","","","","","","","","","","","","72","H","0","img/none_selected.jpg","","173","main_expt","",""
"","bandit","255","691809","0.0-215.0-0.0","42231721","wem/bandit_party_2","A3UNLVZ3F1EZBS","either","1","626","","","","","","","1","0","0","0.791095403","","0.6","0.2","0.4","0.8","","","","","0.1227026474","0.4966763124","0.8111867287","0.791095403","","","","","","","","","","76","L","3","","","174","main_expt","",""
"","bandit","256","693610","0.0-216.0-0.0","42231721","wem/bandit_party_2","A3UNLVZ3F1EZBS","either","1","240","","","","","","","0","0","1","","0.8572088762","0.6","0.2","0.4","0.8","0.09483306355","0.5109350621","0.8192498968","0.8572088762","","","","","","","","","","","","","","76","L","3","","","175","main_expt","",""
"","bandit","257","695555","0.0-217.0-0.0","42231721","wem/bandit_party_2","A3UNLVZ3F1EZBS","either","1","371","","","","","","","1","0","0","0.8576080684","","0.6","0.2","0.4","0.8","","","","","0.143069758","0.6321295754","0.8371283275","0.8576080684","","","","","","","","","","76","L","3","","","176","main_expt","",""
"","bandit","258","697165","0.0-218.0-0.0","42231721","wem/bandit_party_2","A3UNLVZ3F1EZBS","either","1","42","","","","","","","1","0","0","0.8678158231","","0.6","0.2","0.4","0.8","","","","","0.1741656422","0.5515755996","0.8545140947","0.8678158231","","","","","","","","","","76","L","3","","","177","main_expt","",""
"","bandit","259","698783","0.0-219.0-0.0","42231721","wem/bandit_party_2","A3UNLVZ3F1EZBS","either","1","50","","","","","","","1","0","0","0.8820542777","","0.6","0.2","0.4","0.8","","","","","0.1904086474","0.5086275016","0.8794893657","0.8820542777","","","","","","","","","","76","L","3","","","178","main_expt","",""
"","bandit","260","700762","0.0-220.0-0.0","42231721","wem/bandit_party_2","A3UNLVZ3F1EZBS","either","1","425","","","","","","","1","0","0","0.8907334788","","0.6","0.2","0.4","0.8","","","","","0.1778905233","0.5215192908","0.8939587296","0.8907334788","","","","","","","","","","76","L","3","","","179","main_expt","",""
"","bandit","261","702346","0.0-221.0-0.0","42231721","wem/bandit_party_2","A3UNLVZ3F1EZBS","either","1","3","","","","","","","0","1","0","","0.9161653667","0.6","0.2","0.4","0.8","0.2112817454","0.5193414217","0.868077767","0.9161653667","","","","","","","","","","","","","","76","L","3","","","180","main_expt","",""
"","bandit","262","704348","0.0-222.0-0.0","42231721","wem/bandit_party_2","A3UNLVZ3F1EZBS","either","1","431","","","","","","","1","0","0","0.2236312472","","0.6","0.2","0.4","0.8","","","","","0.2236312472","0.4613460131","0.9295405476","0.9327112184","","","","","","","","","","72","H","0","img/none_selected.jpg","","181","main_expt","",""
"","bandit","263","706227","0.0-223.0-0.0","42231721","wem/bandit_party_2","A3UNLVZ3F1EZBS","either","1","324","","","","","","","0","0","1","0.264467441","","0.6","0.2","0.4","0.8","","","","","0.264467441","0.4468633868","0.9213574857","0.9284398706","","","","","","","","","","72","H","0","img/none_selected.jpg","","182","main_expt","",""
"","bandit","264","708651","0.0-224.0-0.0","42231721","wem/bandit_party_2","A3UNLVZ3F1EZBS","either","1","843","","","","","","","0","0","1","","0.2240632979","0.6","0.2","0.4","0.8","0.2240632979","0.4985091709","0.9374560388","0.89591471","","","","","","","","","","","","","","72","H","0","img/none_selected.jpg","","183","main_expt","",""
"","bandit","265","710906","0.0-225.0-0.0","42231721","wem/bandit_party_2","A3UNLVZ3F1EZBS","either","1","701","","","","","","","1","0","0","0.1671404848","","0.6","0.2","0.4","0.8","","","","","0.1671404848","0.6057575335","0.9120054929","0.9146434193","","","","","","","","","","72","H","0","img/none_selected.jpg","","184","main_expt","",""
"","bandit","266","714835","0.0-226.0-0.0","42231721","wem/bandit_party_2","A3UNLVZ3F1EZBS","either","1","2352","","","","","","","1","0","0","0.8575823977","","0.6","0.2","0.4","0.8","","","","","0.1932257563","0.4915456485","0.8428471033","0.8575823977","","","","","","","","","","76","L","3","","","185","main_expt","",""
"","bandit","267","716717","0.0-227.0-0.0","42231721","wem/bandit_party_2","A3UNLVZ3F1EZBS","either","1","319","","","","","","","1","0","0","0.8487952361","","0.6","0.2","0.4","0.8","","","","","0.155472597","0.5976273718","0.7734335662","0.8487952361","","","","","","","","","","76","L","3","","","186","main_expt","",""
"","bandit","268","718539","0.0-228.0-0.0","42231721","wem/bandit_party_2","A3UNLVZ3F1EZBS","either","1","262","","","","","","","1","0","0","0.8603972339","","0.6","0.2","0.4","0.8","","","","","0.1895871356","0.5743595779","0.7667319261","0.8603972339","","","","","","","","","","76","L","3","","","187","main_expt","",""
"","bandit","269","720197","0.0-229.0-0.0","42231721","wem/bandit_party_2","A3UNLVZ3F1EZBS","either","1","102","","","","","","","1","0","0","0.8834510925","","0.6","0.2","0.4","0.8","","","","","0.2119556673","0.6833173747","0.5945875292","0.8834510925","","","","","","","","","","76","L","3","","","188","main_expt","",""
"","bandit","270","722094","0.0-230.0-0.0","42231721","wem/bandit_party_2","A3UNLVZ3F1EZBS","either","1","324","","","","","","","1","0","0","0.8973947779","","0.6","0.2","0.4","0.8","","","","","0.2255007403","0.651089354","0.7406569186","0.8973947779","","","","","","","","","","76","L","3","","","189","main_expt","",""
"","bandit","271","723905","0.0-231.0-0.0","42231721","wem/bandit_party_2","A3UNLVZ3F1EZBS","either","1","258","","","","","","","1","0","0","0.8824587855","","0.6","0.2","0.4","0.8","","","","","0.1754842532","0.6599652607","0.7371931777","0.8824587855","","","","","","","","","","76","L","3","","","190","main_expt","",""
"","bandit","272","728860","0.0-232.0-0.0","42231721","wem/bandit_party_2","A3UNLVZ3F1EZBS","either","1","3377","","","","","","","1","0","0","0.9076431997","","0.6","0.2","0.4","0.8","","","","","0.1936311571","0.6960236584","0.7019705866","0.9076431997","","","","","","","","","","76","L","3","","","191","main_expt","",""
"","bandit","273","730468","0.0-233.0-0.0","42231721","wem/bandit_party_2","A3UNLVZ3F1EZBS","either","1","37","","","","","","","0","1","0","","0.8673165995","0.6","0.2","0.4","0.8","0.215612591","0.6713911156","0.6198122665","0.8673165995","","","","","","","","","","","","","","76","L","3","","","192","main_expt","",""
"","bandit","274","732139","0.0-234.0-0.0","42231721","wem/bandit_party_2","A3UNLVZ3F1EZBS","either","1","106","","","","","","","0","0","1","","0.8264401474","0.6","0.2","0.4","0.8","0.2818734505","0.7244072205","0.6100930929","0.8264401474","","","","","","","","","","","","","","76","L","3","","","193","main_expt","",""
"","bandit","275","733998","0.0-235.0-0.0","42231721","wem/bandit_party_2","A3UNLVZ3F1EZBS","either","1","295","","","","","","","0","1","0","","0.8546086414","0.6","0.2","0.4","0.8","0.3616108755","0.7397798508","0.6332739585","0.8546086414","","","","","","","","","","","","","","76","L","3","","","194","main_expt","",""
"","bandit","276","736359","0.0-236.0-0.0","42231721","wem/bandit_party_2","A3UNLVZ3F1EZBS","either","1","791","","","","","","","0","0","1","0.3979961615","","0.6","0.2","0.4","0.8","","","","","0.3979961615","0.7602069811","0.609207161","0.7914914872","","","","","","","","","","72","H","0","img/none_selected.jpg","","195","main_expt","",""
"","bandit","277","738221","0.0-237.0-0.0","42231721","wem/bandit_party_2","A3UNLVZ3F1EZBS","either","1","293","","","","","","","0","0","1","","0.4366641927","0.6","0.2","0.4","0.8","0.4366641927","0.7114092524","0.6560649547","0.7608346536","","","","","","","","","","","","","","72","H","0","img/none_selected.jpg","","196","main_expt","",""
"","bandit","278","740001","0.0-238.0-0.0","42231721","wem/bandit_party_2","A3UNLVZ3F1EZBS","either","1","203","","","","","","","0","0","1","","0.560782874","0.6","0.2","0.4","0.8","0.560782874","0.6917424169","0.6656533059","0.7003784325","","","","","","","","","","","","","","72","H","0","img/none_selected.jpg","","197","main_expt","",""
"","bandit","279","742005","0.0-239.0-0.0","42231721","wem/bandit_party_2","A3UNLVZ3F1EZBS","either","1","438","","","","","","","0","0","1","0.6036075577","","0.6","0.2","0.4","0.8","","","","","0.5649388288","0.6561069913","0.6841747727","0.6036075577","","","","","","","","","","76","L","3","","","198","main_expt","",""
"","bandit","280","743873","0.0-240.0-0.0","42231721","wem/bandit_party_2","A3UNLVZ3F1EZBS","either","1","307","","","","","","","0","0","1","0.5843314555","","0.6","0.2","0.4","0.8","","","","","0.5375892324","0.6948346643","0.7105065455","0.5843314555","","","","","","","","","","76","L","3","","","199","main_expt","",""
"","bandit","281","745648","0.0-241.0-0.0","42231721","wem/bandit_party_2","A3UNLVZ3F1EZBS","either","1","220","","","","","","","1","0","0","0.539414212","","0.6","0.2","0.4","0.8","","","","","0.5625167851","0.7369743936","0.7380433654","0.539414212","","","","","","","","","","76","L","3","","","200","main_expt","",""
"","bandit","282","747379","0.0-242.0-0.0","42231721","wem/bandit_party_2","A3UNLVZ3F1EZBS","either","1","155","","","","","","","1","0","0","0.3774065742","","0.6","0.2","0.4","0.8","","","","","0.6266810217","0.8347268415","0.6432951689","0.3774065742","","","","","","","","","","76","L","3","","","201","main_expt","",""
"","bandit","283","749131","0.0-243.0-0.0","42231721","wem/bandit_party_2","A3UNLVZ3F1EZBS","either","1","181","","","","","","","0","0","1","","0.2824615609","0.6","0.2","0.4","0.8","0.6661075828","0.7612264534","0.4995879772","0.2824615609","","","","","","","","","","","","","","76","L","3","","","202","main_expt","",""
"","bandit","284","751040","0.0-244.0-0.0","42231721","wem/bandit_party_2","A3UNLVZ3F1EZBS","either","1","341","","","","","","","0","0","1","0.210170224","","0.6","0.2","0.4","0.8","","","","","0.7534099026","0.6904596671","0.4767352753","0.210170224","","","","","","","","","","76","L","3","","","203","main_expt","",""
"","bandit","285","752993","0.0-245.0-0.0","42231721","wem/bandit_party_2","A3UNLVZ3F1EZBS","either","1","393","","","","","","","1","0","0","0.7033522103","","0.6","0.2","0.4","0.8","","","","","0.7033522103","0.6855485072","0.3680612217","0.2708138581","","","","","","","","","","72","H","0","img/none_selected.jpg","","204","main_expt","",""
"","bandit","286","754574","0.0-246.0-0.0","42231721","wem/bandit_party_2","A3UNLVZ3F1EZBS","either","1","3","","","","","","","0","0","1","","0.6105989365","0.6","0.2","0.4","0.8","0.6105989365","0.7006332368","0.3404512965","0.3319820794","","","","","","","","","","","","","","72","H","0","img/none_selected.jpg","","205","main_expt","",""
"","bandit","287","756149","0.0-247.0-0.0","42231721","wem/bandit_party_2","A3UNLVZ3F1EZBS","either","1","2","","","","","","","0","1","0","","0.725137222","0.6","0.2","0.4","0.8","0.725137222","0.7533130943","0.2774568564","0.3517339603","","","","","","","","","","","","","","72","H","0","img/none_selected.jpg","","206","main_expt","",""
"","bandit","288","757744","0.0-248.0-0.0","42231721","wem/bandit_party_2","A3UNLVZ3F1EZBS","either","1","45","","","","","","","0","1","0","","0.5888984072","0.6","0.2","0.4","0.8","0.5888984072","0.7191760557","0.2228883469","0.2871079035","","","","","","","","","","","","","","72","H","0","img/none_selected.jpg","","207","main_expt","",""
"","bandit","289","759640","0.0-249.0-0.0","42231721","wem/bandit_party_2","A3UNLVZ3F1EZBS","either","1","326","","","","","","","0","0","1","0.2642306377","","0.6","0.2","0.4","0.8","","","","","0.4650323514","0.6264293856","0.2829247412","0.2642306377","","","","","","","","","","76","L","3","","","208","main_expt","",""
"","bandit","290","761205","0.0-250.0-0.0","42231721","wem/bandit_party_2","A3UNLVZ3F1EZBS","either","1","1","","","","","","","1","0","0","0.3587725811","","0.6","0.2","0.4","0.8","","","","","0.4100719568","0.6500478562","0.3169104167","0.3587725811","","","","","","","","","","76","L","3","","","209","main_expt","",""
"","bandit","291","762958","0.0-251.0-0.0","42231721","wem/bandit_party_2","A3UNLVZ3F1EZBS","either","1","179","","","","","","","0","0","1","0.3103342645","","0.6","0.2","0.4","0.8","","","","","0.5177296744","0.6498865343","0.2090062306","0.3103342645","","","","","","","","","","76","L","3","","","210","main_expt","",""
"","bandit","292","764801","0.0-252.0-0.0","42231721","wem/bandit_party_2","A3UNLVZ3F1EZBS","either","1","268","","","","","","","0","0","1","","0.3760595068","0.6","0.2","0.4","0.8","0.5950812693","0.6056301442","0.1481662818","0.3760595068","","","","","","","","","","","","","","76","L","3","","","211","main_expt","",""
"","bandit","293","766695","0.0-253.0-0.0","42231721","wem/bandit_party_2","A3UNLVZ3F1EZBS","either","1","322","","","","","","","1","0","0","0.7169745983","","0.6","0.2","0.4","0.8","","","","","0.7169745983","0.5524844402","0.2114888193","0.447023013","","","","","","","","","","72","H","0","img/none_selected.jpg","","212","main_expt","",""
"","bandit","294","768680","0.0-254.0-0.0","42231721","wem/bandit_party_2","A3UNLVZ3F1EZBS","either","1","421","","","","","","","0","0","1","0.4529182837","","0.6","0.2","0.4","0.8","","","","","0.6766124197","0.6984249358","0.2234642754","0.4529182837","","","","","","","","","","76","L","3","","","213","main_expt","",""
"","bandit","295","770325","0.0-255.0-0.0","42231721","wem/bandit_party_2","A3UNLVZ3F1EZBS","either","1","66","","","","","","","1","0","0","0.8005648136","","0.6","0.2","0.4","0.8","","","","","0.8005648136","0.5996975418","0.2315139555","0.4306534983","","","","","","","","","","72","H","0","img/none_selected.jpg","","214","main_expt","",""
"","bandit","296","772276","0.0-256.0-0.0","42231721","wem/bandit_party_2","A3UNLVZ3F1EZBS","either","1","412","","","","","","","1","0","0","0.8487964291","","0.6","0.2","0.4","0.8","","","","","0.8487964291","0.6067129047","0.1949488974","0.4314469479","","","","","","","","","","72","H","0","img/none_selected.jpg","","215","main_expt","",""
"","bandit","297","773935","0.0-257.0-0.0","42231721","wem/bandit_party_2","A3UNLVZ3F1EZBS","either","1","84","","","","","","","1","0","0","0.8674123454","","0.6","0.2","0.4","0.8","","","","","0.8674123454","0.6297976658","0.2333303883","0.45439575","","","","","","","","","","72","H","0","img/none_selected.jpg","","216","main_expt","",""
"","bandit","298","775766","0.0-258.0-0.0","42231721","wem/bandit_party_2","A3UNLVZ3F1EZBS","either","1","262","","","","","","","1","0","0","0.8774404243","","0.6","0.2","0.4","0.8","","","","","0.8774404243","0.6095272491","0.2027763819","0.5228861726","","","","","","","","","","72","H","0","img/none_selected.jpg","","217","main_expt","",""
"","bandit","299","777532","0.0-259.0-0.0","42231721","wem/bandit_party_2","A3UNLVZ3F1EZBS","either","1","194","","","","","","","0","0","1","0.8836448068","","0.6","0.2","0.4","0.8","","","","","0.8836448068","0.7058099393","0.1895874514","0.463703458","","","","","","","","","","72","H","0","img/none_selected.jpg","","218","main_expt","",""
"","bandit","300","779107","0.0-260.0-0.0","42231721","wem/bandit_party_2","A3UNLVZ3F1EZBS","either","1","1","","","","","","","0","0","1","0.4522864467","","0.6","0.2","0.4","0.8","","","","","0.880498508","0.7396246451","0.1537120117","0.4522864467","","","","","","","","","","76","L","3","","","219","main_expt","",""
"","bandit","301","780661","0.0-261.0-0.0","42231721","wem/bandit_party_2","A3UNLVZ3F1EZBS","either","1","21","","","","","","","1","0","0","0.8740874997","","0.6","0.2","0.4","0.8","","","","","0.8740874997","0.7091968036","0.2022747423","0.4561576612","","","","","","","","","","72","H","0","img/none_selected.jpg","","220","main_expt","",""
"","bandit","302","782501","0.0-262.0-0.0","42231721","wem/bandit_party_2","A3UNLVZ3F1EZBS","either","1","276","","","","","","","0","0","1","0.8527830905","","0.6","0.2","0.4","0.8","","","","","0.8527830905","0.7116308873","0.3174413427","0.4264657168","","","","","","","","","","72","H","0","img/none_selected.jpg","","221","main_expt","",""
"","bandit","303","784734","0.0-263.0-0.0","42231721","wem/bandit_party_2","A3UNLVZ3F1EZBS","either","1","656","","","","","","","0","1","0","","0.7717907476","0.6","0.2","0.4","0.8","0.7717907476","0.769465391","0.2315667073","0.3055141729","","","","","","","","","","","","","","72","H","0","img/none_selected.jpg","","222","main_expt","",""
"","bandit","304","786410","0.0-264.0-0.0","42231721","wem/bandit_party_2","A3UNLVZ3F1EZBS","either","1","119","","","","","","","0","0","1","0.2868954791","","0.6","0.2","0.4","0.8","","","","","0.8359700354","0.7509006974","0.2261006122","0.2868954791","","","","","","","","","","76","L","3","","","223","main_expt","",""
"","bandit","305","787995","0.0-265.0-0.0","42231721","wem/bandit_party_2","A3UNLVZ3F1EZBS","either","1","12","","","","","","","0","0","1","0.819670806","","0.6","0.2","0.4","0.8","","","","","0.819670806","0.7007688409","0.2662378096","0.2698185242","","","","","","","","","","72","H","0","img/none_selected.jpg","","224","main_expt","",""
"","bandit","306","789557","0.0-266.0-0.0","42231721","wem/bandit_party_2","A3UNLVZ3F1EZBS","either","1","1","","","","","","","1","0","0","0.8512382749","","0.6","0.2","0.4","0.8","","","","","0.8512382749","0.7409020096","0.2163280173","0.213842325","","","","","","","","","","72","H","0","img/none_selected.jpg","","225","main_expt","",""
"","bandit","307","791208","0.0-267.0-0.0","42231721","wem/bandit_party_2","A3UNLVZ3F1EZBS","either","1","75","","","","","","","0","0","1","0.2809353625","","0.6","0.2","0.4","0.8","","","","","0.8342861847","0.7052945704","0.2809353625","0.1616408491","","","","","","","","","","75","K","2","","","226","main_expt","",""
"","bandit","308","792966","0.0-268.0-0.0","42231721","wem/bandit_party_2","A3UNLVZ3F1EZBS","either","1","189","","","","","","","0","0","1","","0.2396571279","0.6","0.2","0.4","0.8","0.7736041865","0.606091252","0.2396571279","0.1777599287","","","","","","","","","","","","","","75","K","2","","","227","main_expt","",""
"","bandit","309","794580","0.0-269.0-0.0","42231721","wem/bandit_party_2","A3UNLVZ3F1EZBS","either","1","52","","","","","","","0","1","0","","0.8094350608","0.6","0.2","0.4","0.8","0.8094350608","0.5834203199","0.3430446928","0.2866543064","","","","","","","","","","","","","","72","H","0","img/none_selected.jpg","","228","main_expt","",""
"","bandit","310","796144","0.0-270.0-0.0","42231721","wem/bandit_party_2","A3UNLVZ3F1EZBS","either","1","2","","","","","","","0","0","1","","0.2886233194","0.6","0.2","0.4","0.8","0.8078722129","0.5466214007","0.2886233194","0.3948293382","","","","","","","","","","","","","","75","K","2","","","229","main_expt","",""
"","bandit","311","797869","0.0-271.0-0.0","42231721","wem/bandit_party_2","A3UNLVZ3F1EZBS","either","1","159","","","","","","","0","0","1","","0.3213731463","0.6","0.2","0.4","0.8","0.7719043616","0.5519014059","0.3213731463","0.3291786684","","","","","","","","","","","","","","75","K","2","","","230","main_expt","",""
"","bandit","312","799626","0.0-272.0-0.0","42231721","wem/bandit_party_2","A3UNLVZ3F1EZBS","either","1","182","","","","","","","0","0","1","0.2378236032","","0.6","0.2","0.4","0.8","","","","","0.8049264475","0.4527164215","0.2771614906","0.2378236032","","","","","","","","","","76","L","3","","","231","main_expt","",""
"","bandit","313","801380","0.0-273.0-0.0","42231721","wem/bandit_party_2","A3UNLVZ3F1EZBS","either","1","182","","","","","","","1","0","0","0.246393804","","0.6","0.2","0.4","0.8","","","","","0.8850589997","0.5135082398","0.2249105956","0.246393804","","","","","","","","","","76","L","3","","","232","main_expt","",""
