"consent","trial_type","trial_index","time_elapsed","internal_node_id","subjID","study","MID","cond","drift","rt","responses","button_pressed","key_press","like","value","connected","gems","bombs","no_reward","GemPrChosen","BombPrChosen","GainOverPainPr_0","GainOverPainPr_1","GainOverPainPr_2","GainOverPainPr_3","LosePr_0","LosePr_1","LosePr_2","LosePr_3","WinPr_0","WinPr_1","WinPr_2","WinPr_3","Q0","Q1","Q2","gender","age","ethnicity","label","expt_phase","target","respCharCode","respKey","respChoiceNum","respChoice","practice","trial_counter","trial_label","Q0_index"
"GDM/GDM_behavioral_consent_30min_online.html","consent","0","22992","0.0-0.0","42431256","wem/bandit_party_2","A3D38UO96N9SB0","either","8","","","","","","","","","","","","","","","","","","","","","","","","","","","","","","","","","","","","","","","","",""
"","survey-text","1","44601","0.0-1.0","42431256","wem/bandit_party_2","A3D38UO96N9SB0","either","8","20602","{""Q0"":""A3D38UO96N9SB0""}","","","","","","","","","","","","","","","","","","","","","","","","","","","","","","","","","","","","","","",""
"","button-response","2","50432","0.0-2.0","42431256","wem/bandit_party_2","A3D38UO96N9SB0","either","8","4826","","1","","","","","","","","","","","","","","","","","","","","","","","","","","","","","","","","","","","","","",""
"","text-replacement","3","63788","0.0-3.0","42431256","wem/bandit_party_2","A3D38UO96N9SB0","either","8","12352","","","32","","","","","","","","","","","","","","","","","","","","","","","","","","","","","","","","","","","","",""
"","text-replacement","4","71612","0.0-4.0","42431256","wem/bandit_party_2","A3D38UO96N9SB0","either","8","7823","","","32","","","","","","","","","","","","","","","","","","","","","","","","","","","","","","","","","","","","",""
"","identification","5","77779","0.0-6.0-0.0","42431256","wem/bandit_party_2","A3D38UO96N9SB0","either","8","6155","","","","3","3","2","","","","","","","","","","","","","","","","","","","","","","","","pre","identification_pre","the Republican Party","","","","","","","",""
"","identification","6","84264","0.0-6.0-1.0","42431256","wem/bandit_party_2","A3D38UO96N9SB0","either","8","5475","","","","5","5","4","","","","","","","","","","","","","","","","","","","","","","","","pre","identification_pre","the Democratic Party","","","","","","","",""
"","text-replacement","7","93037","0.0-7.0","42431256","wem/bandit_party_2","A3D38UO96N9SB0","either","8","7769","","","32","","","","","","","","","","","","","","","","","","","","","","","","","","","","","","","","","","","","",""
"","text-replacement","8","99279","0.0-8.0","42431256","wem/bandit_party_2","A3D38UO96N9SB0","either","8","6239","","","32","","","","","","","","","","","","","","","","","","","","","","","","","","","","","","","","","","","","",""
"","text-replacement","9","118595","0.0-9.0","42431256","wem/bandit_party_2","A3D38UO96N9SB0","either","8","19314","","","32","","","","","","","","","","","","","","","","","","","","","","","","","","","","","","","","","","","","",""
"","text-replacement","10","121357","0.0-10.0","42431256","wem/bandit_party_2","A3D38UO96N9SB0","either","8","2761","","","32","","","","","","","","","","","","","","","","","","","","","","","","","","","","","","","","","","","","",""
"","text-replacement","11","124847","0.0-11.0","42431256","wem/bandit_party_2","A3D38UO96N9SB0","either","8","3489","","","32","","","","","","","","","","","","","","","","","","","","","","","","","","","","","","","","","","","","",""
"","bandit","12","127981","0.0-12.0-0.0","42431256","wem/bandit_party_2","A3D38UO96N9SB0","either","8","1627","","","","","","","0","0","1","0","0","","","","","0","","","","0","","","","","","","","","","","","","74","J","0","img/none_selected_demo.jpg","true","0","",""
"","bandit","13","130043","0.0-13.0-0.0","42431256","wem/bandit_party_2","A3D38UO96N9SB0","either","8","557","","","","","","","0","0","1","0","0","","","","","0","","","","0","","","","","","","","","","","","","75","K","0","img/none_selected_demo.jpg","true","0","",""
"","text-replacement","14","135281","0.0-14.0","42431256","wem/bandit_party_2","A3D38UO96N9SB0","either","8","5237","","","32","","","","","","","","","","","","","","","","","","","","","","","","","","","","","","","","","","","","",""
"","text-replacement","15","141550","0.0-15.0","42431256","wem/bandit_party_2","A3D38UO96N9SB0","either","8","6267","","","32","","","","","","","","","","","","","","","","","","","","","","","","","","","","","","","","","","","","",""
"","text-replacement","16","147897","0.0-16.0","42431256","wem/bandit_party_2","A3D38UO96N9SB0","either","8","6346","","","32","","","","","","","","","","","","","","","","","","","","","","","","","","","","","","","","","","","","",""
"","text-replacement","17","152190","0.0-17.0","42431256","wem/bandit_party_2","A3D38UO96N9SB0","either","8","4292","","","32","","","","","","","","","","","","","","","","","","","","","","","","","","","","","","","","","","","","",""
"","bandit","18","154534","0.0-18.0-0.0","42431256","wem/bandit_party_2","A3D38UO96N9SB0","either","8","840","","","","","","","1","0","0","0.8","","0.5","0.5","","","","","","","0.8","0.2","","","","","","","","","","","","74","J","0","img/none_selected_demo.jpg","true","0","80_20_practice",""
"","bandit","19","159579","0.0-18.0-1.0","42431256","wem/bandit_party_2","A3D38UO96N9SB0","either","8","3541","","","","","","","1","0","0","0.8","","0.5","0.5","","","","","","","0.8","0.2","","","","","","","","","","","","74","J","0","img/none_selected_demo.jpg","true","0","80_20_practice",""
"","bandit","20","162057","0.0-18.0-2.0","42431256","wem/bandit_party_2","A3D38UO96N9SB0","either","8","971","","","","","","","0","0","1","0.2","","0.5","0.5","","","","","","","0.8","0.2","","","","","","","","","","","","75","K","1","","true","0","80_20_practice",""
"","bandit","21","164189","0.0-18.0-3.0","42431256","wem/bandit_party_2","A3D38UO96N9SB0","either","8","625","","","","","","","1","0","0","0.2","","0.5","0.5","","","","","","","0.8","0.2","","","","","","","","","","","","75","K","1","","true","0","80_20_practice",""
"","bandit","22","166015","0.0-18.0-4.0","42431256","wem/bandit_party_2","A3D38UO96N9SB0","either","8","322","","","","","","","0","0","1","","0.8","0.5","0.5","","","0.8","0.2","","","","","","","","","","","","","","","","74","J","0","img/none_selected_demo.jpg","true","0","80_20_practice",""
"","bandit","23","168156","0.0-18.0-5.0","42431256","wem/bandit_party_2","A3D38UO96N9SB0","either","8","634","","","","","","","1","0","0","0.8","","0.5","0.5","","","","","","","0.8","0.2","","","","","","","","","","","","74","J","0","img/none_selected_demo.jpg","true","0","80_20_practice",""
"","bandit","24","170085","0.0-18.0-6.0","42431256","wem/bandit_party_2","A3D38UO96N9SB0","either","8","425","","","","","","","0","0","1","","0.8","0.5","0.5","","","0.8","0.2","","","","","","","","","","","","","","","","74","J","0","img/none_selected_demo.jpg","true","0","80_20_practice",""
"","bandit","25","172201","0.0-18.0-7.0","42431256","wem/bandit_party_2","A3D38UO96N9SB0","either","8","610","","","","","","","0","0","1","","0.2","0.5","0.5","","","0.8","0.2","","","","","","","","","","","","","","","","75","K","1","","true","0","80_20_practice",""
"","bandit","26","174076","0.0-18.0-8.0","42431256","wem/bandit_party_2","A3D38UO96N9SB0","either","8","369","","","","","","","0","0","1","","0.2","0.5","0.5","","","0.8","0.2","","","","","","","","","","","","","","","","75","K","1","","true","0","80_20_practice",""
"","bandit","27","175731","0.0-18.0-9.0","42431256","wem/bandit_party_2","A3D38UO96N9SB0","either","8","151","","","","","","","0","0","1","","0.8","0.5","0.5","","","0.8","0.2","","","","","","","","","","","","","","","","74","J","0","img/none_selected_demo.jpg","true","0","80_20_practice",""
"","bandit","28","177402","0.0-18.0-10.0","42431256","wem/bandit_party_2","A3D38UO96N9SB0","either","8","166","","","","","","","0","1","0","","0.8","0.5","0.5","","","0.8","0.2","","","","","","","","","","","","","","","","74","J","0","img/none_selected_demo.jpg","true","0","80_20_practice",""
"","bandit","29","179104","0.0-18.0-11.0","42431256","wem/bandit_party_2","A3D38UO96N9SB0","either","8","198","","","","","","","0","1","0","","0.8","0.5","0.5","","","0.8","0.2","","","","","","","","","","","","","","","","74","J","0","img/none_selected_demo.jpg","true","0","80_20_practice",""
"","bandit","30","181637","0.0-18.0-12.0","42431256","wem/bandit_party_2","A3D38UO96N9SB0","either","8","1028","","","","","","","0","1","0","","0.8","0.5","0.5","","","0.8","0.2","","","","","","","","","","","","","","","","74","J","0","img/none_selected_demo.jpg","true","0","80_20_practice",""
"","bandit","31","183354","0.0-18.0-13.0","42431256","wem/bandit_party_2","A3D38UO96N9SB0","either","8","213","","","","","","","0","1","0","","0.8","0.5","0.5","","","0.8","0.2","","","","","","","","","","","","","","","","74","J","0","img/none_selected_demo.jpg","true","0","80_20_practice",""
"","bandit","32","185320","0.0-18.0-14.0","42431256","wem/bandit_party_2","A3D38UO96N9SB0","either","8","460","","","","","","","1","0","0","0.8","","0.5","0.5","","","","","","","0.8","0.2","","","","","","","","","","","","74","J","0","img/none_selected_demo.jpg","true","0","80_20_practice",""
"","bandit","33","187334","0.0-18.0-15.0","42431256","wem/bandit_party_2","A3D38UO96N9SB0","either","8","509","","","","","","","1","0","0","0.8","","0.5","0.5","","","","","","","0.8","0.2","","","","","","","","","","","","74","J","0","img/none_selected_demo.jpg","true","0","80_20_practice",""
"","bandit","34","189027","0.0-18.0-16.0","42431256","wem/bandit_party_2","A3D38UO96N9SB0","either","8","189","","","","","","","1","0","0","0.8","","0.5","0.5","","","","","","","0.8","0.2","","","","","","","","","","","","74","J","0","img/none_selected_demo.jpg","true","0","80_20_practice",""
"","bandit","35","190726","0.0-18.0-17.0","42431256","wem/bandit_party_2","A3D38UO96N9SB0","either","8","193","","","","","","","0","0","1","0.8","","0.5","0.5","","","","","","","0.8","0.2","","","","","","","","","","","","74","J","0","img/none_selected_demo.jpg","true","0","80_20_practice",""
"","bandit","36","193382","0.0-18.0-18.0","42431256","wem/bandit_party_2","A3D38UO96N9SB0","either","8","1152","","","","","","","1","0","0","0.8","","0.5","0.5","","","","","","","0.8","0.2","","","","","","","","","","","","74","J","0","img/none_selected_demo.jpg","true","0","80_20_practice",""
"","bandit","37","195143","0.0-18.0-19.0","42431256","wem/bandit_party_2","A3D38UO96N9SB0","either","8","255","","","","","","","1","0","0","0.8","","0.5","0.5","","","","","","","0.8","0.2","","","","","","","","","","","","74","J","0","img/none_selected_demo.jpg","true","0","80_20_practice",""
"","text-replacement","38","197916","0.0-19.0","42431256","wem/bandit_party_2","A3D38UO96N9SB0","either","8","2772","","","32","","","","","","","","","","","","","","","","","","","","","","","","","","","","","","","","","","","","",""
"","bandit","39","200154","0.0-20.0-0.0","42431256","wem/bandit_party_2","A3D38UO96N9SB0","either","8","733","","","","","","","1","0","0","1","0","","","","","0","1","","","1","0","","","","","","","","","","","","74","J","0","img/none_selected_demo.jpg","true","0","",""
"","text-replacement","40","204745","0.0-21.0","42431256","wem/bandit_party_2","A3D38UO96N9SB0","either","8","4590","","","32","","","","","","","","","","","","","","","","","","","","","","","","","","","","","","","","","","","","",""
"","text-replacement","41","207729","0.0-22.0","42431256","wem/bandit_party_2","A3D38UO96N9SB0","either","8","2982","","","32","","","","","","","","","","","","","","","","","","","","","","","","","","","","","","","","","","","","",""
"","text-replacement","42","209930","0.0-23.0","42431256","wem/bandit_party_2","A3D38UO96N9SB0","either","8","2200","","","32","","","","","","","","","","","","","","","","","","","","","","","","","","","","","","","","","","","","",""
"","text-replacement","43","214391","0.0-24.0","42431256","wem/bandit_party_2","A3D38UO96N9SB0","either","8","4459","","","32","","","","","","","","","","","","","","","","","","","","","","","","","","","","","","","","","","","","",""
"","text-replacement","44","219424","0.0-25.0","42431256","wem/bandit_party_2","A3D38UO96N9SB0","either","8","5032","","","32","","","","","","","","","","","","","","","","","","","","","","","","","","","","","","","","","","","","",""
"","text-replacement","45","221667","0.0-26.0","42431256","wem/bandit_party_2","A3D38UO96N9SB0","either","8","2241","","","32","","","","","","","","","","","","","","","","","","","","","","","","","","","","","","","","","","","","",""
"","text-replacement","46","224895","0.0-27.0","42431256","wem/bandit_party_2","A3D38UO96N9SB0","either","8","3226","","","32","","","","","","","","","","","","","","","","","","","","","","","","","","","","","","","","","","","","",""
"","text-replacement","47","229634","0.0-28.0","42431256","wem/bandit_party_2","A3D38UO96N9SB0","either","8","4737","","","32","","","","","","","","","","","","","","","","","","","","","","","","","","","","","","","","","","","","",""
"","text-replacement","48","233702","0.0-29.0","42431256","wem/bandit_party_2","A3D38UO96N9SB0","either","8","4067","","","32","","","","","","","","","","","","","","","","","","","","","","","","","","","","","","","","","","","","",""
"","text-replacement","49","236749","0.0-30.0","42431256","wem/bandit_party_2","A3D38UO96N9SB0","either","8","3044","","","32","","","","","","","","","","","","","","","","","","","","","","","","","","","","","","","","","","","","",""
"","text-replacement","50","239155","0.0-31.0","42431256","wem/bandit_party_2","A3D38UO96N9SB0","either","8","2405","","","32","","","","","","","","","","","","","","","","","","","","","","","","","","","","","","","","","","","","",""
"","bandit","51","241143","0.0-32.0-0.0","42431256","wem/bandit_party_2","A3D38UO96N9SB0","either","8","481","","","","","","","0","1","0","","0.8","0.5","0.5","0.5","0.5","0.8","0.2","0.6","0.2","","","","","","","","","","","","","","72","H","0","img/none_selected.jpg","true","0","full_practice",""
"","bandit","52","243272","0.0-32.0-1.0","42431256","wem/bandit_party_2","A3D38UO96N9SB0","either","8","624","","","","","","","1","0","0","0.8","","0.5","0.5","0.5","0.5","","","","","0.8","0.2","0.6","0.2","","","","","","","","","","72","H","0","img/none_selected.jpg","true","0","full_practice",""
"","bandit","53","245126","0.0-32.0-2.0","42431256","wem/bandit_party_2","A3D38UO96N9SB0","either","8","349","","","","","","","1","0","0","0.8","","0.5","0.5","0.5","0.5","","","","","0.8","0.2","0.6","0.2","","","","","","","","","","72","H","0","img/none_selected.jpg","true","0","full_practice",""
"","bandit","54","246943","0.0-32.0-3.0","42431256","wem/bandit_party_2","A3D38UO96N9SB0","either","8","311","","","","","","","1","0","0","0.8","","0.5","0.5","0.5","0.5","","","","","0.8","0.2","0.6","0.2","","","","","","","","","","72","H","0","img/none_selected.jpg","true","0","full_practice",""
"","bandit","55","248767","0.0-32.0-4.0","42431256","wem/bandit_party_2","A3D38UO96N9SB0","either","8","319","","","","","","","0","1","0","","0.8","0.5","0.5","0.5","0.5","0.8","0.2","0.6","0.2","","","","","","","","","","","","","","72","H","0","img/none_selected.jpg","true","0","full_practice",""
"","bandit","56","250493","0.0-32.0-5.0","42431256","wem/bandit_party_2","A3D38UO96N9SB0","either","8","221","","","","","","","0","1","0","","0.6","0.5","0.5","0.5","0.5","0.8","0.2","0.6","0.2","","","","","","","","","","","","","","75","K","2","","true","0","full_practice",""
"","bandit","57","252273","0.0-32.0-6.0","42431256","wem/bandit_party_2","A3D38UO96N9SB0","either","8","274","","","","","","","0","1","0","","0.6","0.5","0.5","0.5","0.5","0.8","0.2","0.6","0.2","","","","","","","","","","","","","","75","K","2","","true","0","full_practice",""
"","bandit","58","254239","0.0-32.0-7.0","42431256","wem/bandit_party_2","A3D38UO96N9SB0","either","8","460","","","","","","","0","1","0","","0.2","0.5","0.5","0.5","0.5","0.8","0.2","0.6","0.2","","","","","","","","","","","","","","74","J","1","","true","0","full_practice",""
"","bandit","59","256065","0.0-32.0-8.0","42431256","wem/bandit_party_2","A3D38UO96N9SB0","either","8","322","","","","","","","0","0","1","0.6","","0.5","0.5","0.5","0.5","","","","","0.8","0.2","0.6","0.2","","","","","","","","","","75","K","2","","true","0","full_practice",""
"","bandit","60","257733","0.0-32.0-9.0","42431256","wem/bandit_party_2","A3D38UO96N9SB0","either","8","162","","","","","","","1","0","0","0.8","","0.5","0.5","0.5","0.5","","","","","0.8","0.2","0.6","0.2","","","","","","","","","","72","H","0","img/none_selected.jpg","true","0","full_practice",""
"","bandit","61","259515","0.0-32.0-10.0","42431256","wem/bandit_party_2","A3D38UO96N9SB0","either","8","276","","","","","","","0","1","0","","0.8","0.5","0.5","0.5","0.5","0.8","0.2","0.6","0.2","","","","","","","","","","","","","","72","H","0","img/none_selected.jpg","true","0","full_practice",""
"","bandit","62","261368","0.0-32.0-11.0","42431256","wem/bandit_party_2","A3D38UO96N9SB0","either","8","347","","","","","","","0","0","1","","0.2","0.5","0.5","0.5","0.5","0.8","0.2","0.6","0.2","","","","","","","","","","","","","","74","J","1","","true","0","full_practice",""
"","bandit","63","263275","0.0-32.0-12.0","42431256","wem/bandit_party_2","A3D38UO96N9SB0","either","8","402","","","","","","","0","0","1","0.2","","0.5","0.5","0.5","0.5","","","","","0.8","0.2","0.6","0.2","","","","","","","","","","76","L","3","","true","0","full_practice",""
"","bandit","64","264987","0.0-32.0-13.0","42431256","wem/bandit_party_2","A3D38UO96N9SB0","either","8","206","","","","","","","1","0","0","0.8","","0.5","0.5","0.5","0.5","","","","","0.8","0.2","0.6","0.2","","","","","","","","","","72","H","0","img/none_selected.jpg","true","0","full_practice",""
"","bandit","65","266991","0.0-32.0-14.0","42431256","wem/bandit_party_2","A3D38UO96N9SB0","either","8","499","","","","","","","1","0","0","0.8","","0.5","0.5","0.5","0.5","","","","","0.8","0.2","0.6","0.2","","","","","","","","","","72","H","0","img/none_selected.jpg","true","0","full_practice",""
"","bandit","66","268558","0.0-32.0-15.0","42431256","wem/bandit_party_2","A3D38UO96N9SB0","either","8","63","","","","","","","0","1","0","","0.8","0.5","0.5","0.5","0.5","0.8","0.2","0.6","0.2","","","","","","","","","","","","","","72","H","0","img/none_selected.jpg","true","0","full_practice",""
"","bandit","67","270195","0.0-32.0-16.0","42431256","wem/bandit_party_2","A3D38UO96N9SB0","either","8","132","","","","","","","0","1","0","","0.8","0.5","0.5","0.5","0.5","0.8","0.2","0.6","0.2","","","","","","","","","","","","","","72","H","0","img/none_selected.jpg","true","0","full_practice",""
"","bandit","68","271969","0.0-32.0-17.0","42431256","wem/bandit_party_2","A3D38UO96N9SB0","either","8","268","","","","","","","0","0","1","0.6","","0.5","0.5","0.5","0.5","","","","","0.8","0.2","0.6","0.2","","","","","","","","","","75","K","2","","true","0","full_practice",""
"","bandit","69","273615","0.0-32.0-18.0","42431256","wem/bandit_party_2","A3D38UO96N9SB0","either","8","139","","","","","","","0","0","1","0.2","","0.5","0.5","0.5","0.5","","","","","0.8","0.2","0.6","0.2","","","","","","","","","","74","J","1","","true","0","full_practice",""
"","bandit","70","275194","0.0-32.0-19.0","42431256","wem/bandit_party_2","A3D38UO96N9SB0","either","8","73","","","","","","","0","1","0","","0.8","0.5","0.5","0.5","0.5","0.8","0.2","0.6","0.2","","","","","","","","","","","","","","72","H","0","img/none_selected.jpg","true","0","full_practice",""
"","text","71","277470","0.0-33.0","42431256","wem/bandit_party_2","A3D38UO96N9SB0","either","8","2271","","","32","","","","","","","","","","","","","","","","","","","","","","","","","","","","","","","","","","","","",""
"","text-replacement","72","285769","0.0-34.0","42431256","wem/bandit_party_2","A3D38UO96N9SB0","either","8","7296","","","32","","","","","","","","","","","","","","","","","","","","","","","","","","","","","","","","","","","","",""
"","text-replacement","73","293000","0.0-35.0","42431256","wem/bandit_party_2","A3D38UO96N9SB0","either","8","7229","","","32","","","","","","","","","","","","","","","","","","","","","","","","","","","","","","","","","","","","",""
"","text-replacement","74","297487","0.0-36.0","42431256","wem/bandit_party_2","A3D38UO96N9SB0","either","8","4485","","","32","","","","","","","","","","","","","","","","","","","","","","","","","","","","","","","","","","","","",""
"","text-replacement","75","299898","0.0-37.0","42431256","wem/bandit_party_2","A3D38UO96N9SB0","either","8","2409","","","32","","","","","","","","","","","","","","","","","","","","","","","","","","","","","","","","","","","","",""
"","text-replacement","76","302408","0.0-38.0","42431256","wem/bandit_party_2","A3D38UO96N9SB0","either","8","2508","","","32","","","","","","","","","","","","","","","","","","","","","","","","","","","","","","","","","","","","",""
"","survey-multi-choice-replacement","77","308442","0.0-39.0-0.0","42431256","wem/bandit_party_2","A3D38UO96N9SB0","either","8","6026","","","","","","","","","","","","","","","","","","","","","","","","Money will be added to the pool for <span style='color:blue;'>DEMOCRATS</span>","","","","","","","attn_check","","","","","","","","","0"
"","survey-multi-choice-replacement","78","312098","0.0-40.0-0.0","42431256","wem/bandit_party_2","A3D38UO96N9SB0","either","8","2650","","","","","","","","","","","","","","","","","","","","","","","","Equal amounts of money will be added to the pool for <span style='color:blue;'>DEMOCRATS</span> and subtracted from the pool for <span style='color:red;'>REPUBLICANS</span>","","","","","","","attn_check","","","","","","","","","2"
"","survey-multi-choice-replacement","79","316719","0.0-41.0-0.0","42431256","wem/bandit_party_2","A3D38UO96N9SB0","either","8","3614","","","","","","","","","","","","","","","","","","","","","","","","No money will be added to either pool","","","","","","","attn_check","","","","","","","","","3"
"","bandit","80","321616","0.0-42.0-0.0","42431256","wem/bandit_party_2","A3D38UO96N9SB0","either","8","2391","","","","","","","1","0","0","0.3040937467","","0.8","0.6","0.4","0.2","","","","","0.3040937467","0.2428949588","0.4468950172","0.6337563202","","","","","","","","","","72","H","0","img/none_selected.jpg","","1","main_expt",""
"","bandit","81","323393","0.0-43.0-0.0","42431256","wem/bandit_party_2","A3D38UO96N9SB0","either","8","271","","","","","","","1","0","0","0.2687625136","","0.8","0.6","0.4","0.2","","","","","0.2687625136","0.248961424","0.3846124694","0.7380673114","","","","","","","","","","72","H","0","img/none_selected.jpg","","2","main_expt",""
"","bandit","82","325116","0.0-44.0-0.0","42431256","wem/bandit_party_2","A3D38UO96N9SB0","either","8","216","","","","","","","0","0","1","0.3017919557","","0.8","0.6","0.4","0.2","","","","","0.3017919557","0.1878604038","0.3885967974","0.7715549737","","","","","","","","","","72","H","0","img/none_selected.jpg","","3","main_expt",""
"","bandit","83","327406","0.0-45.0-0.0","42431256","wem/bandit_party_2","A3D38UO96N9SB0","either","8","786","","","","","","","0","0","1","0.1194049449","","0.8","0.6","0.4","0.2","","","","","0.3388517529","0.1194049449","0.2891644394","0.8257013646","","","","","","","","","","74","J","1","","","4","main_expt",""
"","bandit","84","329517","0.0-46.0-0.0","42431256","wem/bandit_party_2","A3D38UO96N9SB0","either","8","604","","","","","","","0","1","0","","0.389096829","0.8","0.6","0.4","0.2","0.389096829","0.197046458","0.2654579937","0.8617886559","","","","","","","","","","","","","","72","H","0","img/none_selected.jpg","","5","main_expt",""
"","bandit","85","331247","0.0-47.0-0.0","42431256","wem/bandit_party_2","A3D38UO96N9SB0","either","8","221","","","","","","","1","0","0","0.4799636182","","0.8","0.6","0.4","0.2","","","","","0.4799636182","0.2312720201","0.355160999","0.8452125903","","","","","","","","","","72","H","0","img/none_selected.jpg","","6","main_expt",""
"","bandit","86","333096","0.0-48.0-0.0","42431256","wem/bandit_party_2","A3D38UO96N9SB0","either","8","344","","","","","","","1","0","0","0.5316557606","","0.8","0.6","0.4","0.2","","","","","0.5316557606","0.3255591742","0.4733904832","0.8765288384","","","","","","","","","","72","H","0","img/none_selected.jpg","","7","main_expt",""
"","bandit","87","334805","0.0-49.0-0.0","42431256","wem/bandit_party_2","A3D38UO96N9SB0","either","8","203","","","","","","","1","0","0","0.4935712437","","0.8","0.6","0.4","0.2","","","","","0.4935712437","0.163151729","0.4900136729","0.8625068071","","","","","","","","","","72","H","0","img/none_selected.jpg","","8","main_expt",""
"","bandit","88","336522","0.0-50.0-0.0","42431256","wem/bandit_party_2","A3D38UO96N9SB0","either","8","212","","","","","","","0","0","1","0.5400450001","","0.8","0.6","0.4","0.2","","","","","0.5400450001","0.1671639775","0.4543552171","0.8385781597","","","","","","","","","","72","H","0","img/none_selected.jpg","","9","main_expt",""
"","bandit","89","338333","0.0-51.0-0.0","42431256","wem/bandit_party_2","A3D38UO96N9SB0","either","8","306","","","","","","","0","1","0","","0.4523920981","0.8","0.6","0.4","0.2","0.6510952772","0.1315225434","0.4523920981","0.833356221","","","","","","","","","","","","","","75","K","2","","","10","main_expt",""
"","bandit","90","340044","0.0-52.0-0.0","42431256","wem/bandit_party_2","A3D38UO96N9SB0","either","8","204","","","","","","","1","0","0","0.4053083118","","0.8","0.6","0.4","0.2","","","","","0.6117649901","0.1287002637","0.4053083118","0.9030756702","","","","","","","","","","75","K","2","","","11","main_expt",""
"","bandit","91","341960","0.0-53.0-0.0","42431256","wem/bandit_party_2","A3D38UO96N9SB0","either","8","412","","","","","","","0","0","1","","0.4059907931","0.8","0.6","0.4","0.2","0.6360746298","0.1026596936","0.4059907931","0.9129290363","","","","","","","","","","","","","","75","K","2","","","12","main_expt",""
"","bandit","92","343783","0.0-54.0-0.0","42431256","wem/bandit_party_2","A3D38UO96N9SB0","either","8","318","","","","","","","0","1","0","","0.8638417716","0.8","0.6","0.4","0.2","0.5673960652","0.1287514256","0.2934167972","0.8638417716","","","","","","","","","","","","","","76","L","3","","","13","main_expt",""
"","bandit","93","345589","0.0-55.0-0.0","42431256","wem/bandit_party_2","A3D38UO96N9SB0","either","8","299","","","","","","","0","1","0","","0.787806988","0.8","0.6","0.4","0.2","0.6747725803","0.1786171179","0.3260927596","0.787806988","","","","","","","","","","","","","","76","L","3","","","14","main_expt",""
"","bandit","94","347442","0.0-56.0-0.0","42431256","wem/bandit_party_2","A3D38UO96N9SB0","either","8","348","","","","","","","0","1","0","","0.7254212376","0.8","0.6","0.4","0.2","0.6277188345","0.1459410532","0.3355382734","0.7254212376","","","","","","","","","","","","","","76","L","3","","","15","main_expt",""
"","bandit","95","349291","0.0-57.0-0.0","42431256","wem/bandit_party_2","A3D38UO96N9SB0","either","8","341","","","","","","","0","1","0","","0.7238415528","0.8","0.6","0.4","0.2","0.5435568235","0.2255600906","0.3040928121","0.7238415528","","","","","","","","","","","","","","76","L","3","","","16","main_expt",""
"","bandit","96","351170","0.0-58.0-0.0","42431256","wem/bandit_party_2","A3D38UO96N9SB0","either","8","375","","","","","","","0","0","1","","0.7796243455","0.8","0.6","0.4","0.2","0.4180161478","0.2052013943","0.2730366263","0.7796243455","","","","","","","","","","","","","","76","L","3","","","17","main_expt",""
"","bandit","97","353840","0.0-59.0-0.0","42431256","wem/bandit_party_2","A3D38UO96N9SB0","either","8","1164","","","","","","","0","0","1","0.1780354615","","0.8","0.6","0.4","0.2","","","","","0.4961111773","0.1780354615","0.4105298721","0.6928902724","","","","","","","","","","74","J","1","","","18","main_expt",""
"","bandit","98","355591","0.0-60.0-0.0","42431256","wem/bandit_party_2","A3D38UO96N9SB0","either","8","246","","","","","","","0","0","1","0.3586923344","","0.8","0.6","0.4","0.2","","","","","0.445530788","0.1576496117","0.3586923344","0.7658630901","","","","","","","","","","75","K","2","","","19","main_expt",""
"","bandit","99","357447","0.0-61.0-0.0","42431256","wem/bandit_party_2","A3D38UO96N9SB0","either","8","351","","","","","","","0","1","0","","0.7584200513","0.8","0.6","0.4","0.2","0.3443163705","0.1618752313","0.3220075653","0.7584200513","","","","","","","","","","","","","","76","L","3","","","20","main_expt",""
"","bandit","100","359176","0.0-62.0-0.0","42431256","wem/bandit_party_2","A3D38UO96N9SB0","either","8","225","","","","","","","0","0","1","","0.7727038765","0.8","0.6","0.4","0.2","0.3012808647","0.2152187387","0.2729660799","0.7727038765","","","","","","","","","","","","","","76","L","3","","","21","main_expt",""
"","bandit","101","360785","0.0-63.0-0.0","42431256","wem/bandit_party_2","A3D38UO96N9SB0","either","8","102","","","","","","","0","0","1","0.2882062485","","0.8","0.6","0.4","0.2","","","","","0.2882062485","0.3547982299","0.2712352107","0.8152565923","","","","","","","","","","72","H","0","img/none_selected.jpg","","22","main_expt",""
"","bandit","102","362901","0.0-64.0-0.0","42431256","wem/bandit_party_2","A3D38UO96N9SB0","either","8","611","","","","","","","0","0","1","0.323805638","","0.8","0.6","0.4","0.2","","","","","0.2113421372","0.323805638","0.3390855774","0.7537075358","","","","","","","","","","74","J","1","","","23","main_expt",""
"","bandit","103","365114","0.0-65.0-0.0","42431256","wem/bandit_party_2","A3D38UO96N9SB0","either","8","707","","","","","","","0","1","0","","0.7108822858","0.8","0.6","0.4","0.2","0.2201805416","0.3588909826","0.3483259141","0.7108822858","","","","","","","","","","","","","","76","L","3","","","24","main_expt",""
"","bandit","104","366815","0.0-66.0-0.0","42431256","wem/bandit_party_2","A3D38UO96N9SB0","either","8","196","","","","","","","0","1","0","","0.6930515954","0.8","0.6","0.4","0.2","0.2580956466","0.3885553436","0.3416976173","0.6930515954","","","","","","","","","","","","","","76","L","3","","","25","main_expt",""
"","bandit","105","368834","0.0-67.0-0.0","42431256","wem/bandit_party_2","A3D38UO96N9SB0","either","8","512","","","","","","","0","1","0","","0.6905393417","0.8","0.6","0.4","0.2","0.2153432854","0.4871556374","0.4243476322","0.6905393417","","","","","","","","","","","","","","76","L","3","","","26","main_expt",""
"","bandit","106","370628","0.0-68.0-0.0","42431256","wem/bandit_party_2","A3D38UO96N9SB0","either","8","288","","","","","","","0","1","0","","0.7531652131","0.8","0.6","0.4","0.2","0.1727955236","0.4934119911","0.5257754898","0.7531652131","","","","","","","","","","","","","","76","L","3","","","27","main_expt",""
"","bandit","107","372553","0.0-69.0-0.0","42431256","wem/bandit_party_2","A3D38UO96N9SB0","either","8","420","","","","","","","0","1","0","","0.8001777041","0.8","0.6","0.4","0.2","0.1894296703","0.4322092846","0.5246232361","0.8001777041","","","","","","","","","","","","","","76","L","3","","","28","main_expt",""
"","bandit","108","374260","0.0-70.0-0.0","42431256","wem/bandit_party_2","A3D38UO96N9SB0","either","8","201","","","","","","","0","1","0","","0.8118404327","0.8","0.6","0.4","0.2","0.2128919211","0.3459113699","0.375994784","0.8118404327","","","","","","","","","","","","","","76","L","3","","","29","main_expt",""
"","bandit","109","376067","0.0-71.0-0.0","42431256","wem/bandit_party_2","A3D38UO96N9SB0","either","8","302","","","","","","","0","1","0","","0.7839534503","0.8","0.6","0.4","0.2","0.206056468","0.280789843","0.2936890161","0.7839534503","","","","","","","","","","","","","","76","L","3","","","30","main_expt",""
"","bandit","110","377919","0.0-72.0-0.0","42431256","wem/bandit_party_2","A3D38UO96N9SB0","either","8","345","","","","","","","0","1","0","","0.8066372971","0.8","0.6","0.4","0.2","0.1725623241","0.2613810438","0.2878812258","0.8066372971","","","","","","","","","","","","","","76","L","3","","","31","main_expt",""
"","bandit","111","379948","0.0-73.0-0.0","42431256","wem/bandit_party_2","A3D38UO96N9SB0","either","8","523","","","","","","","0","1","0","","0.8049259064","0.8","0.6","0.4","0.2","0.1629883914","0.3821585683","0.2451492808","0.8049259064","","","","","","","","","","","","","","76","L","3","","","32","main_expt",""
"","bandit","112","381604","0.0-74.0-0.0","42431256","wem/bandit_party_2","A3D38UO96N9SB0","either","8","151","","","","","","","0","0","1","","0.7891664673","0.8","0.6","0.4","0.2","0.2107911223","0.2714925976","0.2802113289","0.7891664673","","","","","","","","","","","","","","76","L","3","","","33","main_expt",""
"","bandit","113","383332","0.0-75.0-0.0","42431256","wem/bandit_party_2","A3D38UO96N9SB0","either","8","222","","","","","","","0","0","1","","0.2892342718","0.8","0.6","0.4","0.2","0.1025901997","0.2755575364","0.2892342718","0.7854278051","","","","","","","","","","","","","","75","K","2","","","34","main_expt",""
"","bandit","114","384999","0.0-76.0-0.0","42431256","wem/bandit_party_2","A3D38UO96N9SB0","either","8","158","","","","","","","0","1","0","","0.2486893666","0.8","0.6","0.4","0.2","0.1289879153","0.2697856654","0.2486893666","0.7260182018","","","","","","","","","","","","","","75","K","2","","","35","main_expt",""
"","bandit","115","386666","0.0-77.0-0.0","42431256","wem/bandit_party_2","A3D38UO96N9SB0","either","8","161","","","","","","","0","1","0","","0.3536408983","0.8","0.6","0.4","0.2","0.1645491317","0.2483646443","0.3536408983","0.7910957192","","","","","","","","","","","","","","75","K","2","","","36","main_expt",""
"","bandit","116","388345","0.0-78.0-0.0","42431256","wem/bandit_party_2","A3D38UO96N9SB0","either","8","171","","","","","","","0","0","1","0.2493566902","","0.8","0.6","0.4","0.2","","","","","0.1698046746","0.2103950957","0.2493566902","0.7996551039","","","","","","","","","","75","K","2","","","37","main_expt",""
"","bandit","117","389934","0.0-79.0-0.0","42431256","wem/bandit_party_2","A3D38UO96N9SB0","either","8","84","","","","","","","0","0","1","","0.2128944509","0.8","0.6","0.4","0.2","0.2281502886","0.2128944509","0.2948354516","0.6717479894","","","","","","","","","","","","","","74","J","1","","","38","main_expt",""
"","bandit","118","391678","0.0-80.0-0.0","42431256","wem/bandit_party_2","A3D38UO96N9SB0","either","8","238","","","","","","","0","0","1","0.1561271762","","0.8","0.6","0.4","0.2","","","","","0.1561271762","0.2965153327","0.3373274679","0.7121128808","","","","","","","","","","72","H","0","img/none_selected.jpg","","39","main_expt",""
"","bandit","119","393269","0.0-81.0-0.0","42431256","wem/bandit_party_2","A3D38UO96N9SB0","either","8","84","","","","","","","0","0","1","0.1543620621","","0.8","0.6","0.4","0.2","","","","","0.1543620621","0.4447532253","0.4138768052","0.7157410044","","","","","","","","","","72","H","0","img/none_selected.jpg","","40","main_expt",""
"","bandit","120","394774","0.0-82.0-0.0","42431256","wem/bandit_party_2","A3D38UO96N9SB0","either","8","0","","","","","","","0","1","0","","0.681196038","0.8","0.6","0.4","0.2","0.2271499981","0.5330008696","0.438096834","0.681196038","","","","","","","","","","","","","","76","L","3","","","41","main_expt",""
"","bandit","121","396361","0.0-83.0-0.0","42431256","wem/bandit_party_2","A3D38UO96N9SB0","either","8","78","","","","","","","1","0","0","0.6504320647","","0.8","0.6","0.4","0.2","","","","","0.2882452936","0.573861049","0.4185173612","0.6504320647","","","","","","","","","","76","L","3","","","42","main_expt",""
"","bandit","122","398074","0.0-84.0-0.0","42431256","wem/bandit_party_2","A3D38UO96N9SB0","either","8","207","","","","","","","0","0","1","","0.7369830744","0.8","0.6","0.4","0.2","0.298522686","0.6654349765","0.3796335567","0.7369830744","","","","","","","","","","","","","","76","L","3","","","43","main_expt",""
"","bandit","123","399729","0.0-85.0-0.0","42431256","wem/bandit_party_2","A3D38UO96N9SB0","either","8","148","","","","","","","0","0","1","","0.31766129","0.8","0.6","0.4","0.2","0.3188886026","0.691198465","0.31766129","0.6797935378","","","","","","","","","","","","","","75","K","2","","","44","main_expt",""
"","bandit","124","402144","0.0-86.0-0.0","42431256","wem/bandit_party_2","A3D38UO96N9SB0","either","8","910","","","","","","","0","1","0","","0.7652674903","0.8","0.6","0.4","0.2","0.2705760174","0.7652674903","0.4047397141","0.6507473666","","","","","","","","","","","","","","74","J","1","","","45","main_expt",""
"","bandit","125","403897","0.0-87.0-0.0","42431256","wem/bandit_party_2","A3D38UO96N9SB0","either","8","248","","","","","","","0","1","0","","0.8065230058","0.8","0.6","0.4","0.2","0.2506880939","0.8065230058","0.4961613307","0.6334510787","","","","","","","","","","","","","","74","J","1","","","46","main_expt",""
"","bandit","126","405632","0.0-88.0-0.0","42431256","wem/bandit_party_2","A3D38UO96N9SB0","either","8","230","","","","","","","0","0","1","0.7774474893","","0.8","0.6","0.4","0.2","","","","","0.2491585872","0.7774474893","0.4624468315","0.6143175143","","","","","","","","","","74","J","1","","","47","main_expt",""
"","bandit","127","407366","0.0-89.0-0.0","42431256","wem/bandit_party_2","A3D38UO96N9SB0","either","8","229","","","","","","","1","0","0","0.7693176975","","0.8","0.6","0.4","0.2","","","","","0.1997021219","0.7693176975","0.4886537242","0.6404512611","","","","","","","","","","74","J","1","","","48","main_expt",""
"","bandit","128","409063","0.0-90.0-0.0","42431256","wem/bandit_party_2","A3D38UO96N9SB0","either","8","190","","","","","","","1","0","0","0.807419373","","0.8","0.6","0.4","0.2","","","","","0.2119577724","0.807419373","0.4270302022","0.6758621215","","","","","","","","","","74","J","1","","","49","main_expt",""
"","bandit","129","410755","0.0-91.0-0.0","42431256","wem/bandit_party_2","A3D38UO96N9SB0","either","8","186","","","","","","","0","0","1","0.8562769227","","0.8","0.6","0.4","0.2","","","","","0.2615271711","0.8562769227","0.5151345658","0.6873234502","","","","","","","","","","74","J","1","","","50","main_expt",""
"","bandit","130","412730","0.0-92.0-0.0","42431256","wem/bandit_party_2","A3D38UO96N9SB0","either","8","468","","","","","","","1","0","0","0.5134524181","","0.8","0.6","0.4","0.2","","","","","0.2764427577","0.8705114925","0.5134524181","0.7776044395","","","","","","","","","","75","K","2","","","51","main_expt",""
"","bandit","131","414493","0.0-93.0-0.0","42431256","wem/bandit_party_2","A3D38UO96N9SB0","either","8","257","","","","","","","1","0","0","0.4842684999","","0.8","0.6","0.4","0.2","","","","","0.3833776697","0.9310361031","0.4842684999","0.8403410939","","","","","","","","","","75","K","2","","","52","main_expt",""
"","bandit","132","416204","0.0-94.0-0.0","42431256","wem/bandit_party_2","A3D38UO96N9SB0","either","8","204","","","","","","","0","0","1","","0.4412850773","0.8","0.6","0.4","0.2","0.4356502318","0.905794742","0.4412850773","0.8151983534","","","","","","","","","","","","","","75","K","2","","","53","main_expt",""
"","bandit","133","417867","0.0-95.0-0.0","42431256","wem/bandit_party_2","A3D38UO96N9SB0","either","8","157","","","","","","","0","0","1","","0.4397693946","0.8","0.6","0.4","0.2","0.4120588364","0.9391541593","0.4397693946","0.8081222638","","","","","","","","","","","","","","75","K","2","","","54","main_expt",""
"","bandit","134","419525","0.0-96.0-0.0","42431256","wem/bandit_party_2","A3D38UO96N9SB0","either","8","152","","","","","","","0","0","1","","0.742009976","0.8","0.6","0.4","0.2","0.2714296105","0.9596285882","0.3928202278","0.742009976","","","","","","","","","","","","","","76","L","3","","","55","main_expt",""
"","bandit","135","421062","0.0-97.0-0.0","42431256","wem/bandit_party_2","A3D38UO96N9SB0","either","8","32","","","","","","","0","0","1","0.2122311877","","0.8","0.6","0.4","0.2","","","","","0.2122311877","0.9565658233","0.4593665993","0.7065076074","","","","","","","","","","72","H","0","img/none_selected.jpg","","56","main_expt",""
"","bandit","136","422749","0.0-98.0-0.0","42431256","wem/bandit_party_2","A3D38UO96N9SB0","either","8","183","","","","","","","0","1","0","","0.9681540372","0.8","0.6","0.4","0.2","0.2282278588","0.9681540372","0.4006145211","0.6860695476","","","","","","","","","","","","","","74","J","1","","","57","main_expt",""
"","bandit","137","424472","0.0-99.0-0.0","42431256","wem/bandit_party_2","A3D38UO96N9SB0","either","8","217","","","","","","","0","0","1","0.9207083952","","0.8","0.6","0.4","0.2","","","","","0.1392076118","0.9207083952","0.4597890412","0.742301155","","","","","","","","","","74","J","1","","","58","main_expt",""
"","bandit","138","426091","0.0-100.0-0.0","42431256","wem/bandit_party_2","A3D38UO96N9SB0","either","8","113","","","","","","","0","0","1","0.4232266093","","0.8","0.6","0.4","0.2","","","","","0.1706239206","0.9178227258","0.4232266093","0.5291004622","","","","","","","","","","75","K","2","","","59","main_expt",""
"","bandit","139","427673","0.0-101.0-0.0","42431256","wem/bandit_party_2","A3D38UO96N9SB0","either","8","76","","","","","","","1","0","0","0.1674269281","","0.8","0.6","0.4","0.2","","","","","0.1674269281","0.8951285427","0.3565880291","0.6348838793","","","","","","","","","","72","H","0","img/none_selected.jpg","","60","main_expt",""
"","bandit","140","429364","0.0-102.0-0.0","42431256","wem/bandit_party_2","A3D38UO96N9SB0","either","8","186","","","","","","","0","0","1","","0.2182313474","0.8","0.6","0.4","0.2","0.2182313474","0.8506814954","0.3663276413","0.6796423313","","","","","","","","","","","","","","72","H","0","img/none_selected.jpg","","61","main_expt",""
"","bandit","141","431114","0.0-103.0-0.0","42431256","wem/bandit_party_2","A3D38UO96N9SB0","either","8","242","","","","","","","0","0","1","","0.2949218256","0.8","0.6","0.4","0.2","0.2949218256","0.8513854559","0.3193005293","0.6928172916","","","","","","","","","","","","","","72","H","0","img/none_selected.jpg","","62","main_expt",""
"","bandit","142","432706","0.0-104.0-0.0","42431256","wem/bandit_party_2","A3D38UO96N9SB0","either","8","86","","","","","","","0","1","0","","0.6996506825","0.8","0.6","0.4","0.2","0.3170222383","0.8927579502","0.1562068481","0.6996506825","","","","","","","","","","","","","","76","L","3","","","63","main_expt",""
"","bandit","143","434427","0.0-105.0-0.0","42431256","wem/bandit_party_2","A3D38UO96N9SB0","either","8","213","","","","","","","0","0","1","","0.7294442249","0.8","0.6","0.4","0.2","0.3033511374","0.9217936765","0.2300477965","0.7294442249","","","","","","","","","","","","","","76","L","3","","","64","main_expt",""
"","bandit","144","436263","0.0-106.0-0.0","42431256","wem/bandit_party_2","A3D38UO96N9SB0","either","8","331","","","","","","","0","1","0","","0.9357047413","0.8","0.6","0.4","0.2","0.3973690147","0.9357047413","0.2869838185","0.6605354899","","","","","","","","","","","","","","74","J","1","","","65","main_expt",""
"","bandit","145","437840","0.0-107.0-0.0","42431256","wem/bandit_party_2","A3D38UO96N9SB0","either","8","71","","","","","","","0","1","0","","0.910343843","0.8","0.6","0.4","0.2","0.4320294497","0.910343843","0.3287476356","0.6959621059","","","","","","","","","","","","","","74","J","1","","","66","main_expt",""
"","bandit","146","439551","0.0-108.0-0.0","42431256","wem/bandit_party_2","A3D38UO96N9SB0","either","8","206","","","","","","","1","0","0","0.3018365728","","0.8","0.6","0.4","0.2","","","","","0.3208465419","0.9022080512","0.3018365728","0.653899752","","","","","","","","","","75","K","2","","","67","main_expt",""
"","bandit","147","441237","0.0-109.0-0.0","42431256","wem/bandit_party_2","A3D38UO96N9SB0","either","8","180","","","","","","","0","0","1","","0.3208616414","0.8","0.6","0.4","0.2","0.3570730799","0.8492414063","0.3208616414","0.6517851336","","","","","","","","","","","","","","75","K","2","","","68","main_expt",""
"","bandit","148","442942","0.0-110.0-0.0","42431256","wem/bandit_party_2","A3D38UO96N9SB0","either","8","198","","","","","","","1","0","0","0.7011615004","","0.8","0.6","0.4","0.2","","","","","0.3451514791","0.768219052","0.386863802","0.7011615004","","","","","","","","","","76","L","3","","","69","main_expt",""
"","bandit","149","444778","0.0-111.0-0.0","42431256","wem/bandit_party_2","A3D38UO96N9SB0","either","8","330","","","","","","","0","1","0","","0.6278947594","0.8","0.6","0.4","0.2","0.3127714871","0.7996218848","0.3628244161","0.6278947594","","","","","","","","","","","","","","76","L","3","","","70","main_expt",""
"","bandit","150","446441","0.0-112.0-0.0","42431256","wem/bandit_party_2","A3D38UO96N9SB0","either","8","156","","","","","","","0","1","0","","0.688517509","0.8","0.6","0.4","0.2","0.3855297895","0.9130189757","0.2969295023","0.688517509","","","","","","","","","","","","","","76","L","3","","","71","main_expt",""
"","bandit","151","448018","0.0-113.0-0.0","42431256","wem/bandit_party_2","A3D38UO96N9SB0","either","8","72","","","","","","","0","1","0","","0.6125440106","0.8","0.6","0.4","0.2","0.3555010044","0.9016843832","0.3512325323","0.6125440106","","","","","","","","","","","","","","76","L","3","","","72","main_expt",""
"","bandit","152","449658","0.0-114.0-0.0","42431256","wem/bandit_party_2","A3D38UO96N9SB0","either","8","134","","","","","","","0","0","1","","0.4884410468","0.8","0.6","0.4","0.2","0.3278360739","0.9166584401","0.3845321254","0.4884410468","","","","","","","","","","","","","","76","L","3","","","73","main_expt",""
"","bandit","153","451286","0.0-115.0-0.0","42431256","wem/bandit_party_2","A3D38UO96N9SB0","either","8","122","","","","","","","0","1","0","","0.5800760741","0.8","0.6","0.4","0.2","0.3275161349","0.8699410266","0.3760614253","0.5800760741","","","","","","","","","","","","","","76","L","3","","","74","main_expt",""
"","bandit","154","452792","0.0-116.0-0.0","42431256","wem/bandit_party_2","A3D38UO96N9SB0","either","8","0","","","","","","","1","0","0","0.6614390465","","0.8","0.6","0.4","0.2","","","","","0.3454333807","0.8192171788","0.370831352","0.6614390465","","","","","","","","","","76","L","3","","","75","main_expt",""
"","bandit","155","454507","0.0-117.0-0.0","42431256","wem/bandit_party_2","A3D38UO96N9SB0","either","8","208","","","","","","","0","0","1","","0.6861570843","0.8","0.6","0.4","0.2","0.4213924804","0.8990587115","0.4008199491","0.6861570843","","","","","","","","","","","","","","76","L","3","","","76","main_expt",""
"","bandit","156","456088","0.0-118.0-0.0","42431256","wem/bandit_party_2","A3D38UO96N9SB0","either","8","74","","","","","","","0","0","1","","0.5980737028","0.8","0.6","0.4","0.2","0.439510692","0.9062137116","0.3928984844","0.5980737028","","","","","","","","","","","","","","76","L","3","","","77","main_expt",""
"","bandit","157","457988","0.0-119.0-0.0","42431256","wem/bandit_party_2","A3D38UO96N9SB0","either","8","394","","","","","","","0","1","0","","0.4709058574","0.8","0.6","0.4","0.2","0.4419424199","0.9215914722","0.4709058574","0.6754083514","","","","","","","","","","","","","","75","K","2","","","78","main_expt",""
"","bandit","158","459597","0.0-120.0-0.0","42431256","wem/bandit_party_2","A3D38UO96N9SB0","either","8","103","","","","","","","0","0","1","0.4971614577","","0.8","0.6","0.4","0.2","","","","","0.5056762283","0.895443078","0.4971614577","0.7012934339","","","","","","","","","","75","K","2","","","79","main_expt",""
"","bandit","159","461219","0.0-121.0-0.0","42431256","wem/bandit_party_2","A3D38UO96N9SB0","either","8","116","","","","","","","0","0","1","","0.4828267768","0.8","0.6","0.4","0.2","0.4558190996","0.7789772955","0.4828267768","0.7067798052","","","","","","","","","","","","","","75","K","2","","","80","main_expt",""
"","bandit","160","462859","0.0-122.0-0.0","42431256","wem/bandit_party_2","A3D38UO96N9SB0","either","8","134","","","","","","","0","0","1","0.4774921548","","0.8","0.6","0.4","0.2","","","","","0.4774921548","0.755426824","0.4280570329","0.7259433061","","","","","","","","","","72","H","0","img/none_selected.jpg","","81","main_expt",""
"","bandit","161","464588","0.0-123.0-0.0","42431256","wem/bandit_party_2","A3D38UO96N9SB0","either","8","223","","","","","","","1","0","0","0.3611036613","","0.8","0.6","0.4","0.2","","","","","0.3611036613","0.8356426425","0.486136241","0.7022130872","","","","","","","","","","72","H","0","img/none_selected.jpg","","82","main_expt",""
"","bandit","162","466107","0.0-124.0-0.0","42431256","wem/bandit_party_2","A3D38UO96N9SB0","either","8","12","","","","","","","0","0","1","","0.3341354767","0.8","0.6","0.4","0.2","0.3341354767","0.8783145762","0.3539143083","0.75927227","","","","","","","","","","","","","","72","H","0","img/none_selected.jpg","","83","main_expt",""
"","bandit","163","467804","0.0-125.0-0.0","42431256","wem/bandit_party_2","A3D38UO96N9SB0","either","8","190","","","","","","","0","1","0","","0.9087743635","0.8","0.6","0.4","0.2","0.288479151","0.9087743635","0.374811954","0.8556046088","","","","","","","","","","","","","","74","J","1","","","84","main_expt",""
"","bandit","164","469355","0.0-126.0-0.0","42431256","wem/bandit_party_2","A3D38UO96N9SB0","either","8","45","","","","","","","0","1","0","","0.8632011641","0.8","0.6","0.4","0.2","0.3061923995","0.8632011641","0.4518264681","0.7835234447","","","","","","","","","","","","","","74","J","1","","","85","main_expt",""
"","bandit","165","471112","0.0-127.0-0.0","42431256","wem/bandit_party_2","A3D38UO96N9SB0","either","8","251","","","","","","","1","0","0","0.8341253046","","0.8","0.6","0.4","0.2","","","","","0.3370204437","0.8341253046","0.461936863","0.7037548709","","","","","","","","","","74","J","1","","","86","main_expt",""
"","bandit","166","472752","0.0-128.0-0.0","42431256","wem/bandit_party_2","A3D38UO96N9SB0","either","8","132","","","","","","","0","1","0","","0.8728746981","0.8","0.6","0.4","0.2","0.3900809043","0.8728746981","0.3681660755","0.6903674631","","","","","","","","","","","","","","74","J","1","","","87","main_expt",""
"","bandit","167","474330","0.0-129.0-0.0","42431256","wem/bandit_party_2","A3D38UO96N9SB0","either","8","70","","","","","","","0","0","1","0.8408980459","","0.8","0.6","0.4","0.2","","","","","0.4296615172","0.8408980459","0.3788462328","0.5883284312","","","","","","","","","","74","J","1","","","88","main_expt",""
"","bandit","168","476661","0.0-130.0-0.0","42431256","wem/bandit_party_2","A3D38UO96N9SB0","either","8","825","","","","","","","0","0","1","0.8585781628","","0.8","0.6","0.4","0.2","","","","","0.4636560077","0.8585781628","0.3316952272","0.5258490985","","","","","","","","","","74","J","1","","","89","main_expt",""
"","bandit","169","478359","0.0-131.0-0.0","42431256","wem/bandit_party_2","A3D38UO96N9SB0","either","8","192","","","","","","","0","1","0","","0.6395041767","0.8","0.6","0.4","0.2","0.4463585346","0.925840658","0.438068917","0.6395041767","","","","","","","","","","","","","","76","L","3","","","90","main_expt",""
"","bandit","170","480243","0.0-132.0-0.0","42431256","wem/bandit_party_2","A3D38UO96N9SB0","either","8","376","","","","","","","0","1","0","","0.6931091445","0.8","0.6","0.4","0.2","0.4734463503","0.9201841885","0.5158843935","0.6931091445","","","","","","","","","","","","","","76","L","3","","","91","main_expt",""
"","bandit","171","482494","0.0-133.0-0.0","42431256","wem/bandit_party_2","A3D38UO96N9SB0","either","8","743","","","","","","","1","0","0","0.5248255385","","0.8","0.6","0.4","0.2","","","","","0.5248255385","0.8508076908","0.5182757575","0.6725373887","","","","","","","","","","72","H","0","img/none_selected.jpg","","92","main_expt",""
"","bandit","172","484264","0.0-134.0-0.0","42431256","wem/bandit_party_2","A3D38UO96N9SB0","either","8","263","","","","","","","1","0","0","0.5498130742","","0.8","0.6","0.4","0.2","","","","","0.3386726181","0.8106711147","0.5498130742","0.7388835399","","","","","","","","","","75","K","2","","","93","main_expt",""
"","bandit","173","485777","0.0-135.0-0.0","42431256","wem/bandit_party_2","A3D38UO96N9SB0","either","8","3","","","","","","","1","0","0","0.8543263914","","0.8","0.6","0.4","0.2","","","","","0.3718894848","0.8543263914","0.6049407638","0.697373586","","","","","","","","","","74","J","1","","","94","main_expt",""
"","bandit","174","487502","0.0-136.0-0.0","42431256","wem/bandit_party_2","A3D38UO96N9SB0","either","8","217","","","","","","","0","1","0","","0.7550322224","0.8","0.6","0.4","0.2","0.4005278521","0.8387782901","0.6604115927","0.7550322224","","","","","","","","","","","","","","76","L","3","","","95","main_expt",""
"","bandit","175","489097","0.0-137.0-0.0","42431256","wem/bandit_party_2","A3D38UO96N9SB0","either","8","88","","","","","","","0","1","0","","0.3694595514","0.8","0.6","0.4","0.2","0.3694595514","0.8208071174","0.7003847986","0.6576962358","","","","","","","","","","","","","","72","H","0","img/none_selected.jpg","","96","main_expt",""
"","bandit","176","490690","0.0-138.0-0.0","42431256","wem/bandit_party_2","A3D38UO96N9SB0","either","8","86","","","","","","","0","0","1","0.6793148949","","0.8","0.6","0.4","0.2","","","","","0.3186037095","0.765358829","0.6793148949","0.6802484638","","","","","","","","","","75","K","2","","","97","main_expt",""
"","bandit","177","492419","0.0-139.0-0.0","42431256","wem/bandit_party_2","A3D38UO96N9SB0","either","8","222","","","","","","","1","0","0","0.7823463211","","0.8","0.6","0.4","0.2","","","","","0.2786717818","0.7823463211","0.6204607354","0.7042077447","","","","","","","","","","74","J","1","","","98","main_expt",""
"","bandit","178","494107","0.0-140.0-0.0","42431256","wem/bandit_party_2","A3D38UO96N9SB0","either","8","180","","","","","","","0","0","1","","0.7355617892","0.8","0.6","0.4","0.2","0.32929866","0.7523003034","0.6166262367","0.7355617892","","","","","","","","","","","","","","76","L","3","","","99","main_expt",""
"","bandit","179","495811","0.0-141.0-0.0","42431256","wem/bandit_party_2","A3D38UO96N9SB0","either","8","197","","","","","","","1","0","0","0.7174790615","","0.8","0.6","0.4","0.2","","","","","0.3115323478","0.7174790615","0.5347115766","0.7117411671","","","","","","","","","","74","J","1","","","100","main_expt",""
"","bandit","180","497420","0.0-142.0-0.0","42431256","wem/bandit_party_2","A3D38UO96N9SB0","either","8","101","","","","","","","1","0","0","0.7660578318","","0.8","0.6","0.4","0.2","","","","","0.4221749579","0.7660578318","0.3418016043","0.7263903312","","","","","","","","","","74","J","1","","","101","main_expt",""
"","bandit","181","499096","0.0-143.0-0.0","42431256","wem/bandit_party_2","A3D38UO96N9SB0","either","8","169","","","","","","","0","0","1","0.2718078598","","0.8","0.6","0.4","0.2","","","","","0.2718078598","0.7201180075","0.2550922237","0.7357346189","","","","","","","","","","72","H","0","img/none_selected.jpg","","102","main_expt",""
"","bandit","182","500682","0.0-144.0-0.0","42431256","wem/bandit_party_2","A3D38UO96N9SB0","either","8","80","","","","","","","0","1","0","","0.8452780714","0.8","0.6","0.4","0.2","0.3011307106","0.8452780714","0.3181696353","0.7026134783","","","","","","","","","","","","","","74","J","1","","","103","main_expt",""
"","bandit","183","502277","0.0-145.0-0.0","42431256","wem/bandit_party_2","A3D38UO96N9SB0","either","8","87","","","","","","","0","0","1","0.7236924273","","0.8","0.6","0.4","0.2","","","","","0.3659291838","0.7236924273","0.3383579412","0.8073666152","","","","","","","","","","74","J","1","","","104","main_expt",""
"","bandit","184","503860","0.0-146.0-0.0","42431256","wem/bandit_party_2","A3D38UO96N9SB0","either","8","76","","","","","","","0","0","1","","0.2354673658","0.8","0.6","0.4","0.2","0.3499435223","0.743719778","0.2354673658","0.824483439","","","","","","","","","","","","","","75","K","2","","","105","main_expt",""
"","bandit","185","505510","0.0-147.0-0.0","42431256","wem/bandit_party_2","A3D38UO96N9SB0","either","8","140","","","","","","","1","0","0","0.9208810438","","0.8","0.6","0.4","0.2","","","","","0.3602262465","0.7985687284","0.159398249","0.9208810438","","","","","","","","","","76","L","3","","","106","main_expt",""
"","bandit","186","507276","0.0-148.0-0.0","42431256","wem/bandit_party_2","A3D38UO96N9SB0","either","8","258","","","","","","","0","1","0","","0.8911910097","0.8","0.6","0.4","0.2","0.3252215163","0.799345197","0.1295169146","0.8911910097","","","","","","","","","","","","","","76","L","3","","","107","main_expt",""
"","bandit","187","508905","0.0-149.0-0.0","42431256","wem/bandit_party_2","A3D38UO96N9SB0","either","8","122","","","","","","","0","0","1","0.2812406992","","0.8","0.6","0.4","0.2","","","","","0.2812406992","0.8681690713","0.07754053308","0.8450149587","","","","","","","","","","72","H","0","img/none_selected.jpg","","108","main_expt",""
"","bandit","188","510885","0.0-150.0-0.0","42431256","wem/bandit_party_2","A3D38UO96N9SB0","either","8","472","","","","","","","1","0","0","0.2559497519","","0.8","0.6","0.4","0.2","","","","","0.2559497519","0.8556732204","0.06591215473","0.868327257","","","","","","","","","","72","H","0","img/none_selected.jpg","","109","main_expt",""
"","bandit","189","512691","0.0-151.0-0.0","42431256","wem/bandit_party_2","A3D38UO96N9SB0","either","8","298","","","","","","","1","0","0","0.2817400418","","0.8","0.6","0.4","0.2","","","","","0.2817400418","0.8669893864","0.1189546392","0.8868335222","","","","","","","","","","72","H","0","img/none_selected.jpg","","110","main_expt",""
"","bandit","190","514497","0.0-152.0-0.0","42431256","wem/bandit_party_2","A3D38UO96N9SB0","either","8","300","","","","","","","0","0","1","0.2773620367","","0.8","0.6","0.4","0.2","","","","","0.2773620367","0.799383849","0.09523351692","0.8770728171","","","","","","","","","","72","H","0","img/none_selected.jpg","","111","main_expt",""
"","bandit","191","516222","0.0-153.0-0.0","42431256","wem/bandit_party_2","A3D38UO96N9SB0","either","8","215","","","","","","","0","0","1","","0.107489667","0.8","0.6","0.4","0.2","0.2833316415","0.859799476","0.107489667","0.8481710002","","","","","","","","","","","","","","75","K","2","","","112","main_expt",""
"","bandit","192","517833","0.0-154.0-0.0","42431256","wem/bandit_party_2","A3D38UO96N9SB0","either","8","104","","","","","","","0","0","1","0.1026187258","","0.8","0.6","0.4","0.2","","","","","0.3433702059","0.7932436089","0.1026187258","0.8573528835","","","","","","","","","","75","K","2","","","113","main_expt",""
"","bandit","193","519341","0.0-155.0-0.0","42431256","wem/bandit_party_2","A3D38UO96N9SB0","either","8","0","","","","","","","0","0","1","","0.1044839951","0.8","0.6","0.4","0.2","0.4828882278","0.849407262","0.1044839951","0.8291807482","","","","","","","","","","","","","","75","K","2","","","114","main_expt",""
"","bandit","194","521084","0.0-156.0-0.0","42431256","wem/bandit_party_2","A3D38UO96N9SB0","either","8","235","","","","","","","0","0","1","0.8882716547","","0.8","0.6","0.4","0.2","","","","","0.54932579","0.8882716547","0.1213931844","0.761972944","","","","","","","","","","74","J","1","","","115","main_expt",""
"","bandit","195","522832","0.0-157.0-0.0","42431256","wem/bandit_party_2","A3D38UO96N9SB0","either","8","241","","","","","","","0","1","0","","0.786197192","0.8","0.6","0.4","0.2","0.6971345968","0.8741354715","0.1184144227","0.786197192","","","","","","","","","","","","","","76","L","3","","","116","main_expt",""
"","bandit","196","524573","0.0-158.0-0.0","42431256","wem/bandit_party_2","A3D38UO96N9SB0","either","8","235","","","","","","","1","0","0","0.7834453561","","0.8","0.6","0.4","0.2","","","","","0.5396272374","0.8083823922","0.1983931569","0.7834453561","","","","","","","","","","76","L","3","","","117","main_expt",""
"","bandit","197","526422","0.0-159.0-0.0","42431256","wem/bandit_party_2","A3D38UO96N9SB0","either","8","342","","","","","","","0","0","1","","0.6742380839","0.8","0.6","0.4","0.2","0.5544567993","0.868525306","0.2840039584","0.6742380839","","","","","","","","","","","","","","76","L","3","","","118","main_expt",""
"","bandit","198","528751","0.0-160.0-0.0","42431256","wem/bandit_party_2","A3D38UO96N9SB0","either","8","822","","","","","","","0","1","0","","0.3563325119","0.8","0.6","0.4","0.2","0.5504896642","0.8386471998","0.3563325119","0.7350700153","","","","","","","","","","","","","","75","K","2","","","119","main_expt",""
"","bandit","199","530641","0.0-161.0-0.0","42431256","wem/bandit_party_2","A3D38UO96N9SB0","either","8","382","","","","","","","0","0","1","","0.5682387565","0.8","0.6","0.4","0.2","0.5812137135","0.8103559508","0.5682387565","0.70601835","","","","","","","","","","","","","","75","K","2","","","120","main_expt",""
"","bandit","200","532468","0.0-162.0-0.0","42431256","wem/bandit_party_2","A3D38UO96N9SB0","either","8","321","","","","","","","1","0","0","0.6033058466","","0.8","0.6","0.4","0.2","","","","","0.6033058466","0.8193015173","0.5189107771","0.7347719752","","","","","","","","","","72","H","0","img/none_selected.jpg","","121","main_expt",""
"","bandit","201","534353","0.0-163.0-0.0","42431256","wem/bandit_party_2","A3D38UO96N9SB0","either","8","378","","","","","","","0","0","1","0.6102220397","","0.8","0.6","0.4","0.2","","","","","0.6102220397","0.8025146027","0.4428493372","0.8270923978","","","","","","","","","","72","H","0","img/none_selected.jpg","","122","main_expt",""
"","bandit","202","536257","0.0-164.0-0.0","42431256","wem/bandit_party_2","A3D38UO96N9SB0","either","8","395","","","","","","","0","1","0","","0.8121847492","0.8","0.6","0.4","0.2","0.6108151959","0.8121847492","0.472724465","0.7980631313","","","","","","","","","","","","","","74","J","1","","","123","main_expt",""
"","bandit","203","538112","0.0-165.0-0.0","42431256","wem/bandit_party_2","A3D38UO96N9SB0","either","8","348","","","","","","","1","0","0","0.8299418439","","0.8","0.6","0.4","0.2","","","","","0.7117385939","0.8299418439","0.4799585558","0.7369852887","","","","","","","","","","74","J","1","","","124","main_expt",""
"","bandit","204","540529","0.0-166.0-0.0","42431256","wem/bandit_party_2","A3D38UO96N9SB0","either","8","912","","","","","","","1","0","0","0.825688343","","0.8","0.6","0.4","0.2","","","","","0.7554186078","0.825688343","0.5080184993","0.7465944313","","","","","","","","","","74","J","1","","","125","main_expt",""
"","bandit","205","542644","0.0-167.0-0.0","42431256","wem/bandit_party_2","A3D38UO96N9SB0","either","8","606","","","","","","","0","1","0","","0.8372054396","0.8","0.6","0.4","0.2","0.8855751833","0.8372054396","0.4555098289","0.7596834852","","","","","","","","","","","","","","74","J","1","","","126","main_expt",""
"","bandit","206","544399","0.0-168.0-0.0","42431256","wem/bandit_party_2","A3D38UO96N9SB0","either","8","248","","","","","","","1","0","0","0.7906689898","","0.8","0.6","0.4","0.2","","","","","0.8003015049","0.7906689898","0.5475411796","0.7398299979","","","","","","","","","","74","J","1","","","127","main_expt",""
"","bandit","207","546080","0.0-169.0-0.0","42431256","wem/bandit_party_2","A3D38UO96N9SB0","either","8","172","","","","","","","1","0","0","0.8008571507","","0.8","0.6","0.4","0.2","","","","","0.8403113951","0.8008571507","0.612647382","0.7764866849","","","","","","","","","","74","J","1","","","128","main_expt",""
"","bandit","208","547728","0.0-170.0-0.0","42431256","wem/bandit_party_2","A3D38UO96N9SB0","either","8","140","","","","","","","0","1","0","","0.7829297973","0.8","0.6","0.4","0.2","0.8826872071","0.7829297973","0.7128970287","0.6435675963","","","","","","","","","","","","","","74","J","1","","","129","main_expt",""
"","bandit","209","550023","0.0-171.0-0.0","42431256","wem/bandit_party_2","A3D38UO96N9SB0","either","8","788","","","","","","","0","1","0","","0.6898445721","0.8","0.6","0.4","0.2","0.8641000085","0.6898445721","0.7309911721","0.7030252038","","","","","","","","","","","","","","74","J","1","","","130","main_expt",""
"","bandit","210","551946","0.0-172.0-0.0","42431256","wem/bandit_party_2","A3D38UO96N9SB0","either","8","415","","","","","","","0","0","1","0.5864867529","","0.8","0.6","0.4","0.2","","","","","0.8752037592","0.5864867529","0.73180147","0.6829232191","","","","","","","","","","74","J","1","","","131","main_expt",""
"","bandit","211","553642","0.0-173.0-0.0","42431256","wem/bandit_party_2","A3D38UO96N9SB0","either","8","189","","","","","","","0","1","0","","0.7406452387","0.8","0.6","0.4","0.2","0.8279556795","0.560122833","0.8467134838","0.7406452387","","","","","","","","","","","","","","76","L","3","","","132","main_expt",""
"","bandit","212","555412","0.0-174.0-0.0","42431256","wem/bandit_party_2","A3D38UO96N9SB0","either","8","263","","","","","","","0","0","1","","0.6666234363","0.8","0.6","0.4","0.2","0.8194722428","0.48439517","0.8481264083","0.6666234363","","","","","","","","","","","","","","76","L","3","","","133","main_expt",""
"","bandit","213","557096","0.0-175.0-0.0","42431256","wem/bandit_party_2","A3D38UO96N9SB0","either","8","176","","","","","","","0","1","0","","0.8771050955","0.8","0.6","0.4","0.2","0.8037084922","0.3919863126","0.8771050955","0.680542061","","","","","","","","","","","","","","75","K","2","","","134","main_expt",""
"","bandit","214","559031","0.0-176.0-0.0","42431256","wem/bandit_party_2","A3D38UO96N9SB0","either","8","427","","","","","","","1","0","0","0.9103241533","","0.8","0.6","0.4","0.2","","","","","0.8155916457","0.5174750093","0.9103241533","0.7006187635","","","","","","","","","","75","K","2","","","135","main_expt",""
"","bandit","215","560928","0.0-177.0-0.0","42431256","wem/bandit_party_2","A3D38UO96N9SB0","either","8","388","","","","","","","0","1","0","","0.9126032517","0.8","0.6","0.4","0.2","0.8281957705","0.4264762493","0.9126032517","0.6936815578","","","","","","","","","","","","","","75","K","2","","","136","main_expt",""
"","bandit","216","563002","0.0-178.0-0.0","42431256","wem/bandit_party_2","A3D38UO96N9SB0","either","8","567","","","","","","","0","1","0","","0.8983360858","0.8","0.6","0.4","0.2","0.7055403129","0.5351999402","0.8983360858","0.6531428085","","","","","","","","","","","","","","75","K","2","","","137","main_expt",""
"","bandit","217","565255","0.0-179.0-0.0","42431256","wem/bandit_party_2","A3D38UO96N9SB0","either","8","745","","","","","","","0","1","0","","0.8851370462","0.8","0.6","0.4","0.2","0.6884351598","0.4758748922","0.8851370462","0.6769758131","","","","","","","","","","","","","","75","K","2","","","138","main_expt",""
"","bandit","218","567165","0.0-180.0-0.0","42431256","wem/bandit_party_2","A3D38UO96N9SB0","either","8","402","","","","","","","0","1","0","","0.7649589049","0.8","0.6","0.4","0.2","0.6090423031","0.4039793023","0.8662270416","0.7649589049","","","","","","","","","","","","","","76","L","3","","","139","main_expt",""
"","bandit","219","568822","0.0-181.0-0.0","42431256","wem/bandit_party_2","A3D38UO96N9SB0","either","8","148","","","","","","","0","0","1","","0.7674202191","0.8","0.6","0.4","0.2","0.7000077187","0.384774136","0.8345767194","0.7674202191","","","","","","","","","","","","","","76","L","3","","","140","main_expt",""
"","bandit","220","570626","0.0-182.0-0.0","42431256","wem/bandit_party_2","A3D38UO96N9SB0","either","8","298","","","","","","","0","0","1","0.6643185619","","0.8","0.6","0.4","0.2","","","","","0.6643185619","0.327254859","0.8783670964","0.8575114448","","","","","","","","","","72","H","0","img/none_selected.jpg","","141","main_expt",""
"","bandit","221","572399","0.0-183.0-0.0","42431256","wem/bandit_party_2","A3D38UO96N9SB0","either","8","264","","","","","","","0","1","0","","0.8134430427","0.8","0.6","0.4","0.2","0.7079845674","0.4536641492","0.8895828315","0.8134430427","","","","","","","","","","","","","","76","L","3","","","142","main_expt",""
"","bandit","222","574624","0.0-184.0-0.0","42431256","wem/bandit_party_2","A3D38UO96N9SB0","either","8","718","","","","","","","0","0","1","","0.8345505038","0.8","0.6","0.4","0.2","0.6624187643","0.4348486293","0.9053928798","0.8345505038","","","","","","","","","","","","","","76","L","3","","","143","main_expt",""
"","bandit","223","576614","0.0-185.0-0.0","42431256","wem/bandit_party_2","A3D38UO96N9SB0","either","8","483","","","","","","","0","0","1","","0.4086594597","0.8","0.6","0.4","0.2","0.6779247185","0.4086594597","0.9033088386","0.7482817554","","","","","","","","","","","","","","74","J","1","","","144","main_expt",""
"","bandit","224","578735","0.0-186.0-0.0","42431256","wem/bandit_party_2","A3D38UO96N9SB0","either","8","615","","","","","","","1","0","0","0.8572864227","","0.8","0.6","0.4","0.2","","","","","0.7216102374","0.4420772456","0.8572864227","0.7400387939","","","","","","","","","","75","K","2","","","145","main_expt",""
"","bandit","225","580861","0.0-187.0-0.0","42431256","wem/bandit_party_2","A3D38UO96N9SB0","either","8","615","","","","","","","1","0","0","0.8687508917","","0.8","0.6","0.4","0.2","","","","","0.7837267619","0.508741462","0.8687508917","0.795971973","","","","","","","","","","75","K","2","","","146","main_expt",""
"","bandit","226","583287","0.0-188.0-0.0","42431256","wem/bandit_party_2","A3D38UO96N9SB0","either","8","920","","","","","","","1","0","0","0.8657621525","","0.8","0.6","0.4","0.2","","","","","0.7652264833","0.4624398998","0.8657621525","0.7503502301","","","","","","","","","","75","K","2","","","147","main_expt",""
"","bandit","227","585170","0.0-189.0-0.0","42431256","wem/bandit_party_2","A3D38UO96N9SB0","either","8","376","","","","","","","0","1","0","","0.8362891365","0.8","0.6","0.4","0.2","0.7358716413","0.4062589849","0.8362891365","0.8200474043","","","","","","","","","","","","","","75","K","2","","","148","main_expt",""
"","bandit","228","587101","0.0-190.0-0.0","42431256","wem/bandit_party_2","A3D38UO96N9SB0","either","8","425","","","","","","","0","1","0","","0.8144386017","0.8","0.6","0.4","0.2","0.7129200786","0.4895331913","0.8144386017","0.8509010271","","","","","","","","","","","","","","75","K","2","","","149","main_expt",""
"","bandit","229","589003","0.0-191.0-0.0","42431256","wem/bandit_party_2","A3D38UO96N9SB0","either","8","393","","","","","","","0","1","0","","0.6948055455","0.8","0.6","0.4","0.2","0.705531668","0.4704746919","0.6948055455","0.8298908313","","","","","","","","","","","","","","75","K","2","","","150","main_expt",""
"","bandit","230","590892","0.0-192.0-0.0","42431256","wem/bandit_party_2","A3D38UO96N9SB0","either","8","382","","","","","","","0","1","0","","0.6231991314","0.8","0.6","0.4","0.2","0.5744604188","0.4725745774","0.6231991314","0.7362749002","","","","","","","","","","","","","","75","K","2","","","151","main_expt",""
"","bandit","231","592734","0.0-193.0-0.0","42431256","wem/bandit_party_2","A3D38UO96N9SB0","either","8","335","","","","","","","0","0","1","","0.7045057733","0.8","0.6","0.4","0.2","0.5372669321","0.4943906398","0.7045057733","0.7601791643","","","","","","","","","","","","","","75","K","2","","","152","main_expt",""
"","bandit","232","594630","0.0-194.0-0.0","42431256","wem/bandit_party_2","A3D38UO96N9SB0","either","8","390","","","","","","","0","0","1","0.5447545218","","0.8","0.6","0.4","0.2","","","","","0.5447545218","0.4639524782","0.5331338622","0.7590648118","","","","","","","","","","72","H","0","img/none_selected.jpg","","153","main_expt",""
"","bandit","233","596317","0.0-195.0-0.0","42431256","wem/bandit_party_2","A3D38UO96N9SB0","either","8","179","","","","","","","0","0","1","0.3935792086","","0.8","0.6","0.4","0.2","","","","","0.4191749193","0.3935792086","0.5096720896","0.7805387907","","","","","","","","","","74","J","1","","","154","main_expt",""
"","bandit","234","598382","0.0-196.0-0.0","42431256","wem/bandit_party_2","A3D38UO96N9SB0","either","8","558","","","","","","","0","1","0","","0.8450805748","0.8","0.6","0.4","0.2","0.4269770229","0.4127348605","0.4719011365","0.8450805748","","","","","","","","","","","","","","76","L","3","","","155","main_expt",""
"","bandit","235","600130","0.0-197.0-0.0","42431256","wem/bandit_party_2","A3D38UO96N9SB0","either","8","241","","","","","","","0","1","0","","0.8513110265","0.8","0.6","0.4","0.2","0.4589862704","0.3697675558","0.5818713095","0.8513110265","","","","","","","","","","","","","","76","L","3","","","156","main_expt",""
"","bandit","236","602194","0.0-198.0-0.0","42431256","wem/bandit_party_2","A3D38UO96N9SB0","either","8","557","","","","","","","0","1","0","","0.8226236001","0.8","0.6","0.4","0.2","0.5370818316","0.3604398023","0.5804022203","0.8226236001","","","","","","","","","","","","","","76","L","3","","","157","main_expt",""
"","bandit","237","604291","0.0-199.0-0.0","42431256","wem/bandit_party_2","A3D38UO96N9SB0","either","8","589","","","","","","","1","0","0","0.8843141367","","0.8","0.6","0.4","0.2","","","","","0.4757376888","0.4061750625","0.4773166223","0.8843141367","","","","","","","","","","76","L","3","","","158","main_expt",""
"","bandit","238","606113","0.0-200.0-0.0","42431256","wem/bandit_party_2","A3D38UO96N9SB0","either","8","314","","","","","","","1","0","0","0.8078798749","","0.8","0.6","0.4","0.2","","","","","0.4887287223","0.4696417586","0.419048585","0.8078798749","","","","","","","","","","76","L","3","","","159","main_expt",""
"","bandit","239","608097","0.0-201.0-0.0","42431256","wem/bandit_party_2","A3D38UO96N9SB0","either","8","477","","","","","","","0","1","0","","0.7689164465","0.8","0.6","0.4","0.2","0.4588489809","0.4659569923","0.4672574386","0.7689164465","","","","","","","","","","","","","","76","L","3","","","160","main_expt",""
"","bandit","240","609998","0.0-202.0-0.0","42431256","wem/bandit_party_2","A3D38UO96N9SB0","either","8","394","","","","","","","0","1","0","","0.7863156869","0.8","0.6","0.4","0.2","0.4920004413","0.3947207546","0.5612985374","0.7863156869","","","","","","","","","","","","","","76","L","3","","","161","main_expt",""
"","bandit","241","611849","0.0-203.0-0.0","42431256","wem/bandit_party_2","A3D38UO96N9SB0","either","8","343","","","","","","","0","1","0","","0.8098475403","0.8","0.6","0.4","0.2","0.5389881207","0.2460097942","0.5288680036","0.8098475403","","","","","","","","","","","","","","76","L","3","","","162","main_expt",""
"","bandit","242","613885","0.0-204.0-0.0","42431256","wem/bandit_party_2","A3D38UO96N9SB0","either","8","529","","","","","","","0","1","0","","0.8222712862","0.8","0.6","0.4","0.2","0.6040136001","0.3603606056","0.6096883849","0.8222712862","","","","","","","","","","","","","","76","L","3","","","163","main_expt",""
"","bandit","243","615798","0.0-205.0-0.0","42431256","wem/bandit_party_2","A3D38UO96N9SB0","either","8","405","","","","","","","1","0","0","0.7876031225","","0.8","0.6","0.4","0.2","","","","","0.623756827","0.2507209727","0.4868922288","0.7876031225","","","","","","","","","","76","L","3","","","164","main_expt",""
"","bandit","244","617903","0.0-206.0-0.0","42431256","wem/bandit_party_2","A3D38UO96N9SB0","either","8","598","","","","","","","1","0","0","0.7435052823","","0.8","0.6","0.4","0.2","","","","","0.6164515281","0.2162043423","0.4055552053","0.7435052823","","","","","","","","","","76","L","3","","","165","main_expt",""
"","bandit","245","620023","0.0-207.0-0.0","42431256","wem/bandit_party_2","A3D38UO96N9SB0","either","8","610","","","","","","","0","1","0","","0.6545739251","0.8","0.6","0.4","0.2","0.4660222187","0.2573409732","0.4748236382","0.6545739251","","","","","","","","","","","","","","76","L","3","","","166","main_expt",""
"","bandit","246","621826","0.0-208.0-0.0","42431256","wem/bandit_party_2","A3D38UO96N9SB0","either","8","297","","","","","","","0","1","0","","0.6645907447","0.8","0.6","0.4","0.2","0.3336058786","0.4016088623","0.4725242185","0.6645907447","","","","","","","","","","","","","","76","L","3","","","167","main_expt",""
"","bandit","247","623703","0.0-209.0-0.0","42431256","wem/bandit_party_2","A3D38UO96N9SB0","either","8","372","","","","","","","0","0","1","","0.7243751722","0.8","0.6","0.4","0.2","0.2887723434","0.5522858252","0.4775208721","0.7243751722","","","","","","","","","","","","","","76","L","3","","","168","main_expt",""
"","bandit","248","625685","0.0-210.0-0.0","42431256","wem/bandit_party_2","A3D38UO96N9SB0","either","8","475","","","","","","","0","1","0","","0.6453105543","0.8","0.6","0.4","0.2","0.3357056981","0.5461138513","0.4682732781","0.6453105543","","","","","","","","","","","","","","76","L","3","","","169","main_expt",""
"","bandit","249","627514","0.0-211.0-0.0","42431256","wem/bandit_party_2","A3D38UO96N9SB0","either","8","321","","","","","","","0","0","1","0.5334010147","","0.8","0.6","0.4","0.2","","","","","0.4179693295","0.4402798015","0.4246621539","0.5334010147","","","","","","","","","","76","L","3","","","170","main_expt",""
"","bandit","250","629434","0.0-212.0-0.0","42431256","wem/bandit_party_2","A3D38UO96N9SB0","either","8","413","","","","","","","1","0","0","0.3050406521","","0.8","0.6","0.4","0.2","","","","","0.3050406521","0.450294849","0.2843380906","0.498122785","","","","","","","","","","72","H","0","img/none_selected.jpg","","171","main_expt",""
"","bandit","251","631296","0.0-213.0-0.0","42431256","wem/bandit_party_2","A3D38UO96N9SB0","either","8","355","","","","","","","0","0","1","0.3364500029","","0.8","0.6","0.4","0.2","","","","","0.3364500029","0.6475755847","0.2668952485","0.4356988635","","","","","","","","","","72","H","0","img/none_selected.jpg","","172","main_expt",""
"","bandit","252","633745","0.0-214.0-0.0","42431256","wem/bandit_party_2","A3D38UO96N9SB0","either","8","941","","","","","","","1","0","0","0.6095255177","","0.8","0.6","0.4","0.2","","","","","0.421339117","0.6095255177","0.3802819164","0.3964199688","","","","","","","","","","74","J","1","","","173","main_expt",""
"","bandit","253","635587","0.0-215.0-0.0","42431256","wem/bandit_party_2","A3D38UO96N9SB0","either","8","334","","","","","","","1","0","0","0.5003628493","","0.8","0.6","0.4","0.2","","","","","0.4913704717","0.5003628493","0.4042455133","0.3194345802","","","","","","","","","","74","J","1","","","174","main_expt",""
"","bandit","254","637432","0.0-216.0-0.0","42431256","wem/bandit_party_2","A3D38UO96N9SB0","either","8","335","","","","","","","1","0","0","0.5576212716","","0.8","0.6","0.4","0.2","","","","","0.5882611891","0.5576212716","0.4393989914","0.2865230234","","","","","","","","","","74","J","1","","","175","main_expt",""
"","bandit","255","639305","0.0-217.0-0.0","42431256","wem/bandit_party_2","A3D38UO96N9SB0","either","8","364","","","","","","","0","0","1","0.6230679906","","0.8","0.6","0.4","0.2","","","","","0.6313830356","0.6230679906","0.4705173801","0.3352692614","","","","","","","","","","74","J","1","","","176","main_expt",""
"","bandit","256","641562","0.0-218.0-0.0","42431256","wem/bandit_party_2","A3D38UO96N9SB0","either","8","750","","","","","","","0","0","1","","0.4698597734","0.8","0.6","0.4","0.2","0.5531265137","0.6501784685","0.4698597734","0.3389264817","","","","","","","","","","","","","","75","K","2","","","177","main_expt",""
"","bandit","257","643409","0.0-219.0-0.0","42431256","wem/bandit_party_2","A3D38UO96N9SB0","either","8","339","","","","","","","0","1","0","","0.6334155083","0.8","0.6","0.4","0.2","0.4621004187","0.6334155083","0.3570804947","0.3709673039","","","","","","","","","","","","","","74","J","1","","","178","main_expt",""
"","bandit","258","645419","0.0-220.0-0.0","42431256","wem/bandit_party_2","A3D38UO96N9SB0","either","8","502","","","","","","","1","0","0","0.7548338289","","0.8","0.6","0.4","0.2","","","","","0.512884041","0.7548338289","0.3441184995","0.2940579202","","","","","","","","","","74","J","1","","","179","main_expt",""
"","bandit","259","647812","0.0-221.0-0.0","42431256","wem/bandit_party_2","A3D38UO96N9SB0","either","8","886","","","","","","","0","0","1","","0.8074073351","0.8","0.6","0.4","0.2","0.506744284","0.8074073351","0.3646136501","0.3218724025","","","","","","","","","","","","","","74","J","1","","","180","main_expt",""
"","bandit","260","649861","0.0-222.0-0.0","42431256","wem/bandit_party_2","A3D38UO96N9SB0","either","8","540","","","","","","","0","1","0","","0.4556494723","0.8","0.6","0.4","0.2","0.4556494723","0.780721516","0.3777688814","0.3633286182","","","","","","","","","","","","","","72","H","0","img/none_selected.jpg","","181","main_expt",""
"","bandit","261","652013","0.0-223.0-0.0","42431256","wem/bandit_party_2","A3D38UO96N9SB0","either","8","644","","","","","","","1","0","0","0.4494525508","","0.8","0.6","0.4","0.2","","","","","0.4494525508","0.7647415088","0.4578236703","0.3324048704","","","","","","","","","","72","H","0","img/none_selected.jpg","","182","main_expt",""
"","bandit","262","654226","0.0-224.0-0.0","42431256","wem/bandit_party_2","A3D38UO96N9SB0","either","8","705","","","","","","","0","0","1","","0.5189143621","0.8","0.6","0.4","0.2","0.5189143621","0.7349307529","0.4244895098","0.3092830871","","","","","","","","","","","","","","72","H","0","img/none_selected.jpg","","183","main_expt",""
"","bandit","263","656064","0.0-225.0-0.0","42431256","wem/bandit_party_2","A3D38UO96N9SB0","either","8","330","","","","","","","1","0","0","0.5167606333","","0.8","0.6","0.4","0.2","","","","","0.5167606333","0.8298088288","0.3566779322","0.3905692936","","","","","","","","","","72","H","0","img/none_selected.jpg","","184","main_expt",""
"","bandit","264","658101","0.0-226.0-0.0","42431256","wem/bandit_party_2","A3D38UO96N9SB0","either","8","529","","","","","","","1","0","0","0.5270237034","","0.8","0.6","0.4","0.2","","","","","0.5270237034","0.7894193193","0.3737416658","0.4626192444","","","","","","","","","","72","H","0","img/none_selected.jpg","","185","main_expt",""
"","bandit","265","660328","0.0-227.0-0.0","42431256","wem/bandit_party_2","A3D38UO96N9SB0","either","8","719","","","","","","","0","1","0","","0.5556036571","0.8","0.6","0.4","0.2","0.5556036571","0.7665022487","0.3120176694","0.6061762586","","","","","","","","","","","","","","72","H","0","img/none_selected.jpg","","186","main_expt",""
"","bandit","266","662485","0.0-228.0-0.0","42431256","wem/bandit_party_2","A3D38UO96N9SB0","either","8","649","","","","","","","0","0","1","0.5865134094","","0.8","0.6","0.4","0.2","","","","","0.5865134094","0.7394266891","0.4134691065","0.530958695","","","","","","","","","","72","H","0","img/none_selected.jpg","","187","main_expt",""
"","bandit","267","664723","0.0-229.0-0.0","42431256","wem/bandit_party_2","A3D38UO96N9SB0","either","8","731","","","","","","","0","0","1","0.4637770407","","0.8","0.6","0.4","0.2","","","","","0.5034866795","0.6567361442","0.4637770407","0.380024655","","","","","","","","","","75","K","2","","","188","main_expt",""
"","bandit","268","666516","0.0-230.0-0.0","42431256","wem/bandit_party_2","A3D38UO96N9SB0","either","8","286","","","","","","","0","0","1","0.4563575644","","0.8","0.6","0.4","0.2","","","","","0.5761715841","0.6572443956","0.5739034088","0.4563575644","","","","","","","","","","76","L","3","","","189","main_expt",""
"","bandit","269","668346","0.0-231.0-0.0","42431256","wem/bandit_party_2","A3D38UO96N9SB0","either","8","321","","","","","","","0","0","1","","0.6735764162","0.8","0.6","0.4","0.2","0.5325489933","0.6735764162","0.5859504021","0.4540853102","","","","","","","","","","","","","","74","J","1","","","190","main_expt",""
"","bandit","270","670212","0.0-232.0-0.0","42431256","wem/bandit_party_2","A3D38UO96N9SB0","either","8","358","","","","","","","0","0","1","","0.4328006462","0.8","0.6","0.4","0.2","0.5614919892","0.5997518312","0.5325822721","0.4328006462","","","","","","","","","","","","","","76","L","3","","","191","main_expt",""
"","bandit","271","671851","0.0-233.0-0.0","42431256","wem/bandit_party_2","A3D38UO96N9SB0","either","8","131","","","","","","","0","0","1","0.5972832049","","0.8","0.6","0.4","0.2","","","","","0.5972832049","0.6582178794","0.4622441745","0.4979354652","","","","","","","","","","72","H","0","img/none_selected.jpg","","192","main_expt",""
"","bandit","272","673538","0.0-234.0-0.0","42431256","wem/bandit_party_2","A3D38UO96N9SB0","either","8","178","","","","","","","0","1","0","","0.4765036663","0.8","0.6","0.4","0.2","0.6997951875","0.7246172867","0.4765036663","0.4887187701","","","","","","","","","","","","","","75","K","2","","","193","main_expt",""
"","bandit","273","675313","0.0-235.0-0.0","42431256","wem/bandit_party_2","A3D38UO96N9SB0","either","8","267","","","","","","","0","0","1","","0.4504155567","0.8","0.6","0.4","0.2","0.7511051992","0.7721250451","0.4504155567","0.4993882896","","","","","","","","","","","","","","75","K","2","","","194","main_expt",""
"","bandit","274","677040","0.0-236.0-0.0","42431256","wem/bandit_party_2","A3D38UO96N9SB0","either","8","219","","","","","","","0","0","1","0.4354252764","","0.8","0.6","0.4","0.2","","","","","0.8281457055","0.8366496483","0.4354252764","0.5011331455","","","","","","","","","","75","K","2","","","195","main_expt",""
"","bandit","275","678770","0.0-237.0-0.0","42431256","wem/bandit_party_2","A3D38UO96N9SB0","either","8","222","","","","","","","0","0","1","0.4487960683","","0.8","0.6","0.4","0.2","","","","","0.8248544968","0.8484646997","0.4170899215","0.4487960683","","","","","","","","","","76","L","3","","","196","main_expt",""
"","bandit","276","680545","0.0-238.0-0.0","42431256","wem/bandit_party_2","A3D38UO96N9SB0","either","8","266","","","","","","","1","0","0","0.8734060335","","0.8","0.6","0.4","0.2","","","","","0.8532714289","0.8734060335","0.4149059055","0.3975590019","","","","","","","","","","74","J","1","","","197","main_expt",""
"","bandit","277","682460","0.0-239.0-0.0","42431256","wem/bandit_party_2","A3D38UO96N9SB0","either","8","406","","","","","","","1","0","0","0.8515360685","","0.8","0.6","0.4","0.2","","","","","0.7587337752","0.8515360685","0.4737306044","0.4161601929","","","","","","","","","","74","J","1","","","198","main_expt",""
"","bandit","278","684267","0.0-240.0-0.0","42431256","wem/bandit_party_2","A3D38UO96N9SB0","either","8","298","","","","","","","0","0","1","0.8805923715","","0.8","0.6","0.4","0.2","","","","","0.8124408481","0.8805923715","0.4541760911","0.4483979408","","","","","","","","","","74","J","1","","","199","main_expt",""
"","bandit","279","685998","0.0-241.0-0.0","42431256","wem/bandit_party_2","A3D38UO96N9SB0","either","8","222","","","","","","","0","1","0","","0.9645818821","0.8","0.6","0.4","0.2","0.7935778268","0.9645818821","0.3964714959","0.5303380975","","","","","","","","","","","","","","74","J","1","","","200","main_expt",""
"","bandit","280","687985","0.0-242.0-0.0","42431256","wem/bandit_party_2","A3D38UO96N9SB0","either","8","478","","","","","","","0","1","0","","0.9689478708","0.8","0.6","0.4","0.2","0.736942723","0.9689478708","0.3815447649","0.4014045657","","","","","","","","","","","","","","74","J","1","","","201","main_expt",""
"","bandit","281","689793","0.0-243.0-0.0","42431256","wem/bandit_party_2","A3D38UO96N9SB0","either","8","299","","","","","","","0","1","0","","0.9678291885","0.8","0.6","0.4","0.2","0.7001951276","0.9678291885","0.3726367513","0.5115169607","","","","","","","","","","","","","","74","J","1","","","202","main_expt",""
"","bandit","282","691801","0.0-244.0-0.0","42431256","wem/bandit_party_2","A3D38UO96N9SB0","either","8","497","","","","","","","1","0","0","0.9633244117","","0.8","0.6","0.4","0.2","","","","","0.7209300446","0.9633244117","0.3062653216","0.5026191452","","","","","","","","","","74","J","1","","","203","main_expt",""
"","bandit","283","693644","0.0-245.0-0.0","42431256","wem/bandit_party_2","A3D38UO96N9SB0","either","8","331","","","","","","","0","0","1","0.9730812582","","0.8","0.6","0.4","0.2","","","","","0.8574132932","0.9730812582","0.2848501254","0.4736298566","","","","","","","","","","74","J","1","","","204","main_expt",""
"","bandit","284","695607","0.0-246.0-0.0","42431256","wem/bandit_party_2","A3D38UO96N9SB0","either","8","453","","","","","","","1","0","0","0.9038760074","","0.8","0.6","0.4","0.2","","","","","0.9038760074","0.9521206422","0.3457586416","0.6121858428","","","","","","","","","","72","H","0","img/none_selected.jpg","","205","main_expt",""
"","bandit","285","697611","0.0-247.0-0.0","42431256","wem/bandit_party_2","A3D38UO96N9SB0","either","8","494","","","","","","","1","0","0","0.9273356803","","0.8","0.6","0.4","0.2","","","","","0.9273356803","0.9614764056","0.4609097875","0.6377028942","","","","","","","","","","72","H","0","img/none_selected.jpg","","206","main_expt",""
"","bandit","286","699449","0.0-248.0-0.0","42431256","wem/bandit_party_2","A3D38UO96N9SB0","either","8","332","","","","","","","0","0","1","0.9502037039","","0.8","0.6","0.4","0.2","","","","","0.9502037039","0.9625830716","0.4980316736","0.5700483165","","","","","","","","","","72","H","0","img/none_selected.jpg","","207","main_expt",""
"","bandit","287","701191","0.0-249.0-0.0","42431256","wem/bandit_party_2","A3D38UO96N9SB0","either","8","232","","","","","","","1","0","0","0.944094639","","0.8","0.6","0.4","0.2","","","","","0.944094639","0.9359306517","0.4537691537","0.624428721","","","","","","","","","","72","H","0","img/none_selected.jpg","","208","main_expt",""
"","bandit","288","702962","0.0-250.0-0.0","42431256","wem/bandit_party_2","A3D38UO96N9SB0","either","8","262","","","","","","","0","1","0","","0.9070839441","0.8","0.6","0.4","0.2","0.9070839441","0.9632917203","0.4475842875","0.4861871301","","","","","","","","","","","","","","72","H","0","img/none_selected.jpg","","209","main_expt",""
"","bandit","289","704705","0.0-251.0-0.0","42431256","wem/bandit_party_2","A3D38UO96N9SB0","either","8","235","","","","","","","1","0","0","0.8960653589","","0.8","0.6","0.4","0.2","","","","","0.8960653589","0.9633226214","0.4803454055","0.3956361612","","","","","","","","","","72","H","0","img/none_selected.jpg","","210","main_expt",""
"","bandit","290","706444","0.0-252.0-0.0","42431256","wem/bandit_party_2","A3D38UO96N9SB0","either","8","232","","","","","","","0","1","0","","0.9155455821","0.8","0.6","0.4","0.2","0.9155455821","0.9719781217","0.4126443349","0.3599204452","","","","","","","","","","","","","","72","H","0","img/none_selected.jpg","","211","main_expt",""
"","bandit","291","708034","0.0-253.0-0.0","42431256","wem/bandit_party_2","A3D38UO96N9SB0","either","8","82","","","","","","","1","0","0","0.9087954588","","0.8","0.6","0.4","0.2","","","","","0.9087954588","0.9700781686","0.3384802849","0.3349000901","","","","","","","","","","72","H","0","img/none_selected.jpg","","212","main_expt",""
"","bandit","292","709779","0.0-254.0-0.0","42431256","wem/bandit_party_2","A3D38UO96N9SB0","either","8","236","","","","","","","0","1","0","","0.8528540962","0.8","0.6","0.4","0.2","0.8528540962","0.971165811","0.3039242722","0.3183344176","","","","","","","","","","","","","","72","H","0","img/none_selected.jpg","","213","main_expt",""
"","bandit","293","711586","0.0-255.0-0.0","42431256","wem/bandit_party_2","A3D38UO96N9SB0","either","8","299","","","","","","","1","0","0","0.8506041988","","0.8","0.6","0.4","0.2","","","","","0.8506041988","0.9627117","0.4541530846","0.2390758011","","","","","","","","","","72","H","0","img/none_selected.jpg","","214","main_expt",""
"","bandit","294","713263","0.0-256.0-0.0","42431256","wem/bandit_party_2","A3D38UO96N9SB0","either","8","169","","","","","","","1","0","0","0.8001829978","","0.8","0.6","0.4","0.2","","","","","0.8001829978","0.9552130497","0.5101749692","0.1997060473","","","","","","","","","","72","H","0","img/none_selected.jpg","","215","main_expt",""
"","bandit","295","714996","0.0-257.0-0.0","42431256","wem/bandit_party_2","A3D38UO96N9SB0","either","8","227","","","","","","","1","0","0","0.733614842","","0.8","0.6","0.4","0.2","","","","","0.733614842","0.9220350188","0.5580520347","0.2326539104","","","","","","","","","","72","H","0","img/none_selected.jpg","","216","main_expt",""
"","bandit","296","716771","0.0-258.0-0.0","42431256","wem/bandit_party_2","A3D38UO96N9SB0","either","8","264","","","","","","","0","0","1","","0.7479737912","0.8","0.6","0.4","0.2","0.7479737912","0.8736667029","0.4368451062","0.2319826337","","","","","","","","","","","","","","72","H","0","img/none_selected.jpg","","217","main_expt",""
"","bandit","297","718643","0.0-259.0-0.0","42431256","wem/bandit_party_2","A3D38UO96N9SB0","either","8","362","","","","","","","0","0","1","","0.3143382807","0.8","0.6","0.4","0.2","0.7713398237","0.7602784417","0.3963441813","0.3143382807","","","","","","","","","","","","","","76","L","3","","","218","main_expt",""
"","bandit","298","720744","0.0-260.0-0.0","42431256","wem/bandit_party_2","A3D38UO96N9SB0","either","8","592","","","","","","","1","0","0","0.4809426617","","0.8","0.6","0.4","0.2","","","","","0.8077055691","0.7643050859","0.4809426617","0.3304972923","","","","","","","","","","75","K","2","","","219","main_expt",""
"","bandit","299","722572","0.0-261.0-0.0","42431256","wem/bandit_party_2","A3D38UO96N9SB0","either","8","319","","","","","","","0","1","0","","0.397759556","0.8","0.6","0.4","0.2","0.7778114837","0.7793587236","0.397759556","0.2866104843","","","","","","","","","","","","","","75","K","2","","","220","main_expt",""
"","bandit","300","724725","0.0-262.0-0.0","42431256","wem/bandit_party_2","A3D38UO96N9SB0","either","8","645","","","","","","","0","1","0","","0.4087677593","0.8","0.6","0.4","0.2","0.7214198583","0.82086311","0.4087677593","0.3602561646","","","","","","","","","","","","","","75","K","2","","","221","main_expt",""
"","bandit","301","726536","0.0-263.0-0.0","42431256","wem/bandit_party_2","A3D38UO96N9SB0","either","8","303","","","","","","","0","0","1","","0.4561280915","0.8","0.6","0.4","0.2","0.8091526303","0.8543662658","0.4561280915","0.3228749062","","","","","","","","","","","","","","75","K","2","","","222","main_expt",""
"","bandit","302","728677","0.0-264.0-0.0","42431256","wem/bandit_party_2","A3D38UO96N9SB0","either","8","635","","","","","","","0","0","1","0.8599459829","","0.8","0.6","0.4","0.2","","","","","0.8240838469","0.8599459829","0.4419858618","0.2549485676","","","","","","","","","","74","J","1","","","223","main_expt",""
"","bandit","303","730218","0.0-265.0-0.0","42431256","wem/bandit_party_2","A3D38UO96N9SB0","either","8","32","","","","","","","0","0","1","","0.2389333491","0.8","0.6","0.4","0.2","0.7670685714","0.8747991669","0.494409337","0.2389333491","","","","","","","","","","","","","","76","L","3","","","224","main_expt",""
"","bandit","304","733189","0.0-266.0-0.0","42431256","wem/bandit_party_2","A3D38UO96N9SB0","either","8","1463","","","","","","","1","0","0","0.8775689376","","0.8","0.6","0.4","0.2","","","","","0.8775689376","0.7910409491","0.3713348049","0.1517307125","","","","","","","","","","72","H","0","img/none_selected.jpg","","225","main_expt",""
"","bandit","305","734955","0.0-267.0-0.0","42431256","wem/bandit_party_2","A3D38UO96N9SB0","either","8","258","","","","","","","0","1","0","","0.8846504348","0.8","0.6","0.4","0.2","0.8846504348","0.7212928749","0.4013452417","0.1002450003","","","","","","","","","","","","","","72","H","0","img/none_selected.jpg","","226","main_expt",""
"","bandit","306","736651","0.0-268.0-0.0","42431256","wem/bandit_party_2","A3D38UO96N9SB0","either","8","186","","","","","","","1","0","0","0.851087938","","0.8","0.6","0.4","0.2","","","","","0.851087938","0.7090989562","0.393451628","0.1049945928","","","","","","","","","","72","H","0","img/none_selected.jpg","","227","main_expt",""
"","bandit","307","738361","0.0-269.0-0.0","42431256","wem/bandit_party_2","A3D38UO96N9SB0","either","8","202","","","","","","","0","1","0","","0.9074720337","0.8","0.6","0.4","0.2","0.9074720337","0.6606736223","0.4175844788","0.03915988122","","","","","","","","","","","","","","72","H","0","img/none_selected.jpg","","228","main_expt",""
"","bandit","308","740071","0.0-270.0-0.0","42431256","wem/bandit_party_2","A3D38UO96N9SB0","either","8","203","","","","","","","0","1","0","","0.872332114","0.8","0.6","0.4","0.2","0.872332114","0.6893924153","0.408368909","0.03767516843","","","","","","","","","","","","","","72","H","0","img/none_selected.jpg","","229","main_expt",""
"","bandit","309","742563","0.0-271.0-0.0","42431256","wem/bandit_party_2","A3D38UO96N9SB0","either","8","984","","","","","","","1","0","0","0.7967167456","","0.8","0.6","0.4","0.2","","","","","0.7967167456","0.6067604319","0.4777699032","0.05804790214","","","","","","","","","","72","H","0","img/none_selected.jpg","","230","main_expt",""
"","bandit","310","744457","0.0-272.0-0.0","42431256","wem/bandit_party_2","A3D38UO96N9SB0","either","8","388","","","","","","","0","0","1","","0.7760618079","0.8","0.6","0.4","0.2","0.7760618079","0.5037419277","0.4935442242","0.04963095007","","","","","","","","","","","","","","72","H","0","img/none_selected.jpg","","231","main_expt",""
"","bandit","311","746266","0.0-273.0-0.0","42431256","wem/bandit_party_2","A3D38UO96N9SB0","either","8","297","","","","","","","1","0","0","0.7765467853","","0.8","0.6","0.4","0.2","","","","","0.7765467853","0.4339479185","0.4889590317","0.03759782928","","","","","","","","","","72","H","0","img/none_selected.jpg","","232","main_expt",""
"","bandit","312","748138","0.0-274.0-0.0","42431256","wem/bandit_party_2","A3D38UO96N9SB0","either","8","362","","","","","","","1","0","0","0.7895219362","","0.8","0.6","0.4","0.2","","","","","0.7895219362","0.4525546635","0.5212294662","0.03147013274","","","","","","","","","","72","H","0","img/none_selected.jpg","","233","main_expt",""
"","bandit","313","749982","0.0-275.0-0.0","42431256","wem/bandit_party_2","A3D38UO96N9SB0","either","8","338","","","","","","","0","0","1","","0.7491899586","0.8","0.6","0.4","0.2","0.7491899586","0.3680080929","0.4420617392","0.03547440544","","","","","","","","","","","","","","72","H","0","img/none_selected.jpg","","234","main_expt",""
"","bandit","314","751802","0.0-276.0-0.0","42431256","wem/bandit_party_2","A3D38UO96N9SB0","either","8","311","","","","","","","0","0","1","","0.3416373547","0.8","0.6","0.4","0.2","0.7397351474","0.3416373547","0.4816955248","0.04486782706","","","","","","","","","","","","","","74","J","1","","","235","main_expt",""
"","bandit","315","753873","0.0-277.0-0.0","42431256","wem/bandit_party_2","A3D38UO96N9SB0","either","8","563","","","","","","","0","0","1","","0.03122339122","0.8","0.6","0.4","0.2","0.6587673302","0.3722877153","0.3028121716","0.03122339122","","","","","","","","","","","","","","76","L","3","","","236","main_expt",""
"","bandit","316","755776","0.0-278.0-0.0","42431256","wem/bandit_party_2","A3D38UO96N9SB0","either","8","393","","","","","","","0","0","1","","0.04191117605","0.8","0.6","0.4","0.2","0.7534934878","0.3081002542","0.3802502189","0.04191117605","","","","","","","","","","","","","","76","L","3","","","237","main_expt",""
