"consent","trial_type","trial_index","time_elapsed","internal_node_id","subjID","study","MID","cond","drift","rt","responses","button_pressed","key_press","like","value","connected","gems","bombs","no_reward","GemPrChosen","BombPrChosen","GainOverPainPr_0","GainOverPainPr_1","GainOverPainPr_2","GainOverPainPr_3","LosePr_0","LosePr_1","LosePr_2","LosePr_3","WinPr_0","WinPr_1","WinPr_2","WinPr_3","Q0","Q1","Q2","gender","age","ethnicity","label","expt_phase","target","respCharCode","respKey","respChoiceNum","respChoice","practice","trial_counter","trial_label","Q0_index"
"GDM/GDM_behavioral_consent_30min_online.html","consent","0","34051","0.0-0.0","43006764","wem/bandit_party_2","A3NQ8Y8MGI2DQ9","either","1","","","","","","","","","","","","","","","","","","","","","","","","","","","","","","","","","","","","","","","","",""
"","survey-text","1","43323","0.0-1.0","43006764","wem/bandit_party_2","A3NQ8Y8MGI2DQ9","either","1","8261","{""Q0"":""A3NQ8Y8MGI2DQ9""}","","","","","","","","","","","","","","","","","","","","","","","","","","","","","","","","","","","","","","",""
"","button-response","2","47073","0.0-2.0","43006764","wem/bandit_party_2","A3NQ8Y8MGI2DQ9","either","1","2742","","0","","","","","","","","","","","","","","","","","","","","","","","","","","","","","","","","","","","","","",""
"","text-replacement","3","61814","0.0-3.0","43006764","wem/bandit_party_2","A3NQ8Y8MGI2DQ9","either","1","13736","","","32","","","","","","","","","","","","","","","","","","","","","","","","","","","","","","","","","","","","",""
"","text-replacement","4","72028","0.0-4.0","43006764","wem/bandit_party_2","A3NQ8Y8MGI2DQ9","either","1","10210","","","32","","","","","","","","","","","","","","","","","","","","","","","","","","","","","","","","","","","","",""
"","identification","5","84313","0.0-6.0-0.0","43006764","wem/bandit_party_2","A3NQ8Y8MGI2DQ9","either","1","12256","","","","4","4","3","","","","","","","","","","","","","","","","","","","","","","","","pre","identification_pre","the Republican Party","","","","","","","",""
"","identification","6","91948","0.0-6.0-1.0","43006764","wem/bandit_party_2","A3NQ8Y8MGI2DQ9","either","1","6607","","","","1","1","1","","","","","","","","","","","","","","","","","","","","","","","","pre","identification_pre","the Democratic Party","","","","","","","",""
"","text-replacement","7","109396","0.0-7.0","43006764","wem/bandit_party_2","A3NQ8Y8MGI2DQ9","either","1","16444","","","32","","","","","","","","","","","","","","","","","","","","","","","","","","","","","","","","","","","","",""
"","text-replacement","8","120505","0.0-8.0","43006764","wem/bandit_party_2","A3NQ8Y8MGI2DQ9","either","1","11105","","","32","","","","","","","","","","","","","","","","","","","","","","","","","","","","","","","","","","","","",""
"","text-replacement","9","138272","0.0-9.0","43006764","wem/bandit_party_2","A3NQ8Y8MGI2DQ9","either","1","17764","","","32","","","","","","","","","","","","","","","","","","","","","","","","","","","","","","","","","","","","",""
"","text-replacement","10","143606","0.0-10.0","43006764","wem/bandit_party_2","A3NQ8Y8MGI2DQ9","either","1","5332","","","32","","","","","","","","","","","","","","","","","","","","","","","","","","","","","","","","","","","","",""
"","text-replacement","11","149183","0.0-11.0","43006764","wem/bandit_party_2","A3NQ8Y8MGI2DQ9","either","1","5574","","","32","","","","","","","","","","","","","","","","","","","","","","","","","","","","","","","","","","","","",""
"","bandit","12","153518","0.0-12.0-0.0","43006764","wem/bandit_party_2","A3NQ8Y8MGI2DQ9","either","1","2823","","","","","","","0","0","1","0","0","","","","","0","","","","0","","","","","","","","","","","","","74","J","0","img/none_selected_demo.jpg","true","0","",""
"","bandit","13","157583","0.0-13.0-0.0","43006764","wem/bandit_party_2","A3NQ8Y8MGI2DQ9","either","1","2556","","","","","","","0","0","1","0","0","","","","","0","","","","0","","","","","","","","","","","","","75","K","0","img/none_selected_demo.jpg","true","0","",""
"","text-replacement","14","166250","0.0-14.0","43006764","wem/bandit_party_2","A3NQ8Y8MGI2DQ9","either","1","8664","","","32","","","","","","","","","","","","","","","","","","","","","","","","","","","","","","","","","","","","",""
"","text-replacement","15","175500","0.0-15.0","43006764","wem/bandit_party_2","A3NQ8Y8MGI2DQ9","either","1","9248","","","32","","","","","","","","","","","","","","","","","","","","","","","","","","","","","","","","","","","","",""
"","text-replacement","16","186951","0.0-16.0","43006764","wem/bandit_party_2","A3NQ8Y8MGI2DQ9","either","1","11448","","","32","","","","","","","","","","","","","","","","","","","","","","","","","","","","","","","","","","","","",""
"","text-replacement","17","197024","0.0-17.0","43006764","wem/bandit_party_2","A3NQ8Y8MGI2DQ9","either","1","10072","","","32","","","","","","","","","","","","","","","","","","","","","","","","","","","","","","","","","","","","",""
"","bandit","18","199770","0.0-18.0-0.0","43006764","wem/bandit_party_2","A3NQ8Y8MGI2DQ9","either","1","1236","","","","","","","0","1","0","","0.8","0.5","0.5","","","0.8","0.2","","","","","","","","","","","","","","","","74","J","0","img/none_selected_demo.jpg","true","0","80_20_practice",""
"","bandit","19","202638","0.0-18.0-1.0","43006764","wem/bandit_party_2","A3NQ8Y8MGI2DQ9","either","1","1359","","","","","","","0","0","1","","0.2","0.5","0.5","","","0.8","0.2","","","","","","","","","","","","","","","","75","K","1","","true","0","80_20_practice",""
"","bandit","20","204915","0.0-18.0-2.0","43006764","wem/bandit_party_2","A3NQ8Y8MGI2DQ9","either","1","767","","","","","","","0","1","0","","0.8","0.5","0.5","","","0.8","0.2","","","","","","","","","","","","","","","","74","J","0","img/none_selected_demo.jpg","true","0","80_20_practice",""
"","bandit","21","207016","0.0-18.0-3.0","43006764","wem/bandit_party_2","A3NQ8Y8MGI2DQ9","either","1","592","","","","","","","0","0","1","0.8","","0.5","0.5","","","","","","","0.8","0.2","","","","","","","","","","","","74","J","0","img/none_selected_demo.jpg","true","0","80_20_practice",""
"","bandit","22","209170","0.0-18.0-4.0","43006764","wem/bandit_party_2","A3NQ8Y8MGI2DQ9","either","1","644","","","","","","","0","0","1","","0.2","0.5","0.5","","","0.8","0.2","","","","","","","","","","","","","","","","75","K","1","","true","0","80_20_practice",""
"","bandit","23","211458","0.0-18.0-5.0","43006764","wem/bandit_party_2","A3NQ8Y8MGI2DQ9","either","1","779","","","","","","","0","1","0","","0.8","0.5","0.5","","","0.8","0.2","","","","","","","","","","","","","","","","74","J","0","img/none_selected_demo.jpg","true","0","80_20_practice",""
"","bandit","24","213903","0.0-18.0-6.0","43006764","wem/bandit_party_2","A3NQ8Y8MGI2DQ9","either","1","935","","","","","","","0","1","0","","0.8","0.5","0.5","","","0.8","0.2","","","","","","","","","","","","","","","","74","J","0","img/none_selected_demo.jpg","true","0","80_20_practice",""
"","bandit","25","215810","0.0-18.0-7.0","43006764","wem/bandit_party_2","A3NQ8Y8MGI2DQ9","either","1","397","","","","","","","0","1","0","","0.8","0.5","0.5","","","0.8","0.2","","","","","","","","","","","","","","","","74","J","0","img/none_selected_demo.jpg","true","0","80_20_practice",""
"","bandit","26","217780","0.0-18.0-8.0","43006764","wem/bandit_party_2","A3NQ8Y8MGI2DQ9","either","1","463","","","","","","","0","0","1","","0.8","0.5","0.5","","","0.8","0.2","","","","","","","","","","","","","","","","74","J","0","img/none_selected_demo.jpg","true","0","80_20_practice",""
"","bandit","27","219705","0.0-18.0-9.0","43006764","wem/bandit_party_2","A3NQ8Y8MGI2DQ9","either","1","418","","","","","","","0","1","0","","0.8","0.5","0.5","","","0.8","0.2","","","","","","","","","","","","","","","","74","J","0","img/none_selected_demo.jpg","true","0","80_20_practice",""
"","bandit","28","221540","0.0-18.0-10.0","43006764","wem/bandit_party_2","A3NQ8Y8MGI2DQ9","either","1","326","","","","","","","0","1","0","","0.8","0.5","0.5","","","0.8","0.2","","","","","","","","","","","","","","","","74","J","0","img/none_selected_demo.jpg","true","0","80_20_practice",""
"","bandit","29","223404","0.0-18.0-11.0","43006764","wem/bandit_party_2","A3NQ8Y8MGI2DQ9","either","1","355","","","","","","","0","1","0","","0.8","0.5","0.5","","","0.8","0.2","","","","","","","","","","","","","","","","74","J","0","img/none_selected_demo.jpg","true","0","80_20_practice",""
"","bandit","30","225554","0.0-18.0-12.0","43006764","wem/bandit_party_2","A3NQ8Y8MGI2DQ9","either","1","641","","","","","","","0","0","1","0.2","","0.5","0.5","","","","","","","0.8","0.2","","","","","","","","","","","","75","K","1","","true","0","80_20_practice",""
"","bandit","31","227455","0.0-18.0-13.0","43006764","wem/bandit_party_2","A3NQ8Y8MGI2DQ9","either","1","391","","","","","","","0","0","1","0.2","","0.5","0.5","","","","","","","0.8","0.2","","","","","","","","","","","","75","K","1","","true","0","80_20_practice",""
"","bandit","32","229499","0.0-18.0-14.0","43006764","wem/bandit_party_2","A3NQ8Y8MGI2DQ9","either","1","535","","","","","","","0","1","0","","0.8","0.5","0.5","","","0.8","0.2","","","","","","","","","","","","","","","","74","J","0","img/none_selected_demo.jpg","true","0","80_20_practice",""
"","bandit","33","232209","0.0-18.0-15.0","43006764","wem/bandit_party_2","A3NQ8Y8MGI2DQ9","either","1","1200","","","","","","","0","1","0","","0.8","0.5","0.5","","","0.8","0.2","","","","","","","","","","","","","","","","74","J","0","img/none_selected_demo.jpg","true","0","80_20_practice",""
"","bandit","34","234043","0.0-18.0-16.0","43006764","wem/bandit_party_2","A3NQ8Y8MGI2DQ9","either","1","324","","","","","","","1","0","0","0.8","","0.5","0.5","","","","","","","0.8","0.2","","","","","","","","","","","","74","J","0","img/none_selected_demo.jpg","true","0","80_20_practice",""
"","bandit","35","236427","0.0-18.0-17.0","43006764","wem/bandit_party_2","A3NQ8Y8MGI2DQ9","either","1","873","","","","","","","0","1","0","","0.8","0.5","0.5","","","0.8","0.2","","","","","","","","","","","","","","","","74","J","0","img/none_selected_demo.jpg","true","0","80_20_practice",""
"","bandit","36","238363","0.0-18.0-18.0","43006764","wem/bandit_party_2","A3NQ8Y8MGI2DQ9","either","1","426","","","","","","","1","0","0","0.8","","0.5","0.5","","","","","","","0.8","0.2","","","","","","","","","","","","74","J","0","img/none_selected_demo.jpg","true","0","80_20_practice",""
"","bandit","37","240331","0.0-18.0-19.0","43006764","wem/bandit_party_2","A3NQ8Y8MGI2DQ9","either","1","458","","","","","","","0","0","1","","0.8","0.5","0.5","","","0.8","0.2","","","","","","","","","","","","","","","","74","J","0","img/none_selected_demo.jpg","true","0","80_20_practice",""
"","text-replacement","38","244521","0.0-19.0","43006764","wem/bandit_party_2","A3NQ8Y8MGI2DQ9","either","1","4186","","","32","","","","","","","","","","","","","","","","","","","","","","","","","","","","","","","","","","","","",""
"","bandit","39","247077","0.0-20.0-0.0","43006764","wem/bandit_party_2","A3NQ8Y8MGI2DQ9","either","1","1046","","","","","","","1","0","0","1","0","","","","","0","1","","","1","0","","","","","","","","","","","","74","J","0","img/none_selected_demo.jpg","true","0","",""
"","text-replacement","40","255453","0.0-21.0","43006764","wem/bandit_party_2","A3NQ8Y8MGI2DQ9","either","1","8372","","","32","","","","","","","","","","","","","","","","","","","","","","","","","","","","","","","","","","","","",""
"","text-replacement","41","260991","0.0-22.0","43006764","wem/bandit_party_2","A3NQ8Y8MGI2DQ9","either","1","5534","","","32","","","","","","","","","","","","","","","","","","","","","","","","","","","","","","","","","","","","",""
"","text-replacement","42","264617","0.0-23.0","43006764","wem/bandit_party_2","A3NQ8Y8MGI2DQ9","either","1","3623","","","32","","","","","","","","","","","","","","","","","","","","","","","","","","","","","","","","","","","","",""
"","text-replacement","43","270079","0.0-24.0","43006764","wem/bandit_party_2","A3NQ8Y8MGI2DQ9","either","1","5458","","","32","","","","","","","","","","","","","","","","","","","","","","","","","","","","","","","","","","","","",""
"","text-replacement","44","279962","0.0-25.0","43006764","wem/bandit_party_2","A3NQ8Y8MGI2DQ9","either","1","9878","","","32","","","","","","","","","","","","","","","","","","","","","","","","","","","","","","","","","","","","",""
"","text-replacement","45","288146","0.0-26.0","43006764","wem/bandit_party_2","A3NQ8Y8MGI2DQ9","either","1","8179","","","32","","","","","","","","","","","","","","","","","","","","","","","","","","","","","","","","","","","","",""
"","text-replacement","46","294875","0.0-27.0","43006764","wem/bandit_party_2","A3NQ8Y8MGI2DQ9","either","1","6725","","","32","","","","","","","","","","","","","","","","","","","","","","","","","","","","","","","","","","","","",""
"","text-replacement","47","299818","0.0-28.0","43006764","wem/bandit_party_2","A3NQ8Y8MGI2DQ9","either","1","4940","","","32","","","","","","","","","","","","","","","","","","","","","","","","","","","","","","","","","","","","",""
"","text-replacement","48","309159","0.0-29.0","43006764","wem/bandit_party_2","A3NQ8Y8MGI2DQ9","either","1","9338","","","32","","","","","","","","","","","","","","","","","","","","","","","","","","","","","","","","","","","","",""
"","text-replacement","49","311653","0.0-30.0","43006764","wem/bandit_party_2","A3NQ8Y8MGI2DQ9","either","1","2491","","","32","","","","","","","","","","","","","","","","","","","","","","","","","","","","","","","","","","","","",""
"","text-replacement","50","318481","0.0-31.0","43006764","wem/bandit_party_2","A3NQ8Y8MGI2DQ9","either","1","6824","","","32","","","","","","","","","","","","","","","","","","","","","","","","","","","","","","","","","","","","",""
"","bandit","51","321908","0.0-32.0-0.0","43006764","wem/bandit_party_2","A3NQ8Y8MGI2DQ9","either","1","1917","","","","","","","0","1","0","","0.8","0.5","0.5","0.5","0.5","0.8","0.2","0.6","0.2","","","","","","","","","","","","","","72","H","0","img/none_selected.jpg","true","0","full_practice",""
"","bandit","52","324110","0.0-32.0-1.0","43006764","wem/bandit_party_2","A3NQ8Y8MGI2DQ9","either","1","692","","","","","","","1","0","0","0.8","","0.5","0.5","0.5","0.5","","","","","0.8","0.2","0.6","0.2","","","","","","","","","","72","H","0","img/none_selected.jpg","true","0","full_practice",""
"","bandit","53","326044","0.0-32.0-2.0","43006764","wem/bandit_party_2","A3NQ8Y8MGI2DQ9","either","1","424","","","","","","","0","1","0","","0.8","0.5","0.5","0.5","0.5","0.8","0.2","0.6","0.2","","","","","","","","","","","","","","72","H","0","img/none_selected.jpg","true","0","full_practice",""
"","bandit","54","327975","0.0-32.0-3.0","43006764","wem/bandit_party_2","A3NQ8Y8MGI2DQ9","either","1","421","","","","","","","0","1","0","","0.8","0.5","0.5","0.5","0.5","0.8","0.2","0.6","0.2","","","","","","","","","","","","","","72","H","0","img/none_selected.jpg","true","0","full_practice",""
"","bandit","55","329872","0.0-32.0-4.0","43006764","wem/bandit_party_2","A3NQ8Y8MGI2DQ9","either","1","386","","","","","","","0","0","1","0.8","","0.5","0.5","0.5","0.5","","","","","0.8","0.2","0.6","0.2","","","","","","","","","","72","H","0","img/none_selected.jpg","true","0","full_practice",""
"","bandit","56","331564","0.0-32.0-5.0","43006764","wem/bandit_party_2","A3NQ8Y8MGI2DQ9","either","1","181","","","","","","","1","0","0","0.8","","0.5","0.5","0.5","0.5","","","","","0.8","0.2","0.6","0.2","","","","","","","","","","72","H","0","img/none_selected.jpg","true","0","full_practice",""
"","bandit","57","334188","0.0-32.0-6.0","43006764","wem/bandit_party_2","A3NQ8Y8MGI2DQ9","either","1","1115","","","","","","","0","1","0","","0.8","0.5","0.5","0.5","0.5","0.8","0.2","0.6","0.2","","","","","","","","","","","","","","72","H","0","img/none_selected.jpg","true","0","full_practice",""
"","bandit","58","336320","0.0-32.0-7.0","43006764","wem/bandit_party_2","A3NQ8Y8MGI2DQ9","either","1","622","","","","","","","1","0","0","0.8","","0.5","0.5","0.5","0.5","","","","","0.8","0.2","0.6","0.2","","","","","","","","","","72","H","0","img/none_selected.jpg","true","0","full_practice",""
"","bandit","59","338504","0.0-32.0-8.0","43006764","wem/bandit_party_2","A3NQ8Y8MGI2DQ9","either","1","673","","","","","","","1","0","0","0.8","","0.5","0.5","0.5","0.5","","","","","0.8","0.2","0.6","0.2","","","","","","","","","","72","H","0","img/none_selected.jpg","true","0","full_practice",""
"","bandit","60","340448","0.0-32.0-9.0","43006764","wem/bandit_party_2","A3NQ8Y8MGI2DQ9","either","1","434","","","","","","","1","0","0","0.8","","0.5","0.5","0.5","0.5","","","","","0.8","0.2","0.6","0.2","","","","","","","","","","72","H","0","img/none_selected.jpg","true","0","full_practice",""
"","bandit","61","342507","0.0-32.0-10.0","43006764","wem/bandit_party_2","A3NQ8Y8MGI2DQ9","either","1","548","","","","","","","1","0","0","0.8","","0.5","0.5","0.5","0.5","","","","","0.8","0.2","0.6","0.2","","","","","","","","","","72","H","0","img/none_selected.jpg","true","0","full_practice",""
"","bandit","62","344627","0.0-32.0-11.0","43006764","wem/bandit_party_2","A3NQ8Y8MGI2DQ9","either","1","610","","","","","","","1","0","0","0.8","","0.5","0.5","0.5","0.5","","","","","0.8","0.2","0.6","0.2","","","","","","","","","","72","H","0","img/none_selected.jpg","true","0","full_practice",""
"","bandit","63","346669","0.0-32.0-12.0","43006764","wem/bandit_party_2","A3NQ8Y8MGI2DQ9","either","1","532","","","","","","","0","0","1","0.8","","0.5","0.5","0.5","0.5","","","","","0.8","0.2","0.6","0.2","","","","","","","","","","72","H","0","img/none_selected.jpg","true","0","full_practice",""
"","bandit","64","348657","0.0-32.0-13.0","43006764","wem/bandit_party_2","A3NQ8Y8MGI2DQ9","either","1","477","","","","","","","1","0","0","0.8","","0.5","0.5","0.5","0.5","","","","","0.8","0.2","0.6","0.2","","","","","","","","","","72","H","0","img/none_selected.jpg","true","0","full_practice",""
"","bandit","65","350568","0.0-32.0-14.0","43006764","wem/bandit_party_2","A3NQ8Y8MGI2DQ9","either","1","400","","","","","","","0","1","0","","0.8","0.5","0.5","0.5","0.5","0.8","0.2","0.6","0.2","","","","","","","","","","","","","","72","H","0","img/none_selected.jpg","true","0","full_practice",""
"","bandit","66","352373","0.0-32.0-15.0","43006764","wem/bandit_party_2","A3NQ8Y8MGI2DQ9","either","1","295","","","","","","","0","1","0","","0.8","0.5","0.5","0.5","0.5","0.8","0.2","0.6","0.2","","","","","","","","","","","","","","72","H","0","img/none_selected.jpg","true","0","full_practice",""
"","bandit","67","354140","0.0-32.0-16.0","43006764","wem/bandit_party_2","A3NQ8Y8MGI2DQ9","either","1","255","","","","","","","1","0","0","0.8","","0.5","0.5","0.5","0.5","","","","","0.8","0.2","0.6","0.2","","","","","","","","","","72","H","0","img/none_selected.jpg","true","0","full_practice",""
"","bandit","68","355970","0.0-32.0-17.0","43006764","wem/bandit_party_2","A3NQ8Y8MGI2DQ9","either","1","320","","","","","","","0","1","0","","0.8","0.5","0.5","0.5","0.5","0.8","0.2","0.6","0.2","","","","","","","","","","","","","","72","H","0","img/none_selected.jpg","true","0","full_practice",""
"","bandit","69","357825","0.0-32.0-18.0","43006764","wem/bandit_party_2","A3NQ8Y8MGI2DQ9","either","1","342","","","","","","","1","0","0","0.8","","0.5","0.5","0.5","0.5","","","","","0.8","0.2","0.6","0.2","","","","","","","","","","72","H","0","img/none_selected.jpg","true","0","full_practice",""
"","bandit","70","359814","0.0-32.0-19.0","43006764","wem/bandit_party_2","A3NQ8Y8MGI2DQ9","either","1","479","","","","","","","0","1","0","","0.8","0.5","0.5","0.5","0.5","0.8","0.2","0.6","0.2","","","","","","","","","","","","","","72","H","0","img/none_selected.jpg","true","0","full_practice",""
"","text","71","364968","0.0-33.0","43006764","wem/bandit_party_2","A3NQ8Y8MGI2DQ9","either","1","5135","","","32","","","","","","","","","","","","","","","","","","","","","","","","","","","","","","","","","","","","",""
"","text-replacement","72","405244","0.0-34.0","43006764","wem/bandit_party_2","A3NQ8Y8MGI2DQ9","either","1","39271","","","32","","","","","","","","","","","","","","","","","","","","","","","","","","","","","","","","","","","","",""
"","text-replacement","73","421151","0.0-35.0","43006764","wem/bandit_party_2","A3NQ8Y8MGI2DQ9","either","1","15903","","","32","","","","","","","","","","","","","","","","","","","","","","","","","","","","","","","","","","","","",""
"","text-replacement","74","434118","0.0-36.0","43006764","wem/bandit_party_2","A3NQ8Y8MGI2DQ9","either","1","12963","","","32","","","","","","","","","","","","","","","","","","","","","","","","","","","","","","","","","","","","",""
"","text-replacement","75","443054","0.0-37.0","43006764","wem/bandit_party_2","A3NQ8Y8MGI2DQ9","either","1","8930","","","32","","","","","","","","","","","","","","","","","","","","","","","","","","","","","","","","","","","","",""
"","text-replacement","76","452141","0.0-38.0","43006764","wem/bandit_party_2","A3NQ8Y8MGI2DQ9","either","1","9082","","","32","","","","","","","","","","","","","","","","","","","","","","","","","","","","","","","","","","","","",""
"","survey-multi-choice-replacement","77","462320","0.0-39.0-0.0","43006764","wem/bandit_party_2","A3NQ8Y8MGI2DQ9","either","1","10164","","","","","","","","","","","","","","","","","","","","","","","","Money will be added to the pool for <span style='color:red;'>REPUBLICANS</span>","","","","","","","attn_check","","","","","","","","","0"
"","survey-multi-choice-replacement","78","471566","0.0-40.0-0.0","43006764","wem/bandit_party_2","A3NQ8Y8MGI2DQ9","either","1","8231","","","","","","","","","","","","","","","","","","","","","","","","Equal amounts of money will be added to the pool for <span style='color:red;'>REPUBLICANS</span> and subtracted from the pool for <span style='color:blue;'>DEMOCRATS</span>","","","","","","","attn_check","","","","","","","","","2"
"","survey-multi-choice-replacement","79","479234","0.0-41.0-0.0","43006764","wem/bandit_party_2","A3NQ8Y8MGI2DQ9","either","1","6651","","","","","","","","","","","","","","","","","","","","","","","","No money will be added to either pool","","","","","","","attn_check","","","","","","","","","3"
"","bandit","80","486835","0.0-42.0-0.0","43006764","wem/bandit_party_2","A3NQ8Y8MGI2DQ9","either","1","5083","","","","","","","1","0","0","0.7674833066","","0.4","0.6","0.2","0.8","","","","","0.4995060561","0.7674833066","0.5202783506","0.8101107889","","","","","","","","","","74","J","1","","","1","main_expt",""
"","bandit","81","489031","0.0-43.0-0.0","43006764","wem/bandit_party_2","A3NQ8Y8MGI2DQ9","either","1","686","","","","","","","1","0","0","0.7786696111","","0.4","0.6","0.2","0.8","","","","","0.4452888422","0.7786696111","0.4559554218","0.8827976921","","","","","","","","","","74","J","1","","","2","main_expt",""
"","bandit","82","491411","0.0-44.0-0.0","43006764","wem/bandit_party_2","A3NQ8Y8MGI2DQ9","either","1","868","","","","","","","0","1","0","","0.7883912796","0.4","0.6","0.2","0.8","0.4956599627","0.7883912796","0.3791335739","0.918633781","","","","","","","","","","","","","","74","J","1","","","3","main_expt",""
"","bandit","83","493840","0.0-45.0-0.0","43006764","wem/bandit_party_2","A3NQ8Y8MGI2DQ9","either","1","917","","","","","","","1","0","0","0.8311681014","","0.4","0.6","0.2","0.8","","","","","0.3939226057","0.8311681014","0.362446662","0.8961075186","","","","","","","","","","74","J","1","","","4","main_expt",""
"","bandit","84","496395","0.0-46.0-0.0","43006764","wem/bandit_party_2","A3NQ8Y8MGI2DQ9","either","1","1045","","","","","","","0","0","1","0.706748425","","0.4","0.6","0.2","0.8","","","","","0.4737796053","0.706748425","0.4337427147","0.9065038385","","","","","","","","","","74","J","1","","","5","main_expt",""
"","bandit","85","498600","0.0-47.0-0.0","43006764","wem/bandit_party_2","A3NQ8Y8MGI2DQ9","either","1","695","","","","","","","0","0","1","0.7246132019","","0.4","0.6","0.2","0.8","","","","","0.5798080576","0.7246132019","0.4260566605","0.9628954729","","","","","","","","","","74","J","1","","","6","main_expt",""
"","bandit","86","500725","0.0-48.0-0.0","43006764","wem/bandit_party_2","A3NQ8Y8MGI2DQ9","either","1","613","","","","","","","0","1","0","","0.822103072","0.4","0.6","0.2","0.8","0.6184433593","0.822103072","0.5595739282","0.9244273404","","","","","","","","","","","","","","74","J","1","","","7","main_expt",""
"","bandit","87","503118","0.0-49.0-0.0","43006764","wem/bandit_party_2","A3NQ8Y8MGI2DQ9","either","1","882","","","","","","","1","0","0","0.8176183596","","0.4","0.6","0.2","0.8","","","","","0.5380809204","0.8176183596","0.5757792393","0.9214665689","","","","","","","","","","74","J","1","","","8","main_expt",""
"","bandit","88","505513","0.0-50.0-0.0","43006764","wem/bandit_party_2","A3NQ8Y8MGI2DQ9","either","1","885","","","","","","","0","1","0","","0.7421782695","0.4","0.6","0.2","0.8","0.4884558296","0.7421782695","0.5508288143","0.9604963414","","","","","","","","","","","","","","74","J","1","","","9","main_expt",""
"","bandit","89","507601","0.0-51.0-0.0","43006764","wem/bandit_party_2","A3NQ8Y8MGI2DQ9","either","1","569","","","","","","","0","0","1","","0.7112185725","0.4","0.6","0.2","0.8","0.6062827564","0.7112185725","0.4615344473","0.973544224","","","","","","","","","","","","","","74","J","1","","","10","main_expt",""
"","bandit","90","509761","0.0-52.0-0.0","43006764","wem/bandit_party_2","A3NQ8Y8MGI2DQ9","either","1","648","","","","","","","1","0","0","0.6656122322","","0.4","0.6","0.2","0.8","","","","","0.6618996933","0.6656122322","0.4731032433","0.9756729976","","","","","","","","","","74","J","1","","","11","main_expt",""
"","bandit","91","512053","0.0-53.0-0.0","43006764","wem/bandit_party_2","A3NQ8Y8MGI2DQ9","either","1","782","","","","","","","0","1","0","","0.632951522","0.4","0.6","0.2","0.8","0.6589688621","0.632951522","0.5028989732","0.9824084628","","","","","","","","","","","","","","74","J","1","","","12","main_expt",""
"","bandit","92","514337","0.0-54.0-0.0","43006764","wem/bandit_party_2","A3NQ8Y8MGI2DQ9","either","1","772","","","","","","","0","1","0","","0.6428643634","0.4","0.6","0.2","0.8","0.7483501345","0.6428643634","0.5252386458","0.9852841122","","","","","","","","","","","","","","74","J","1","","","13","main_expt",""
"","bandit","93","516577","0.0-55.0-0.0","43006764","wem/bandit_party_2","A3NQ8Y8MGI2DQ9","either","1","730","","","","","","","0","0","1","","0.5693663763","0.4","0.6","0.2","0.8","0.7642220585","0.5693663763","0.4883642101","0.9844185579","","","","","","","","","","","","","","74","J","1","","","14","main_expt",""
"","bandit","94","518564","0.0-56.0-0.0","43006764","wem/bandit_party_2","A3NQ8Y8MGI2DQ9","either","1","476","","","","","","","1","0","0","0.6354763258","","0.4","0.6","0.2","0.8","","","","","0.8255663415","0.6354763258","0.5125695872","0.9716790186","","","","","","","","","","74","J","1","","","15","main_expt",""
"","bandit","95","521018","0.0-57.0-0.0","43006764","wem/bandit_party_2","A3NQ8Y8MGI2DQ9","either","1","942","","","","","","","0","0","1","","0.6074668868","0.4","0.6","0.2","0.8","0.8262734196","0.6074668868","0.483313844","0.9724226268","","","","","","","","","","","","","","74","J","1","","","16","main_expt",""
"","bandit","96","523092","0.0-58.0-0.0","43006764","wem/bandit_party_2","A3NQ8Y8MGI2DQ9","either","1","563","","","","","","","1","0","0","0.634379517","","0.4","0.6","0.2","0.8","","","","","0.8957105494","0.634379517","0.4764119597","0.969397438","","","","","","","","","","74","J","1","","","17","main_expt",""
"","bandit","97","525463","0.0-59.0-0.0","43006764","wem/bandit_party_2","A3NQ8Y8MGI2DQ9","either","1","860","","","","","","","1","0","0","0.7399013172","","0.4","0.6","0.2","0.8","","","","","0.8243017832","0.7399013172","0.4742144938","0.9487821198","","","","","","","","","","74","J","1","","","18","main_expt",""
"","bandit","98","527712","0.0-60.0-0.0","43006764","wem/bandit_party_2","A3NQ8Y8MGI2DQ9","either","1","739","","","","","","","1","0","0","0.6892422428","","0.4","0.6","0.2","0.8","","","","","0.8174393347","0.6892422428","0.5445729057","0.8822386923","","","","","","","","","","74","J","1","","","19","main_expt",""
"","bandit","99","529912","0.0-61.0-0.0","43006764","wem/bandit_party_2","A3NQ8Y8MGI2DQ9","either","1","692","","","","","","","0","0","1","","0.5544472153","0.4","0.6","0.2","0.8","0.8457625901","0.5544472153","0.5114357523","0.8658452863","","","","","","","","","","","","","","74","J","1","","","20","main_expt",""
"","bandit","100","531938","0.0-62.0-0.0","43006764","wem/bandit_party_2","A3NQ8Y8MGI2DQ9","either","1","514","","","","","","","1","0","0","0.4705077418","","0.4","0.6","0.2","0.8","","","","","0.8565453533","0.4705077418","0.4948626968","0.8597265301","","","","","","","","","","74","J","1","","","21","main_expt",""
"","bandit","101","534172","0.0-63.0-0.0","43006764","wem/bandit_party_2","A3NQ8Y8MGI2DQ9","either","1","722","","","","","","","1","0","0","0.5364913494","","0.4","0.6","0.2","0.8","","","","","0.8821281293","0.5364913494","0.3750889156","0.929530396","","","","","","","","","","74","J","1","","","22","main_expt",""
"","bandit","102","536404","0.0-64.0-0.0","43006764","wem/bandit_party_2","A3NQ8Y8MGI2DQ9","either","1","721","","","","","","","1","0","0","0.5450887529","","0.4","0.6","0.2","0.8","","","","","0.8253896901","0.5450887529","0.3874093852","0.9149061772","","","","","","","","","","74","J","1","","","23","main_expt",""
"","bandit","103","538582","0.0-65.0-0.0","43006764","wem/bandit_party_2","A3NQ8Y8MGI2DQ9","either","1","667","","","","","","","0","0","1","","0.6013055931","0.4","0.6","0.2","0.8","0.8682133559","0.6013055931","0.4126546177","0.9389899916","","","","","","","","","","","","","","74","J","1","","","24","main_expt",""
"","bandit","104","540705","0.0-66.0-0.0","43006764","wem/bandit_party_2","A3NQ8Y8MGI2DQ9","either","1","612","","","","","","","1","0","0","0.7116226269","","0.4","0.6","0.2","0.8","","","","","0.8186134727","0.7116226269","0.3871809826","0.9583062328","","","","","","","","","","74","J","1","","","25","main_expt",""
"","bandit","105","542952","0.0-67.0-0.0","43006764","wem/bandit_party_2","A3NQ8Y8MGI2DQ9","either","1","736","","","","","","","0","1","0","","0.7284905038","0.4","0.6","0.2","0.8","0.841170918","0.7284905038","0.4162773602","0.9349434311","","","","","","","","","","","","","","74","J","1","","","26","main_expt",""
"","bandit","106","545563","0.0-68.0-0.0","43006764","wem/bandit_party_2","A3NQ8Y8MGI2DQ9","either","1","1097","","","","","","","0","0","1","0.7007901837","","0.4","0.6","0.2","0.8","","","","","0.8332298301","0.7007901837","0.4153433109","0.9147743466","","","","","","","","","","74","J","1","","","27","main_expt",""
"","bandit","107","547642","0.0-69.0-0.0","43006764","wem/bandit_party_2","A3NQ8Y8MGI2DQ9","either","1","568","","","","","","","1","0","0","0.7197690037","","0.4","0.6","0.2","0.8","","","","","0.8340804883","0.7197690037","0.3083156359","0.8913744663","","","","","","","","","","74","J","1","","","28","main_expt",""
"","bandit","108","550040","0.0-70.0-0.0","43006764","wem/bandit_party_2","A3NQ8Y8MGI2DQ9","either","1","885","","","","","","","1","0","0","0.7569205749","","0.4","0.6","0.2","0.8","","","","","0.8800986549","0.7569205749","0.4048150761","0.9004815278","","","","","","","","","","74","J","1","","","29","main_expt",""
"","bandit","109","552087","0.0-71.0-0.0","43006764","wem/bandit_party_2","A3NQ8Y8MGI2DQ9","either","1","535","","","","","","","0","1","0","","0.7007062976","0.4","0.6","0.2","0.8","0.800988266","0.7007062976","0.5604470694","0.8335499875","","","","","","","","","","","","","","74","J","1","","","30","main_expt",""
"","bandit","110","554193","0.0-72.0-0.0","43006764","wem/bandit_party_2","A3NQ8Y8MGI2DQ9","either","1","595","","","","","","","0","0","1","","0.6218809145","0.4","0.6","0.2","0.8","0.8092707987","0.6218809145","0.5114456598","0.7904098286","","","","","","","","","","","","","","74","J","1","","","31","main_expt",""
"","bandit","111","556284","0.0-73.0-0.0","43006764","wem/bandit_party_2","A3NQ8Y8MGI2DQ9","either","1","584","","","","","","","1","0","0","0.5448888872","","0.4","0.6","0.2","0.8","","","","","0.7600689364","0.5448888872","0.5195843055","0.8156470634","","","","","","","","","","74","J","1","","","32","main_expt",""
"","bandit","112","558438","0.0-74.0-0.0","43006764","wem/bandit_party_2","A3NQ8Y8MGI2DQ9","either","1","641","","","","","","","0","0","1","","0.4396040002","0.4","0.6","0.2","0.8","0.7268405739","0.4396040002","0.4278216128","0.7458483223","","","","","","","","","","","","","","74","J","1","","","33","main_expt",""
"","bandit","113","560373","0.0-75.0-0.0","43006764","wem/bandit_party_2","A3NQ8Y8MGI2DQ9","either","1","422","","","","","","","0","0","1","","0.3418027302","0.4","0.6","0.2","0.8","0.7867385379","0.3418027302","0.4581725564","0.8745519215","","","","","","","","","","","","","","74","J","1","","","34","main_expt",""
"","bandit","114","562366","0.0-76.0-0.0","43006764","wem/bandit_party_2","A3NQ8Y8MGI2DQ9","either","1","475","","","","","","","0","0","1","0.3770378826","","0.4","0.6","0.2","0.8","","","","","0.7776722478","0.3770378826","0.5170179058","0.8761773117","","","","","","","","","","74","J","1","","","35","main_expt",""
"","bandit","115","564407","0.0-77.0-0.0","43006764","wem/bandit_party_2","A3NQ8Y8MGI2DQ9","either","1","524","","","","","","","0","0","1","0.3264650107","","0.4","0.6","0.2","0.8","","","","","0.8110731924","0.3264650107","0.5761285305","0.8898579413","","","","","","","","","","74","J","1","","","36","main_expt",""
"","bandit","116","567648","0.0-78.0-0.0","43006764","wem/bandit_party_2","A3NQ8Y8MGI2DQ9","either","1","1730","","","","","","","0","1","0","","0.5824592389","0.4","0.6","0.2","0.8","0.8371501114","0.1696248696","0.5824592389","0.9189960073","","","","","","","","","","","","","","75","K","2","","","37","main_expt",""
"","bandit","117","569808","0.0-79.0-0.0","43006764","wem/bandit_party_2","A3NQ8Y8MGI2DQ9","either","1","647","","","","","","","0","1","0","","0.5039158184","0.4","0.6","0.2","0.8","0.801984358","0.3008725236","0.5039158184","0.9429067042","","","","","","","","","","","","","","75","K","2","","","38","main_expt",""
"","bandit","118","572313","0.0-80.0-0.0","43006764","wem/bandit_party_2","A3NQ8Y8MGI2DQ9","either","1","995","","","","","","","0","0","1","","0.4906961915","0.4","0.6","0.2","0.8","0.836760671","0.3612597963","0.4906961915","0.8860185862","","","","","","","","","","","","","","75","K","2","","","39","main_expt",""
"","bandit","119","574413","0.0-81.0-0.0","43006764","wem/bandit_party_2","A3NQ8Y8MGI2DQ9","either","1","586","","","","","","","0","1","0","","0.5118773476","0.4","0.6","0.2","0.8","0.7930168878","0.3316001813","0.5118773476","0.8958725565","","","","","","","","","","","","","","75","K","2","","","40","main_expt",""
"","bandit","120","576637","0.0-82.0-0.0","43006764","wem/bandit_party_2","A3NQ8Y8MGI2DQ9","either","1","714","","","","","","","0","0","1","","0.5207000815","0.4","0.6","0.2","0.8","0.6758505439","0.251761063","0.5207000815","0.8369757826","","","","","","","","","","","","","","75","K","2","","","41","main_expt",""
"","bandit","121","578824","0.0-83.0-0.0","43006764","wem/bandit_party_2","A3NQ8Y8MGI2DQ9","either","1","673","","","","","","","0","1","0","","0.6208632684","0.4","0.6","0.2","0.8","0.669091732","0.3764367217","0.6208632684","0.8724413244","","","","","","","","","","","","","","75","K","2","","","42","main_expt",""
"","bandit","122","580902","0.0-84.0-0.0","43006764","wem/bandit_party_2","A3NQ8Y8MGI2DQ9","either","1","568","","","","","","","1","0","0","0.6736877605","","0.4","0.6","0.2","0.8","","","","","0.5774386383","0.4280411123","0.6736877605","0.8721156492","","","","","","","","","","75","K","2","","","43","main_expt",""
"","bandit","123","583115","0.0-85.0-0.0","43006764","wem/bandit_party_2","A3NQ8Y8MGI2DQ9","either","1","699","","","","","","","0","1","0","","0.6770598463","0.4","0.6","0.2","0.8","0.5402750746","0.4250007774","0.6770598463","0.874486911","","","","","","","","","","","","","","75","K","2","","","44","main_expt",""
"","bandit","124","585310","0.0-86.0-0.0","43006764","wem/bandit_party_2","A3NQ8Y8MGI2DQ9","either","1","683","","","","","","","0","1","0","","0.6811336834","0.4","0.6","0.2","0.8","0.4769525635","0.3964774122","0.6811336834","0.7653026016","","","","","","","","","","","","","","75","K","2","","","45","main_expt",""
"","bandit","125","587431","0.0-87.0-0.0","43006764","wem/bandit_party_2","A3NQ8Y8MGI2DQ9","either","1","607","","","","","","","0","1","0","","0.7409040253","0.4","0.6","0.2","0.8","0.460739512","0.3755541509","0.7409040253","0.6884850605","","","","","","","","","","","","","","75","K","2","","","46","main_expt",""
"","bandit","126","589434","0.0-88.0-0.0","43006764","wem/bandit_party_2","A3NQ8Y8MGI2DQ9","either","1","491","","","","","","","0","1","0","","0.8602274841","0.4","0.6","0.2","0.8","0.3953603582","0.3698766084","0.8602274841","0.6869729855","","","","","","","","","","","","","","75","K","2","","","47","main_expt",""
"","bandit","127","591604","0.0-89.0-0.0","43006764","wem/bandit_party_2","A3NQ8Y8MGI2DQ9","either","1","656","","","","","","","1","0","0","0.8947369126","","0.4","0.6","0.2","0.8","","","","","0.5194217752","0.2924141828","0.8947369126","0.624749708","","","","","","","","","","75","K","2","","","48","main_expt",""
"","bandit","128","593845","0.0-90.0-0.0","43006764","wem/bandit_party_2","A3NQ8Y8MGI2DQ9","either","1","729","","","","","","","1","0","0","0.9071052574","","0.4","0.6","0.2","0.8","","","","","0.5015721984","0.2506794134","0.9071052574","0.6269608649","","","","","","","","","","75","K","2","","","49","main_expt",""
"","bandit","129","595994","0.0-91.0-0.0","43006764","wem/bandit_party_2","A3NQ8Y8MGI2DQ9","either","1","634","","","","","","","0","1","0","","0.8569531155","0.4","0.6","0.2","0.8","0.4427204185","0.2200095001","0.8569531155","0.5394470416","","","","","","","","","","","","","","75","K","2","","","50","main_expt",""
"","bandit","130","598210","0.0-92.0-0.0","43006764","wem/bandit_party_2","A3NQ8Y8MGI2DQ9","either","1","703","","","","","","","0","1","0","","0.8728609703","0.4","0.6","0.2","0.8","0.5194544998","0.2703780474","0.8728609703","0.4991806479","","","","","","","","","","","","","","75","K","2","","","51","main_expt",""
"","bandit","131","600424","0.0-93.0-0.0","43006764","wem/bandit_party_2","A3NQ8Y8MGI2DQ9","either","1","702","","","","","","","0","1","0","","0.902184381","0.4","0.6","0.2","0.8","0.4420680866","0.3215640211","0.902184381","0.5431464126","","","","","","","","","","","","","","75","K","2","","","52","main_expt",""
"","bandit","132","602565","0.0-94.0-0.0","43006764","wem/bandit_party_2","A3NQ8Y8MGI2DQ9","either","1","629","","","","","","","1","0","0","0.8975054296","","0.4","0.6","0.2","0.8","","","","","0.5541791803","0.2918797996","0.8975054296","0.4799783957","","","","","","","","","","75","K","2","","","53","main_expt",""
"","bandit","133","604785","0.0-95.0-0.0","43006764","wem/bandit_party_2","A3NQ8Y8MGI2DQ9","either","1","706","","","","","","","0","1","0","","0.9436546011","0.4","0.6","0.2","0.8","0.6187664305","0.2432815539","0.9436546011","0.3946877269","","","","","","","","","","","","","","75","K","2","","","54","main_expt",""
"","bandit","134","607259","0.0-96.0-0.0","43006764","wem/bandit_party_2","A3NQ8Y8MGI2DQ9","either","1","963","","","","","","","0","0","1","","0.9411334538","0.4","0.6","0.2","0.8","0.538030076","0.1993500609","0.9411334538","0.3892466866","","","","","","","","","","","","","","75","K","2","","","55","main_expt",""
"","bandit","135","609832","0.0-97.0-0.0","43006764","wem/bandit_party_2","A3NQ8Y8MGI2DQ9","either","1","1058","","","","","","","0","1","0","","0.862285227","0.4","0.6","0.2","0.8","0.5137881872","0.1832364248","0.862285227","0.347268188","","","","","","","","","","","","","","75","K","2","","","56","main_expt",""
"","bandit","136","612126","0.0-98.0-0.0","43006764","wem/bandit_party_2","A3NQ8Y8MGI2DQ9","either","1","782","","","","","","","0","1","0","","0.9034803314","0.4","0.6","0.2","0.8","0.6274604021","0.1703919496","0.9034803314","0.3462231845","","","","","","","","","","","","","","75","K","2","","","57","main_expt",""
"","bandit","137","614508","0.0-99.0-0.0","43006764","wem/bandit_party_2","A3NQ8Y8MGI2DQ9","either","1","870","","","","","","","0","0","1","","0.9062052911","0.4","0.6","0.2","0.8","0.5636132077","0.2146973212","0.9062052911","0.3707442777","","","","","","","","","","","","","","75","K","2","","","58","main_expt",""
"","bandit","138","616622","0.0-100.0-0.0","43006764","wem/bandit_party_2","A3NQ8Y8MGI2DQ9","either","1","601","","","","","","","0","1","0","","0.9169546289","0.4","0.6","0.2","0.8","0.6555757088","0.2118107272","0.9169546289","0.4530366532","","","","","","","","","","","","","","75","K","2","","","59","main_expt",""
"","bandit","139","618902","0.0-101.0-0.0","43006764","wem/bandit_party_2","A3NQ8Y8MGI2DQ9","either","1","766","","","","","","","0","1","0","","0.9048679239","0.4","0.6","0.2","0.8","0.6555481193","0.2096036334","0.9048679239","0.4335409142","","","","","","","","","","","","","","75","K","2","","","60","main_expt",""
"","bandit","140","621100","0.0-102.0-0.0","43006764","wem/bandit_party_2","A3NQ8Y8MGI2DQ9","either","1","684","","","","","","","0","1","0","","0.9346572725","0.4","0.6","0.2","0.8","0.6988977931","0.1985607356","0.9346572725","0.3601573371","","","","","","","","","","","","","","75","K","2","","","61","main_expt",""
"","bandit","141","623315","0.0-103.0-0.0","43006764","wem/bandit_party_2","A3NQ8Y8MGI2DQ9","either","1","702","","","","","","","0","1","0","","0.9332729597","0.4","0.6","0.2","0.8","0.6124712875","0.2352246004","0.9332729597","0.3187004912","","","","","","","","","","","","","","75","K","2","","","62","main_expt",""
"","bandit","142","625549","0.0-104.0-0.0","43006764","wem/bandit_party_2","A3NQ8Y8MGI2DQ9","either","1","719","","","","","","","0","1","0","","0.9300142507","0.4","0.6","0.2","0.8","0.4881994696","0.1989126294","0.9300142507","0.331276396","","","","","","","","","","","","","","75","K","2","","","63","main_expt",""
"","bandit","143","627757","0.0-105.0-0.0","43006764","wem/bandit_party_2","A3NQ8Y8MGI2DQ9","either","1","695","","","","","","","0","1","0","","0.8992917639","0.4","0.6","0.2","0.8","0.5007509184","0.2231035509","0.8992917639","0.3984677","","","","","","","","","","","","","","75","K","2","","","64","main_expt",""
"","bandit","144","629948","0.0-106.0-0.0","43006764","wem/bandit_party_2","A3NQ8Y8MGI2DQ9","either","1","676","","","","","","","1","0","0","0.7939475476","","0.4","0.6","0.2","0.8","","","","","0.6077525222","0.174077904","0.7939475476","0.3012021372","","","","","","","","","","75","K","2","","","65","main_expt",""
"","bandit","145","631965","0.0-107.0-0.0","43006764","wem/bandit_party_2","A3NQ8Y8MGI2DQ9","either","1","502","","","","","","","1","0","0","0.7848839068","","0.4","0.6","0.2","0.8","","","","","0.4876759876","0.1505104035","0.7848839068","0.2848395029","","","","","","","","","","75","K","2","","","66","main_expt",""
"","bandit","146","634185","0.0-108.0-0.0","43006764","wem/bandit_party_2","A3NQ8Y8MGI2DQ9","either","1","706","","","","","","","0","0","1","","0.7712869283","0.4","0.6","0.2","0.8","0.4705728971","0.1706094741","0.7712869283","0.2908363747","","","","","","","","","","","","","","75","K","2","","","67","main_expt",""
"","bandit","147","636502","0.0-109.0-0.0","43006764","wem/bandit_party_2","A3NQ8Y8MGI2DQ9","either","1","802","","","","","","","0","1","0","","0.7426915226","0.4","0.6","0.2","0.8","0.5822594153","0.193375558","0.7426915226","0.3226378352","","","","","","","","","","","","","","75","K","2","","","68","main_expt",""
"","bandit","148","638520","0.0-110.0-0.0","43006764","wem/bandit_party_2","A3NQ8Y8MGI2DQ9","either","1","504","","","","","","","0","1","0","","0.592712881","0.4","0.6","0.2","0.8","0.6189715015","0.226811003","0.592712881","0.4490581071","","","","","","","","","","","","","","75","K","2","","","69","main_expt",""
"","bandit","149","640727","0.0-111.0-0.0","43006764","wem/bandit_party_2","A3NQ8Y8MGI2DQ9","either","1","694","","","","","","","0","1","0","","0.6587085967","0.4","0.6","0.2","0.8","0.5307799745","0.191142909","0.6587085967","0.42365523","","","","","","","","","","","","","","75","K","2","","","70","main_expt",""
"","bandit","150","642962","0.0-112.0-0.0","43006764","wem/bandit_party_2","A3NQ8Y8MGI2DQ9","either","1","721","","","","","","","0","1","0","","0.7562029562","0.4","0.6","0.2","0.8","0.5205551237","0.2371486809","0.7562029562","0.427101634","","","","","","","","","","","","","","75","K","2","","","71","main_expt",""
"","bandit","151","645096","0.0-113.0-0.0","43006764","wem/bandit_party_2","A3NQ8Y8MGI2DQ9","either","1","621","","","","","","","0","1","0","","0.670676276","0.4","0.6","0.2","0.8","0.5913901284","0.2602117984","0.670676276","0.5387899421","","","","","","","","","","","","","","75","K","2","","","72","main_expt",""
"","bandit","152","647051","0.0-114.0-0.0","43006764","wem/bandit_party_2","A3NQ8Y8MGI2DQ9","either","1","442","","","","","","","0","1","0","","0.6870219419","0.4","0.6","0.2","0.8","0.7127465592","0.1837165363","0.6870219419","0.4931252492","","","","","","","","","","","","","","75","K","2","","","73","main_expt",""
"","bandit","153","649343","0.0-115.0-0.0","43006764","wem/bandit_party_2","A3NQ8Y8MGI2DQ9","either","1","777","","","","","","","0","0","1","","0.582898469","0.4","0.6","0.2","0.8","0.7804212289","0.2032334464","0.582898469","0.3888626504","","","","","","","","","","","","","","75","K","2","","","74","main_expt",""
"","bandit","154","651366","0.0-116.0-0.0","43006764","wem/bandit_party_2","A3NQ8Y8MGI2DQ9","either","1","508","","","","","","","0","0","1","","0.6452442043","0.4","0.6","0.2","0.8","0.7966502287","0.2782751631","0.6452442043","0.3866429177","","","","","","","","","","","","","","75","K","2","","","75","main_expt",""
"","bandit","155","653310","0.0-117.0-0.0","43006764","wem/bandit_party_2","A3NQ8Y8MGI2DQ9","either","1","430","","","","","","","0","0","1","","0.7031137023","0.4","0.6","0.2","0.8","0.7775959854","0.3318782676","0.7031137023","0.3948468247","","","","","","","","","","","","","","75","K","2","","","76","main_expt",""
"","bandit","156","655194","0.0-118.0-0.0","43006764","wem/bandit_party_2","A3NQ8Y8MGI2DQ9","either","1","372","","","","","","","0","1","0","","0.6096498107","0.4","0.6","0.2","0.8","0.8523583745","0.312607664","0.6096498107","0.4853082722","","","","","","","","","","","","","","75","K","2","","","77","main_expt",""
"","bandit","157","657288","0.0-119.0-0.0","43006764","wem/bandit_party_2","A3NQ8Y8MGI2DQ9","either","1","579","","","","","","","1","0","0","0.532302087","","0.4","0.6","0.2","0.8","","","","","0.7707034136","0.3250695504","0.532302087","0.4971609959","","","","","","","","","","75","K","2","","","78","main_expt",""
"","bandit","158","659311","0.0-120.0-0.0","43006764","wem/bandit_party_2","A3NQ8Y8MGI2DQ9","either","1","509","","","","","","","0","0","1","","0.4448734945","0.4","0.6","0.2","0.8","0.7919080975","0.277144637","0.4448734945","0.5349041547","","","","","","","","","","","","","","75","K","2","","","79","main_expt",""
"","bandit","159","661219","0.0-121.0-0.0","43006764","wem/bandit_party_2","A3NQ8Y8MGI2DQ9","either","1","395","","","","","","","0","0","1","0.34513516","","0.4","0.6","0.2","0.8","","","","","0.8107458935","0.293018971","0.34513516","0.4713204996","","","","","","","","","","75","K","2","","","80","main_expt",""
"","bandit","160","663138","0.0-122.0-0.0","43006764","wem/bandit_party_2","A3NQ8Y8MGI2DQ9","either","1","405","","","","","","","0","0","1","","0.406584365","0.4","0.6","0.2","0.8","0.7851591746","0.2730851157","0.406584365","0.4132476049","","","","","","","","","","","","","","75","K","2","","","81","main_expt",""
"","bandit","161","665103","0.0-123.0-0.0","43006764","wem/bandit_party_2","A3NQ8Y8MGI2DQ9","either","1","454","","","","","","","0","0","1","","0.5068312928","0.4","0.6","0.2","0.8","0.8067558171","0.2436011542","0.5068312928","0.4640808921","","","","","","","","","","","","","","75","K","2","","","82","main_expt",""
"","bandit","162","666976","0.0-124.0-0.0","43006764","wem/bandit_party_2","A3NQ8Y8MGI2DQ9","either","1","357","","","","","","","0","1","0","","0.442115463","0.4","0.6","0.2","0.8","0.7777816444","0.2009218657","0.5209063211","0.442115463","","","","","","","","","","","","","","76","L","3","","","83","main_expt",""
"","bandit","163","669186","0.0-125.0-0.0","43006764","wem/bandit_party_2","A3NQ8Y8MGI2DQ9","either","1","696","","","","","","","0","0","1","0.5117806844","","0.4","0.6","0.2","0.8","","","","","0.7801041195","0.1550904625","0.6221591745","0.5117806844","","","","","","","","","","76","L","3","","","84","main_expt",""
"","bandit","164","671095","0.0-126.0-0.0","43006764","wem/bandit_party_2","A3NQ8Y8MGI2DQ9","either","1","395","","","","","","","0","0","1","0.5309627618","","0.4","0.6","0.2","0.8","","","","","0.7593249252","0.1193398435","0.6939346182","0.5309627618","","","","","","","","","","76","L","3","","","85","main_expt",""
"","bandit","165","673179","0.0-127.0-0.0","43006764","wem/bandit_party_2","A3NQ8Y8MGI2DQ9","either","1","568","","","","","","","0","0","1","0.7911667705","","0.4","0.6","0.2","0.8","","","","","0.7911667705","0.1398572341","0.7533471596","0.5482659382","","","","","","","","","","72","H","0","img/none_selected.jpg","","86","main_expt",""
"","bandit","166","675063","0.0-128.0-0.0","43006764","wem/bandit_party_2","A3NQ8Y8MGI2DQ9","either","1","369","","","","","","","1","0","0","0.8480662183","","0.4","0.6","0.2","0.8","","","","","0.8480662183","0.1941505275","0.8040573679","0.4772076429","","","","","","","","","","72","H","0","img/none_selected.jpg","","87","main_expt",""
"","bandit","167","677091","0.0-129.0-0.0","43006764","wem/bandit_party_2","A3NQ8Y8MGI2DQ9","either","1","514","","","","","","","0","1","0","","0.8110462569","0.4","0.6","0.2","0.8","0.8110462569","0.09645570925","0.7800800897","0.5202977678","","","","","","","","","","","","","","72","H","0","img/none_selected.jpg","","88","main_expt",""
"","bandit","168","679044","0.0-130.0-0.0","43006764","wem/bandit_party_2","A3NQ8Y8MGI2DQ9","either","1","438","","","","","","","1","0","0","0.7924414871","","0.4","0.6","0.2","0.8","","","","","0.7924414871","0.1304326216","0.7329239748","0.4970482359","","","","","","","","","","72","H","0","img/none_selected.jpg","","89","main_expt",""
"","bandit","169","680870","0.0-131.0-0.0","43006764","wem/bandit_party_2","A3NQ8Y8MGI2DQ9","either","1","312","","","","","","","1","0","0","0.8190855249","","0.4","0.6","0.2","0.8","","","","","0.8190855249","0.1410434261","0.7202813078","0.4671205494","","","","","","","","","","72","H","0","img/none_selected.jpg","","90","main_expt",""
"","bandit","170","682968","0.0-132.0-0.0","43006764","wem/bandit_party_2","A3NQ8Y8MGI2DQ9","either","1","583","","","","","","","0","1","0","","0.858270253","0.4","0.6","0.2","0.8","0.858270253","0.1277095213","0.698586111","0.5518401665","","","","","","","","","","","","","","72","H","0","img/none_selected.jpg","","91","main_expt",""
"","bandit","171","684908","0.0-133.0-0.0","43006764","wem/bandit_party_2","A3NQ8Y8MGI2DQ9","either","1","425","","","","","","","0","1","0","","0.8583259383","0.4","0.6","0.2","0.8","0.8583259383","0.08596821216","0.6054304462","0.620788192","","","","","","","","","","","","","","72","H","0","img/none_selected.jpg","","92","main_expt",""
"","bandit","172","686785","0.0-134.0-0.0","43006764","wem/bandit_party_2","A3NQ8Y8MGI2DQ9","either","1","363","","","","","","","0","1","0","","0.8335107661","0.4","0.6","0.2","0.8","0.8335107661","0.05652587691","0.6829204303","0.679669404","","","","","","","","","","","","","","72","H","0","img/none_selected.jpg","","93","main_expt",""
"","bandit","173","688666","0.0-135.0-0.0","43006764","wem/bandit_party_2","A3NQ8Y8MGI2DQ9","either","1","358","","","","","","","1","0","0","0.8849423118","","0.4","0.6","0.2","0.8","","","","","0.8849423118","0.07490457358","0.6084783934","0.6726581754","","","","","","","","","","72","H","0","img/none_selected.jpg","","94","main_expt",""
"","bandit","174","690651","0.0-136.0-0.0","43006764","wem/bandit_party_2","A3NQ8Y8MGI2DQ9","either","1","472","","","","","","","0","1","0","","0.9175662658","0.4","0.6","0.2","0.8","0.9175662658","0.05201682933","0.51962455","0.5983950962","","","","","","","","","","","","","","72","H","0","img/none_selected.jpg","","95","main_expt",""
"","bandit","175","692558","0.0-137.0-0.0","43006764","wem/bandit_party_2","A3NQ8Y8MGI2DQ9","either","1","391","","","","","","","0","1","0","","0.8726153548","0.4","0.6","0.2","0.8","0.8726153548","0.0353667714","0.453067158","0.6316158747","","","","","","","","","","","","","","72","H","0","img/none_selected.jpg","","96","main_expt",""
"","bandit","176","694437","0.0-138.0-0.0","43006764","wem/bandit_party_2","A3NQ8Y8MGI2DQ9","either","1","364","","","","","","","1","0","0","0.7260562137","","0.4","0.6","0.2","0.8","","","","","0.7260562137","0.04301306848","0.4090095009","0.6660601513","","","","","","","","","","72","H","0","img/none_selected.jpg","","97","main_expt",""
"","bandit","177","696538","0.0-139.0-0.0","43006764","wem/bandit_party_2","A3NQ8Y8MGI2DQ9","either","1","587","","","","","","","1","0","0","0.6506148609","","0.4","0.6","0.2","0.8","","","","","0.6506148609","0.03950067624","0.360727585","0.6185462561","","","","","","","","","","72","H","0","img/none_selected.jpg","","98","main_expt",""
"","bandit","178","698793","0.0-140.0-0.0","43006764","wem/bandit_party_2","A3NQ8Y8MGI2DQ9","either","1","740","","","","","","","0","0","1","","0.5816342488","0.4","0.6","0.2","0.8","0.5816342488","0.03156699585","0.3351327477","0.581128502","","","","","","","","","","","","","","72","H","0","img/none_selected.jpg","","99","main_expt",""
"","bandit","179","700730","0.0-141.0-0.0","43006764","wem/bandit_party_2","A3NQ8Y8MGI2DQ9","either","1","422","","","","","","","0","1","0","","0.5521464449","0.4","0.6","0.2","0.8","0.5521464449","0.0248161238","0.3491912274","0.479775063","","","","","","","","","","","","","","72","H","0","img/none_selected.jpg","","100","main_expt",""
"","bandit","180","702874","0.0-142.0-0.0","43006764","wem/bandit_party_2","A3NQ8Y8MGI2DQ9","either","1","630","","","","","","","0","0","1","","0.6063232436","0.4","0.6","0.2","0.8","0.6063232436","0.02218075004","0.4105375765","0.5114647241","","","","","","","","","","","","","","72","H","0","img/none_selected.jpg","","101","main_expt",""
"","bandit","181","704798","0.0-143.0-0.0","43006764","wem/bandit_party_2","A3NQ8Y8MGI2DQ9","either","1","409","","","","","","","1","0","0","0.5636213764","","0.4","0.6","0.2","0.8","","","","","0.5636213764","0.01802152149","0.438632671","0.4718740674","","","","","","","","","","72","H","0","img/none_selected.jpg","","102","main_expt",""
"","bandit","182","706875","0.0-144.0-0.0","43006764","wem/bandit_party_2","A3NQ8Y8MGI2DQ9","either","1","562","","","","","","","0","0","1","","0.5370473259","0.4","0.6","0.2","0.8","0.5370473259","0.01877214671","0.372838406","0.5245129891","","","","","","","","","","","","","","72","H","0","img/none_selected.jpg","","103","main_expt",""
"","bandit","183","708779","0.0-145.0-0.0","43006764","wem/bandit_party_2","A3NQ8Y8MGI2DQ9","either","1","388","","","","","","","1","0","0","0.549647281","","0.4","0.6","0.2","0.8","","","","","0.549647281","0.01556743346","0.3057692375","0.5170751474","","","","","","","","","","72","H","0","img/none_selected.jpg","","104","main_expt",""
"","bandit","184","710714","0.0-146.0-0.0","43006764","wem/bandit_party_2","A3NQ8Y8MGI2DQ9","either","1","422","","","","","","","1","0","0","0.4225976111","","0.4","0.6","0.2","0.8","","","","","0.4225976111","0.03717147126","0.37369274","0.472330124","","","","","","","","","","72","H","0","img/none_selected.jpg","","105","main_expt",""
"","bandit","185","712674","0.0-147.0-0.0","43006764","wem/bandit_party_2","A3NQ8Y8MGI2DQ9","either","1","444","","","","","","","1","0","0","0.5005163425","","0.4","0.6","0.2","0.8","","","","","0.5005163425","0.07687033395","0.3179799449","0.568133852","","","","","","","","","","72","H","0","img/none_selected.jpg","","106","main_expt",""
"","bandit","186","714833","0.0-148.0-0.0","43006764","wem/bandit_party_2","A3NQ8Y8MGI2DQ9","either","1","645","","","","","","","0","1","0","","0.3995396385","0.4","0.6","0.2","0.8","0.3995396385","0.07659049968","0.3053765494","0.536018559","","","","","","","","","","","","","","72","H","0","img/none_selected.jpg","","107","main_expt",""
"","bandit","187","716893","0.0-149.0-0.0","43006764","wem/bandit_party_2","A3NQ8Y8MGI2DQ9","either","1","545","","","","","","","0","0","1","","0.3855926336","0.4","0.6","0.2","0.8","0.3855926336","0.07827602418","0.2732860947","0.3880888981","","","","","","","","","","","","","","72","H","0","img/none_selected.jpg","","108","main_expt",""
"","bandit","188","718834","0.0-150.0-0.0","43006764","wem/bandit_party_2","A3NQ8Y8MGI2DQ9","either","1","425","","","","","","","0","0","1","0.3059937163","","0.4","0.6","0.2","0.8","","","","","0.3059937163","0.1352418701","0.2624197952","0.3675045314","","","","","","","","","","72","H","0","img/none_selected.jpg","","109","main_expt",""
"","bandit","189","721010","0.0-151.0-0.0","43006764","wem/bandit_party_2","A3NQ8Y8MGI2DQ9","either","1","662","","","","","","","1","0","0","0.2752892785","","0.4","0.6","0.2","0.8","","","","","0.2752892785","0.1705666919","0.3303210632","0.4560700489","","","","","","","","","","72","H","0","img/none_selected.jpg","","110","main_expt",""
"","bandit","190","723296","0.0-152.0-0.0","43006764","wem/bandit_party_2","A3NQ8Y8MGI2DQ9","either","1","772","","","","","","","0","0","1","0.3038626008","","0.4","0.6","0.2","0.8","","","","","0.3038626008","0.2202970635","0.3541452024","0.5366389876","","","","","","","","","","72","H","0","img/none_selected.jpg","","111","main_expt",""
"","bandit","191","725206","0.0-153.0-0.0","43006764","wem/bandit_party_2","A3NQ8Y8MGI2DQ9","either","1","395","","","","","","","0","0","1","","0.2308866464","0.4","0.6","0.2","0.8","0.2308866464","0.2368742277","0.4468573219","0.5742054707","","","","","","","","","","","","","","72","H","0","img/none_selected.jpg","","112","main_expt",""
"","bandit","192","727069","0.0-154.0-0.0","43006764","wem/bandit_party_2","A3NQ8Y8MGI2DQ9","either","1","349","","","","","","","0","1","0","","0.2420052043","0.4","0.6","0.2","0.8","0.2420052043","0.2487241586","0.5163231944","0.6014260319","","","","","","","","","","","","","","72","H","0","img/none_selected.jpg","","113","main_expt",""
"","bandit","193","729228","0.0-155.0-0.0","43006764","wem/bandit_party_2","A3NQ8Y8MGI2DQ9","either","1","645","","","","","","","0","0","1","","0.3277817495","0.4","0.6","0.2","0.8","0.3277817495","0.238824581","0.4064640458","0.5398035654","","","","","","","","","","","","","","72","H","0","img/none_selected.jpg","","114","main_expt",""
"","bandit","194","732506","0.0-156.0-0.0","43006764","wem/bandit_party_2","A3NQ8Y8MGI2DQ9","either","1","1762","","","","","","","0","0","1","0.5008208772","","0.4","0.6","0.2","0.8","","","","","0.3280884562","0.1480638281","0.4085425191","0.5008208772","","","","","","","","","","76","L","3","","","115","main_expt",""
"","bandit","195","734347","0.0-157.0-0.0","43006764","wem/bandit_party_2","A3NQ8Y8MGI2DQ9","either","1","326","","","","","","","1","0","0","0.4200837231","","0.4","0.6","0.2","0.8","","","","","0.4137256642","0.1246447603","0.4412864427","0.4200837231","","","","","","","","","","76","L","3","","","116","main_expt",""
"","bandit","196","736344","0.0-158.0-0.0","43006764","wem/bandit_party_2","A3NQ8Y8MGI2DQ9","either","1","482","","","","","","","1","0","0","0.4094987027","","0.4","0.6","0.2","0.8","","","","","0.372751341","0.1308085784","0.5188885271","0.4094987027","","","","","","","","","","76","L","3","","","117","main_expt",""
"","bandit","197","738326","0.0-159.0-0.0","43006764","wem/bandit_party_2","A3NQ8Y8MGI2DQ9","either","1","467","","","","","","","1","0","0","0.3862907493","","0.4","0.6","0.2","0.8","","","","","0.4225631273","0.09076242324","0.5728151575","0.3862907493","","","","","","","","","","76","L","3","","","118","main_expt",""
"","bandit","198","740624","0.0-160.0-0.0","43006764","wem/bandit_party_2","A3NQ8Y8MGI2DQ9","either","1","781","","","","","","","0","0","1","0.4437318585","","0.4","0.6","0.2","0.8","","","","","0.4188482812","0.09057925276","0.5065624602","0.4437318585","","","","","","","","","","76","L","3","","","119","main_expt",""
"","bandit","199","742543","0.0-161.0-0.0","43006764","wem/bandit_party_2","A3NQ8Y8MGI2DQ9","either","1","402","","","","","","","0","0","1","0.293469011","","0.4","0.6","0.2","0.8","","","","","0.3729077829","0.1288926122","0.4064427813","0.293469011","","","","","","","","","","76","L","3","","","120","main_expt",""
"","bandit","200","744386","0.0-162.0-0.0","43006764","wem/bandit_party_2","A3NQ8Y8MGI2DQ9","either","1","328","","","","","","","0","0","1","0.2141601759","","0.4","0.6","0.2","0.8","","","","","0.3817262037","0.1479701512","0.3948988447","0.2141601759","","","","","","","","","","76","L","3","","","121","main_expt",""
"","bandit","201","746759","0.0-163.0-0.0","43006764","wem/bandit_party_2","A3NQ8Y8MGI2DQ9","either","1","859","","","","","","","0","0","1","","0.316823658","0.4","0.6","0.2","0.8","0.3537210734","0.1663524813","0.316823658","0.2594293103","","","","","","","","","","","","","","75","K","2","","","122","main_expt",""
"","bandit","202","748729","0.0-164.0-0.0","43006764","wem/bandit_party_2","A3NQ8Y8MGI2DQ9","either","1","455","","","","","","","0","0","1","0.1993917655","","0.4","0.6","0.2","0.8","","","","","0.3633727708","0.1993917655","0.3045978244","0.1519240937","","","","","","","","","","74","J","1","","","123","main_expt",""
"","bandit","203","750655","0.0-165.0-0.0","43006764","wem/bandit_party_2","A3NQ8Y8MGI2DQ9","either","1","410","","","","","","","0","0","1","0.2948689786","","0.4","0.6","0.2","0.8","","","","","0.4139908316","0.2948689786","0.2389028675","0.2311656533","","","","","","","","","","74","J","1","","","124","main_expt",""
"","bandit","204","752490","0.0-166.0-0.0","43006764","wem/bandit_party_2","A3NQ8Y8MGI2DQ9","either","1","319","","","","","","","0","0","1","","0.4054398129","0.4","0.6","0.2","0.8","0.3619800754","0.4054398129","0.2166803268","0.1956748967","","","","","","","","","","","","","","74","J","1","","","125","main_expt",""
"","bandit","205","754454","0.0-167.0-0.0","43006764","wem/bandit_party_2","A3NQ8Y8MGI2DQ9","either","1","448","","","","","","","0","0","1","","0.353362548","0.4","0.6","0.2","0.8","0.353362548","0.5337661481","0.1613674106","0.1419383156","","","","","","","","","","","","","","72","H","0","img/none_selected.jpg","","126","main_expt",""
"","bandit","206","756094","0.0-168.0-0.0","43006764","wem/bandit_party_2","A3NQ8Y8MGI2DQ9","either","1","123","","","","","","","0","0","1","","0.2888217425","0.4","0.6","0.2","0.8","0.2888217425","0.5510518781","0.1682412955","0.1768105291","","","","","","","","","","","","","","72","H","0","img/none_selected.jpg","","127","main_expt",""
"","bandit","207","757835","0.0-169.0-0.0","43006764","wem/bandit_party_2","A3NQ8Y8MGI2DQ9","either","1","226","","","","","","","0","0","1","","0.3131893798","0.4","0.6","0.2","0.8","0.3131893798","0.4746642732","0.1655910943","0.1187699492","","","","","","","","","","","","","","72","H","0","img/none_selected.jpg","","128","main_expt",""
"","bandit","208","759507","0.0-170.0-0.0","43006764","wem/bandit_party_2","A3NQ8Y8MGI2DQ9","either","1","155","","","","","","","0","1","0","","0.2826861836","0.4","0.6","0.2","0.8","0.2826861836","0.5345142674","0.1845506081","0.1860330609","","","","","","","","","","","","","","72","H","0","img/none_selected.jpg","","129","main_expt",""
"","bandit","209","761690","0.0-171.0-0.0","43006764","wem/bandit_party_2","A3NQ8Y8MGI2DQ9","either","1","668","","","","","","","0","0","1","","0.3434973012","0.4","0.6","0.2","0.8","0.3434973012","0.6617219445","0.1548240476","0.09722607165","","","","","","","","","","","","","","72","H","0","img/none_selected.jpg","","130","main_expt",""
"","bandit","210","763591","0.0-172.0-0.0","43006764","wem/bandit_party_2","A3NQ8Y8MGI2DQ9","either","1","385","","","","","","","1","0","0","0.6183560712","","0.4","0.6","0.2","0.8","","","","","0.3848082556","0.6183560712","0.1503989","0.05626421391","","","","","","","","","","74","J","1","","","131","main_expt",""
"","bandit","211","765454","0.0-173.0-0.0","43006764","wem/bandit_party_2","A3NQ8Y8MGI2DQ9","either","1","347","","","","","","","1","0","0","0.7009512511","","0.4","0.6","0.2","0.8","","","","","0.4140069858","0.7009512511","0.1199593994","0.1149854728","","","","","","","","","","74","J","1","","","132","main_expt",""
"","bandit","212","767313","0.0-174.0-0.0","43006764","wem/bandit_party_2","A3NQ8Y8MGI2DQ9","either","1","342","","","","","","","0","0","1","0.5838974895","","0.4","0.6","0.2","0.8","","","","","0.3745017877","0.5838974895","0.1518383839","0.1698175541","","","","","","","","","","74","J","1","","","133","main_expt",""
"","bandit","213","769182","0.0-175.0-0.0","43006764","wem/bandit_party_2","A3NQ8Y8MGI2DQ9","either","1","355","","","","","","","0","1","0","","0.6628563986","0.4","0.6","0.2","0.8","0.3918835711","0.6628563986","0.1855528241","0.1925371395","","","","","","","","","","","","","","74","J","1","","","134","main_expt",""
"","bandit","214","771167","0.0-176.0-0.0","43006764","wem/bandit_party_2","A3NQ8Y8MGI2DQ9","either","1","470","","","","","","","1","0","0","0.5610912218","","0.4","0.6","0.2","0.8","","","","","0.3405764209","0.5610912218","0.2187769305","0.246136332","","","","","","","","","","74","J","1","","","135","main_expt",""
"","bandit","215","773043","0.0-177.0-0.0","43006764","wem/bandit_party_2","A3NQ8Y8MGI2DQ9","either","1","360","","","","","","","0","1","0","","0.4834649218","0.4","0.6","0.2","0.8","0.4155430462","0.4834649218","0.2001534018","0.2277518718","","","","","","","","","","","","","","74","J","1","","","136","main_expt",""
"","bandit","216","774858","0.0-178.0-0.0","43006764","wem/bandit_party_2","A3NQ8Y8MGI2DQ9","either","1","299","","","","","","","0","1","0","","0.513072369","0.4","0.6","0.2","0.8","0.3389252929","0.513072369","0.176995917","0.252962458","","","","","","","","","","","","","","74","J","1","","","137","main_expt",""
"","bandit","217","776673","0.0-179.0-0.0","43006764","wem/bandit_party_2","A3NQ8Y8MGI2DQ9","either","1","298","","","","","","","0","0","1","0.5502636267","","0.4","0.6","0.2","0.8","","","","","0.2698753193","0.5502636267","0.1460019238","0.3018696236","","","","","","","","","","74","J","1","","","138","main_expt",""
"","bandit","218","778631","0.0-180.0-0.0","43006764","wem/bandit_party_2","A3NQ8Y8MGI2DQ9","either","1","443","","","","","","","0","0","1","","0.4564922144","0.4","0.6","0.2","0.8","0.2821570394","0.4564922144","0.06707115951","0.347353107","","","","","","","","","","","","","","74","J","1","","","139","main_expt",""
"","bandit","219","780554","0.0-181.0-0.0","43006764","wem/bandit_party_2","A3NQ8Y8MGI2DQ9","either","1","408","","","","","","","0","0","1","0.4116013625","","0.4","0.6","0.2","0.8","","","","","0.3577533322","0.4116013625","0.1071331831","0.2477375586","","","","","","","","","","74","J","1","","","140","main_expt",""
"","bandit","220","783591","0.0-182.0-0.0","43006764","wem/bandit_party_2","A3NQ8Y8MGI2DQ9","either","1","1520","","","","","","","0","0","1","","0.4498847811","0.4","0.6","0.2","0.8","0.4250900652","0.4498847811","0.1224459691","0.2880826197","","","","","","","","","","","","","","74","J","1","","","141","main_expt",""
"","bandit","221","786226","0.0-183.0-0.0","43006764","wem/bandit_party_2","A3NQ8Y8MGI2DQ9","either","1","1117","","","","","","","0","0","1","","0.3451055681","0.4","0.6","0.2","0.8","0.3451055681","0.4822150968","0.1127900777","0.2287108423","","","","","","","","","","","","","","72","H","0","img/none_selected.jpg","","142","main_expt",""
"","bandit","222","788349","0.0-184.0-0.0","43006764","wem/bandit_party_2","A3NQ8Y8MGI2DQ9","either","1","605","","","","","","","0","0","1","","0.4661026996","0.4","0.6","0.2","0.8","0.4661026996","0.513506041","0.1736101882","0.2096850542","","","","","","","","","","","","","","72","H","0","img/none_selected.jpg","","143","main_expt",""
"","bandit","223","790418","0.0-185.0-0.0","43006764","wem/bandit_party_2","A3NQ8Y8MGI2DQ9","either","1","553","","","","","","","0","0","1","","0.1231714597","0.4","0.6","0.2","0.8","0.4683168179","0.556822441","0.1231714597","0.2214165798","","","","","","","","","","","","","","75","K","2","","","144","main_expt",""
"","bandit","224","792424","0.0-186.0-0.0","43006764","wem/bandit_party_2","A3NQ8Y8MGI2DQ9","either","1","489","","","","","","","0","0","1","0.2412424024","","0.4","0.6","0.2","0.8","","","","","0.448697065","0.5633269006","0.10514291","0.2412424024","","","","","","","","","","76","L","3","","","145","main_expt",""
"","bandit","225","794230","0.0-187.0-0.0","43006764","wem/bandit_party_2","A3NQ8Y8MGI2DQ9","either","1","290","","","","","","","0","1","0","","0.1841611904","0.4","0.6","0.2","0.8","0.4560677512","0.6482805244","0.0972381369","0.1841611904","","","","","","","","","","","","","","76","L","3","","","146","main_expt",""
"","bandit","226","796241","0.0-188.0-0.0","43006764","wem/bandit_party_2","A3NQ8Y8MGI2DQ9","either","1","495","","","","","","","0","0","1","0.1577922033","","0.4","0.6","0.2","0.8","","","","","0.513472809","0.6036290043","0.1897119627","0.1577922033","","","","","","","","","","76","L","3","","","147","main_expt",""
"","bandit","227","798217","0.0-189.0-0.0","43006764","wem/bandit_party_2","A3NQ8Y8MGI2DQ9","either","1","460","","","","","","","0","0","1","0.1663963597","","0.4","0.6","0.2","0.8","","","","","0.3820674583","0.6110248825","0.1759094881","0.1663963597","","","","","","","","","","76","L","3","","","148","main_expt",""
"","bandit","228","799982","0.0-190.0-0.0","43006764","wem/bandit_party_2","A3NQ8Y8MGI2DQ9","either","1","249","","","","","","","0","0","1","","0.319747154","0.4","0.6","0.2","0.8","0.3116557105","0.6453676348","0.2204336569","0.319747154","","","","","","","","","","","","","","76","L","3","","","149","main_expt",""
"","bandit","229","801923","0.0-191.0-0.0","43006764","wem/bandit_party_2","A3NQ8Y8MGI2DQ9","either","1","424","","","","","","","0","1","0","","0.2328853871","0.4","0.6","0.2","0.8","0.3039338698","0.66235511","0.2328853871","0.5410110608","","","","","","","","","","","","","","75","K","2","","","150","main_expt",""
"","bandit","230","803764","0.0-192.0-0.0","43006764","wem/bandit_party_2","A3NQ8Y8MGI2DQ9","either","1","325","","","","","","","0","1","0","","0.2652525627","0.4","0.6","0.2","0.8","0.3092958796","0.5547575852","0.2652525627","0.5584745132","","","","","","","","","","","","","","75","K","2","","","151","main_expt",""
"","bandit","231","805684","0.0-193.0-0.0","43006764","wem/bandit_party_2","A3NQ8Y8MGI2DQ9","either","1","405","","","","","","","0","1","0","","0.2654363334","0.4","0.6","0.2","0.8","0.3097370874","0.5223098228","0.2654363334","0.5709378499","","","","","","","","","","","","","","75","K","2","","","152","main_expt",""
"","bandit","232","807645","0.0-194.0-0.0","43006764","wem/bandit_party_2","A3NQ8Y8MGI2DQ9","either","1","443","","","","","","","0","0","1","0.3505589273","","0.4","0.6","0.2","0.8","","","","","0.2955649657","0.5137303037","0.3505589273","0.6314515046","","","","","","","","","","75","K","2","","","153","main_expt",""
"","bandit","233","809538","0.0-195.0-0.0","43006764","wem/bandit_party_2","A3NQ8Y8MGI2DQ9","either","1","376","","","","","","","0","0","1","","0.39889796","0.4","0.6","0.2","0.8","0.221553637","0.5193194566","0.39889796","0.6734276465","","","","","","","","","","","","","","75","K","2","","","154","main_expt",""
"","bandit","234","811410","0.0-196.0-0.0","43006764","wem/bandit_party_2","A3NQ8Y8MGI2DQ9","either","1","356","","","","","","","0","0","1","0.4202606707","","0.4","0.6","0.2","0.8","","","","","0.2231547498","0.4736812385","0.4202606707","0.7019144477","","","","","","","","","","75","K","2","","","155","main_expt",""
"","bandit","235","813190","0.0-197.0-0.0","43006764","wem/bandit_party_2","A3NQ8Y8MGI2DQ9","either","1","264","","","","","","","0","0","1","","0.4814159609","0.4","0.6","0.2","0.8","0.2750957943","0.4616442501","0.4814159609","0.6695455193","","","","","","","","","","","","","","75","K","2","","","156","main_expt",""
"","bandit","236","815215","0.0-198.0-0.0","43006764","wem/bandit_party_2","A3NQ8Y8MGI2DQ9","either","1","508","","","","","","","0","0","1","","0.5025740222","0.4","0.6","0.2","0.8","0.2005793054","0.5025740222","0.5316807058","0.6179864128","","","","","","","","","","","","","","74","J","1","","","157","main_expt",""
"","bandit","237","816968","0.0-199.0-0.0","43006764","wem/bandit_party_2","A3NQ8Y8MGI2DQ9","either","1","238","","","","","","","0","0","1","","0.4548105643","0.4","0.6","0.2","0.8","0.2502080146","0.4548105643","0.5429668589","0.7380689997","","","","","","","","","","","","","","74","J","1","","","158","main_expt",""
"","bandit","238","819919","0.0-200.0-0.0","43006764","wem/bandit_party_2","A3NQ8Y8MGI2DQ9","either","1","1434","","","","","","","0","1","0","","0.4622667215","0.4","0.6","0.2","0.8","0.2729805177","0.4622667215","0.5991419929","0.7632184112","","","","","","","","","","","","","","74","J","1","","","159","main_expt",""
"","bandit","239","822433","0.0-201.0-0.0","43006764","wem/bandit_party_2","A3NQ8Y8MGI2DQ9","either","1","997","","","","","","","1","0","0","0.4600517474","","0.4","0.6","0.2","0.8","","","","","0.2801697818","0.4600517474","0.6480894682","0.6917664031","","","","","","","","","","74","J","1","","","160","main_expt",""
"","bandit","240","824618","0.0-202.0-0.0","43006764","wem/bandit_party_2","A3NQ8Y8MGI2DQ9","either","1","667","","","","","","","1","0","0","0.481388234","","0.4","0.6","0.2","0.8","","","","","0.2437938608","0.481388234","0.6776161973","0.7106531984","","","","","","","","","","74","J","1","","","161","main_expt",""
"","bandit","241","826620","0.0-203.0-0.0","43006764","wem/bandit_party_2","A3NQ8Y8MGI2DQ9","either","1","486","","","","","","","0","0","1","0.3850106192","","0.4","0.6","0.2","0.8","","","","","0.2687553501","0.3850106192","0.7134031715","0.809310282","","","","","","","","","","74","J","1","","","162","main_expt",""
"","bandit","242","828655","0.0-204.0-0.0","43006764","wem/bandit_party_2","A3NQ8Y8MGI2DQ9","either","1","517","","","","","","","0","0","1","","0.3498723973","0.4","0.6","0.2","0.8","0.245991677","0.3498723973","0.6215635068","0.7492875705","","","","","","","","","","","","","","74","J","1","","","163","main_expt",""
"","bandit","243","830729","0.0-205.0-0.0","43006764","wem/bandit_party_2","A3NQ8Y8MGI2DQ9","either","1","555","","","","","","","1","0","0","0.4287417444","","0.4","0.6","0.2","0.8","","","","","0.270385563","0.4287417444","0.5219240024","0.7561394707","","","","","","","","","","74","J","1","","","164","main_expt",""
"","bandit","244","833133","0.0-206.0-0.0","43006764","wem/bandit_party_2","A3NQ8Y8MGI2DQ9","either","1","887","","","","","","","0","0","1","","0.3150145745","0.4","0.6","0.2","0.8","0.3037855967","0.3150145745","0.4727302842","0.8111415702","","","","","","","","","","","","","","74","J","1","","","165","main_expt",""
"","bandit","245","835398","0.0-207.0-0.0","43006764","wem/bandit_party_2","A3NQ8Y8MGI2DQ9","either","1","746","","","","","","","1","0","0","0.7759938205","","0.4","0.6","0.2","0.8","","","","","0.3395577104","0.2927018344","0.5181018645","0.7759938205","","","","","","","","","","76","L","3","","","166","main_expt",""
"","bandit","246","837397","0.0-208.0-0.0","43006764","wem/bandit_party_2","A3NQ8Y8MGI2DQ9","either","1","481","","","","","","","1","0","0","0.8267633335","","0.4","0.6","0.2","0.8","","","","","0.3443901906","0.3610256338","0.5280433419","0.8267633335","","","","","","","","","","76","L","3","","","167","main_expt",""
"","bandit","247","839207","0.0-209.0-0.0","43006764","wem/bandit_party_2","A3NQ8Y8MGI2DQ9","either","1","294","","","","","","","0","1","0","","0.8136073627","0.4","0.6","0.2","0.8","0.2552323567","0.3137127159","0.5470010145","0.8136073627","","","","","","","","","","","","","","76","L","3","","","168","main_expt",""
"","bandit","248","841069","0.0-210.0-0.0","43006764","wem/bandit_party_2","A3NQ8Y8MGI2DQ9","either","1","345","","","","","","","0","0","1","0.7308533614","","0.4","0.6","0.2","0.8","","","","","0.289352286","0.2292796242","0.5558845962","0.7308533614","","","","","","","","","","76","L","3","","","169","main_expt",""
"","bandit","249","842954","0.0-211.0-0.0","43006764","wem/bandit_party_2","A3NQ8Y8MGI2DQ9","either","1","369","","","","","","","1","0","0","0.7090730391","","0.4","0.6","0.2","0.8","","","","","0.2262743404","0.221948569","0.5799309324","0.7090730391","","","","","","","","","","76","L","3","","","170","main_expt",""
"","bandit","250","845066","0.0-212.0-0.0","43006764","wem/bandit_party_2","A3NQ8Y8MGI2DQ9","either","1","595","","","","","","","1","0","0","0.7229684446","","0.4","0.6","0.2","0.8","","","","","0.2644351609","0.159615594","0.6643953266","0.7229684446","","","","","","","","","","76","L","3","","","171","main_expt",""
"","bandit","251","847304","0.0-213.0-0.0","43006764","wem/bandit_party_2","A3NQ8Y8MGI2DQ9","either","1","722","","","","","","","0","1","0","","0.6612043244","0.4","0.6","0.2","0.8","0.4136296373","0.1303854457","0.7610666705","0.6612043244","","","","","","","","","","","","","","76","L","3","","","172","main_expt",""
"","bandit","252","849452","0.0-214.0-0.0","43006764","wem/bandit_party_2","A3NQ8Y8MGI2DQ9","either","1","629","","","","","","","1","0","0","0.7669021743","","0.4","0.6","0.2","0.8","","","","","0.491318492","0.07729024622","0.8006149786","0.7669021743","","","","","","","","","","76","L","3","","","173","main_expt",""
"","bandit","253","851520","0.0-215.0-0.0","43006764","wem/bandit_party_2","A3NQ8Y8MGI2DQ9","either","1","550","","","","","","","0","1","0","","0.8111867287","0.4","0.6","0.2","0.8","0.4966763124","0.1227026474","0.791095403","0.8111867287","","","","","","","","","","","","","","76","L","3","","","174","main_expt",""
"","bandit","254","853810","0.0-216.0-0.0","43006764","wem/bandit_party_2","A3NQ8Y8MGI2DQ9","either","1","773","","","","","","","1","0","0","0.8192498968","","0.4","0.6","0.2","0.8","","","","","0.5109350621","0.09483306355","0.8572088762","0.8192498968","","","","","","","","","","76","L","3","","","175","main_expt",""
"","bandit","255","855956","0.0-217.0-0.0","43006764","wem/bandit_party_2","A3NQ8Y8MGI2DQ9","either","1","627","","","","","","","0","1","0","","0.8371283275","0.4","0.6","0.2","0.8","0.6321295754","0.143069758","0.8576080684","0.8371283275","","","","","","","","","","","","","","76","L","3","","","176","main_expt",""
"","bandit","256","857930","0.0-218.0-0.0","43006764","wem/bandit_party_2","A3NQ8Y8MGI2DQ9","either","1","457","","","","","","","1","0","0","0.8545140947","","0.4","0.6","0.2","0.8","","","","","0.5515755996","0.1741656422","0.8678158231","0.8545140947","","","","","","","","","","76","L","3","","","177","main_expt",""
"","bandit","257","859894","0.0-219.0-0.0","43006764","wem/bandit_party_2","A3NQ8Y8MGI2DQ9","either","1","450","","","","","","","0","0","1","0.8794893657","","0.4","0.6","0.2","0.8","","","","","0.5086275016","0.1904086474","0.8820542777","0.8794893657","","","","","","","","","","76","L","3","","","178","main_expt",""
"","bandit","258","861868","0.0-220.0-0.0","43006764","wem/bandit_party_2","A3NQ8Y8MGI2DQ9","either","1","455","","","","","","","0","1","0","","0.8939587296","0.4","0.6","0.2","0.8","0.5215192908","0.1778905233","0.8907334788","0.8939587296","","","","","","","","","","","","","","76","L","3","","","179","main_expt",""
"","bandit","259","863796","0.0-221.0-0.0","43006764","wem/bandit_party_2","A3NQ8Y8MGI2DQ9","either","1","407","","","","","","","1","0","0","0.868077767","","0.4","0.6","0.2","0.8","","","","","0.5193414217","0.2112817454","0.9161653667","0.868077767","","","","","","","","","","76","L","3","","","180","main_expt",""
"","bandit","260","865766","0.0-222.0-0.0","43006764","wem/bandit_party_2","A3NQ8Y8MGI2DQ9","either","1","453","","","","","","","1","0","0","0.9295405476","","0.4","0.6","0.2","0.8","","","","","0.4613460131","0.2236312472","0.9327112184","0.9295405476","","","","","","","","","","76","L","3","","","181","main_expt",""
"","bandit","261","867744","0.0-223.0-0.0","43006764","wem/bandit_party_2","A3NQ8Y8MGI2DQ9","either","1","460","","","","","","","0","0","1","0.9213574857","","0.4","0.6","0.2","0.8","","","","","0.4468633868","0.264467441","0.9284398706","0.9213574857","","","","","","","","","","76","L","3","","","182","main_expt",""
"","bandit","262","869532","0.0-224.0-0.0","43006764","wem/bandit_party_2","A3NQ8Y8MGI2DQ9","either","1","268","","","","","","","1","0","0","0.9374560388","","0.4","0.6","0.2","0.8","","","","","0.4985091709","0.2240632979","0.89591471","0.9374560388","","","","","","","","","","76","L","3","","","183","main_expt",""
"","bandit","263","871562","0.0-225.0-0.0","43006764","wem/bandit_party_2","A3NQ8Y8MGI2DQ9","either","1","512","","","","","","","0","1","0","","0.9120054929","0.4","0.6","0.2","0.8","0.6057575335","0.1671404848","0.9146434193","0.9120054929","","","","","","","","","","","","","","76","L","3","","","184","main_expt",""
"","bandit","264","873586","0.0-226.0-0.0","43006764","wem/bandit_party_2","A3NQ8Y8MGI2DQ9","either","1","504","","","","","","","1","0","0","0.8428471033","","0.4","0.6","0.2","0.8","","","","","0.4915456485","0.1932257563","0.8575823977","0.8428471033","","","","","","","","","","76","L","3","","","185","main_expt",""
"","bandit","265","875474","0.0-227.0-0.0","43006764","wem/bandit_party_2","A3NQ8Y8MGI2DQ9","either","1","369","","","","","","","0","0","1","0.7734335662","","0.4","0.6","0.2","0.8","","","","","0.5976273718","0.155472597","0.8487952361","0.7734335662","","","","","","","","","","76","L","3","","","186","main_expt",""
"","bandit","266","877646","0.0-228.0-0.0","43006764","wem/bandit_party_2","A3NQ8Y8MGI2DQ9","either","1","652","","","","","","","1","0","0","0.7667319261","","0.4","0.6","0.2","0.8","","","","","0.5743595779","0.1895871356","0.8603972339","0.7667319261","","","","","","","","","","76","L","3","","","187","main_expt",""
"","bandit","267","879617","0.0-229.0-0.0","43006764","wem/bandit_party_2","A3NQ8Y8MGI2DQ9","either","1","452","","","","","","","1","0","0","0.5945875292","","0.4","0.6","0.2","0.8","","","","","0.6833173747","0.2119556673","0.8834510925","0.5945875292","","","","","","","","","","76","L","3","","","188","main_expt",""
"","bandit","268","881417","0.0-230.0-0.0","43006764","wem/bandit_party_2","A3NQ8Y8MGI2DQ9","either","1","281","","","","","","","1","0","0","0.7406569186","","0.4","0.6","0.2","0.8","","","","","0.651089354","0.2255007403","0.8973947779","0.7406569186","","","","","","","","","","76","L","3","","","189","main_expt",""
"","bandit","269","883653","0.0-231.0-0.0","43006764","wem/bandit_party_2","A3NQ8Y8MGI2DQ9","either","1","717","","","","","","","0","0","1","","0.7371931777","0.4","0.6","0.2","0.8","0.6599652607","0.1754842532","0.8824587855","0.7371931777","","","","","","","","","","","","","","76","L","3","","","190","main_expt",""
"","bandit","270","886924","0.0-232.0-0.0","43006764","wem/bandit_party_2","A3NQ8Y8MGI2DQ9","either","1","1752","","","","","","","1","0","0","0.7019705866","","0.4","0.6","0.2","0.8","","","","","0.6960236584","0.1936311571","0.9076431997","0.7019705866","","","","","","","","","","76","L","3","","","191","main_expt",""
"","bandit","271","888953","0.0-233.0-0.0","43006764","wem/bandit_party_2","A3NQ8Y8MGI2DQ9","either","1","510","","","","","","","1","0","0","0.6198122665","","0.4","0.6","0.2","0.8","","","","","0.6713911156","0.215612591","0.8673165995","0.6198122665","","","","","","","","","","76","L","3","","","192","main_expt",""
"","bandit","272","890879","0.0-234.0-0.0","43006764","wem/bandit_party_2","A3NQ8Y8MGI2DQ9","either","1","406","","","","","","","0","0","1","0.6100930929","","0.4","0.6","0.2","0.8","","","","","0.7244072205","0.2818734505","0.8264401474","0.6100930929","","","","","","","","","","76","L","3","","","193","main_expt",""
"","bandit","273","893062","0.0-235.0-0.0","43006764","wem/bandit_party_2","A3NQ8Y8MGI2DQ9","either","1","663","","","","","","","1","0","0","0.6332739585","","0.4","0.6","0.2","0.8","","","","","0.7397798508","0.3616108755","0.8546086414","0.6332739585","","","","","","","","","","76","L","3","","","194","main_expt",""
"","bandit","274","895164","0.0-236.0-0.0","43006764","wem/bandit_party_2","A3NQ8Y8MGI2DQ9","either","1","582","","","","","","","0","0","1","0.609207161","","0.4","0.6","0.2","0.8","","","","","0.7602069811","0.3979961615","0.7914914872","0.609207161","","","","","","","","","","76","L","3","","","195","main_expt",""
"","bandit","275","897083","0.0-237.0-0.0","43006764","wem/bandit_party_2","A3NQ8Y8MGI2DQ9","either","1","398","","","","","","","0","0","1","0.6560649547","","0.4","0.6","0.2","0.8","","","","","0.7114092524","0.4366641927","0.7608346536","0.6560649547","","","","","","","","","","76","L","3","","","196","main_expt",""
"","bandit","276","899085","0.0-238.0-0.0","43006764","wem/bandit_party_2","A3NQ8Y8MGI2DQ9","either","1","483","","","","","","","1","0","0","0.6656533059","","0.4","0.6","0.2","0.8","","","","","0.6917424169","0.560782874","0.7003784325","0.6656533059","","","","","","","","","","76","L","3","","","197","main_expt",""
"","bandit","277","901290","0.0-239.0-0.0","43006764","wem/bandit_party_2","A3NQ8Y8MGI2DQ9","either","1","686","","","","","","","1","0","0","0.6841747727","","0.4","0.6","0.2","0.8","","","","","0.6561069913","0.5649388288","0.6036075577","0.6841747727","","","","","","","","","","76","L","3","","","198","main_expt",""
"","bandit","278","903186","0.0-240.0-0.0","43006764","wem/bandit_party_2","A3NQ8Y8MGI2DQ9","either","1","377","","","","","","","0","0","1","0.7105065455","","0.4","0.6","0.2","0.8","","","","","0.6948346643","0.5375892324","0.5843314555","0.7105065455","","","","","","","","","","76","L","3","","","199","main_expt",""
"","bandit","279","905004","0.0-241.0-0.0","43006764","wem/bandit_party_2","A3NQ8Y8MGI2DQ9","either","1","297","","","","","","","1","0","0","0.7380433654","","0.4","0.6","0.2","0.8","","","","","0.7369743936","0.5625167851","0.539414212","0.7380433654","","","","","","","","","","76","L","3","","","200","main_expt",""
"","bandit","280","906933","0.0-242.0-0.0","43006764","wem/bandit_party_2","A3NQ8Y8MGI2DQ9","either","1","408","","","","","","","0","0","1","0.6432951689","","0.4","0.6","0.2","0.8","","","","","0.8347268415","0.6266810217","0.3774065742","0.6432951689","","","","","","","","","","76","L","3","","","201","main_expt",""
"","bandit","281","908879","0.0-243.0-0.0","43006764","wem/bandit_party_2","A3NQ8Y8MGI2DQ9","either","1","420","","","","","","","1","0","0","0.4995879772","","0.4","0.6","0.2","0.8","","","","","0.7612264534","0.6661075828","0.2824615609","0.4995879772","","","","","","","","","","76","L","3","","","202","main_expt",""
"","bandit","282","910867","0.0-244.0-0.0","43006764","wem/bandit_party_2","A3NQ8Y8MGI2DQ9","either","1","466","","","","","","","0","0","1","0.4767352753","","0.4","0.6","0.2","0.8","","","","","0.6904596671","0.7534099026","0.210170224","0.4767352753","","","","","","","","","","76","L","3","","","203","main_expt",""
"","bandit","283","912749","0.0-245.0-0.0","43006764","wem/bandit_party_2","A3NQ8Y8MGI2DQ9","either","1","363","","","","","","","1","0","0","0.3680612217","","0.4","0.6","0.2","0.8","","","","","0.6855485072","0.7033522103","0.2708138581","0.3680612217","","","","","","","","","","76","L","3","","","204","main_expt",""
"","bandit","284","914757","0.0-246.0-0.0","43006764","wem/bandit_party_2","A3NQ8Y8MGI2DQ9","either","1","488","","","","","","","0","0","1","","0.3404512965","0.4","0.6","0.2","0.8","0.7006332368","0.6105989365","0.3319820794","0.3404512965","","","","","","","","","","","","","","76","L","3","","","205","main_expt",""
"","bandit","285","916655","0.0-247.0-0.0","43006764","wem/bandit_party_2","A3NQ8Y8MGI2DQ9","either","1","378","","","","","","","1","0","0","0.2774568564","","0.4","0.6","0.2","0.8","","","","","0.7533130943","0.725137222","0.3517339603","0.2774568564","","","","","","","","","","76","L","3","","","206","main_expt",""
"","bandit","286","918608","0.0-248.0-0.0","43006764","wem/bandit_party_2","A3NQ8Y8MGI2DQ9","either","1","434","","","","","","","0","0","1","0.2228883469","","0.4","0.6","0.2","0.8","","","","","0.7191760557","0.5888984072","0.2871079035","0.2228883469","","","","","","","","","","76","L","3","","","207","main_expt",""
"","bandit","287","920509","0.0-249.0-0.0","43006764","wem/bandit_party_2","A3NQ8Y8MGI2DQ9","either","1","381","","","","","","","1","0","0","0.2829247412","","0.4","0.6","0.2","0.8","","","","","0.6264293856","0.4650323514","0.2642306377","0.2829247412","","","","","","","","","","76","L","3","","","208","main_expt",""
"","bandit","288","922650","0.0-250.0-0.0","43006764","wem/bandit_party_2","A3NQ8Y8MGI2DQ9","either","1","620","","","","","","","0","0","1","0.3169104167","","0.4","0.6","0.2","0.8","","","","","0.6500478562","0.4100719568","0.3587725811","0.3169104167","","","","","","","","","","76","L","3","","","209","main_expt",""
"","bandit","289","924419","0.0-251.0-0.0","43006764","wem/bandit_party_2","A3NQ8Y8MGI2DQ9","either","1","248","","","","","","","1","0","0","0.2090062306","","0.4","0.6","0.2","0.8","","","","","0.6498865343","0.5177296744","0.3103342645","0.2090062306","","","","","","","","","","76","L","3","","","210","main_expt",""
"","bandit","290","926310","0.0-252.0-0.0","43006764","wem/bandit_party_2","A3NQ8Y8MGI2DQ9","either","1","372","","","","","","","0","0","1","0.1481662818","","0.4","0.6","0.2","0.8","","","","","0.6056301442","0.5950812693","0.3760595068","0.1481662818","","","","","","","","","","76","L","3","","","211","main_expt",""
"","bandit","291","927858","0.0-253.0-0.0","43006764","wem/bandit_party_2","A3NQ8Y8MGI2DQ9","either","1","27","","","","","","","0","0","1","0.2114888193","","0.4","0.6","0.2","0.8","","","","","0.5524844402","0.7169745983","0.447023013","0.2114888193","","","","","","","","","","76","L","3","","","212","main_expt",""
"","bandit","292","929562","0.0-254.0-0.0","43006764","wem/bandit_party_2","A3NQ8Y8MGI2DQ9","either","1","183","","","","","","","0","0","1","","0.4529182837","0.4","0.6","0.2","0.8","0.6984249358","0.6766124197","0.4529182837","0.2234642754","","","","","","","","","","","","","","75","K","2","","","213","main_expt",""
"","bandit","293","931792","0.0-255.0-0.0","43006764","wem/bandit_party_2","A3NQ8Y8MGI2DQ9","either","1","711","","","","","","","0","0","1","","0.4306534983","0.4","0.6","0.2","0.8","0.5996975418","0.8005648136","0.4306534983","0.2315139555","","","","","","","","","","","","","","75","K","2","","","214","main_expt",""
"","bandit","294","933652","0.0-256.0-0.0","43006764","wem/bandit_party_2","A3NQ8Y8MGI2DQ9","either","1","340","","","","","","","0","0","1","","0.4314469479","0.4","0.6","0.2","0.8","0.6067129047","0.8487964291","0.4314469479","0.1949488974","","","","","","","","","","","","","","75","K","2","","","215","main_expt",""
"","bandit","295","935908","0.0-257.0-0.0","43006764","wem/bandit_party_2","A3NQ8Y8MGI2DQ9","either","1","736","","","","","","","0","1","0","","0.8674123454","0.4","0.6","0.2","0.8","0.6297976658","0.8674123454","0.45439575","0.2333303883","","","","","","","","","","","","","","74","J","1","","","216","main_expt",""
"","bandit","296","938116","0.0-258.0-0.0","43006764","wem/bandit_party_2","A3NQ8Y8MGI2DQ9","either","1","688","","","","","","","0","0","1","0.8774404243","","0.4","0.6","0.2","0.8","","","","","0.6095272491","0.8774404243","0.5228861726","0.2027763819","","","","","","","","","","74","J","1","","","217","main_expt",""
"","bandit","297","940037","0.0-259.0-0.0","43006764","wem/bandit_party_2","A3NQ8Y8MGI2DQ9","either","1","401","","","","","","","0","1","0","","0.8836448068","0.4","0.6","0.2","0.8","0.7058099393","0.8836448068","0.463703458","0.1895874514","","","","","","","","","","","","","","74","J","1","","","218","main_expt",""
"","bandit","298","941936","0.0-260.0-0.0","43006764","wem/bandit_party_2","A3NQ8Y8MGI2DQ9","either","1","380","","","","","","","0","0","1","","0.880498508","0.4","0.6","0.2","0.8","0.7396246451","0.880498508","0.4522864467","0.1537120117","","","","","","","","","","","","","","74","J","1","","","219","main_expt",""
"","bandit","299","943764","0.0-261.0-0.0","43006764","wem/bandit_party_2","A3NQ8Y8MGI2DQ9","either","1","308","","","","","","","1","0","0","0.8740874997","","0.4","0.6","0.2","0.8","","","","","0.7091968036","0.8740874997","0.4561576612","0.2022747423","","","","","","","","","","74","J","1","","","220","main_expt",""
"","bandit","300","945879","0.0-262.0-0.0","43006764","wem/bandit_party_2","A3NQ8Y8MGI2DQ9","either","1","595","","","","","","","1","0","0","0.8527830905","","0.4","0.6","0.2","0.8","","","","","0.7116308873","0.8527830905","0.4264657168","0.3174413427","","","","","","","","","","74","J","1","","","221","main_expt",""
"","bandit","301","947884","0.0-263.0-0.0","43006764","wem/bandit_party_2","A3NQ8Y8MGI2DQ9","either","1","485","","","","","","","1","0","0","0.7717907476","","0.4","0.6","0.2","0.8","","","","","0.769465391","0.7717907476","0.3055141729","0.2315667073","","","","","","","","","","74","J","1","","","222","main_expt",""
"","bandit","302","949977","0.0-264.0-0.0","43006764","wem/bandit_party_2","A3NQ8Y8MGI2DQ9","either","1","572","","","","","","","1","0","0","0.8359700354","","0.4","0.6","0.2","0.8","","","","","0.7509006974","0.8359700354","0.2868954791","0.2261006122","","","","","","","","","","74","J","1","","","223","main_expt",""
"","bandit","303","951962","0.0-265.0-0.0","43006764","wem/bandit_party_2","A3NQ8Y8MGI2DQ9","either","1","464","","","","","","","1","0","0","0.819670806","","0.4","0.6","0.2","0.8","","","","","0.7007688409","0.819670806","0.2698185242","0.2662378096","","","","","","","","","","74","J","1","","","224","main_expt",""
"","bandit","304","953766","0.0-266.0-0.0","43006764","wem/bandit_party_2","A3NQ8Y8MGI2DQ9","either","1","283","","","","","","","0","1","0","","0.8512382749","0.4","0.6","0.2","0.8","0.7409020096","0.8512382749","0.213842325","0.2163280173","","","","","","","","","","","","","","74","J","1","","","225","main_expt",""
"","bandit","305","955797","0.0-267.0-0.0","43006764","wem/bandit_party_2","A3NQ8Y8MGI2DQ9","either","1","511","","","","","","","0","1","0","","0.8342861847","0.4","0.6","0.2","0.8","0.7052945704","0.8342861847","0.1616408491","0.2809353625","","","","","","","","","","","","","","74","J","1","","","226","main_expt",""
"","bandit","306","957833","0.0-268.0-0.0","43006764","wem/bandit_party_2","A3NQ8Y8MGI2DQ9","either","1","517","","","","","","","1","0","0","0.7736041865","","0.4","0.6","0.2","0.8","","","","","0.606091252","0.7736041865","0.1777599287","0.2396571279","","","","","","","","","","74","J","1","","","227","main_expt",""
"","bandit","307","959680","0.0-269.0-0.0","43006764","wem/bandit_party_2","A3NQ8Y8MGI2DQ9","either","1","328","","","","","","","0","1","0","","0.8094350608","0.4","0.6","0.2","0.8","0.5834203199","0.8094350608","0.2866543064","0.3430446928","","","","","","","","","","","","","","74","J","1","","","228","main_expt",""
"","bandit","308","961680","0.0-270.0-0.0","43006764","wem/bandit_party_2","A3NQ8Y8MGI2DQ9","either","1","479","","","","","","","1","0","0","0.8078722129","","0.4","0.6","0.2","0.8","","","","","0.5466214007","0.8078722129","0.3948293382","0.2886233194","","","","","","","","","","74","J","1","","","229","main_expt",""
"","bandit","309","963811","0.0-271.0-0.0","43006764","wem/bandit_party_2","A3NQ8Y8MGI2DQ9","either","1","612","","","","","","","1","0","0","0.7719043616","","0.4","0.6","0.2","0.8","","","","","0.5519014059","0.7719043616","0.3291786684","0.3213731463","","","","","","","","","","74","J","1","","","230","main_expt",""
"","bandit","310","965803","0.0-272.0-0.0","43006764","wem/bandit_party_2","A3NQ8Y8MGI2DQ9","either","1","474","","","","","","","0","0","1","0.8049264475","","0.4","0.6","0.2","0.8","","","","","0.4527164215","0.8049264475","0.2378236032","0.2771614906","","","","","","","","","","74","J","1","","","231","main_expt",""
"","bandit","311","967522","0.0-273.0-0.0","43006764","wem/bandit_party_2","A3NQ8Y8MGI2DQ9","either","1","197","","","","","","","1","0","0","0.8850589997","","0.4","0.6","0.2","0.8","","","","","0.5135082398","0.8850589997","0.246393804","0.2249105956","","","","","","","","","","74","J","1","","","232","main_expt",""
"","bandit","312","969513","0.0-274.0-0.0","43006764","wem/bandit_party_2","A3NQ8Y8MGI2DQ9","either","1","470","","","","","","","1","0","0","0.9183615156","","0.4","0.6","0.2","0.8","","","","","0.5502454751","0.9183615156","0.2141634692","0.2447973041","","","","","","","","","","74","J","1","","","233","main_expt",""
"","bandit","313","971446","0.0-275.0-0.0","43006764","wem/bandit_party_2","A3NQ8Y8MGI2DQ9","either","1","412","","","","","","","0","1","0","","0.9639410842","0.4","0.6","0.2","0.8","0.3783923662","0.9639410842","0.2876436191","0.24601643","","","","","","","","","","","","","","74","J","1","","","234","main_expt",""
"","bandit","314","973577","0.0-276.0-0.0","43006764","wem/bandit_party_2","A3NQ8Y8MGI2DQ9","either","1","610","","","","","","","0","1","0","","0.9697187448","0.4","0.6","0.2","0.8","0.2814299379","0.9697187448","0.2769077257","0.1629844561","","","","","","","","","","","","","","74","J","1","","","235","main_expt",""
"","bandit","315","975552","0.0-277.0-0.0","43006764","wem/bandit_party_2","A3NQ8Y8MGI2DQ9","either","1","453","","","","","","","0","0","1","0.9571573523","","0.4","0.6","0.2","0.8","","","","","0.3106100538","0.9571573523","0.136865198","0.1929455839","","","","","","","","","","74","J","1","","","236","main_expt",""
"","bandit","316","977562","0.0-278.0-0.0","43006764","wem/bandit_party_2","A3NQ8Y8MGI2DQ9","either","1","489","","","","","","","0","1","0","","0.9170696074","0.4","0.6","0.2","0.8","0.3152445528","0.9170696074","0.1123790732","0.1497712966","","","","","","","","","","","","","","74","J","1","","","237","main_expt",""
"","bandit","317","979797","0.0-279.0-0.0","43006764","wem/bandit_party_2","A3NQ8Y8MGI2DQ9","either","1","713","","","","","","","1","0","0","0.9207491077","","0.4","0.6","0.2","0.8","","","","","0.2637175197","0.9207491077","0.09027024906","0.1526491196","","","","","","","","","","74","J","1","","","238","main_expt",""
