"consent","trial_type","trial_index","time_elapsed","internal_node_id","subjID","study","MID","cond","drift","rt","responses","button_pressed","key_press","like","value","connected","gems","bombs","no_reward","GemPrChosen","BombPrChosen","GainOverPainPr_0","GainOverPainPr_1","GainOverPainPr_2","GainOverPainPr_3","LosePr_0","LosePr_1","LosePr_2","LosePr_3","WinPr_0","WinPr_1","WinPr_2","WinPr_3","Q0","Q1","Q2","gender","age","ethnicity","label","expt_phase","target","respCharCode","respKey","respChoiceNum","respChoice","practice","trial_counter","trial_label","Q0_index"
"GDM/GDM_behavioral_consent_30min_online.html","consent","0","98383","0.0-0.0","43544688","wem/bandit_party_2","A30Z1H6111L1VX","either","5","","","","","","","","","","","","","","","","","","","","","","","","","","","","","","","","","","","","","","","","",""
"","survey-text","1","110786","0.0-1.0","43544688","wem/bandit_party_2","A30Z1H6111L1VX","either","5","11385","{""Q0"":""A30Z1H6111L1VX""}","","","","","","","","","","","","","","","","","","","","","","","","","","","","","","","","","","","","","","",""
"","button-response","2","116201","0.0-2.0","43544688","wem/bandit_party_2","A30Z1H6111L1VX","either","5","4407","","2","","","","","","","","","","","","","","","","","","","","","","","","","","","","","","","","","","","","","",""
"","text-replacement","3","143929","0.0-3.0","43544688","wem/bandit_party_2","A30Z1H6111L1VX","either","5","26718","","","32","","","","","","","","","","","","","","","","","","","","","","","","","","","","","","","","","","","","",""
"","text-replacement","4","177439","0.0-4.0","43544688","wem/bandit_party_2","A30Z1H6111L1VX","either","5","33508","","","32","","","","","","","","","","","","","","","","","","","","","","","","","","","","","","","","","","","","",""
"","text-replacement","5","232358","0.0-5.0-0.0","43544688","wem/bandit_party_2","A30Z1H6111L1VX","either","5","54916","","","32","","","","","","","","","","","","","","","","","","","","","","","","","","","","","","","","","","","","",""
"","identification","6","245056","0.0-6.0-0.0","43544688","wem/bandit_party_2","A30Z1H6111L1VX","either","5","12676","","","","0","0","0","","","","","","","","","","","","","","","","","","","","","","","","pre","identification_pre","the Republican Party","","","","","","","",""
"","identification","7","262225","0.0-6.0-1.0","43544688","wem/bandit_party_2","A30Z1H6111L1VX","either","5","16141","","","","4","5","3","","","","","","","","","","","","","","","","","","","","","","","","pre","identification_pre","the Democratic Party","","","","","","","",""
"","text-replacement","8","278422","0.0-7.0","43544688","wem/bandit_party_2","A30Z1H6111L1VX","either","5","15192","","","32","","","","","","","","","","","","","","","","","","","","","","","","","","","","","","","","","","","","",""
"","text-replacement","9","302078","0.0-8.0","43544688","wem/bandit_party_2","A30Z1H6111L1VX","either","5","23653","","","32","","","","","","","","","","","","","","","","","","","","","","","","","","","","","","","","","","","","",""
"","text-replacement","10","317989","0.0-9.0","43544688","wem/bandit_party_2","A30Z1H6111L1VX","either","5","15908","","","32","","","","","","","","","","","","","","","","","","","","","","","","","","","","","","","","","","","","",""
"","text-replacement","11","323363","0.0-10.0","43544688","wem/bandit_party_2","A30Z1H6111L1VX","either","5","5372","","","32","","","","","","","","","","","","","","","","","","","","","","","","","","","","","","","","","","","","",""
"","text-replacement","12","333364","0.0-11.0","43544688","wem/bandit_party_2","A30Z1H6111L1VX","either","5","9999","","","32","","","","","","","","","","","","","","","","","","","","","","","","","","","","","","","","","","","","",""
"","bandit","13","337944","0.0-12.0-0.0","43544688","wem/bandit_party_2","A30Z1H6111L1VX","either","5","3065","","","","","","","0","0","1","0","0","","","","","0","","","","0","","","","","","","","","","","","","74","J","0","img/none_selected_demo.jpg","true","0","",""
"","bandit","14","341925","0.0-13.0-0.0","43544688","wem/bandit_party_2","A30Z1H6111L1VX","either","5","2467","","","","","","","0","0","1","0","0","","","","","0","","","","0","","","","","","","","","","","","","75","K","0","img/none_selected_demo.jpg","true","0","",""
"","text-replacement","15","351972","0.0-14.0","43544688","wem/bandit_party_2","A30Z1H6111L1VX","either","5","10045","","","32","","","","","","","","","","","","","","","","","","","","","","","","","","","","","","","","","","","","",""
"","text-replacement","16","362996","0.0-15.0","43544688","wem/bandit_party_2","A30Z1H6111L1VX","either","5","11021","","","32","","","","","","","","","","","","","","","","","","","","","","","","","","","","","","","","","","","","",""
"","text-replacement","17","371578","0.0-16.0","43544688","wem/bandit_party_2","A30Z1H6111L1VX","either","5","8580","","","32","","","","","","","","","","","","","","","","","","","","","","","","","","","","","","","","","","","","",""
"","text-replacement","18","378379","0.0-17.0","43544688","wem/bandit_party_2","A30Z1H6111L1VX","either","5","6798","","","32","","","","","","","","","","","","","","","","","","","","","","","","","","","","","","","","","","","","",""
"","bandit","19","381020","0.0-18.0-0.0","43544688","wem/bandit_party_2","A30Z1H6111L1VX","either","5","1131","","","","","","","0","1","0","","0.8","0.5","0.5","","","0.8","0.2","","","","","","","","","","","","","","","","74","J","0","img/none_selected_demo.jpg","true","0","80_20_practice",""
"","bandit","20","383376","0.0-18.0-1.0","43544688","wem/bandit_party_2","A30Z1H6111L1VX","either","5","841","","","","","","","0","0","1","","0.8","0.5","0.5","","","0.8","0.2","","","","","","","","","","","","","","","","74","J","0","img/none_selected_demo.jpg","true","0","80_20_practice",""
"","bandit","21","385811","0.0-18.0-2.0","43544688","wem/bandit_party_2","A30Z1H6111L1VX","either","5","925","","","","","","","0","1","0","","0.8","0.5","0.5","","","0.8","0.2","","","","","","","","","","","","","","","","74","J","0","img/none_selected_demo.jpg","true","0","80_20_practice",""
"","bandit","22","388356","0.0-18.0-3.0","43544688","wem/bandit_party_2","A30Z1H6111L1VX","either","5","1034","","","","","","","0","1","0","","0.8","0.5","0.5","","","0.8","0.2","","","","","","","","","","","","","","","","74","J","0","img/none_selected_demo.jpg","true","0","80_20_practice",""
"","bandit","23","390796","0.0-18.0-4.0","43544688","wem/bandit_party_2","A30Z1H6111L1VX","either","5","923","","","","","","","0","0","1","","0.8","0.5","0.5","","","0.8","0.2","","","","","","","","","","","","","","","","74","J","0","img/none_selected_demo.jpg","true","0","80_20_practice",""
"","bandit","24","392935","0.0-18.0-5.0","43544688","wem/bandit_party_2","A30Z1H6111L1VX","either","5","625","","","","","","","0","0","1","0.2","","0.5","0.5","","","","","","","0.8","0.2","","","","","","","","","","","","75","K","1","","true","0","80_20_practice",""
"","bandit","25","394961","0.0-18.0-6.0","43544688","wem/bandit_party_2","A30Z1H6111L1VX","either","5","507","","","","","","","0","1","0","","0.2","0.5","0.5","","","0.8","0.2","","","","","","","","","","","","","","","","75","K","1","","true","0","80_20_practice",""
"","bandit","26","397143","0.0-18.0-7.0","43544688","wem/bandit_party_2","A30Z1H6111L1VX","either","5","669","","","","","","","0","0","1","0.2","","0.5","0.5","","","","","","","0.8","0.2","","","","","","","","","","","","75","K","1","","true","0","80_20_practice",""
"","bandit","27","399681","0.0-18.0-8.0","43544688","wem/bandit_party_2","A30Z1H6111L1VX","either","5","1022","","","","","","","0","1","0","","0.8","0.5","0.5","","","0.8","0.2","","","","","","","","","","","","","","","","74","J","0","img/none_selected_demo.jpg","true","0","80_20_practice",""
"","bandit","28","401768","0.0-18.0-9.0","43544688","wem/bandit_party_2","A30Z1H6111L1VX","either","5","572","","","","","","","0","1","0","","0.8","0.5","0.5","","","0.8","0.2","","","","","","","","","","","","","","","","74","J","0","img/none_selected_demo.jpg","true","0","80_20_practice",""
"","bandit","29","404056","0.0-18.0-10.0","43544688","wem/bandit_party_2","A30Z1H6111L1VX","either","5","772","","","","","","","0","1","0","","0.8","0.5","0.5","","","0.8","0.2","","","","","","","","","","","","","","","","74","J","0","img/none_selected_demo.jpg","true","0","80_20_practice",""
"","bandit","30","406452","0.0-18.0-11.0","43544688","wem/bandit_party_2","A30Z1H6111L1VX","either","5","885","","","","","","","1","0","0","0.8","","0.5","0.5","","","","","","","0.8","0.2","","","","","","","","","","","","74","J","0","img/none_selected_demo.jpg","true","0","80_20_practice",""
"","bandit","31","409604","0.0-18.0-12.0","43544688","wem/bandit_party_2","A30Z1H6111L1VX","either","5","1639","","","","","","","1","0","0","0.8","","0.5","0.5","","","","","","","0.8","0.2","","","","","","","","","","","","74","J","0","img/none_selected_demo.jpg","true","0","80_20_practice",""
"","bandit","32","411861","0.0-18.0-13.0","43544688","wem/bandit_party_2","A30Z1H6111L1VX","either","5","746","","","","","","","1","0","0","0.8","","0.5","0.5","","","","","","","0.8","0.2","","","","","","","","","","","","74","J","0","img/none_selected_demo.jpg","true","0","80_20_practice",""
"","bandit","33","414011","0.0-18.0-14.0","43544688","wem/bandit_party_2","A30Z1H6111L1VX","either","5","640","","","","","","","0","0","1","","0.8","0.5","0.5","","","0.8","0.2","","","","","","","","","","","","","","","","74","J","0","img/none_selected_demo.jpg","true","0","80_20_practice",""
"","bandit","34","416610","0.0-18.0-15.0","43544688","wem/bandit_party_2","A30Z1H6111L1VX","either","5","1091","","","","","","","0","0","1","0.8","","0.5","0.5","","","","","","","0.8","0.2","","","","","","","","","","","","74","J","0","img/none_selected_demo.jpg","true","0","80_20_practice",""
"","bandit","35","418971","0.0-18.0-16.0","43544688","wem/bandit_party_2","A30Z1H6111L1VX","either","5","843","","","","","","","1","0","0","0.8","","0.5","0.5","","","","","","","0.8","0.2","","","","","","","","","","","","74","J","0","img/none_selected_demo.jpg","true","0","80_20_practice",""
"","bandit","36","421380","0.0-18.0-17.0","43544688","wem/bandit_party_2","A30Z1H6111L1VX","either","5","896","","","","","","","1","0","0","0.8","","0.5","0.5","","","","","","","0.8","0.2","","","","","","","","","","","","74","J","0","img/none_selected_demo.jpg","true","0","80_20_practice",""
"","bandit","37","429070","0.0-18.0-18.0","43544688","wem/bandit_party_2","A30Z1H6111L1VX","either","5","6175","","","","","","","0","1","0","","0.8","0.5","0.5","","","0.8","0.2","","","","","","","","","","","","","","","","74","J","0","img/none_selected_demo.jpg","true","0","80_20_practice",""
"","bandit","38","431810","0.0-18.0-19.0","43544688","wem/bandit_party_2","A30Z1H6111L1VX","either","5","1230","","","","","","","0","1","0","","0.8","0.5","0.5","","","0.8","0.2","","","","","","","","","","","","","","","","74","J","0","img/none_selected_demo.jpg","true","0","80_20_practice",""
"","text-replacement","39","448417","0.0-19.0","43544688","wem/bandit_party_2","A30Z1H6111L1VX","either","5","16604","","","32","","","","","","","","","","","","","","","","","","","","","","","","","","","","","","","","","","","","",""
"","bandit","40","451056","0.0-20.0-0.0","43544688","wem/bandit_party_2","A30Z1H6111L1VX","either","5","1123","","","","","","","1","0","0","1","0","","","","","0","1","","","1","0","","","","","","","","","","","","74","J","0","img/none_selected_demo.jpg","true","0","",""
"","text-replacement","41","459745","0.0-21.0","43544688","wem/bandit_party_2","A30Z1H6111L1VX","either","5","8684","","","32","","","","","","","","","","","","","","","","","","","","","","","","","","","","","","","","","","","","",""
"","text-replacement","42","464995","0.0-22.0","43544688","wem/bandit_party_2","A30Z1H6111L1VX","either","5","5247","","","32","","","","","","","","","","","","","","","","","","","","","","","","","","","","","","","","","","","","",""
"","text-replacement","43","469280","0.0-23.0","43544688","wem/bandit_party_2","A30Z1H6111L1VX","either","5","4282","","","32","","","","","","","","","","","","","","","","","","","","","","","","","","","","","","","","","","","","",""
"","text-replacement","44","473697","0.0-24.0","43544688","wem/bandit_party_2","A30Z1H6111L1VX","either","5","4414","","","32","","","","","","","","","","","","","","","","","","","","","","","","","","","","","","","","","","","","",""
"","text-replacement","45","487690","0.0-25.0","43544688","wem/bandit_party_2","A30Z1H6111L1VX","either","5","13990","","","32","","","","","","","","","","","","","","","","","","","","","","","","","","","","","","","","","","","","",""
"","text-replacement","46","491617","0.0-26.0","43544688","wem/bandit_party_2","A30Z1H6111L1VX","either","5","3923","","","32","","","","","","","","","","","","","","","","","","","","","","","","","","","","","","","","","","","","",""
"","text-replacement","47","496529","0.0-27.0","43544688","wem/bandit_party_2","A30Z1H6111L1VX","either","5","4909","","","32","","","","","","","","","","","","","","","","","","","","","","","","","","","","","","","","","","","","",""
"","text-replacement","48","500522","0.0-28.0","43544688","wem/bandit_party_2","A30Z1H6111L1VX","either","5","3990","","","32","","","","","","","","","","","","","","","","","","","","","","","","","","","","","","","","","","","","",""
"","text-replacement","49","506232","0.0-29.0","43544688","wem/bandit_party_2","A30Z1H6111L1VX","either","5","5707","","","32","","","","","","","","","","","","","","","","","","","","","","","","","","","","","","","","","","","","",""
"","text-replacement","50","509592","0.0-30.0","43544688","wem/bandit_party_2","A30Z1H6111L1VX","either","5","3357","","","32","","","","","","","","","","","","","","","","","","","","","","","","","","","","","","","","","","","","",""
"","text-replacement","51","513264","0.0-31.0","43544688","wem/bandit_party_2","A30Z1H6111L1VX","either","5","3668","","","32","","","","","","","","","","","","","","","","","","","","","","","","","","","","","","","","","","","","",""
"","bandit","52","515845","0.0-32.0-0.0","43544688","wem/bandit_party_2","A30Z1H6111L1VX","either","5","1066","","","","","","","0","0","1","0.8","","0.5","0.5","0.5","0.5","","","","","0.8","0.2","0.6","0.2","","","","","","","","","","72","H","0","img/none_selected.jpg","true","0","full_practice",""
"","bandit","53","517874","0.0-32.0-1.0","43544688","wem/bandit_party_2","A30Z1H6111L1VX","either","5","517","","","","","","","0","1","0","","0.8","0.5","0.5","0.5","0.5","0.8","0.2","0.6","0.2","","","","","","","","","","","","","","72","H","0","img/none_selected.jpg","true","0","full_practice",""
"","bandit","54","520005","0.0-32.0-2.0","43544688","wem/bandit_party_2","A30Z1H6111L1VX","either","5","616","","","","","","","0","0","1","0.2","","0.5","0.5","0.5","0.5","","","","","0.8","0.2","0.6","0.2","","","","","","","","","","74","J","1","","true","0","full_practice",""
"","bandit","55","522107","0.0-32.0-3.0","43544688","wem/bandit_party_2","A30Z1H6111L1VX","either","5","590","","","","","","","0","0","1","0.2","","0.5","0.5","0.5","0.5","","","","","0.8","0.2","0.6","0.2","","","","","","","","","","74","J","1","","true","0","full_practice",""
"","bandit","56","523744","0.0-32.0-4.0","43544688","wem/bandit_party_2","A30Z1H6111L1VX","either","5","119","","","","","","","0","0","1","0.6","","0.5","0.5","0.5","0.5","","","","","0.8","0.2","0.6","0.2","","","","","","","","","","75","K","2","","true","0","full_practice",""
"","bandit","57","525706","0.0-32.0-5.0","43544688","wem/bandit_party_2","A30Z1H6111L1VX","either","5","450","","","","","","","1","0","0","0.6","","0.5","0.5","0.5","0.5","","","","","0.8","0.2","0.6","0.2","","","","","","","","","","75","K","2","","true","0","full_practice",""
"","bandit","58","527777","0.0-32.0-6.0","43544688","wem/bandit_party_2","A30Z1H6111L1VX","either","5","561","","","","","","","0","0","1","","0.2","0.5","0.5","0.5","0.5","0.8","0.2","0.6","0.2","","","","","","","","","","","","","","76","L","3","","true","0","full_practice",""
"","bandit","59","529658","0.0-32.0-7.0","43544688","wem/bandit_party_2","A30Z1H6111L1VX","either","5","369","","","","","","","0","0","1","","0.2","0.5","0.5","0.5","0.5","0.8","0.2","0.6","0.2","","","","","","","","","","","","","","76","L","3","","true","0","full_practice",""
"","bandit","60","533123","0.0-32.0-8.0","43544688","wem/bandit_party_2","A30Z1H6111L1VX","either","5","1949","","","","","","","0","0","1","","0.6","0.5","0.5","0.5","0.5","0.8","0.2","0.6","0.2","","","","","","","","","","","","","","75","K","2","","true","0","full_practice",""
"","bandit","61","535596","0.0-32.0-9.0","43544688","wem/bandit_party_2","A30Z1H6111L1VX","either","5","959","","","","","","","0","1","0","","0.8","0.5","0.5","0.5","0.5","0.8","0.2","0.6","0.2","","","","","","","","","","","","","","72","H","0","img/none_selected.jpg","true","0","full_practice",""
"","bandit","62","537604","0.0-32.0-10.0","43544688","wem/bandit_party_2","A30Z1H6111L1VX","either","5","494","","","","","","","0","0","1","","0.8","0.5","0.5","0.5","0.5","0.8","0.2","0.6","0.2","","","","","","","","","","","","","","72","H","0","img/none_selected.jpg","true","0","full_practice",""
"","bandit","63","539600","0.0-32.0-11.0","43544688","wem/bandit_party_2","A30Z1H6111L1VX","either","5","484","","","","","","","1","0","0","0.8","","0.5","0.5","0.5","0.5","","","","","0.8","0.2","0.6","0.2","","","","","","","","","","72","H","0","img/none_selected.jpg","true","0","full_practice",""
"","bandit","64","541707","0.0-32.0-12.0","43544688","wem/bandit_party_2","A30Z1H6111L1VX","either","5","594","","","","","","","0","1","0","","0.8","0.5","0.5","0.5","0.5","0.8","0.2","0.6","0.2","","","","","","","","","","","","","","72","H","0","img/none_selected.jpg","true","0","full_practice",""
"","bandit","65","543901","0.0-32.0-13.0","43544688","wem/bandit_party_2","A30Z1H6111L1VX","either","5","677","","","","","","","0","1","0","","0.8","0.5","0.5","0.5","0.5","0.8","0.2","0.6","0.2","","","","","","","","","","","","","","72","H","0","img/none_selected.jpg","true","0","full_practice",""
"","bandit","66","545975","0.0-32.0-14.0","43544688","wem/bandit_party_2","A30Z1H6111L1VX","either","5","557","","","","","","","0","1","0","","0.8","0.5","0.5","0.5","0.5","0.8","0.2","0.6","0.2","","","","","","","","","","","","","","72","H","0","img/none_selected.jpg","true","0","full_practice",""
"","bandit","67","548052","0.0-32.0-15.0","43544688","wem/bandit_party_2","A30Z1H6111L1VX","either","5","560","","","","","","","0","1","0","","0.8","0.5","0.5","0.5","0.5","0.8","0.2","0.6","0.2","","","","","","","","","","","","","","72","H","0","img/none_selected.jpg","true","0","full_practice",""
"","bandit","68","550187","0.0-32.0-16.0","43544688","wem/bandit_party_2","A30Z1H6111L1VX","either","5","621","","","","","","","1","0","0","0.8","","0.5","0.5","0.5","0.5","","","","","0.8","0.2","0.6","0.2","","","","","","","","","","72","H","0","img/none_selected.jpg","true","0","full_practice",""
"","bandit","69","552300","0.0-32.0-17.0","43544688","wem/bandit_party_2","A30Z1H6111L1VX","either","5","597","","","","","","","0","0","1","0.8","","0.5","0.5","0.5","0.5","","","","","0.8","0.2","0.6","0.2","","","","","","","","","","72","H","0","img/none_selected.jpg","true","0","full_practice",""
"","bandit","70","554348","0.0-32.0-18.0","43544688","wem/bandit_party_2","A30Z1H6111L1VX","either","5","531","","","","","","","1","0","0","0.8","","0.5","0.5","0.5","0.5","","","","","0.8","0.2","0.6","0.2","","","","","","","","","","72","H","0","img/none_selected.jpg","true","0","full_practice",""
"","bandit","71","556519","0.0-32.0-19.0","43544688","wem/bandit_party_2","A30Z1H6111L1VX","either","5","650","","","","","","","0","0","1","","0.8","0.5","0.5","0.5","0.5","0.8","0.2","0.6","0.2","","","","","","","","","","","","","","72","H","0","img/none_selected.jpg","true","0","full_practice",""
"","text","72","565098","0.0-33.0","43544688","wem/bandit_party_2","A30Z1H6111L1VX","either","5","8569","","","32","","","","","","","","","","","","","","","","","","","","","","","","","","","","","","","","","","","","",""
"","text-replacement","73","613922","0.0-34.0","43544688","wem/bandit_party_2","A30Z1H6111L1VX","either","5","47816","","","32","","","","","","","","","","","","","","","","","","","","","","","","","","","","","","","","","","","","",""
"","text-replacement","74","629248","0.0-35.0","43544688","wem/bandit_party_2","A30Z1H6111L1VX","either","5","15323","","","32","","","","","","","","","","","","","","","","","","","","","","","","","","","","","","","","","","","","",""
"","text-replacement","75","639600","0.0-36.0","43544688","wem/bandit_party_2","A30Z1H6111L1VX","either","5","10348","","","32","","","","","","","","","","","","","","","","","","","","","","","","","","","","","","","","","","","","",""
"","text-replacement","76","645230","0.0-37.0","43544688","wem/bandit_party_2","A30Z1H6111L1VX","either","5","5626","","","32","","","","","","","","","","","","","","","","","","","","","","","","","","","","","","","","","","","","",""
"","text-replacement","77","653583","0.0-38.0","43544688","wem/bandit_party_2","A30Z1H6111L1VX","either","5","8347","","","32","","","","","","","","","","","","","","","","","","","","","","","","","","","","","","","","","","","","",""
"","survey-multi-choice-replacement","78","659648","0.0-39.0-0.0","43544688","wem/bandit_party_2","A30Z1H6111L1VX","either","5","6051","","","","","","","","","","","","","","","","","","","","","","","","Money will be added to the pool for <span style='color:blue;'>DEMOCRATS</span>","","","","","","","attn_check","","","","","","","","","0"
"","survey-multi-choice-replacement","79","666887","0.0-40.0-0.0","43544688","wem/bandit_party_2","A30Z1H6111L1VX","either","5","6220","","","","","","","","","","","","","","","","","","","","","","","","Equal amounts of money will be added to the pool for <span style='color:blue;'>DEMOCRATS</span> and subtracted from the pool for <span style='color:red;'>REPUBLICANS</span>","","","","","","","attn_check","","","","","","","","","2"
"","survey-multi-choice-replacement","80","670784","0.0-41.0-0.0","43544688","wem/bandit_party_2","A30Z1H6111L1VX","either","5","2883","","","","","","","","","","","","","","","","","","","","","","","","No money will be added to either pool","","","","","","","attn_check","","","","","","","","","3"
"","bandit","81","675847","0.0-42.0-0.0","43544688","wem/bandit_party_2","A30Z1H6111L1VX","either","5","2542","","","","","","","0","1","0","","0.32692793","0.6","0.8","0.4","0.2","0.32692793","0.4253928501","0.4909711759","0.6131215568","","","","","","","","","","","","","","72","H","0","img/none_selected.jpg","","1","main_expt",""
"","bandit","82","677757","0.0-43.0-0.0","43544688","wem/bandit_party_2","A30Z1H6111L1VX","either","5","392","","","","","","","0","0","1","0.3068321923","","0.6","0.8","0.4","0.2","","","","","0.3068321923","0.5447097682","0.5514346198","0.6783759564","","","","","","","","","","72","H","0","img/none_selected.jpg","","2","main_expt",""
"","bandit","83","679731","0.0-44.0-0.0","43544688","wem/bandit_party_2","A30Z1H6111L1VX","either","5","455","","","","","","","0","0","1","","0.2871808385","0.6","0.8","0.4","0.2","0.2871808385","0.5631376832","0.5966913043","0.6535049038","","","","","","","","","","","","","","72","H","0","img/none_selected.jpg","","3","main_expt",""
"","bandit","84","681291","0.0-45.0-0.0","43544688","wem/bandit_party_2","A30Z1H6111L1VX","either","5","45","","","","","","","0","0","1","","0.5889355808","0.6","0.8","0.4","0.2","0.3062311279","0.5889355808","0.6236804691","0.5433476707","","","","","","","","","","","","","","74","J","1","","","4","main_expt",""
"","bandit","85","683073","0.0-46.0-0.0","43544688","wem/bandit_party_2","A30Z1H6111L1VX","either","5","268","","","","","","","0","0","1","0.6125363118","","0.6","0.8","0.4","0.2","","","","","0.2453374439","0.6125363118","0.5844938386","0.4256320799","","","","","","","","","","74","J","1","","","5","main_expt",""
"","bandit","86","685331","0.0-47.0-0.0","43544688","wem/bandit_party_2","A30Z1H6111L1VX","either","5","743","","","","","","","0","1","0","","0.4929788692","0.6","0.8","0.4","0.2","0.2258644136","0.5204159956","0.4929788692","0.4097031487","","","","","","","","","","","","","","75","K","2","","","6","main_expt",""
"","bandit","87","687153","0.0-48.0-0.0","43544688","wem/bandit_party_2","A30Z1H6111L1VX","either","5","309","","","","","","","0","1","0","","0.3978044106","0.6","0.8","0.4","0.2","0.2251512132","0.5949894572","0.3978044106","0.4614862243","","","","","","","","","","","","","","75","K","2","","","7","main_expt",""
"","bandit","88","689162","0.0-49.0-0.0","43544688","wem/bandit_party_2","A30Z1H6111L1VX","either","5","496","","","","","","","0","1","0","","0.5080346622","0.6","0.8","0.4","0.2","0.1597376121","0.7043393759","0.5080346622","0.4305419438","","","","","","","","","","","","","","75","K","2","","","8","main_expt",""
"","bandit","89","691274","0.0-50.0-0.0","43544688","wem/bandit_party_2","A30Z1H6111L1VX","either","5","594","","","","","","","0","0","1","","0.440708512","0.6","0.8","0.4","0.2","0.1395884133","0.6866437556","0.440708512","0.6000641755","","","","","","","","","","","","","","75","K","2","","","9","main_expt",""
"","bandit","90","693224","0.0-51.0-0.0","43544688","wem/bandit_party_2","A30Z1H6111L1VX","either","5","437","","","","","","","0","0","1","","0.4862198985","0.6","0.8","0.4","0.2","0.1529628815","0.6743415364","0.4862198985","0.66675231","","","","","","","","","","","","","","75","K","2","","","10","main_expt",""
"","bandit","91","695180","0.0-52.0-0.0","43544688","wem/bandit_party_2","A30Z1H6111L1VX","either","5","438","","","","","","","0","1","0","","0.4942886423","0.6","0.8","0.4","0.2","0.1918890603","0.6907290289","0.4942886423","0.538431352","","","","","","","","","","","","","","75","K","2","","","11","main_expt",""
"","bandit","92","697235","0.0-53.0-0.0","43544688","wem/bandit_party_2","A30Z1H6111L1VX","either","5","537","","","","","","","0","1","0","","0.4999864232","0.6","0.8","0.4","0.2","0.1412308375","0.7254617755","0.4999864232","0.5683478731","","","","","","","","","","","","","","75","K","2","","","12","main_expt",""
"","bandit","93","699382","0.0-54.0-0.0","43544688","wem/bandit_party_2","A30Z1H6111L1VX","either","5","630","","","","","","","1","0","0","0.3945724157","","0.6","0.8","0.4","0.2","","","","","0.1854965676","0.7533793381","0.3945724157","0.5870071372","","","","","","","","","","75","K","2","","","13","main_expt",""
"","bandit","94","701466","0.0-55.0-0.0","43544688","wem/bandit_party_2","A30Z1H6111L1VX","either","5","568","","","","","","","0","1","0","","0.458684297","0.6","0.8","0.4","0.2","0.2200151947","0.6909187676","0.458684297","0.3389967741","","","","","","","","","","","","","","75","K","2","","","14","main_expt",""
"","bandit","95","703602","0.0-56.0-0.0","43544688","wem/bandit_party_2","A30Z1H6111L1VX","either","5","620","","","","","","","0","0","1","","0.5338449271","0.6","0.8","0.4","0.2","0.1497743902","0.7916820586","0.5338449271","0.2927381815","","","","","","","","","","","","","","75","K","2","","","15","main_expt",""
"","bandit","96","705563","0.0-57.0-0.0","43544688","wem/bandit_party_2","A30Z1H6111L1VX","either","5","445","","","","","","","0","0","1","0.6821016448","","0.6","0.8","0.4","0.2","","","","","0.1767244745","0.7991661796","0.6821016448","0.2268478953","","","","","","","","","","75","K","2","","","16","main_expt",""
"","bandit","97","707391","0.0-58.0-0.0","43544688","wem/bandit_party_2","A30Z1H6111L1VX","either","5","316","","","","","","","0","0","1","","0.2364877179","0.6","0.8","0.4","0.2","0.1953364786","0.7352739439","0.6963612506","0.2364877179","","","","","","","","","","","","","","76","L","3","","","17","main_expt",""
"","bandit","98","709249","0.0-59.0-0.0","43544688","wem/bandit_party_2","A30Z1H6111L1VX","either","5","337","","","","","","","0","0","1","","0.280777314","0.6","0.8","0.4","0.2","0.139355503","0.6911569498","0.7035779666","0.280777314","","","","","","","","","","","","","","76","L","3","","","18","main_expt",""
"","bandit","99","711089","0.0-60.0-0.0","43544688","wem/bandit_party_2","A30Z1H6111L1VX","either","5","327","","","","","","","1","0","0","0.677086514","","0.6","0.8","0.4","0.2","","","","","0.129677489","0.6372159304","0.677086514","0.3280428268","","","","","","","","","","75","K","2","","","19","main_expt",""
"","bandit","100","713184","0.0-61.0-0.0","43544688","wem/bandit_party_2","A30Z1H6111L1VX","either","5","581","","","","","","","0","0","1","0.5211019236","","0.6","0.8","0.4","0.2","","","","","0.1584506979","0.5917564331","0.5211019236","0.213865824","","","","","","","","","","75","K","2","","","20","main_expt",""
"","bandit","101","716016","0.0-62.0-0.0","43544688","wem/bandit_party_2","A30Z1H6111L1VX","either","5","1318","","","","","","","0","0","1","","0.6040081297","0.6","0.8","0.4","0.2","0.1934985877","0.6351733259","0.6040081297","0.2755747612","","","","","","","","","","","","","","75","K","2","","","21","main_expt",""
"","bandit","102","718740","0.0-63.0-0.0","43544688","wem/bandit_party_2","A30Z1H6111L1VX","either","5","1207","","","","","","","0","0","1","0.57448168","","0.6","0.8","0.4","0.2","","","","","0.1184813826","0.57448168","0.5276460007","0.3096891892","","","","","","","","","","74","J","1","","","22","main_expt",""
"","bandit","103","720764","0.0-64.0-0.0","43544688","wem/bandit_party_2","A30Z1H6111L1VX","either","5","507","","","","","","","1","0","0","0.532235281","","0.6","0.8","0.4","0.2","","","","","0.1387482349","0.532235281","0.4373756081","0.1855444332","","","","","","","","","","74","J","1","","","23","main_expt",""
"","bandit","104","722726","0.0-65.0-0.0","43544688","wem/bandit_party_2","A30Z1H6111L1VX","either","5","444","","","","","","","1","0","0","0.4695599312","","0.6","0.8","0.4","0.2","","","","","0.1275075135","0.4695599312","0.4051577966","0.2026045625","","","","","","","","","","74","J","1","","","24","main_expt",""
"","bandit","105","724891","0.0-66.0-0.0","43544688","wem/bandit_party_2","A30Z1H6111L1VX","either","5","647","","","","","","","0","0","1","","0.3710761786","0.6","0.8","0.4","0.2","0.1324238285","0.3710761786","0.3583026632","0.2610081957","","","","","","","","","","","","","","74","J","1","","","25","main_expt",""
"","bandit","106","726899","0.0-67.0-0.0","43544688","wem/bandit_party_2","A30Z1H6111L1VX","either","5","491","","","","","","","1","0","0","0.3104834237","","0.6","0.8","0.4","0.2","","","","","0.2222282692","0.3104834237","0.4070676783","0.2068764453","","","","","","","","","","74","J","1","","","26","main_expt",""
"","bandit","107","728756","0.0-68.0-0.0","43544688","wem/bandit_party_2","A30Z1H6111L1VX","either","5","338","","","","","","","0","1","0","","0.4250638914","0.6","0.8","0.4","0.2","0.2367528544","0.4250638914","0.3962805628","0.1387354037","","","","","","","","","","","","","","74","J","1","","","27","main_expt",""
"","bandit","108","730840","0.0-69.0-0.0","43544688","wem/bandit_party_2","A30Z1H6111L1VX","either","5","570","","","","","","","0","0","1","","0.3738912408","0.6","0.8","0.4","0.2","0.1581712713","0.3738912408","0.3381264529","0.2065421522","","","","","","","","","","","","","","74","J","1","","","28","main_expt",""
"","bandit","109","732755","0.0-70.0-0.0","43544688","wem/bandit_party_2","A30Z1H6111L1VX","either","5","401","","","","","","","0","1","0","","0.411092256","0.6","0.8","0.4","0.2","0.2361440946","0.411092256","0.3405446746","0.2452437498","","","","","","","","","","","","","","74","J","1","","","29","main_expt",""
"","bandit","110","734740","0.0-71.0-0.0","43544688","wem/bandit_party_2","A30Z1H6111L1VX","either","5","467","","","","","","","1","0","0","0.306262239","","0.6","0.8","0.4","0.2","","","","","0.3051502752","0.306262239","0.3536414415","0.3076129501","","","","","","","","","","74","J","1","","","30","main_expt",""
"","bandit","111","736870","0.0-72.0-0.0","43544688","wem/bandit_party_2","A30Z1H6111L1VX","either","5","617","","","","","","","0","0","1","0.2846857217","","0.6","0.8","0.4","0.2","","","","","0.3588845582","0.2846857217","0.3201297868","0.275744379","","","","","","","","","","74","J","1","","","31","main_expt",""
"","bandit","112","738727","0.0-73.0-0.0","43544688","wem/bandit_party_2","A30Z1H6111L1VX","either","5","342","","","","","","","0","0","1","","0.260797537","0.6","0.8","0.4","0.2","0.3351264969","0.260797537","0.414050106","0.1582224348","","","","","","","","","","","","","","74","J","1","","","32","main_expt",""
"","bandit","113","740456","0.0-74.0-0.0","43544688","wem/bandit_party_2","A30Z1H6111L1VX","either","5","214","","","","","","","0","0","1","0.3369799553","","0.6","0.8","0.4","0.2","","","","","0.3369799553","0.3108282978","0.4846208784","0.07234251762","","","","","","","","","","72","H","0","img/none_selected.jpg","","33","main_expt",""
"","bandit","114","742318","0.0-75.0-0.0","43544688","wem/bandit_party_2","A30Z1H6111L1VX","either","5","340","","","","","","","0","0","1","","0.3040676539","0.6","0.8","0.4","0.2","0.3040676539","0.3996464291","0.4250330595","0.07244310326","","","","","","","","","","","","","","72","H","0","img/none_selected.jpg","","34","main_expt",""
"","bandit","115","744601","0.0-76.0-0.0","43544688","wem/bandit_party_2","A30Z1H6111L1VX","either","5","770","","","","","","","0","0","1","","0.499329675","0.6","0.8","0.4","0.2","0.2974236485","0.4368131495","0.499329675","0.07140094546","","","","","","","","","","","","","","75","K","2","","","35","main_expt",""
"","bandit","116","746754","0.0-77.0-0.0","43544688","wem/bandit_party_2","A30Z1H6111L1VX","either","5","636","","","","","","","1","0","0","0.3892953339","","0.6","0.8","0.4","0.2","","","","","0.310238309","0.3396719642","0.3892953339","0.08624361683","","","","","","","","","","75","K","2","","","36","main_expt",""
"","bandit","117","748710","0.0-78.0-0.0","43544688","wem/bandit_party_2","A30Z1H6111L1VX","either","5","443","","","","","","","0","0","1","","0.3680424748","0.6","0.8","0.4","0.2","0.2818719109","0.4409026667","0.3680424748","0.07543251018","","","","","","","","","","","","","","75","K","2","","","37","main_expt",""
"","bandit","118","750706","0.0-79.0-0.0","43544688","wem/bandit_party_2","A30Z1H6111L1VX","either","5","478","","","","","","","0","1","0","","0.4909804269","0.6","0.8","0.4","0.2","0.2925765749","0.489392614","0.4909804269","0.1324785543","","","","","","","","","","","","","","75","K","2","","","38","main_expt",""
"","bandit","119","752599","0.0-80.0-0.0","43544688","wem/bandit_party_2","A30Z1H6111L1VX","either","5","378","","","","","","","0","1","0","","0.5165168671","0.6","0.8","0.4","0.2","0.3033582507","0.4403114744","0.5165168671","0.1824024676","","","","","","","","","","","","","","75","K","2","","","39","main_expt",""
"","bandit","120","754637","0.0-81.0-0.0","43544688","wem/bandit_party_2","A30Z1H6111L1VX","either","5","519","","","","","","","0","1","0","","0.6036007873","0.6","0.8","0.4","0.2","0.2371445562","0.343221944","0.6036007873","0.09861269436","","","","","","","","","","","","","","75","K","2","","","40","main_expt",""
"","bandit","121","756760","0.0-82.0-0.0","43544688","wem/bandit_party_2","A30Z1H6111L1VX","either","5","609","","","","","","","0","0","1","","0.6078828369","0.6","0.8","0.4","0.2","0.2072661203","0.450343793","0.6078828369","0.1028082326","","","","","","","","","","","","","","75","K","2","","","41","main_expt",""
"","bandit","122","758785","0.0-83.0-0.0","43544688","wem/bandit_party_2","A30Z1H6111L1VX","either","5","509","","","","","","","1","0","0","0.5757077757","","0.6","0.8","0.4","0.2","","","","","0.1850700716","0.4422822993","0.5757077757","0.1326350751","","","","","","","","","","75","K","2","","","42","main_expt",""
"","bandit","123","760712","0.0-84.0-0.0","43544688","wem/bandit_party_2","A30Z1H6111L1VX","either","5","412","","","","","","","0","0","1","0.504524575","","0.6","0.8","0.4","0.2","","","","","0.1700345657","0.4755437476","0.504524575","0.1591685393","","","","","","","","","","75","K","2","","","43","main_expt",""
"","bandit","124","762552","0.0-85.0-0.0","43544688","wem/bandit_party_2","A30Z1H6111L1VX","either","5","323","","","","","","","0","0","1","","0.3354744533","0.6","0.8","0.4","0.2","0.150922449","0.6211160782","0.3354744533","0.1558361793","","","","","","","","","","","","","","75","K","2","","","44","main_expt",""
"","bandit","125","764288","0.0-86.0-0.0","43544688","wem/bandit_party_2","A30Z1H6111L1VX","either","5","221","","","","","","","0","1","0","","0.08224127908","0.6","0.8","0.4","0.2","0.08792573626","0.5950963145","0.2259933845","0.08224127908","","","","","","","","","","","","","","76","L","3","","","45","main_expt",""
"","bandit","126","766429","0.0-87.0-0.0","43544688","wem/bandit_party_2","A30Z1H6111L1VX","either","5","622","","","","","","","0","0","1","","0.05681632526","0.6","0.8","0.4","0.2","0.05210962111","0.600883672","0.1991815266","0.05681632526","","","","","","","","","","","","","","76","L","3","","","46","main_expt",""
"","bandit","127","768257","0.0-88.0-0.0","43544688","wem/bandit_party_2","A30Z1H6111L1VX","either","5","312","","","","","","","0","0","1","0.02046531905","","0.6","0.8","0.4","0.2","","","","","0.1658512007","0.6018426621","0.1821259253","0.02046531905","","","","","","","","","","76","L","3","","","47","main_expt",""
"","bandit","128","771258","0.0-89.0-0.0","43544688","wem/bandit_party_2","A30Z1H6111L1VX","either","5","1482","","","","","","","1","0","0","0.6719149388","","0.6","0.8","0.4","0.2","","","","","0.2171730843","0.6719149388","0.1850219792","0.02793369594","","","","","","","","","","74","J","1","","","48","main_expt",""
"","bandit","129","773307","0.0-90.0-0.0","43544688","wem/bandit_party_2","A30Z1H6111L1VX","either","5","531","","","","","","","0","0","1","0.5824093935","","0.6","0.8","0.4","0.2","","","","","0.2545874694","0.5824093935","0.2843491098","0.01520235592","","","","","","","","","","74","J","1","","","49","main_expt",""
"","bandit","130","775425","0.0-91.0-0.0","43544688","wem/bandit_party_2","A30Z1H6111L1VX","either","5","601","","","","","","","1","0","0","0.5697547833","","0.6","0.8","0.4","0.2","","","","","0.1971443839","0.5697547833","0.2385085868","0.008868670712","","","","","","","","","","74","J","1","","","50","main_expt",""
"","bandit","131","777520","0.0-92.0-0.0","43544688","wem/bandit_party_2","A30Z1H6111L1VX","either","5","581","","","","","","","0","0","1","","0.5875551098","0.6","0.8","0.4","0.2","0.1743954459","0.5875551098","0.2762119933","0.004668439046","","","","","","","","","","","","","","74","J","1","","","51","main_expt",""
"","bandit","132","779488","0.0-93.0-0.0","43544688","wem/bandit_party_2","A30Z1H6111L1VX","either","5","452","","","","","","","0","1","0","","0.691822337","0.6","0.8","0.4","0.2","0.1007451992","0.691822337","0.2350807626","0.003090075005","","","","","","","","","","","","","","74","J","1","","","52","main_expt",""
"","bandit","133","781586","0.0-94.0-0.0","43544688","wem/bandit_party_2","A30Z1H6111L1VX","either","5","580","","","","","","","1","0","0","0.7363191169","","0.6","0.8","0.4","0.2","","","","","0.1648918076","0.7363191169","0.2301492847","0.003474758773","","","","","","","","","","74","J","1","","","53","main_expt",""
"","bandit","134","783696","0.0-95.0-0.0","43544688","wem/bandit_party_2","A30Z1H6111L1VX","either","5","595","","","","","","","0","0","1","0.7639548597","","0.6","0.8","0.4","0.2","","","","","0.1761014763","0.7639548597","0.2779325162","0.003279238457","","","","","","","","","","74","J","1","","","54","main_expt",""
"","bandit","135","785652","0.0-96.0-0.0","43544688","wem/bandit_party_2","A30Z1H6111L1VX","either","5","435","","","","","","","0","0","1","","0.7264154962","0.6","0.8","0.4","0.2","0.1460392243","0.7264154962","0.2882189161","0.001847339967","","","","","","","","","","","","","","74","J","1","","","55","main_expt",""
"","bandit","136","787434","0.0-97.0-0.0","43544688","wem/bandit_party_2","A30Z1H6111L1VX","either","5","264","","","","","","","0","0","1","0.1882527018","","0.6","0.8","0.4","0.2","","","","","0.1882527018","0.7511403137","0.2646822794","0.001186331615","","","","","","","","","","72","H","0","img/none_selected.jpg","","56","main_expt",""
"","bandit","137","789372","0.0-98.0-0.0","43544688","wem/bandit_party_2","A30Z1H6111L1VX","either","5","418","","","","","","","0","1","0","","0.1836596221","0.6","0.8","0.4","0.2","0.1836596221","0.6292194553","0.3080117871","0.001917609755","","","","","","","","","","","","","","72","H","0","img/none_selected.jpg","","57","main_expt",""
"","bandit","138","791427","0.0-99.0-0.0","43544688","wem/bandit_party_2","A30Z1H6111L1VX","either","5","536","","","","","","","0","0","1","0.2259562874","","0.6","0.8","0.4","0.2","","","","","0.2259562874","0.5622591622","0.2609020091","0.004115025419","","","","","","","","","","72","H","0","img/none_selected.jpg","","58","main_expt",""
"","bandit","139","793522","0.0-100.0-0.0","43544688","wem/bandit_party_2","A30Z1H6111L1VX","either","5","575","","","","","","","0","1","0","","0.1673227733","0.6","0.8","0.4","0.2","0.1673227733","0.6394190939","0.3014652953","0.007083433589","","","","","","","","","","","","","","72","H","0","img/none_selected.jpg","","59","main_expt",""
"","bandit","140","795515","0.0-101.0-0.0","43544688","wem/bandit_party_2","A30Z1H6111L1VX","either","5","474","","","","","","","0","0","1","","0.1404143731","0.6","0.8","0.4","0.2","0.1404143731","0.502148976","0.2872544729","0.0100473459","","","","","","","","","","","","","","72","H","0","img/none_selected.jpg","","60","main_expt",""
"","bandit","141","797683","0.0-102.0-0.0","43544688","wem/bandit_party_2","A30Z1H6111L1VX","either","5","648","","","","","","","0","0","1","0.1087230511","","0.6","0.8","0.4","0.2","","","","","0.1087230511","0.5541662771","0.2347068593","0.02288810402","","","","","","","","","","72","H","0","img/none_selected.jpg","","61","main_expt",""
"","bandit","142","801951","0.0-103.0-0.0","43544688","wem/bandit_party_2","A30Z1H6111L1VX","either","5","2750","","","","","","","1","0","0","0.6016144889","","0.6","0.8","0.4","0.2","","","","","0.1173770395","0.6016144889","0.1786743828","0.04890713094","","","","","","","","","","74","J","1","","","62","main_expt",""
"","bandit","143","804584","0.0-104.0-0.0","43544688","wem/bandit_party_2","A30Z1H6111L1VX","either","5","1117","","","","","","","0","0","1","0.6306423252","","0.6","0.8","0.4","0.2","","","","","0.1173961002","0.6306423252","0.1627017484","0.06015841579","","","","","","","","","","74","J","1","","","63","main_expt",""
"","bandit","144","806151","0.0-105.0-0.0","43544688","wem/bandit_party_2","A30Z1H6111L1VX","either","5","51","","","","","","","1","0","0","0.5963496952","","0.6","0.8","0.4","0.2","","","","","0.1093057248","0.5963496952","0.2220220934","0.0697324588","","","","","","","","","","74","J","1","","","64","main_expt",""
"","bandit","145","809338","0.0-106.0-0.0","43544688","wem/bandit_party_2","A30Z1H6111L1VX","either","5","1665","","","","","","","0","0","1","0.5835424673","","0.6","0.8","0.4","0.2","","","","","0.1437581537","0.5835424673","0.1387290973","0.03955641554","","","","","","","","","","74","J","1","","","65","main_expt",""
"","bandit","146","811584","0.0-107.0-0.0","43544688","wem/bandit_party_2","A30Z1H6111L1VX","either","5","729","","","","","","","0","0","1","","0.1481952943","0.6","0.8","0.4","0.2","0.1321246006","0.5789137396","0.1481952943","0.04104317144","","","","","","","","","","","","","","75","K","2","","","66","main_expt",""
"","bandit","147","813488","0.0-108.0-0.0","43544688","wem/bandit_party_2","A30Z1H6111L1VX","either","5","388","","","","","","","0","0","1","","0.1354395346","0.6","0.8","0.4","0.2","0.1441415222","0.6503196648","0.1354395346","0.07749417123","","","","","","","","","","","","","","75","K","2","","","67","main_expt",""
"","bandit","148","815642","0.0-109.0-0.0","43544688","wem/bandit_party_2","A30Z1H6111L1VX","either","5","635","","","","","","","0","0","1","","0.1606162296","0.6","0.8","0.4","0.2","0.1794787892","0.7295955131","0.09431815687","0.1606162296","","","","","","","","","","","","","","76","L","3","","","68","main_expt",""
"","bandit","149","817736","0.0-110.0-0.0","43544688","wem/bandit_party_2","A30Z1H6111L1VX","either","5","577","","","","","","","0","0","1","0.1458723802","","0.6","0.8","0.4","0.2","","","","","0.2467892919","0.7924649224","0.09491494314","0.1458723802","","","","","","","","","","76","L","3","","","69","main_expt",""
"","bandit","150","821201","0.0-111.0-0.0","43544688","wem/bandit_party_2","A30Z1H6111L1VX","either","5","1946","","","","","","","1","0","0","0.144379617","","0.6","0.8","0.4","0.2","","","","","0.2683381141","0.7104550926","0.144379617","0.09936082334","","","","","","","","","","75","K","2","","","70","main_expt",""
"","bandit","151","824660","0.0-112.0-0.0","43544688","wem/bandit_party_2","A30Z1H6111L1VX","either","5","1941","","","","","","","0","0","1","0.1522740794","","0.6","0.8","0.4","0.2","","","","","0.3513633517","0.6350436987","0.1522740794","0.08487306657","","","","","","","","","","75","K","2","","","71","main_expt",""
"","bandit","152","827249","0.0-113.0-0.0","43544688","wem/bandit_party_2","A30Z1H6111L1VX","either","5","1072","","","","","","","0","0","1","","0.1668466162","0.6","0.8","0.4","0.2","0.2914052368","0.5987872161","0.1668466162","0.08819471669","","","","","","","","","","","","","","75","K","2","","","72","main_expt",""
"","bandit","153","829910","0.0-114.0-0.0","43544688","wem/bandit_party_2","A30Z1H6111L1VX","either","5","1145","","","","","","","0","0","1","","0.1896474075","0.6","0.8","0.4","0.2","0.2877488323","0.5985066563","0.1896474075","0.1283432424","","","","","","","","","","","","","","75","K","2","","","73","main_expt",""
"","bandit","154","833505","0.0-115.0-0.0","43544688","wem/bandit_party_2","A30Z1H6111L1VX","either","5","2077","","","","","","","1","0","0","0.6384302553","","0.6","0.8","0.4","0.2","","","","","0.2562899571","0.6384302553","0.2374421278","0.09379917772","","","","","","","","","","74","J","1","","","74","main_expt",""
"","bandit","155","835426","0.0-116.0-0.0","43544688","wem/bandit_party_2","A30Z1H6111L1VX","either","5","403","","","","","","","0","0","1","0.5658832615","","0.6","0.8","0.4","0.2","","","","","0.2733605005","0.5658832615","0.2083661751","0.09049970266","","","","","","","","","","74","J","1","","","75","main_expt",""
"","bandit","156","838845","0.0-117.0-0.0","43544688","wem/bandit_party_2","A30Z1H6111L1VX","either","5","1902","","","","","","","1","0","0","0.6242699585","","0.6","0.8","0.4","0.2","","","","","0.3937912108","0.6242699585","0.2438220339","0.08721668036","","","","","","","","","","74","J","1","","","76","main_expt",""
"","bandit","157","841131","0.0-118.0-0.0","43544688","wem/bandit_party_2","A30Z1H6111L1VX","either","5","766","","","","","","","0","0","1","0.5744400186","","0.6","0.8","0.4","0.2","","","","","0.2317864895","0.5744400186","0.2688374605","0.06435523183","","","","","","","","","","74","J","1","","","77","main_expt",""
"","bandit","158","843128","0.0-119.0-0.0","43544688","wem/bandit_party_2","A30Z1H6111L1VX","either","5","480","","","","","","","0","1","0","","0.5888420407","0.6","0.8","0.4","0.2","0.1809738678","0.5888420407","0.354885782","0.0482567949","","","","","","","","","","","","","","74","J","1","","","78","main_expt",""
"","bandit","159","845496","0.0-120.0-0.0","43544688","wem/bandit_party_2","A30Z1H6111L1VX","either","5","851","","","","","","","1","0","0","0.6367332082","","0.6","0.8","0.4","0.2","","","","","0.1139783564","0.6367332082","0.3618930149","0.0437210955","","","","","","","","","","74","J","1","","","79","main_expt",""
"","bandit","160","847533","0.0-121.0-0.0","43544688","wem/bandit_party_2","A30Z1H6111L1VX","either","5","521","","","","","","","1","0","0","0.6870764151","","0.6","0.8","0.4","0.2","","","","","0.08785846653","0.6870764151","0.2656346555","0.02877808334","","","","","","","","","","74","J","1","","","80","main_expt",""
"","bandit","161","849663","0.0-122.0-0.0","43544688","wem/bandit_party_2","A30Z1H6111L1VX","either","5","614","","","","","","","0","0","1","0.594282643","","0.6","0.8","0.4","0.2","","","","","0.09113866108","0.594282643","0.4245431589","0.01921293631","","","","","","","","","","74","J","1","","","81","main_expt",""
"","bandit","162","852072","0.0-123.0-0.0","43544688","wem/bandit_party_2","A30Z1H6111L1VX","either","5","890","","","","","","","0","1","0","","0.6134463007","0.6","0.8","0.4","0.2","0.1055231707","0.6134463007","0.4469352605","0.04933803159","","","","","","","","","","","","","","74","J","1","","","82","main_expt",""
"","bandit","163","865154","0.0-124.0-0.0","43544688","wem/bandit_party_2","A30Z1H6111L1VX","either","5","11561","","","","","","","1","0","0","0.573719985","","0.6","0.8","0.4","0.2","","","","","0.09865920741","0.573719985","0.4492602846","0.03134335394","","","","","","","","","","74","J","1","","","83","main_expt",""
"","bandit","164","866936","0.0-125.0-0.0","43544688","wem/bandit_party_2","A30Z1H6111L1VX","either","5","265","","","","","","","0","0","1","0.5666188995","","0.6","0.8","0.4","0.2","","","","","0.06745845416","0.5666188995","0.4800113203","0.08181594064","","","","","","","","","","74","J","1","","","84","main_expt",""
"","bandit","165","879298","0.0-126.0-0.0","43544688","wem/bandit_party_2","A30Z1H6111L1VX","either","5","10844","","","","","","","0","0","1","","0.05723787215","0.6","0.8","0.4","0.2","0.05723787215","0.5161506384","0.53417275","0.09326949564","","","","","","","","","","","","","","72","H","0","img/none_selected.jpg","","85","main_expt",""
"","bandit","166","881115","0.0-127.0-0.0","43544688","wem/bandit_party_2","A30Z1H6111L1VX","either","5","296","","","","","","","1","0","0","0.4408304524","","0.6","0.8","0.4","0.2","","","","","0.04283717318","0.4408304524","0.4431594274","0.1365856799","","","","","","","","","","74","J","1","","","86","main_expt",""
"","bandit","167","883251","0.0-128.0-0.0","43544688","wem/bandit_party_2","A30Z1H6111L1VX","either","5","614","","","","","","","1","0","0","0.4926691315","","0.6","0.8","0.4","0.2","","","","","0.04801612347","0.4926691315","0.4135642243","0.1845868617","","","","","","","","","","74","J","1","","","87","main_expt",""
"","bandit","168","886193","0.0-129.0-0.0","43544688","wem/bandit_party_2","A30Z1H6111L1VX","either","5","1422","","","","","","","0","0","1","0.6047228172","","0.6","0.8","0.4","0.2","","","","","0.1154775412","0.6047228172","0.4785462387","0.2304222619","","","","","","","","","","74","J","1","","","88","main_expt",""
"","bandit","169","888398","0.0-130.0-0.0","43544688","wem/bandit_party_2","A30Z1H6111L1VX","either","5","688","","","","","","","0","0","1","0.5311406509","","0.6","0.8","0.4","0.2","","","","","0.1308375778","0.5311406509","0.6395163219","0.1408060154","","","","","","","","","","74","J","1","","","89","main_expt",""
"","bandit","170","890186","0.0-131.0-0.0","43544688","wem/bandit_party_2","A30Z1H6111L1VX","either","5","269","","","","","","","0","0","1","0.6143207643","","0.6","0.8","0.4","0.2","","","","","0.07282967421","0.6262376813","0.6143207643","0.1870966622","","","","","","","","","","75","K","2","","","90","main_expt",""
"","bandit","171","892090","0.0-132.0-0.0","43544688","wem/bandit_party_2","A30Z1H6111L1VX","either","5","383","","","","","","","0","1","0","","0.446485487","0.6","0.8","0.4","0.2","0.07599207753","0.690423555","0.446485487","0.192698437","","","","","","","","","","","","","","75","K","2","","","91","main_expt",""
"","bandit","172","895688","0.0-133.0-0.0","43544688","wem/bandit_party_2","A30Z1H6111L1VX","either","5","2080","","","","","","","0","0","1","","0.5169677416","0.6","0.8","0.4","0.2","0.04323911508","0.6517149298","0.5169677416","0.1683480261","","","","","","","","","","","","","","75","K","2","","","92","main_expt",""
"","bandit","173","897662","0.0-134.0-0.0","43544688","wem/bandit_party_2","A30Z1H6111L1VX","either","5","456","","","","","","","0","0","1","0.4242737166","","0.6","0.8","0.4","0.2","","","","","0.04253576945","0.5656193004","0.4242737166","0.1330499919","","","","","","","","","","75","K","2","","","93","main_expt",""
"","bandit","174","899438","0.0-135.0-0.0","43544688","wem/bandit_party_2","A30Z1H6111L1VX","either","5","257","","","","","","","0","0","1","0.4344563295","","0.6","0.8","0.4","0.2","","","","","0.04534385772","0.4344563295","0.3479993201","0.1880917327","","","","","","","","","","74","J","1","","","94","main_expt",""
"","bandit","175","901753","0.0-136.0-0.0","43544688","wem/bandit_party_2","A30Z1H6111L1VX","either","5","795","","","","","","","0","0","1","0.5651083109","","0.6","0.8","0.4","0.2","","","","","0.03318992591","0.5651083109","0.3701135783","0.1867575465","","","","","","","","","","74","J","1","","","95","main_expt",""
"","bandit","176","903866","0.0-137.0-0.0","43544688","wem/bandit_party_2","A30Z1H6111L1VX","either","5","598","","","","","","","0","0","1","0.03408771876","","0.6","0.8","0.4","0.2","","","","","0.03408771876","0.5348041914","0.3430407586","0.2231999883","","","","","","","","","","72","H","0","img/none_selected.jpg","","96","main_expt",""
"","bandit","177","905439","0.0-138.0-0.0","43544688","wem/bandit_party_2","A30Z1H6111L1VX","either","5","55","","","","","","","0","0","1","","0.5627844697","0.6","0.8","0.4","0.2","0.05013144164","0.5627844697","0.2876443713","0.2149045243","","","","","","","","","","","","","","74","J","1","","","97","main_expt",""
"","bandit","178","907778","0.0-139.0-0.0","43544688","wem/bandit_party_2","A30Z1H6111L1VX","either","5","817","","","","","","","0","0","1","","0.3310412313","0.6","0.8","0.4","0.2","0.03739082544","0.6177525637","0.3310412313","0.1963416079","","","","","","","","","","","","","","75","K","2","","","98","main_expt",""
"","bandit","179","909966","0.0-140.0-0.0","43544688","wem/bandit_party_2","A30Z1H6111L1VX","either","5","672","","","","","","","0","0","1","","0.1659387142","0.6","0.8","0.4","0.2","0.1018336486","0.7429557604","0.3893078888","0.1659387142","","","","","","","","","","","","","","76","L","3","","","99","main_expt",""
"","bandit","180","912006","0.0-141.0-0.0","43544688","wem/bandit_party_2","A30Z1H6111L1VX","either","5","525","","","","","","","0","0","1","","0.145948344","0.6","0.8","0.4","0.2","0.1398961818","0.6717563967","0.4049224607","0.145948344","","","","","","","","","","","","","","76","L","3","","","100","main_expt",""
"","bandit","181","913849","0.0-142.0-0.0","43544688","wem/bandit_party_2","A30Z1H6111L1VX","either","5","324","","","","","","","0","0","1","","0.3259939159","0.6","0.8","0.4","0.2","0.1830356504","0.6929666651","0.3259939159","0.1366695263","","","","","","","","","","","","","","75","K","2","","","101","main_expt",""
"","bandit","182","915712","0.0-143.0-0.0","43544688","wem/bandit_party_2","A30Z1H6111L1VX","either","5","345","","","","","","","1","0","0","0.6827494989","","0.6","0.8","0.4","0.2","","","","","0.1396005595","0.6827494989","0.3598161211","0.1543059156","","","","","","","","","","74","J","1","","","102","main_expt",""
"","bandit","183","917553","0.0-144.0-0.0","43544688","wem/bandit_party_2","A30Z1H6111L1VX","either","5","320","","","","","","","0","0","1","0.7315485361","","0.6","0.8","0.4","0.2","","","","","0.0853830874","0.7315485361","0.3385951472","0.1484193465","","","","","","","","","","74","J","1","","","103","main_expt",""
"","bandit","184","919368","0.0-145.0-0.0","43544688","wem/bandit_party_2","A30Z1H6111L1VX","either","5","297","","","","","","","0","0","1","0.6852971926","","0.6","0.8","0.4","0.2","","","","","0.09317924201","0.6852971926","0.4881545817","0.1516288854","","","","","","","","","","74","J","1","","","104","main_expt",""
"","bandit","185","921260","0.0-146.0-0.0","43544688","wem/bandit_party_2","A30Z1H6111L1VX","either","5","378","","","","","","","0","0","1","","0.693594393","0.6","0.8","0.4","0.2","0.08203708102","0.693594393","0.4790883063","0.1283123627","","","","","","","","","","","","","","74","J","1","","","105","main_expt",""
"","bandit","186","923112","0.0-147.0-0.0","43544688","wem/bandit_party_2","A30Z1H6111L1VX","either","5","333","","","","","","","0","0","1","","0.6101065231","0.6","0.8","0.4","0.2","0.07160056992","0.6101065231","0.4354998123","0.2016068708","","","","","","","","","","","","","","74","J","1","","","106","main_expt",""
"","bandit","187","924934","0.0-148.0-0.0","43544688","wem/bandit_party_2","A30Z1H6111L1VX","either","5","306","","","","","","","0","0","1","","0.5549317608","0.6","0.8","0.4","0.2","0.09799112372","0.5549317608","0.4789065637","0.2344181992","","","","","","","","","","","","","","74","J","1","","","107","main_expt",""
"","bandit","188","926786","0.0-149.0-0.0","43544688","wem/bandit_party_2","A30Z1H6111L1VX","either","5","328","","","","","","","0","0","1","","0.2921896665","0.6","0.8","0.4","0.2","0.1101799882","0.5753690117","0.2921896665","0.2234564856","","","","","","","","","","","","","","75","K","2","","","108","main_expt",""
"","bandit","189","928556","0.0-150.0-0.0","43544688","wem/bandit_party_2","A30Z1H6111L1VX","either","5","255","","","","","","","0","0","1","0.07189968831","","0.6","0.8","0.4","0.2","","","","","0.07189968831","0.5748544728","0.3545905428","0.2494485671","","","","","","","","","","72","H","0","img/none_selected.jpg","","109","main_expt",""
"","bandit","190","930345","0.0-151.0-0.0","43544688","wem/bandit_party_2","A30Z1H6111L1VX","either","5","267","","","","","","","0","0","1","","0.06101418375","0.6","0.8","0.4","0.2","0.06101418375","0.6473038793","0.3110769573","0.2804015825","","","","","","","","","","","","","","72","H","0","img/none_selected.jpg","","110","main_expt",""
"","bandit","191","932131","0.0-152.0-0.0","43544688","wem/bandit_party_2","A30Z1H6111L1VX","either","5","271","","","","","","","0","0","1","0.1032726654","","0.6","0.8","0.4","0.2","","","","","0.1032726654","0.6296147118","0.3673577619","0.254644275","","","","","","","","","","72","H","0","img/none_selected.jpg","","111","main_expt",""
"","bandit","192","934650","0.0-153.0-0.0","43544688","wem/bandit_party_2","A30Z1H6111L1VX","either","5","998","","","","","","","0","0","1","0.6174722021","","0.6","0.8","0.4","0.2","","","","","0.1061240248","0.6174722021","0.3439961468","0.2686709136","","","","","","","","","","74","J","1","","","112","main_expt",""
"","bandit","193","936629","0.0-154.0-0.0","43544688","wem/bandit_party_2","A30Z1H6111L1VX","either","5","463","","","","","","","0","0","1","0.3211503982","","0.6","0.8","0.4","0.2","","","","","0.1150632514","0.7467975424","0.3389202036","0.3211503982","","","","","","","","","","76","L","3","","","113","main_expt",""
"","bandit","194","938504","0.0-155.0-0.0","43544688","wem/bandit_party_2","A30Z1H6111L1VX","either","5","354","","","","","","","0","0","1","","0.3122185675","0.6","0.8","0.4","0.2","0.1491479201","0.7797220863","0.3122185675","0.3067152309","","","","","","","","","","","","","","75","K","2","","","114","main_expt",""
"","bandit","195","940326","0.0-156.0-0.0","43544688","wem/bandit_party_2","A30Z1H6111L1VX","either","5","304","","","","","","","1","0","0","0.8152411921","","0.6","0.8","0.4","0.2","","","","","0.08304421353","0.8152411921","0.2431064996","0.3274584286","","","","","","","","","","74","J","1","","","115","main_expt",""
"","bandit","196","942224","0.0-157.0-0.0","43544688","wem/bandit_party_2","A30Z1H6111L1VX","either","5","376","","","","","","","0","0","1","0.2491959293","","0.6","0.8","0.4","0.2","","","","","0.1391191417","0.7362727539","0.2225404561","0.2491959293","","","","","","","","","","76","L","3","","","116","main_expt",""
"","bandit","197","944064","0.0-158.0-0.0","43544688","wem/bandit_party_2","A30Z1H6111L1VX","either","5","321","","","","","","","1","0","0","0.7051771602","","0.6","0.8","0.4","0.2","","","","","0.1689833708","0.7051771602","0.2891792411","0.1425156065","","","","","","","","","","74","J","1","","","117","main_expt",""
"","bandit","198","946496","0.0-159.0-0.0","43544688","wem/bandit_party_2","A30Z1H6111L1VX","either","5","911","","","","","","","0","0","1","0.1341186766","","0.6","0.8","0.4","0.2","","","","","0.1341186766","0.7099604309","0.3147139712","0.1550025764","","","","","","","","","","72","H","0","img/none_selected.jpg","","118","main_expt",""
"","bandit","199","948319","0.0-160.0-0.0","43544688","wem/bandit_party_2","A30Z1H6111L1VX","either","5","304","","","","","","","1","0","0","0.4890071061","","0.6","0.8","0.4","0.2","","","","","0.1211065448","0.6633752461","0.4890071061","0.1733664784","","","","","","","","","","75","K","2","","","119","main_expt",""
"","bandit","200","952166","0.0-161.0-0.0","43544688","wem/bandit_party_2","A30Z1H6111L1VX","either","5","2328","","","","","","","0","1","0","","0.5238994176","0.6","0.8","0.4","0.2","0.1317257861","0.6748815414","0.5238994176","0.2091577514","","","","","","","","","","","","","","75","K","2","","","120","main_expt",""
"","bandit","201","955550","0.0-162.0-0.0","43544688","wem/bandit_party_2","A30Z1H6111L1VX","either","5","1864","","","","","","","0","0","1","0.2038206067","","0.6","0.8","0.4","0.2","","","","","0.08851148741","0.694041989","0.4821854017","0.2038206067","","","","","","","","","","76","L","3","","","121","main_expt",""
"","bandit","202","958643","0.0-163.0-0.0","43544688","wem/bandit_party_2","A30Z1H6111L1VX","either","5","1570","","","","","","","0","0","1","0.1313095228","","0.6","0.8","0.4","0.2","","","","","0.1313095228","0.7808088803","0.5695824443","0.1646827865","","","","","","","","","","72","H","0","img/none_selected.jpg","","122","main_expt",""
"","bandit","203","960454","0.0-164.0-0.0","43544688","wem/bandit_party_2","A30Z1H6111L1VX","either","5","293","","","","","","","1","0","0","0.7513243775","","0.6","0.8","0.4","0.2","","","","","0.1990721176","0.7513243775","0.5884468641","0.08951947698","","","","","","","","","","74","J","1","","","123","main_expt",""
"","bandit","204","962764","0.0-165.0-0.0","43544688","wem/bandit_party_2","A30Z1H6111L1VX","either","5","793","","","","","","","0","1","0","","0.6578864121","0.6","0.8","0.4","0.2","0.3510587203","0.7095593687","0.6578864121","0.09676311751","","","","","","","","","","","","","","75","K","2","","","124","main_expt",""
"","bandit","205","964581","0.0-166.0-0.0","43544688","wem/bandit_party_2","A30Z1H6111L1VX","either","5","299","","","","","","","0","0","1","0.6464373278","","0.6","0.8","0.4","0.2","","","","","0.2829787335","0.6464373278","0.6610648035","0.08914634913","","","","","","","","","","74","J","1","","","125","main_expt",""
"","bandit","206","966548","0.0-167.0-0.0","43544688","wem/bandit_party_2","A30Z1H6111L1VX","either","5","451","","","","","","","1","0","0","0.6745370829","","0.6","0.8","0.4","0.2","","","","","0.3253732313","0.69855693","0.6745370829","0.1104844084","","","","","","","","","","75","K","2","","","126","main_expt",""
"","bandit","207","969665","0.0-168.0-0.0","43544688","wem/bandit_party_2","A30Z1H6111L1VX","either","5","1598","","","","","","","0","0","1","0.1302598269","","0.6","0.8","0.4","0.2","","","","","0.2969307539","0.6394960802","0.6357656308","0.1302598269","","","","","","","","","","76","L","3","","","127","main_expt",""
"","bandit","208","971476","0.0-169.0-0.0","43544688","wem/bandit_party_2","A30Z1H6111L1VX","either","5","293","","","","","","","1","0","0","0.5912569563","","0.6","0.8","0.4","0.2","","","","","0.3862322559","0.5912569563","0.6746479632","0.1739983423","","","","","","","","","","74","J","1","","","128","main_expt",""
"","bandit","209","973623","0.0-170.0-0.0","43544688","wem/bandit_party_2","A30Z1H6111L1VX","either","5","628","","","","","","","0","1","0","","0.609360971","0.6","0.8","0.4","0.2","0.3399993615","0.6408154383","0.609360971","0.2144078185","","","","","","","","","","","","","","75","K","2","","","129","main_expt",""
"","bandit","210","975655","0.0-171.0-0.0","43544688","wem/bandit_party_2","A30Z1H6111L1VX","either","5","512","","","","","","","1","0","0","0.6160079471","","0.6","0.8","0.4","0.2","","","","","0.4343217783","0.6160079471","0.5791775941","0.2133227205","","","","","","","","","","74","J","1","","","130","main_expt",""
"","bandit","211","977553","0.0-172.0-0.0","43544688","wem/bandit_party_2","A30Z1H6111L1VX","either","5","377","","","","","","","1","0","0","0.6039133906","","0.6","0.8","0.4","0.2","","","","","0.4116870082","0.6639311205","0.6039133906","0.3009586135","","","","","","","","","","75","K","2","","","131","main_expt",""
"","bandit","212","979392","0.0-173.0-0.0","43544688","wem/bandit_party_2","A30Z1H6111L1VX","either","5","318","","","","","","","1","0","0","0.7314418876","","0.6","0.8","0.4","0.2","","","","","0.3235444519","0.7314418876","0.5564977279","0.3257006372","","","","","","","","","","74","J","1","","","132","main_expt",""
"","bandit","213","981226","0.0-174.0-0.0","43544688","wem/bandit_party_2","A30Z1H6111L1VX","either","5","312","","","","","","","0","1","0","","0.5453182718","0.6","0.8","0.4","0.2","0.4204005917","0.7343064015","0.5453182718","0.3286432436","","","","","","","","","","","","","","75","K","2","","","133","main_expt",""
"","bandit","214","983037","0.0-175.0-0.0","43544688","wem/bandit_party_2","A30Z1H6111L1VX","either","5","292","","","","","","","0","0","1","0.6345074403","","0.6","0.8","0.4","0.2","","","","","0.5326734174","0.6345074403","0.5557967555","0.3343575241","","","","","","","","","","74","J","1","","","134","main_expt",""
"","bandit","215","985550","0.0-176.0-0.0","43544688","wem/bandit_party_2","A30Z1H6111L1VX","either","5","994","","","","","","","0","1","0","","0.5719827955","0.6","0.8","0.4","0.2","0.6096825818","0.752921597","0.5719827955","0.2917270645","","","","","","","","","","","","","","75","K","2","","","135","main_expt",""
"","bandit","216","987361","0.0-177.0-0.0","43544688","wem/bandit_party_2","A30Z1H6111L1VX","either","5","288","","","","","","","1","0","0","0.7642539739","","0.6","0.8","0.4","0.2","","","","","0.6827328332","0.7642539739","0.4756276611","0.3972485531","","","","","","","","","","74","J","1","","","136","main_expt",""
"","bandit","217","989213","0.0-178.0-0.0","43544688","wem/bandit_party_2","A30Z1H6111L1VX","either","5","333","","","","","","","1","0","0","0.5078949877","","0.6","0.8","0.4","0.2","","","","","0.6604068036","0.7166238274","0.5078949877","0.4294090248","","","","","","","","","","75","K","2","","","137","main_expt",""
"","bandit","218","991064","0.0-179.0-0.0","43544688","wem/bandit_party_2","A30Z1H6111L1VX","either","5","330","","","","","","","0","0","1","0.713549589","","0.6","0.8","0.4","0.2","","","","","0.653661868","0.713549589","0.4938131475","0.5009988565","","","","","","","","","","74","J","1","","","138","main_expt",""
"","bandit","219","992945","0.0-180.0-0.0","43544688","wem/bandit_party_2","A30Z1H6111L1VX","either","5","360","","","","","","","1","0","0","0.654612375","","0.6","0.8","0.4","0.2","","","","","0.6169918179","0.6905374229","0.654612375","0.4993746949","","","","","","","","","","75","K","2","","","139","main_expt",""
"","bandit","220","994750","0.0-181.0-0.0","43544688","wem/bandit_party_2","A30Z1H6111L1VX","either","5","285","","","","","","","1","0","0","0.6614813372","","0.6","0.8","0.4","0.2","","","","","0.6657435074","0.6614813372","0.52663091","0.5448973659","","","","","","","","","","74","J","1","","","140","main_expt",""
"","bandit","221","996543","0.0-182.0-0.0","43544688","wem/bandit_party_2","A30Z1H6111L1VX","either","5","272","","","","","","","0","0","1","0.5976356642","","0.6","0.8","0.4","0.2","","","","","0.6349341703","0.7024355817","0.5976356642","0.4829720837","","","","","","","","","","75","K","2","","","141","main_expt",""
"","bandit","222","998371","0.0-183.0-0.0","43544688","wem/bandit_party_2","A30Z1H6111L1VX","either","5","309","","","","","","","0","0","1","0.7185929435","","0.6","0.8","0.4","0.2","","","","","0.6379356982","0.7185929435","0.5956183516","0.5402580016","","","","","","","","","","74","J","1","","","142","main_expt",""
"","bandit","223","1000925","0.0-184.0-0.0","43544688","wem/bandit_party_2","A30Z1H6111L1VX","either","5","1037","","","","","","","0","0","1","","0.5478015274","0.6","0.8","0.4","0.2","0.6022688156","0.6240660549","0.6432894639","0.5478015274","","","","","","","","","","","","","","76","L","3","","","143","main_expt",""
"","bandit","224","1002707","0.0-185.0-0.0","43544688","wem/bandit_party_2","A30Z1H6111L1VX","either","5","264","","","","","","","1","0","0","0.5797935966","","0.6","0.8","0.4","0.2","","","","","0.5806731621","0.5797935966","0.6691106198","0.5189832842","","","","","","","","","","74","J","1","","","144","main_expt",""
"","bandit","225","1004576","0.0-186.0-0.0","43544688","wem/bandit_party_2","A30Z1H6111L1VX","either","5","349","","","","","","","1","0","0","0.677031803","","0.6","0.8","0.4","0.2","","","","","0.5512406412","0.520403766","0.677031803","0.4556604905","","","","","","","","","","75","K","2","","","145","main_expt",""
"","bandit","226","1006448","0.0-187.0-0.0","43544688","wem/bandit_party_2","A30Z1H6111L1VX","either","5","350","","","","","","","1","0","0","0.5330345992","","0.6","0.8","0.4","0.2","","","","","0.6055708535","0.5330345992","0.6697886415","0.48011385","","","","","","","","","","74","J","1","","","146","main_expt",""
"","bandit","227","1008402","0.0-188.0-0.0","43544688","wem/bandit_party_2","A30Z1H6111L1VX","either","5","438","","","","","","","0","1","0","","0.7101623398","0.6","0.8","0.4","0.2","0.5711328773","0.5692896821","0.7101623398","0.5363471167","","","","","","","","","","","","","","75","K","2","","","147","main_expt",""
"","bandit","228","1010229","0.0-189.0-0.0","43544688","wem/bandit_party_2","A30Z1H6111L1VX","either","5","308","","","","","","","1","0","0","0.733230793","","0.6","0.8","0.4","0.2","","","","","0.4258462921","0.4877368026","0.733230793","0.4929714004","","","","","","","","","","75","K","2","","","148","main_expt",""
"","bandit","229","1012086","0.0-190.0-0.0","43544688","wem/bandit_party_2","A30Z1H6111L1VX","either","5","338","","","","","","","0","0","1","0.5936336812","","0.6","0.8","0.4","0.2","","","","","0.327967402","0.5936336812","0.7010449773","0.4356177925","","","","","","","","","","74","J","1","","","149","main_expt",""
"","bandit","230","1013932","0.0-191.0-0.0","43544688","wem/bandit_party_2","A30Z1H6111L1VX","either","5","328","","","","","","","0","1","0","","0.6668672445","0.6","0.8","0.4","0.2","0.4343474627","0.7027445866","0.6668672445","0.4054894896","","","","","","","","","","","","","","75","K","2","","","150","main_expt",""
"","bandit","231","1015829","0.0-192.0-0.0","43544688","wem/bandit_party_2","A30Z1H6111L1VX","either","5","380","","","","","","","0","0","1","","0.5612636021","0.6","0.8","0.4","0.2","0.5382828223","0.7690633033","0.5612636021","0.5283130311","","","","","","","","","","","","","","75","K","2","","","151","main_expt",""
"","bandit","232","1017907","0.0-193.0-0.0","43544688","wem/bandit_party_2","A30Z1H6111L1VX","either","5","561","","","","","","","1","0","0","0.5989969619","","0.6","0.8","0.4","0.2","","","","","0.6572277468","0.5989969619","0.7032448324","0.6323123958","","","","","","","","","","74","J","1","","","152","main_expt",""
"","bandit","233","1019811","0.0-194.0-0.0","43544688","wem/bandit_party_2","A30Z1H6111L1VX","either","5","387","","","","","","","0","0","1","","0.6918543646","0.6","0.8","0.4","0.2","0.668560183","0.6126787421","0.6918543646","0.5847243132","","","","","","","","","","","","","","75","K","2","","","153","main_expt",""
"","bandit","234","1021587","0.0-195.0-0.0","43544688","wem/bandit_party_2","A30Z1H6111L1VX","either","5","259","","","","","","","0","1","0","","0.647195156","0.6","0.8","0.4","0.2","0.6954524596","0.5461115941","0.647195156","0.4285456013","","","","","","","","","","","","","","75","K","2","","","154","main_expt",""
"","bandit","235","1023398","0.0-196.0-0.0","43544688","wem/bandit_party_2","A30Z1H6111L1VX","either","5","291","","","","","","","0","0","1","","0.5456348337","0.6","0.8","0.4","0.2","0.5684527538","0.5456348337","0.6135998722","0.4772645207","","","","","","","","","","","","","","74","J","1","","","155","main_expt",""
"","bandit","236","1025215","0.0-197.0-0.0","43544688","wem/bandit_party_2","A30Z1H6111L1VX","either","5","295","","","","","","","0","0","1","","0.5591033916","0.6","0.8","0.4","0.2","0.6034375159","0.4782917504","0.5591033916","0.4982711843","","","","","","","","","","","","","","75","K","2","","","156","main_expt",""
"","bandit","237","1027072","0.0-198.0-0.0","43544688","wem/bandit_party_2","A30Z1H6111L1VX","either","5","335","","","","","","","0","1","0","","0.5090787948","0.6","0.8","0.4","0.2","0.5835723018","0.4868537485","0.5090787948","0.5275183668","","","","","","","","","","","","","","75","K","2","","","157","main_expt",""
"","bandit","238","1028900","0.0-199.0-0.0","43544688","wem/bandit_party_2","A30Z1H6111L1VX","either","5","310","","","","","","","0","0","1","0.5361642224","","0.6","0.8","0.4","0.2","","","","","0.5234712835","0.5361642224","0.6087372924","0.4489423754","","","","","","","","","","74","J","1","","","158","main_expt",""
"","bandit","239","1030908","0.0-200.0-0.0","43544688","wem/bandit_party_2","A30Z1H6111L1VX","either","5","488","","","","","","","0","0","1","0.6064578463","","0.6","0.8","0.4","0.2","","","","","0.5636881177","0.4947944436","0.6064578463","0.4933275403","","","","","","","","","","75","K","2","","","159","main_expt",""
"","bandit","240","1032957","0.0-201.0-0.0","43544688","wem/bandit_party_2","A30Z1H6111L1VX","either","5","531","","","","","","","0","0","1","0.5106889885","","0.6","0.8","0.4","0.2","","","","","0.4785340868","0.5106889885","0.6951258233","0.4521998099","","","","","","","","","","74","J","1","","","160","main_expt",""
"","bandit","241","1034739","0.0-202.0-0.0","43544688","wem/bandit_party_2","A30Z1H6111L1VX","either","5","265","","","","","","","0","0","1","0.7129510734","","0.6","0.8","0.4","0.2","","","","","0.5038962889","0.4566704777","0.7129510734","0.5114636712","","","","","","","","","","75","K","2","","","161","main_expt",""
"","bandit","242","1036550","0.0-203.0-0.0","43544688","wem/bandit_party_2","A30Z1H6111L1VX","either","5","294","","","","","","","0","0","1","","0.4448395692","0.6","0.8","0.4","0.2","0.4448395692","0.3259271754","0.7028034005","0.5242674757","","","","","","","","","","","","","","72","H","0","img/none_selected.jpg","","162","main_expt",""
"","bandit","243","1038355","0.0-204.0-0.0","43544688","wem/bandit_party_2","A30Z1H6111L1VX","either","5","288","","","","","","","0","0","1","","0.5687322637","0.6","0.8","0.4","0.2","0.471982621","0.2806734392","0.6293758899","0.5687322637","","","","","","","","","","","","","","76","L","3","","","163","main_expt",""
"","bandit","244","1040160","0.0-205.0-0.0","43544688","wem/bandit_party_2","A30Z1H6111L1VX","either","5","282","","","","","","","0","0","1","0.6813427096","","0.6","0.8","0.4","0.2","","","","","0.6517066897","0.2973163189","0.6813427096","0.5635146256","","","","","","","","","","75","K","2","","","164","main_expt",""
"","bandit","245","1041901","0.0-206.0-0.0","43544688","wem/bandit_party_2","A30Z1H6111L1VX","either","5","222","","","","","","","0","1","0","","0.7231406025","0.6","0.8","0.4","0.2","0.6339143586","0.2872552927","0.7231406025","0.6588968294","","","","","","","","","","","","","","75","K","2","","","165","main_expt",""
"","bandit","246","1043717","0.0-207.0-0.0","43544688","wem/bandit_party_2","A30Z1H6111L1VX","either","5","296","","","","","","","1","0","0","0.325395791","","0.6","0.8","0.4","0.2","","","","","0.6507743373","0.325395791","0.6274448994","0.74872254","","","","","","","","","","74","J","1","","","166","main_expt",""
"","bandit","247","1045685","0.0-208.0-0.0","43544688","wem/bandit_party_2","A30Z1H6111L1VX","either","5","448","","","","","","","0","1","0","","0.6778384319","0.6","0.8","0.4","0.2","0.6753437353","0.3307719744","0.6778384319","0.7741304825","","","","","","","","","","","","","","75","K","2","","","167","main_expt",""
"","bandit","248","1047687","0.0-209.0-0.0","43544688","wem/bandit_party_2","A30Z1H6111L1VX","either","5","482","","","","","","","0","0","1","0.4033689778","","0.6","0.8","0.4","0.2","","","","","0.6308788189","0.4033689778","0.6928942004","0.8873722237","","","","","","","","","","74","J","1","","","168","main_expt",""
"","bandit","249","1049481","0.0-210.0-0.0","43544688","wem/bandit_party_2","A30Z1H6111L1VX","either","5","268","","","","","","","0","0","1","0.4089274666","","0.6","0.8","0.4","0.2","","","","","0.6289357746","0.4089274666","0.6181376835","0.8649989169","","","","","","","","","","74","J","1","","","169","main_expt",""
"","bandit","250","1051269","0.0-211.0-0.0","43544688","wem/bandit_party_2","A30Z1H6111L1VX","either","5","267","","","","","","","0","0","1","0.4033631647","","0.6","0.8","0.4","0.2","","","","","0.6308829817","0.4033631647","0.6539136718","0.8634323334","","","","","","","","","","74","J","1","","","170","main_expt",""
"","bandit","251","1053002","0.0-212.0-0.0","43544688","wem/bandit_party_2","A30Z1H6111L1VX","either","5","216","","","","","","","1","0","0","0.7935188527","","0.6","0.8","0.4","0.2","","","","","0.6008061885","0.3743415885","0.7935188527","0.8050812792","","","","","","","","","","75","K","2","","","171","main_expt",""
"","bandit","252","1054812","0.0-213.0-0.0","43544688","wem/bandit_party_2","A30Z1H6111L1VX","either","5","290","","","","","","","0","1","0","","0.7959482017","0.6","0.8","0.4","0.2","0.6498855282","0.4145867416","0.7959482017","0.7635000848","","","","","","","","","","","","","","75","K","2","","","172","main_expt",""
"","bandit","253","1056677","0.0-214.0-0.0","43544688","wem/bandit_party_2","A30Z1H6111L1VX","either","5","344","","","","","","","0","0","1","0.4421490518","","0.6","0.8","0.4","0.2","","","","","0.6361658802","0.4421490518","0.7720377381","0.7793560846","","","","","","","","","","74","J","1","","","173","main_expt",""
"","bandit","254","1058455","0.0-215.0-0.0","43544688","wem/bandit_party_2","A30Z1H6111L1VX","either","5","257","","","","","","","0","1","0","","0.7290013271","0.6","0.8","0.4","0.2","0.5494915933","0.373112653","0.7751150559","0.7290013271","","","","","","","","","","","","","","76","L","3","","","174","main_expt",""
"","bandit","255","1060247","0.0-216.0-0.0","43544688","wem/bandit_party_2","A30Z1H6111L1VX","either","5","270","","","","","","","0","0","1","0.7699246652","","0.6","0.8","0.4","0.2","","","","","0.6292002022","0.372221374","0.7699246652","0.8353873757","","","","","","","","","","75","K","2","","","175","main_expt",""
"","bandit","256","1061801","0.0-217.0-0.0","43544688","wem/bandit_party_2","A30Z1H6111L1VX","either","5","36","","","","","","","0","0","1","","0.8589437223","0.6","0.8","0.4","0.2","0.4999600136","0.3594456443","0.8092821718","0.8589437223","","","","","","","","","","","","","","76","L","3","","","176","main_expt",""
"","bandit","257","1063578","0.0-218.0-0.0","43544688","wem/bandit_party_2","A30Z1H6111L1VX","either","5","259","","","","","","","0","0","1","0.3705823864","","0.6","0.8","0.4","0.2","","","","","0.4500304274","0.3705823864","0.7728258073","0.8824379228","","","","","","","","","","74","J","1","","","177","main_expt",""
"","bandit","258","1065232","0.0-219.0-0.0","43544688","wem/bandit_party_2","A30Z1H6111L1VX","either","5","135","","","","","","","0","0","1","0.8128952128","","0.6","0.8","0.4","0.2","","","","","0.4626099748","0.3042584581","0.8128952128","0.8862787626","","","","","","","","","","75","K","2","","","178","main_expt",""
"","bandit","259","1067002","0.0-220.0-0.0","43544688","wem/bandit_party_2","A30Z1H6111L1VX","either","5","252","","","","","","","0","1","0","","0.7878088044","0.6","0.8","0.4","0.2","0.3074659707","0.3056645996","0.7878088044","0.8851661012","","","","","","","","","","","","","","75","K","2","","","179","main_expt",""
"","bandit","260","1068837","0.0-221.0-0.0","43544688","wem/bandit_party_2","A30Z1H6111L1VX","either","5","316","","","","","","","0","0","1","0.3124458775","","0.6","0.8","0.4","0.2","","","","","0.2445312817","0.3124458775","0.7626215198","0.8623840347","","","","","","","","","","74","J","1","","","180","main_expt",""
"","bandit","261","1070636","0.0-222.0-0.0","43544688","wem/bandit_party_2","A30Z1H6111L1VX","either","5","280","","","","","","","0","1","0","","0.8815853427","0.6","0.8","0.4","0.2","0.2284870313","0.2597333415","0.7059637017","0.8815853427","","","","","","","","","","","","","","76","L","3","","","181","main_expt",""
"","bandit","262","1072580","0.0-223.0-0.0","43544688","wem/bandit_party_2","A30Z1H6111L1VX","either","5","425","","","","","","","1","0","0","0.6691747745","","0.6","0.8","0.4","0.2","","","","","0.2195648065","0.2117009826","0.6691747745","0.8955826305","","","","","","","","","","75","K","2","","","182","main_expt",""
"","bandit","263","1074391","0.0-224.0-0.0","43544688","wem/bandit_party_2","A30Z1H6111L1VX","either","5","288","","","","","","","0","1","0","","0.9362873759","0.6","0.8","0.4","0.2","0.2327716204","0.2327762041","0.5523838876","0.9362873759","","","","","","","","","","","","","","76","L","3","","","183","main_expt",""
"","bandit","264","1076193","0.0-225.0-0.0","43544688","wem/bandit_party_2","A30Z1H6111L1VX","either","5","276","","","","","","","0","0","1","","0.5451875246","0.6","0.8","0.4","0.2","0.3207903029","0.2750618684","0.5451875246","0.9484326647","","","","","","","","","","","","","","75","K","2","","","184","main_expt",""
"","bandit","265","1077984","0.0-226.0-0.0","43544688","wem/bandit_party_2","A30Z1H6111L1VX","either","5","266","","","","","","","1","0","0","0.6090771744","","0.6","0.8","0.4","0.2","","","","","0.3609723674","0.2305846964","0.6090771744","0.9660783121","","","","","","","","","","75","K","2","","","185","main_expt",""
"","bandit","266","1079824","0.0-227.0-0.0","43544688","wem/bandit_party_2","A30Z1H6111L1VX","either","5","318","","","","","","","1","0","0","0.9665376101","","0.6","0.8","0.4","0.2","","","","","0.4442397518","0.2597669424","0.5810996076","0.9665376101","","","","","","","","","","76","L","3","","","186","main_expt",""
"","bandit","267","1082023","0.0-228.0-0.0","43544688","wem/bandit_party_2","A30Z1H6111L1VX","either","5","676","","","","","","","0","0","1","","0.4445572548","0.6","0.8","0.4","0.2","0.4478442549","0.2143742246","0.4445572548","0.9644184371","","","","","","","","","","","","","","75","K","2","","","187","main_expt",""
"","bandit","268","1083865","0.0-229.0-0.0","43544688","wem/bandit_party_2","A30Z1H6111L1VX","either","5","325","","","","","","","0","0","1","0.4113554433","","0.6","0.8","0.4","0.2","","","","","0.4026396634","0.2294707647","0.4113554433","0.9731237162","","","","","","","","","","75","K","2","","","188","main_expt",""
"","bandit","269","1085720","0.0-230.0-0.0","43544688","wem/bandit_party_2","A30Z1H6111L1VX","either","5","338","","","","","","","1","0","0","0.9787475226","","0.6","0.8","0.4","0.2","","","","","0.5072589837","0.2469430613","0.4053553249","0.9787475226","","","","","","","","","","76","L","3","","","189","main_expt",""
"","bandit","270","1087549","0.0-231.0-0.0","43544688","wem/bandit_party_2","A30Z1H6111L1VX","either","5","306","","","","","","","0","1","0","","0.9847816181","0.6","0.8","0.4","0.2","0.5234843415","0.2437728268","0.4927633492","0.9847816181","","","","","","","","","","","","","","76","L","3","","","190","main_expt",""
"","bandit","271","1089359","0.0-232.0-0.0","43544688","wem/bandit_party_2","A30Z1H6111L1VX","either","5","286","","","","","","","0","0","1","0.428678546","","0.6","0.8","0.4","0.2","","","","","0.5054414672","0.1655579887","0.428678546","0.9713064587","","","","","","","","","","75","K","2","","","191","main_expt",""
"","bandit","272","1091147","0.0-233.0-0.0","43544688","wem/bandit_party_2","A30Z1H6111L1VX","either","5","267","","","","","","","0","1","0","","0.9558555722","0.6","0.8","0.4","0.2","0.7037613703","0.1501427492","0.3358015867","0.9558555722","","","","","","","","","","","","","","76","L","3","","","192","main_expt",""
"","bandit","273","1092935","0.0-234.0-0.0","43544688","wem/bandit_party_2","A30Z1H6111L1VX","either","5","264","","","","","","","0","1","0","","0.9443800135","0.6","0.8","0.4","0.2","0.5980286963","0.2062706367","0.2816430679","0.9443800135","","","","","","","","","","","","","","76","L","3","","","193","main_expt",""
"","bandit","274","1094716","0.0-235.0-0.0","43544688","wem/bandit_party_2","A30Z1H6111L1VX","either","5","261","","","","","","","0","1","0","","0.947825408","0.6","0.8","0.4","0.2","0.5607231578","0.2782937815","0.2951519504","0.947825408","","","","","","","","","","","","","","76","L","3","","","194","main_expt",""
"","bandit","275","1096533","0.0-236.0-0.0","43544688","wem/bandit_party_2","A30Z1H6111L1VX","either","5","296","","","","","","","0","1","0","","0.9531013361","0.6","0.8","0.4","0.2","0.6222063369","0.2393938873","0.2482291913","0.9531013361","","","","","","","","","","","","","","76","L","3","","","195","main_expt",""
"","bandit","276","1098326","0.0-237.0-0.0","43544688","wem/bandit_party_2","A30Z1H6111L1VX","either","5","268","","","","","","","0","1","0","","0.9653581558","0.6","0.8","0.4","0.2","0.7092042058","0.3385483064","0.2548661126","0.9653581558","","","","","","","","","","","","","","76","L","3","","","196","main_expt",""
"","bandit","277","1100149","0.0-238.0-0.0","43544688","wem/bandit_party_2","A30Z1H6111L1VX","either","5","300","","","","","","","0","1","0","","0.9774234012","0.6","0.8","0.4","0.2","0.7397780251","0.3474357388","0.2789697966","0.9774234012","","","","","","","","","","","","","","76","L","3","","","197","main_expt",""
"","bandit","278","1101751","0.0-239.0-0.0","43544688","wem/bandit_party_2","A30Z1H6111L1VX","either","5","78","","","","","","","0","1","0","","0.9866112083","0.6","0.8","0.4","0.2","0.6977166648","0.4511600961","0.2893473624","0.9866112083","","","","","","","","","","","","","","76","L","3","","","198","main_expt",""
"","bandit","279","1103550","0.0-240.0-0.0","43544688","wem/bandit_party_2","A30Z1H6111L1VX","either","5","276","","","","","","","0","1","0","","0.9889390623","0.6","0.8","0.4","0.2","0.591703898","0.4387406867","0.2499124536","0.9889390623","","","","","","","","","","","","","","76","L","3","","","199","main_expt",""
"","bandit","280","1105349","0.0-241.0-0.0","43544688","wem/bandit_party_2","A30Z1H6111L1VX","either","5","276","","","","","","","0","1","0","","0.9894921125","0.6","0.8","0.4","0.2","0.5107967375","0.4368135332","0.2643429758","0.9894921125","","","","","","","","","","","","","","76","L","3","","","200","main_expt",""
"","bandit","281","1106998","0.0-242.0-0.0","43544688","wem/bandit_party_2","A30Z1H6111L1VX","either","5","124","","","","","","","0","1","0","","0.989248002","0.6","0.8","0.4","0.2","0.6528148869","0.3070084091","0.2382870841","0.989248002","","","","","","","","","","","","","","76","L","3","","","201","main_expt",""
"","bandit","282","1108857","0.0-243.0-0.0","43544688","wem/bandit_party_2","A30Z1H6111L1VX","either","5","333","","","","","","","0","1","0","","0.9957983392","0.6","0.8","0.4","0.2","0.6892998309","0.3603585946","0.1604624283","0.9957983392","","","","","","","","","","","","","","76","L","3","","","202","main_expt",""
"","bandit","283","1110642","0.0-244.0-0.0","43544688","wem/bandit_party_2","A30Z1H6111L1VX","either","5","264","","","","","","","0","1","0","","0.9958893","0.6","0.8","0.4","0.2","0.6989476798","0.260320329","0.1407610566","0.9958893","","","","","","","","","","","","","","76","L","3","","","203","main_expt",""
"","bandit","284","1112403","0.0-245.0-0.0","43544688","wem/bandit_party_2","A30Z1H6111L1VX","either","5","241","","","","","","","1","0","0","0.9955962674","","0.6","0.8","0.4","0.2","","","","","0.772264117","0.2003029851","0.1343245238","0.9955962674","","","","","","","","","","76","L","3","","","204","main_expt",""
"","bandit","285","1114026","0.0-246.0-0.0","43544688","wem/bandit_party_2","A30Z1H6111L1VX","either","5","104","","","","","","","0","1","0","","0.9943432705","0.6","0.8","0.4","0.2","0.7366863645","0.1922312923","0.1715400642","0.9943432705","","","","","","","","","","","","","","76","L","3","","","205","main_expt",""
"","bandit","286","1115558","0.0-247.0-0.0","43544688","wem/bandit_party_2","A30Z1H6111L1VX","either","5","7","","","","","","","0","1","0","","0.9982320458","0.6","0.8","0.4","0.2","0.7477287432","0.1936085521","0.117617648","0.9982320458","","","","","","","","","","","","","","76","L","3","","","206","main_expt",""
"","bandit","287","1117632","0.0-248.0-0.0","43544688","wem/bandit_party_2","A30Z1H6111L1VX","either","5","547","","","","","","","0","1","0","","0.9976530308","0.6","0.8","0.4","0.2","0.8185776196","0.1821705986","0.1182717864","0.9976530308","","","","","","","","","","","","","","76","L","3","","","207","main_expt",""
"","bandit","288","1119894","0.0-249.0-0.0","43544688","wem/bandit_party_2","A30Z1H6111L1VX","either","5","739","","","","","","","0","1","0","","0.9961811318","0.6","0.8","0.4","0.2","0.8161769506","0.1145050302","0.1445047472","0.9961811318","","","","","","","","","","","","","","76","L","3","","","208","main_expt",""
"","bandit","289","1121710","0.0-250.0-0.0","43544688","wem/bandit_party_2","A30Z1H6111L1VX","either","5","293","","","","","","","0","1","0","","0.9977639941","0.6","0.8","0.4","0.2","0.8224464957","0.1206637037","0.1264159314","0.9977639941","","","","","","","","","","","","","","76","L","3","","","209","main_expt",""
"","bandit","290","1123378","0.0-251.0-0.0","43544688","wem/bandit_party_2","A30Z1H6111L1VX","either","5","142","","","","","","","0","1","0","","0.9953783407","0.6","0.8","0.4","0.2","0.7392866018","0.1422927172","0.1208777168","0.9953783407","","","","","","","","","","","","","","76","L","3","","","210","main_expt",""
"","bandit","291","1125146","0.0-252.0-0.0","43544688","wem/bandit_party_2","A30Z1H6111L1VX","either","5","247","","","","","","","0","1","0","","0.9976351195","0.6","0.8","0.4","0.2","0.7125411919","0.1811219169","0.1733448518","0.9976351195","","","","","","","","","","","","","","76","L","3","","","211","main_expt",""
"","bandit","292","1126864","0.0-253.0-0.0","43544688","wem/bandit_party_2","A30Z1H6111L1VX","either","5","198","","","","","","","0","1","0","","0.9983589292","0.6","0.8","0.4","0.2","0.7191881067","0.1982527665","0.1085262221","0.9983589292","","","","","","","","","","","","","","76","L","3","","","212","main_expt",""
"","bandit","293","1128466","0.0-254.0-0.0","43544688","wem/bandit_party_2","A30Z1H6111L1VX","either","5","82","","","","","","","0","1","0","","0.9960427138","0.6","0.8","0.4","0.2","0.7523845147","0.124448309","0.08145678985","0.9960427138","","","","","","","","","","","","","","76","L","3","","","213","main_expt",""
"","bandit","294","1130138","0.0-255.0-0.0","43544688","wem/bandit_party_2","A30Z1H6111L1VX","either","5","152","","","","","","","0","1","0","","0.9924650588","0.6","0.8","0.4","0.2","0.7193420906","0.1036015692","0.05725631888","0.9924650588","","","","","","","","","","","","","","76","L","3","","","214","main_expt",""
"","bandit","295","1131736","0.0-256.0-0.0","43544688","wem/bandit_party_2","A30Z1H6111L1VX","either","5","74","","","","","","","0","1","0","","0.9858211903","0.6","0.8","0.4","0.2","0.6784461291","0.14458031","0.04356988172","0.9858211903","","","","","","","","","","","","","","76","L","3","","","215","main_expt",""
"","bandit","296","1133492","0.0-257.0-0.0","43544688","wem/bandit_party_2","A30Z1H6111L1VX","either","5","236","","","","","","","0","1","0","","0.9915289077","0.6","0.8","0.4","0.2","0.5658185063","0.2094876981","0.04316154837","0.9915289077","","","","","","","","","","","","","","76","L","3","","","216","main_expt",""
"","bandit","297","1135170","0.0-258.0-0.0","43544688","wem/bandit_party_2","A30Z1H6111L1VX","either","5","159","","","","","","","0","1","0","","0.9929544916","0.6","0.8","0.4","0.2","0.4886301847","0.24936904","0.03453558383","0.9929544916","","","","","","","","","","","","","","76","L","3","","","217","main_expt",""
"","bandit","298","1136864","0.0-259.0-0.0","43544688","wem/bandit_party_2","A30Z1H6111L1VX","either","5","177","","","","","","","0","1","0","","0.9741721496","0.6","0.8","0.4","0.2","0.5674985979","0.2006789107","0.03800932399","0.9741721496","","","","","","","","","","","","","","76","L","3","","","218","main_expt",""
"","bandit","299","1139111","0.0-260.0-0.0","43544688","wem/bandit_party_2","A30Z1H6111L1VX","either","5","721","","","","","","","0","0","1","","0.9413517393","0.6","0.8","0.4","0.2","0.6088772151","0.2118480588","0.07914639327","0.9413517393","","","","","","","","","","","","","","76","L","3","","","219","main_expt",""
"","bandit","300","1140934","0.0-261.0-0.0","43544688","wem/bandit_party_2","A30Z1H6111L1VX","either","5","297","","","","","","","0","0","1","0.07044987786","","0.6","0.8","0.4","0.2","","","","","0.5856238885","0.2159213458","0.07044987786","0.9230346446","","","","","","","","","","75","K","2","","","220","main_expt",""
"","bandit","301","1142674","0.0-262.0-0.0","43544688","wem/bandit_party_2","A30Z1H6111L1VX","either","5","218","","","","","","","0","0","1","","0.1351506501","0.6","0.8","0.4","0.2","0.6601978635","0.2097338805","0.1351506501","0.9216350241","","","","","","","","","","","","","","75","K","2","","","221","main_expt",""
"","bandit","302","1144415","0.0-263.0-0.0","43544688","wem/bandit_party_2","A30Z1H6111L1VX","either","5","216","","","","","","","0","1","0","","0.9093406134","0.6","0.8","0.4","0.2","0.6540659739","0.1468233299","0.2099108548","0.9093406134","","","","","","","","","","","","","","76","L","3","","","222","main_expt",""
"","bandit","303","1146035","0.0-264.0-0.0","43544688","wem/bandit_party_2","A30Z1H6111L1VX","either","5","99","","","","","","","1","0","0","0.8361447498","","0.6","0.8","0.4","0.2","","","","","0.7010542315","0.1379540926","0.2971693323","0.8361447498","","","","","","","","","","76","L","3","","","223","main_expt",""
"","bandit","304","1147782","0.0-265.0-0.0","43544688","wem/bandit_party_2","A30Z1H6111L1VX","either","5","223","","","","","","","1","0","0","0.8626161161","","0.6","0.8","0.4","0.2","","","","","0.7972730751","0.1943723139","0.2754671199","0.8626161161","","","","","","","","","","76","L","3","","","224","main_expt",""
"","bandit","305","1149563","0.0-266.0-0.0","43544688","wem/bandit_party_2","A30Z1H6111L1VX","either","5","260","","","","","","","0","0","1","","0.9176165053","0.6","0.8","0.4","0.2","0.8726314772","0.2949344278","0.2483133052","0.9176165053","","","","","","","","","","","","","","76","L","3","","","225","main_expt",""
"","bandit","306","1151217","0.0-267.0-0.0","43544688","wem/bandit_party_2","A30Z1H6111L1VX","either","5","133","","","","","","","0","1","0","","0.2945032007","0.6","0.8","0.4","0.2","0.8569150835","0.4040967375","0.2945032007","0.9516545376","","","","","","","","","","","","","","75","K","2","","","226","main_expt",""
"","bandit","307","1152875","0.0-268.0-0.0","43544688","wem/bandit_party_2","A30Z1H6111L1VX","either","5","136","","","","","","","0","1","0","","0.9448551655","0.6","0.8","0.4","0.2","0.8773762417","0.4369809926","0.2544933329","0.9448551655","","","","","","","","","","","","","","76","L","3","","","227","main_expt",""
"","bandit","308","1154398","0.0-269.0-0.0","43544688","wem/bandit_party_2","A30Z1H6111L1VX","either","5","1","","","","","","","0","1","0","","0.9298030406","0.6","0.8","0.4","0.2","0.8514828757","0.4228749262","0.22227057","0.9298030406","","","","","","","","","","","","","","76","L","3","","","228","main_expt",""
"","bandit","309","1156186","0.0-270.0-0.0","43544688","wem/bandit_party_2","A30Z1H6111L1VX","either","5","267","","","","","","","1","0","0","0.9022116856","","0.6","0.8","0.4","0.2","","","","","0.893786405","0.4953143479","0.2319557967","0.9022116856","","","","","","","","","","76","L","3","","","229","main_expt",""
"","bandit","310","1158130","0.0-271.0-0.0","43544688","wem/bandit_party_2","A30Z1H6111L1VX","either","5","421","","","","","","","0","1","0","","0.8934587516","0.6","0.8","0.4","0.2","0.9350514117","0.4752889979","0.3107577299","0.8934587516","","","","","","","","","","","","","","76","L","3","","","230","main_expt",""
"","bandit","311","1159796","0.0-272.0-0.0","43544688","wem/bandit_party_2","A30Z1H6111L1VX","either","5","143","","","","","","","0","1","0","","0.8403693225","0.6","0.8","0.4","0.2","0.9139197991","0.4887049862","0.3046703461","0.8403693225","","","","","","","","","","","","","","76","L","3","","","231","main_expt",""
"","bandit","312","1161554","0.0-273.0-0.0","43544688","wem/bandit_party_2","A30Z1H6111L1VX","either","5","238","","","","","","","0","1","0","","0.7373772703","0.6","0.8","0.4","0.2","0.8753904063","0.6065944358","0.4259459217","0.7373772703","","","","","","","","","","","","","","76","L","3","","","232","main_expt",""
"","bandit","313","1163265","0.0-274.0-0.0","43544688","wem/bandit_party_2","A30Z1H6111L1VX","either","5","190","","","","","","","1","0","0","0.7275490615","","0.6","0.8","0.4","0.2","","","","","0.807664976","0.5320380184","0.3391655585","0.7275490615","","","","","","","","","","76","L","3","","","233","main_expt",""
"","bandit","314","1164911","0.0-275.0-0.0","43544688","wem/bandit_party_2","A30Z1H6111L1VX","either","5","120","","","","","","","0","1","0","","0.6910989812","0.6","0.8","0.4","0.2","0.817303243","0.5845689413","0.3380141995","0.6910989812","","","","","","","","","","","","","","76","L","3","","","234","main_expt",""
"","bandit","315","1166493","0.0-276.0-0.0","43544688","wem/bandit_party_2","A30Z1H6111L1VX","either","5","58","","","","","","","0","1","0","","0.6506848601","0.6","0.8","0.4","0.2","0.8320050337","0.4424117598","0.2949514339","0.6506848601","","","","","","","","","","","","","","76","L","3","","","235","main_expt",""
"","bandit","316","1168037","0.0-277.0-0.0","43544688","wem/bandit_party_2","A30Z1H6111L1VX","either","5","21","","","","","","","0","0","1","","0.589166471","0.6","0.8","0.4","0.2","0.8539654836","0.4411324282","0.2575094814","0.589166471","","","","","","","","","","","","","","76","L","3","","","236","main_expt",""
"","bandit","317","1169668","0.0-278.0-0.0","43544688","wem/bandit_party_2","A30Z1H6111L1VX","either","5","107","","","","","","","0","0","1","0.5475273787","","0.6","0.8","0.4","0.2","","","","","0.8151920012","0.5792865955","0.3298960346","0.5475273787","","","","","","","","","","76","L","3","","","237","main_expt",""
"","bandit","318","1171659","0.0-279.0-0.0","43544688","wem/bandit_party_2","A30Z1H6111L1VX","either","5","468","","","","","","","1","0","0","0.3922637729","","0.6","0.8","0.4","0.2","","","","","0.8724257749","0.6435093149","0.3922637729","0.5644141111","","","","","","","","","","75","K","2","","","238","main_expt",""
