"consent","trial_type","trial_index","time_elapsed","internal_node_id","subjID","study","MID","cond","drift","rt","responses","button_pressed","key_press","like","value","connected","gems","bombs","no_reward","GemPrChosen","BombPrChosen","GainOverPainPr_0","GainOverPainPr_1","GainOverPainPr_2","GainOverPainPr_3","LosePr_0","LosePr_1","LosePr_2","LosePr_3","WinPr_0","WinPr_1","WinPr_2","WinPr_3","Q0","Q1","Q2","gender","age","ethnicity","label","expt_phase","target","respCharCode","respKey","respChoiceNum","respChoice","practice","trial_counter","trial_label","Q0_index","view_history"
"GDM/GDM_behavioral_consent_30min_online.html","consent","0","8309","0.0-0.0","43854179","wem/bandit_party_2","A32J0WKL5KD8C0","either","2","","","","","","","","","","","","","","","","","","","","","","","","","","","","","","","","","","","","","","","","","",""
"","survey-text","1","12233","0.0-1.0","43854179","wem/bandit_party_2","A32J0WKL5KD8C0","either","2","2906","{""Q0"":""A32J0WKL5KD8C0""}","","","","","","","","","","","","","","","","","","","","","","","","","","","","","","","","","","","","","","","",""
"","button-response","2","14622","0.0-2.0","43854179","wem/bandit_party_2","A32J0WKL5KD8C0","either","2","1379","","1","","","","","","","","","","","","","","","","","","","","","","","","","","","","","","","","","","","","","","",""
"","text-replacement","3","31679","0.0-3.0","43854179","wem/bandit_party_2","A32J0WKL5KD8C0","either","2","16050","","","32","","","","","","","","","","","","","","","","","","","","","","","","","","","","","","","","","","","","","",""
"","text-replacement","4","39536","0.0-4.0","43854179","wem/bandit_party_2","A32J0WKL5KD8C0","either","2","7853","","","32","","","","","","","","","","","","","","","","","","","","","","","","","","","","","","","","","","","","","",""
"","identification","5","45851","0.0-6.0-0.0","43854179","wem/bandit_party_2","A32J0WKL5KD8C0","either","2","6280","","","","5","4","5","","","","","","","","","","","","","","","","","","","","","","","","pre","identification_pre","the Democratic Party","","","","","","","","",""
"","identification","6","51377","0.0-6.0-1.0","43854179","wem/bandit_party_2","A32J0WKL5KD8C0","either","2","4492","","","","3","2","2","","","","","","","","","","","","","","","","","","","","","","","","pre","identification_pre","the Republican Party","","","","","","","","",""
"","text-replacement","7","58480","0.0-7.0","43854179","wem/bandit_party_2","A32J0WKL5KD8C0","either","2","6099","","","32","","","","","","","","","","","","","","","","","","","","","","","","","","","","","","","","","","","","","",""
"","text-replacement","8","66924","0.0-8.0","43854179","wem/bandit_party_2","A32J0WKL5KD8C0","either","2","8439","","","32","","","","","","","","","","","","","","","","","","","","","","","","","","","","","","","","","","","","","",""
"","text-replacement","9","87348","0.0-9.0","43854179","wem/bandit_party_2","A32J0WKL5KD8C0","either","2","20420","","","32","","","","","","","","","","","","","","","","","","","","","","","","","","","","","","","","","","","","","",""
"","text-replacement","10","92899","0.0-10.0","43854179","wem/bandit_party_2","A32J0WKL5KD8C0","either","2","5548","","","32","","","","","","","","","","","","","","","","","","","","","","","","","","","","","","","","","","","","","",""
"","text-replacement","11","98817","0.0-11.0","43854179","wem/bandit_party_2","A32J0WKL5KD8C0","either","2","5915","","","32","","","","","","","","","","","","","","","","","","","","","","","","","","","","","","","","","","","","","",""
"","bandit","12","104475","0.0-12.0-0.0","43854179","wem/bandit_party_2","A32J0WKL5KD8C0","either","2","4145","","","","","","","0","0","1","0","0","","","","","0","","","","0","","","","","","","","","","","","","74","J","0","img/none_selected_demo.jpg","true","0","","",""
"","bandit","13","107159","0.0-13.0-0.0","43854179","wem/bandit_party_2","A32J0WKL5KD8C0","either","2","1175","","","","","","","0","0","1","0","0","","","","","0","","","","0","","","","","","","","","","","","","75","K","0","img/none_selected_demo.jpg","true","0","","",""
"","text-replacement","14","112618","0.0-14.0","43854179","wem/bandit_party_2","A32J0WKL5KD8C0","either","2","5455","","","32","","","","","","","","","","","","","","","","","","","","","","","","","","","","","","","","","","","","","",""
"","text-replacement","15","120649","0.0-15.0","43854179","wem/bandit_party_2","A32J0WKL5KD8C0","either","2","8028","","","32","","","","","","","","","","","","","","","","","","","","","","","","","","","","","","","","","","","","","",""
"","text-replacement","16","127911","0.0-16.0","43854179","wem/bandit_party_2","A32J0WKL5KD8C0","either","2","7258","","","32","","","","","","","","","","","","","","","","","","","","","","","","","","","","","","","","","","","","","",""
"","text-replacement","17","133014","0.0-17.0","43854179","wem/bandit_party_2","A32J0WKL5KD8C0","either","2","5101","","","32","","","","","","","","","","","","","","","","","","","","","","","","","","","","","","","","","","","","","",""
"","bandit","18","137258","0.0-18.0-0.0","43854179","wem/bandit_party_2","A32J0WKL5KD8C0","either","2","2735","","","","","","","0","0","1","","0.2","0.5","0.5","","","0.8","0.2","","","","","","","","","","","","","","","","75","K","1","","true","0","80_20_practice","",""
"","bandit","19","140519","0.0-18.0-1.0","43854179","wem/bandit_party_2","A32J0WKL5KD8C0","either","2","1750","","","","","","","1","0","0","0.2","","0.5","0.5","","","","","","","0.8","0.2","","","","","","","","","","","","75","K","1","","true","0","80_20_practice","",""
"","bandit","20","143217","0.0-18.0-2.0","43854179","wem/bandit_party_2","A32J0WKL5KD8C0","either","2","1188","","","","","","","0","0","1","","0.2","0.5","0.5","","","0.8","0.2","","","","","","","","","","","","","","","","75","K","1","","true","0","80_20_practice","",""
"","bandit","21","145411","0.0-18.0-3.0","43854179","wem/bandit_party_2","A32J0WKL5KD8C0","either","2","682","","","","","","","1","0","0","0.8","","0.5","0.5","","","","","","","0.8","0.2","","","","","","","","","","","","74","J","0","img/none_selected_demo.jpg","true","0","80_20_practice","",""
"","bandit","22","147767","0.0-18.0-4.0","43854179","wem/bandit_party_2","A32J0WKL5KD8C0","either","2","843","","","","","","","0","0","1","0.2","","0.5","0.5","","","","","","","0.8","0.2","","","","","","","","","","","","75","K","1","","true","0","80_20_practice","",""
"","bandit","23","150376","0.0-18.0-5.0","43854179","wem/bandit_party_2","A32J0WKL5KD8C0","either","2","1097","","","","","","","0","0","1","","0.2","0.5","0.5","","","0.8","0.2","","","","","","","","","","","","","","","","75","K","1","","true","0","80_20_practice","",""
"","bandit","24","152622","0.0-18.0-6.0","43854179","wem/bandit_party_2","A32J0WKL5KD8C0","either","2","735","","","","","","","0","1","0","","0.8","0.5","0.5","","","0.8","0.2","","","","","","","","","","","","","","","","74","J","0","img/none_selected_demo.jpg","true","0","80_20_practice","",""
"","bandit","25","154865","0.0-18.0-7.0","43854179","wem/bandit_party_2","A32J0WKL5KD8C0","either","2","731","","","","","","","0","0","1","","0.2","0.5","0.5","","","0.8","0.2","","","","","","","","","","","","","","","","75","K","1","","true","0","80_20_practice","",""
"","bandit","26","157673","0.0-18.0-8.0","43854179","wem/bandit_party_2","A32J0WKL5KD8C0","either","2","1297","","","","","","","0","0","1","","0.2","0.5","0.5","","","0.8","0.2","","","","","","","","","","","","","","","","75","K","1","","true","0","80_20_practice","",""
"","bandit","27","159997","0.0-18.0-9.0","43854179","wem/bandit_party_2","A32J0WKL5KD8C0","either","2","814","","","","","","","0","0","1","","0.2","0.5","0.5","","","0.8","0.2","","","","","","","","","","","","","","","","75","K","1","","true","0","80_20_practice","",""
"","bandit","28","161899","0.0-18.0-10.0","43854179","wem/bandit_party_2","A32J0WKL5KD8C0","either","2","389","","","","","","","1","0","0","0.8","","0.5","0.5","","","","","","","0.8","0.2","","","","","","","","","","","","74","J","0","img/none_selected_demo.jpg","true","0","80_20_practice","",""
"","bandit","29","164584","0.0-18.0-11.0","43854179","wem/bandit_party_2","A32J0WKL5KD8C0","either","2","1172","","","","","","","0","1","0","","0.8","0.5","0.5","","","0.8","0.2","","","","","","","","","","","","","","","","74","J","0","img/none_selected_demo.jpg","true","0","80_20_practice","",""
"","bandit","30","166501","0.0-18.0-12.0","43854179","wem/bandit_party_2","A32J0WKL5KD8C0","either","2","406","","","","","","","0","0","1","0.2","","0.5","0.5","","","","","","","0.8","0.2","","","","","","","","","","","","75","K","1","","true","0","80_20_practice","",""
"","bandit","31","168391","0.0-18.0-13.0","43854179","wem/bandit_party_2","A32J0WKL5KD8C0","either","2","378","","","","","","","0","0","1","0.2","","0.5","0.5","","","","","","","0.8","0.2","","","","","","","","","","","","75","K","1","","true","0","80_20_practice","",""
"","bandit","32","170323","0.0-18.0-14.0","43854179","wem/bandit_party_2","A32J0WKL5KD8C0","either","2","422","","","","","","","0","0","1","0.2","","0.5","0.5","","","","","","","0.8","0.2","","","","","","","","","","","","75","K","1","","true","0","80_20_practice","",""
"","bandit","33","172152","0.0-18.0-15.0","43854179","wem/bandit_party_2","A32J0WKL5KD8C0","either","2","320","","","","","","","0","0","1","0.2","","0.5","0.5","","","","","","","0.8","0.2","","","","","","","","","","","","75","K","1","","true","0","80_20_practice","",""
"","bandit","34","174380","0.0-18.0-16.0","43854179","wem/bandit_party_2","A32J0WKL5KD8C0","either","2","716","","","","","","","0","0","1","","0.2","0.5","0.5","","","0.8","0.2","","","","","","","","","","","","","","","","75","K","1","","true","0","80_20_practice","",""
"","bandit","35","176601","0.0-18.0-17.0","43854179","wem/bandit_party_2","A32J0WKL5KD8C0","either","2","708","","","","","","","0","0","1","","0.8","0.5","0.5","","","0.8","0.2","","","","","","","","","","","","","","","","74","J","0","img/none_selected_demo.jpg","true","0","80_20_practice","",""
"","bandit","36","178888","0.0-18.0-18.0","43854179","wem/bandit_party_2","A32J0WKL5KD8C0","either","2","778","","","","","","","0","1","0","","0.2","0.5","0.5","","","0.8","0.2","","","","","","","","","","","","","","","","75","K","1","","true","0","80_20_practice","",""
"","bandit","37","180879","0.0-18.0-19.0","43854179","wem/bandit_party_2","A32J0WKL5KD8C0","either","2","480","","","","","","","1","0","0","0.8","","0.5","0.5","","","","","","","0.8","0.2","","","","","","","","","","","","74","J","0","img/none_selected_demo.jpg","true","0","80_20_practice","",""
"","text-replacement","38","183955","0.0-19.0","43854179","wem/bandit_party_2","A32J0WKL5KD8C0","either","2","3071","","","32","","","","","","","","","","","","","","","","","","","","","","","","","","","","","","","","","","","","","",""
"","bandit","39","190433","0.0-20.0-0.0","43854179","wem/bandit_party_2","A32J0WKL5KD8C0","either","2","4967","","","","","","","0","1","0","0","1","","","","","0","1","","","1","0","","","","","","","","","","","","75","K","1","","true","0","","",""
"","text-replacement","40","193962","0.0-21.0","43854179","wem/bandit_party_2","A32J0WKL5KD8C0","either","2","3525","","","74","","","","","","","","","","","","","","","","","","","","","","","","","","","","","","","","","","","","","",""
"","text-replacement","41","198789","0.0-22.0","43854179","wem/bandit_party_2","A32J0WKL5KD8C0","either","2","4822","","","32","","","","","","","","","","","","","","","","","","","","","","","","","","","","","","","","","","","","","",""
"","text-replacement","42","201612","0.0-23.0","43854179","wem/bandit_party_2","A32J0WKL5KD8C0","either","2","2818","","","32","","","","","","","","","","","","","","","","","","","","","","","","","","","","","","","","","","","","","",""
"","text-replacement","43","203869","0.0-24.0","43854179","wem/bandit_party_2","A32J0WKL5KD8C0","either","2","2252","","","32","","","","","","","","","","","","","","","","","","","","","","","","","","","","","","","","","","","","","",""
"","text-replacement","44","206584","0.0-25.0","43854179","wem/bandit_party_2","A32J0WKL5KD8C0","either","2","2711","","","32","","","","","","","","","","","","","","","","","","","","","","","","","","","","","","","","","","","","","",""
"","text-replacement","45","209530","0.0-26.0","43854179","wem/bandit_party_2","A32J0WKL5KD8C0","either","2","2941","","","32","","","","","","","","","","","","","","","","","","","","","","","","","","","","","","","","","","","","","",""
"","text-replacement","46","213468","0.0-27.0","43854179","wem/bandit_party_2","A32J0WKL5KD8C0","either","2","3934","","","32","","","","","","","","","","","","","","","","","","","","","","","","","","","","","","","","","","","","","",""
"","text-replacement","47","353479","0.0-28.0","43854179","wem/bandit_party_2","A32J0WKL5KD8C0","either","2","140005","","","32","","","","","","","","","","","","","","","","","","","","","","","","","","","","","","","","","","","","","",""
"","text-replacement","48","356580","0.0-29.0","43854179","wem/bandit_party_2","A32J0WKL5KD8C0","either","2","3098","","","32","","","","","","","","","","","","","","","","","","","","","","","","","","","","","","","","","","","","","",""
"","text-replacement","49","359119","0.0-30.0","43854179","wem/bandit_party_2","A32J0WKL5KD8C0","either","2","2536","","","32","","","","","","","","","","","","","","","","","","","","","","","","","","","","","","","","","","","","","",""
"","text-replacement","50","543985","0.0-31.0","43854179","wem/bandit_party_2","A32J0WKL5KD8C0","either","2","184862","","","32","","","","","","","","","","","","","","","","","","","","","","","","","","","","","","","","","","","","","",""
"","bandit","51","548508","0.0-32.0-0.0","43854179","wem/bandit_party_2","A32J0WKL5KD8C0","either","2","3013","","","","","","","0","0","1","","0.2","0.5","0.5","0.5","0.5","0.8","0.2","0.6","0.2","","","","","","","","","","","","","","76","L","3","","true","0","full_practice","",""
"","bandit","52","550577","0.0-32.0-1.0","43854179","wem/bandit_party_2","A32J0WKL5KD8C0","either","2","555","","","","","","","0","0","1","0.2","","0.5","0.5","0.5","0.5","","","","","0.8","0.2","0.6","0.2","","","","","","","","","","74","J","1","","true","0","full_practice","",""
"","bandit","53","552089","0.0-32.0-2.0","43854179","wem/bandit_party_2","A32J0WKL5KD8C0","either","2","2","","","","","","","1","0","0","0.6","","0.5","0.5","0.5","0.5","","","","","0.8","0.2","0.6","0.2","","","","","","","","","","75","K","2","","true","0","full_practice","",""
"","bandit","54","554426","0.0-32.0-3.0","43854179","wem/bandit_party_2","A32J0WKL5KD8C0","either","2","827","","","","","","","0","0","1","0.2","","0.5","0.5","0.5","0.5","","","","","0.8","0.2","0.6","0.2","","","","","","","","","","76","L","3","","true","0","full_practice","",""
"","bandit","55","557573","0.0-32.0-4.0","43854179","wem/bandit_party_2","A32J0WKL5KD8C0","either","2","1633","","","","","","","0","0","1","","0.2","0.5","0.5","0.5","0.5","0.8","0.2","0.6","0.2","","","","","","","","","","","","","","74","J","1","","true","0","full_practice","",""
"","bandit","56","559622","0.0-32.0-5.0","43854179","wem/bandit_party_2","A32J0WKL5KD8C0","either","2","538","","","","","","","0","0","1","0.6","","0.5","0.5","0.5","0.5","","","","","0.8","0.2","0.6","0.2","","","","","","","","","","75","K","2","","true","0","full_practice","",""
"","bandit","57","561461","0.0-32.0-6.0","43854179","wem/bandit_party_2","A32J0WKL5KD8C0","either","2","325","","","","","","","0","1","0","","0.8","0.5","0.5","0.5","0.5","0.8","0.2","0.6","0.2","","","","","","","","","","","","","","72","H","0","img/none_selected.jpg","true","0","full_practice","",""
"","bandit","58","563808","0.0-32.0-7.0","43854179","wem/bandit_party_2","A32J0WKL5KD8C0","either","2","834","","","","","","","1","0","0","0.2","","0.5","0.5","0.5","0.5","","","","","0.8","0.2","0.6","0.2","","","","","","","","","","76","L","3","","true","0","full_practice","",""
"","bandit","59","565865","0.0-32.0-8.0","43854179","wem/bandit_party_2","A32J0WKL5KD8C0","either","2","547","","","","","","","0","0","1","","0.2","0.5","0.5","0.5","0.5","0.8","0.2","0.6","0.2","","","","","","","","","","","","","","74","J","1","","true","0","full_practice","",""
"","bandit","60","567537","0.0-32.0-9.0","43854179","wem/bandit_party_2","A32J0WKL5KD8C0","either","2","160","","","","","","","0","1","0","","0.6","0.5","0.5","0.5","0.5","0.8","0.2","0.6","0.2","","","","","","","","","","","","","","75","K","2","","true","0","full_practice","",""
"","bandit","61","569518","0.0-32.0-10.0","43854179","wem/bandit_party_2","A32J0WKL5KD8C0","either","2","467","","","","","","","0","0","1","","0.2","0.5","0.5","0.5","0.5","0.8","0.2","0.6","0.2","","","","","","","","","","","","","","76","L","3","","true","0","full_practice","",""
"","bandit","62","571587","0.0-32.0-11.0","43854179","wem/bandit_party_2","A32J0WKL5KD8C0","either","2","557","","","","","","","0","1","0","","0.2","0.5","0.5","0.5","0.5","0.8","0.2","0.6","0.2","","","","","","","","","","","","","","74","J","1","","true","0","full_practice","",""
"","bandit","63","573214","0.0-32.0-12.0","43854179","wem/bandit_party_2","A32J0WKL5KD8C0","either","2","115","","","","","","","0","1","0","","0.8","0.5","0.5","0.5","0.5","0.8","0.2","0.6","0.2","","","","","","","","","","","","","","72","H","0","img/none_selected.jpg","true","0","full_practice","",""
"","bandit","64","575299","0.0-32.0-13.0","43854179","wem/bandit_party_2","A32J0WKL5KD8C0","either","2","572","","","","","","","0","0","1","","0.6","0.5","0.5","0.5","0.5","0.8","0.2","0.6","0.2","","","","","","","","","","","","","","75","K","2","","true","0","full_practice","",""
"","bandit","65","577198","0.0-32.0-14.0","43854179","wem/bandit_party_2","A32J0WKL5KD8C0","either","2","385","","","","","","","0","0","1","","0.2","0.5","0.5","0.5","0.5","0.8","0.2","0.6","0.2","","","","","","","","","","","","","","74","J","1","","true","0","full_practice","",""
"","bandit","66","579903","0.0-32.0-15.0","43854179","wem/bandit_party_2","A32J0WKL5KD8C0","either","2","1192","","","","","","","0","1","0","","0.6","0.5","0.5","0.5","0.5","0.8","0.2","0.6","0.2","","","","","","","","","","","","","","75","K","2","","true","0","full_practice","",""
"","bandit","67","581635","0.0-32.0-16.0","43854179","wem/bandit_party_2","A32J0WKL5KD8C0","either","2","220","","","","","","","1","0","0","0.2","","0.5","0.5","0.5","0.5","","","","","0.8","0.2","0.6","0.2","","","","","","","","","","76","L","3","","true","0","full_practice","",""
"","bandit","68","584146","0.0-32.0-17.0","43854179","wem/bandit_party_2","A32J0WKL5KD8C0","either","2","998","","","","","","","0","1","0","","0.2","0.5","0.5","0.5","0.5","0.8","0.2","0.6","0.2","","","","","","","","","","","","","","74","J","1","","true","0","full_practice","",""
"","bandit","69","585833","0.0-32.0-18.0","43854179","wem/bandit_party_2","A32J0WKL5KD8C0","either","2","175","","","","","","","0","0","1","","0.2","0.5","0.5","0.5","0.5","0.8","0.2","0.6","0.2","","","","","","","","","","","","","","76","L","3","","true","0","full_practice","",""
"","bandit","70","588168","0.0-32.0-19.0","43854179","wem/bandit_party_2","A32J0WKL5KD8C0","either","2","824","","","","","","","0","1","0","","0.8","0.5","0.5","0.5","0.5","0.8","0.2","0.6","0.2","","","","","","","","","","","","","","72","H","0","img/none_selected.jpg","true","0","full_practice","",""
"","text","71","593554","0.0-33.0","43854179","wem/bandit_party_2","A32J0WKL5KD8C0","either","2","5366","","","32","","","","","","","","","","","","","","","","","","","","","","","","","","","","","","","","","","","","","",""
"","text-replacement","72","630880","0.0-34.0","43854179","wem/bandit_party_2","A32J0WKL5KD8C0","either","2","36321","","","32","","","","","","","","","","","","","","","","","","","","","","","","","","","","","","","","","","","","","",""
"","text-replacement","73","634178","0.0-35.0","43854179","wem/bandit_party_2","A32J0WKL5KD8C0","either","2","3289","","","32","","","","","","","","","","","","","","","","","","","","","","","","","","","","","","","","","","","","","",""
"","text-replacement","74","637485","0.0-36.0","43854179","wem/bandit_party_2","A32J0WKL5KD8C0","either","2","3302","","","32","","","","","","","","","","","","","","","","","","","","","","","","","","","","","","","","","","","","","",""
"","text-replacement","75","642915","0.0-37.0","43854179","wem/bandit_party_2","A32J0WKL5KD8C0","either","2","5425","","","32","","","","","","","","","","","","","","","","","","","","","","","","","","","","","","","","","","","","","",""
"","text-replacement","76","644826","0.0-38.0","43854179","wem/bandit_party_2","A32J0WKL5KD8C0","either","2","1905","","","32","","","","","","","","","","","","","","","","","","","","","","","","","","","","","","","","","","","","","",""
"","survey-multi-choice-replacement","77","653185","0.0-39.0-0.0","43854179","wem/bandit_party_2","A32J0WKL5KD8C0","either","2","8339","","","","","","","","","","","","","","","","","","","","","","","","Money will be added to the pool for <span style='color:blue;'>DEMOCRATS</span>","","","","","","","attn_check","","","","","","","","","0",""
"","survey-multi-choice-replacement","78","656262","0.0-40.0-0.0","43854179","wem/bandit_party_2","A32J0WKL5KD8C0","either","2","2054","","","","","","","","","","","","","","","","","","","","","","","","Money will be subtracted from the pool for <span style='color:red;'>REPUBLICANS</span>","","","","","","","attn_check","","","","","","","","","1",""
"","instructions","79","658722","0.0-40.0-1.0-0.0","43854179","wem/bandit_party_2","A32J0WKL5KD8C0","either","2","1452","","","","","","","","","","","","","","","","","","","","","","","","","","","","","","","","","","","","","","","","","[{""page_index"":0,""viewing_time"":1451}]"
"","survey-multi-choice-replacement","80","663220","0.0-40.1-0.1","43854179","wem/bandit_party_2","A32J0WKL5KD8C0","either","2","3478","","","","","","","","","","","","","","","","","","","","","","","","Equal amounts of money will be added to the pool for <span style='color:blue;'>DEMOCRATS</span> and subtracted from the pool for <span style='color:red;'>REPUBLICANS</span>","","","","","","","attn_check","","","","","","","","","2",""
"","survey-multi-choice-replacement","81","666532","0.0-41.0-0.0","43854179","wem/bandit_party_2","A32J0WKL5KD8C0","either","2","2291","","","","","","","","","","","","","","","","","","","","","","","","No money will be added to either pool","","","","","","","attn_check","","","","","","","","","3",""
"","bandit","82","671297","0.0-42.0-0.0","43854179","wem/bandit_party_2","A32J0WKL5KD8C0","either","2","2243","","","","","","","0","1","0","","0.7092854079","0.4","0.8","0.2","0.6","0.4841938304","0.9925337928","0.7961415707","0.7092854079","","","","","","","","","","","","","","76","L","3","","","1","main_expt","",""
"","bandit","83","673358","0.0-43.0-0.0","43854179","wem/bandit_party_2","A32J0WKL5KD8C0","either","2","550","","","","","","","1","0","0","0.9909612399","","0.4","0.8","0.2","0.6","","","","","0.5300888233","0.9909612399","0.7739630809","0.7343230146","","","","","","","","","","74","J","1","","","2","main_expt","",""
"","bandit","84","676052","0.0-44.0-0.0","43854179","wem/bandit_party_2","A32J0WKL5KD8C0","either","2","1184","","","","","","","0","0","1","0.807852523","","0.4","0.8","0.2","0.6","","","","","0.4747636274","0.9875934203","0.807852523","0.7616266478","","","","","","","","","","75","K","2","","","3","main_expt","",""
"","bandit","85","678457","0.0-45.0-0.0","43854179","wem/bandit_party_2","A32J0WKL5KD8C0","either","2","894","","","","","","","0","0","1","0.4841015375","","0.4","0.8","0.2","0.6","","","","","0.4841015375","0.9782241123","0.7922386472","0.7555889459","","","","","","","","","","72","H","0","img/none_selected.jpg","","4","main_expt","",""
"","bandit","86","680464","0.0-46.0-0.0","43854179","wem/bandit_party_2","A32J0WKL5KD8C0","either","2","496","","","","","","","0","1","0","","0.865094385","0.4","0.8","0.2","0.6","0.5545204825","0.9756627961","0.865094385","0.733520678","","","","","","","","","","","","","","75","K","2","","","5","main_expt","",""
"","bandit","87","682544","0.0-47.0-0.0","43854179","wem/bandit_party_2","A32J0WKL5KD8C0","either","2","567","","","","","","","1","0","0","0.967089612","","0.4","0.8","0.2","0.6","","","","","0.6032406034","0.967089612","0.800956518","0.6705264102","","","","","","","","","","74","J","1","","","6","main_expt","",""
"","bandit","88","684492","0.0-48.0-0.0","43854179","wem/bandit_party_2","A32J0WKL5KD8C0","either","2","434","","","","","","","0","1","0","","0.6395389268","0.4","0.8","0.2","0.6","0.6629125932","0.9581374084","0.826484282","0.6395389268","","","","","","","","","","","","","","76","L","3","","","7","main_expt","",""
"","bandit","89","686441","0.0-49.0-0.0","43854179","wem/bandit_party_2","A32J0WKL5KD8C0","either","2","437","","","","","","","1","0","0","0.8721258401","","0.4","0.8","0.2","0.6","","","","","0.6179372523","0.9470057872","0.8721258401","0.6463283336","","","","","","","","","","75","K","2","","","8","main_expt","",""
"","bandit","90","688607","0.0-50.0-0.0","43854179","wem/bandit_party_2","A32J0WKL5KD8C0","either","2","647","","","","","","","1","0","0","0.9776699295","","0.4","0.8","0.2","0.6","","","","","0.7126464358","0.9776699295","0.9123847657","0.5257156782","","","","","","","","","","74","J","1","","","9","main_expt","",""
"","bandit","91","690484","0.0-51.0-0.0","43854179","wem/bandit_party_2","A32J0WKL5KD8C0","either","2","365","","","","","","","0","1","0","","0.8996742502","0.4","0.8","0.2","0.6","0.7356985298","0.9728878591","0.8996742502","0.4763364632","","","","","","","","","","","","","","75","K","2","","","10","main_expt","",""
"","bandit","92","692322","0.0-52.0-0.0","43854179","wem/bandit_party_2","A32J0WKL5KD8C0","either","2","325","","","","","","","0","0","1","","0.4284616273","0.4","0.8","0.2","0.6","0.768711937","0.9593139104","0.9131723876","0.4284616273","","","","","","","","","","","","","","76","L","3","","","11","main_expt","",""
"","bandit","93","694183","0.0-53.0-0.0","43854179","wem/bandit_party_2","A32J0WKL5KD8C0","either","2","348","","","","","","","1","0","0","0.9498917819","","0.4","0.8","0.2","0.6","","","","","0.775032537","0.9498917819","0.8766857583","0.3846657661","","","","","","","","","","74","J","1","","","12","main_expt","",""
"","bandit","94","696066","0.0-54.0-0.0","43854179","wem/bandit_party_2","A32J0WKL5KD8C0","either","2","368","","","","","","","0","0","1","","0.8005481332","0.4","0.8","0.2","0.6","0.8005481332","0.9541602679","0.8395211377","0.4534267517","","","","","","","","","","","","","","72","H","0","img/none_selected.jpg","","13","main_expt","",""
"","bandit","95","697610","0.0-55.0-0.0","43854179","wem/bandit_party_2","A32J0WKL5KD8C0","either","2","31","","","","","","","0","1","0","","0.8716273459","0.4","0.8","0.2","0.6","0.8437703121","0.9457654821","0.8716273459","0.5781166702","","","","","","","","","","","","","","75","K","2","","","14","main_expt","",""
"","bandit","96","699507","0.0-56.0-0.0","43854179","wem/bandit_party_2","A32J0WKL5KD8C0","either","2","387","","","","","","","1","0","0","0.961431504","","0.4","0.8","0.2","0.6","","","","","0.7878475566","0.961431504","0.8884181174","0.6683268695","","","","","","","","","","74","J","1","","","15","main_expt","",""
"","bandit","97","701376","0.0-57.0-0.0","43854179","wem/bandit_party_2","A32J0WKL5KD8C0","either","2","355","","","","","","","0","1","0","","0.6948649322","0.4","0.8","0.2","0.6","0.7873795395","0.9614480804","0.9144873871","0.6948649322","","","","","","","","","","","","","","76","L","3","","","16","main_expt","",""
"","bandit","98","703302","0.0-58.0-0.0","43854179","wem/bandit_party_2","A32J0WKL5KD8C0","either","2","414","","","","","","","0","1","0","","0.8084550093","0.4","0.8","0.2","0.6","0.8084550093","0.981184269","0.915766025","0.7674725463","","","","","","","","","","","","","","72","H","0","img/none_selected.jpg","","17","main_expt","",""
"","bandit","99","705234","0.0-59.0-0.0","43854179","wem/bandit_party_2","A32J0WKL5KD8C0","either","2","418","","","","","","","0","1","0","","0.9357816117","0.4","0.8","0.2","0.6","0.8436933745","0.9861919244","0.9357816117","0.7706733977","","","","","","","","","","","","","","75","K","2","","","18","main_expt","",""
"","bandit","100","707202","0.0-60.0-0.0","43854179","wem/bandit_party_2","A32J0WKL5KD8C0","either","2","454","","","","","","","1","0","0","0.986789567","","0.4","0.8","0.2","0.6","","","","","0.8059530903","0.986789567","0.9482019282","0.7396491891","","","","","","","","","","74","J","1","","","19","main_expt","",""
"","bandit","101","709497","0.0-61.0-0.0","43854179","wem/bandit_party_2","A32J0WKL5KD8C0","either","2","783","","","","","","","0","1","0","","0.7839513496","0.4","0.8","0.2","0.6","0.7839513496","0.986183881","0.9433726768","0.6712916173","","","","","","","","","","","","","","72","H","0","img/none_selected.jpg","","20","main_expt","",""
"","bandit","102","711641","0.0-62.0-0.0","43854179","wem/bandit_party_2","A32J0WKL5KD8C0","either","2","630","","","","","","","0","1","0","","0.6728887443","0.4","0.8","0.2","0.6","0.7841815244","0.9887099493","0.9488284628","0.6728887443","","","","","","","","","","","","","","76","L","3","","","21","main_expt","",""
"","bandit","103","713491","0.0-63.0-0.0","43854179","wem/bandit_party_2","A32J0WKL5KD8C0","either","2","340","","","","","","","0","1","0","","0.992558567","0.4","0.8","0.2","0.6","0.8256278583","0.992558567","0.9500515088","0.7838502077","","","","","","","","","","","","","","74","J","1","","","22","main_expt","",""
"","bandit","104","715353","0.0-64.0-0.0","43854179","wem/bandit_party_2","A32J0WKL5KD8C0","either","2","350","","","","","","","0","1","0","","0.9645760881","0.4","0.8","0.2","0.6","0.7043778873","0.9906074595","0.9645760881","0.8711917965","","","","","","","","","","","","","","75","K","2","","","23","main_expt","",""
"","bandit","105","717204","0.0-65.0-0.0","43854179","wem/bandit_party_2","A32J0WKL5KD8C0","either","2","336","","","","","","","1","0","0","0.7662705475","","0.4","0.8","0.2","0.6","","","","","0.7662705475","0.9828703082","0.946785539","0.861124964","","","","","","","","","","72","H","0","img/none_selected.jpg","","24","main_expt","",""
"","bandit","106","719074","0.0-66.0-0.0","43854179","wem/bandit_party_2","A32J0WKL5KD8C0","either","2","355","","","","","","","1","0","0","0.8551403996","","0.4","0.8","0.2","0.6","","","","","0.6915147264","0.984618899","0.9229473608","0.8551403996","","","","","","","","","","76","L","3","","","25","main_expt","",""
"","bandit","107","720977","0.0-67.0-0.0","43854179","wem/bandit_party_2","A32J0WKL5KD8C0","either","2","385","","","","","","","1","0","0","0.9780938917","","0.4","0.8","0.2","0.6","","","","","0.6844606422","0.9780938917","0.8729820127","0.8959771014","","","","","","","","","","74","J","1","","","26","main_expt","",""
"","bandit","108","723036","0.0-68.0-0.0","43854179","wem/bandit_party_2","A32J0WKL5KD8C0","either","2","548","","","","","","","0","0","1","","0.859067388","0.4","0.8","0.2","0.6","0.7953701942","0.9634866904","0.859067388","0.8786292531","","","","","","","","","","","","","","75","K","2","","","27","main_expt","",""
"","bandit","109","725046","0.0-69.0-0.0","43854179","wem/bandit_party_2","A32J0WKL5KD8C0","either","2","492","","","","","","","1","0","0","0.622657036","","0.4","0.8","0.2","0.6","","","","","0.622657036","0.946494378","0.836267867","0.8920593834","","","","","","","","","","72","H","0","img/none_selected.jpg","","28","main_expt","",""
"","bandit","110","726935","0.0-70.0-0.0","43854179","wem/bandit_party_2","A32J0WKL5KD8C0","either","2","376","","","","","","","1","0","0","0.8234517222","","0.4","0.8","0.2","0.6","","","","","0.5757463716","0.9338647731","0.7158546556","0.8234517222","","","","","","","","","","76","L","3","","","29","main_expt","",""
"","bandit","111","728842","0.0-71.0-0.0","43854179","wem/bandit_party_2","A32J0WKL5KD8C0","either","2","394","","","","","","","1","0","0","0.7262950886","","0.4","0.8","0.2","0.6","","","","","0.6048158844","0.9354801528","0.7262950886","0.7963444676","","","","","","","","","","75","K","2","","","30","main_expt","",""
"","bandit","112","730653","0.0-72.0-0.0","43854179","wem/bandit_party_2","A32J0WKL5KD8C0","either","2","296","","","","","","","0","0","1","0.4831208743","","0.4","0.8","0.2","0.6","","","","","0.4831208743","0.9323861487","0.7049485024","0.6847131082","","","","","","","","","","72","H","0","img/none_selected.jpg","","31","main_expt","",""
"","bandit","113","732656","0.0-73.0-0.0","43854179","wem/bandit_party_2","A32J0WKL5KD8C0","either","2","489","","","","","","","1","0","0","0.7745616343","","0.4","0.8","0.2","0.6","","","","","0.4413454117","0.9159531952","0.6294605358","0.7745616343","","","","","","","","","","76","L","3","","","32","main_expt","",""
"","bandit","114","734496","0.0-74.0-0.0","43854179","wem/bandit_party_2","A32J0WKL5KD8C0","either","2","326","","","","","","","0","1","0","","0.9501333659","0.4","0.8","0.2","0.6","0.589686364","0.9501333659","0.7097184707","0.8111568365","","","","","","","","","","","","","","74","J","1","","","33","main_expt","",""
"","bandit","115","736409","0.0-75.0-0.0","43854179","wem/bandit_party_2","A32J0WKL5KD8C0","either","2","397","","","","","","","0","1","0","","0.6324728327","0.4","0.8","0.2","0.6","0.5789977489","0.9485118263","0.6324728327","0.7291364049","","","","","","","","","","","","","","75","K","2","","","34","main_expt","",""
"","bandit","116","738553","0.0-76.0-0.0","43854179","wem/bandit_party_2","A32J0WKL5KD8C0","either","2","628","","","","","","","0","0","1","0.7920219322","","0.4","0.8","0.2","0.6","","","","","0.5605822786","0.959491173","0.6809104991","0.7920219322","","","","","","","","","","76","L","3","","","35","main_expt","",""
"","bandit","117","740414","0.0-77.0-0.0","43854179","wem/bandit_party_2","A32J0WKL5KD8C0","either","2","343","","","","","","","0","0","1","","0.5745256001","0.4","0.8","0.2","0.6","0.3330948712","0.9523687656","0.5745256001","0.7889809596","","","","","","","","","","","","","","75","K","2","","","36","main_expt","",""
"","bandit","118","742572","0.0-78.0-0.0","43854179","wem/bandit_party_2","A32J0WKL5KD8C0","either","2","644","","","","","","","1","0","0","0.9504344127","","0.4","0.8","0.2","0.6","","","","","0.2430176499","0.9504344127","0.6249275122","0.8060385269","","","","","","","","","","74","J","1","","","37","main_expt","",""
"","bandit","119","744443","0.0-79.0-0.0","43854179","wem/bandit_party_2","A32J0WKL5KD8C0","either","2","348","","","","","","","0","1","0","","0.7188782676","0.4","0.8","0.2","0.6","0.3106083343","0.9321408283","0.5582777804","0.7188782676","","","","","","","","","","","","","","76","L","3","","","38","main_expt","",""
"","bandit","120","746357","0.0-80.0-0.0","43854179","wem/bandit_party_2","A32J0WKL5KD8C0","either","2","399","","","","","","","0","1","0","","0.6619895395","0.4","0.8","0.2","0.6","0.3239447463","0.9135525369","0.6619895395","0.7387945131","","","","","","","","","","","","","","75","K","2","","","39","main_expt","",""
"","bandit","121","748035","0.0-81.0-0.0","43854179","wem/bandit_party_2","A32J0WKL5KD8C0","either","2","162","","","","","","","0","0","1","0.2946631509","","0.4","0.8","0.2","0.6","","","","","0.2946631509","0.8840916364","0.6522152691","0.7478035428","","","","","","","","","","72","H","0","img/none_selected.jpg","","40","main_expt","",""
"","bandit","122","749857","0.0-82.0-0.0","43854179","wem/bandit_party_2","A32J0WKL5KD8C0","either","2","307","","","","","","","1","0","0","0.8747037504","","0.4","0.8","0.2","0.6","","","","","0.193597671","0.8747037504","0.6714070371","0.7802386085","","","","","","","","","","74","J","1","","","41","main_expt","",""
"","bandit","123","752275","0.0-83.0-0.0","43854179","wem/bandit_party_2","A32J0WKL5KD8C0","either","2","900","","","","","","","1","0","0","0.826315498","","0.4","0.8","0.2","0.6","","","","","0.1834529884","0.826315498","0.6390104416","0.7994277013","","","","","","","","","","74","J","1","","","42","main_expt","",""
"","bandit","124","756116","0.0-84.0-0.0","43854179","wem/bandit_party_2","A32J0WKL5KD8C0","either","2","2326","","","","","","","1","0","0","0.7681371561","","0.4","0.8","0.2","0.6","","","","","0.1558663495","0.7681371561","0.6318841448","0.8718069658","","","","","","","","","","74","J","1","","","43","main_expt","",""
"","bandit","125","759108","0.0-85.0-0.0","43854179","wem/bandit_party_2","A32J0WKL5KD8C0","either","2","1476","","","","","","","1","0","0","0.7584360225","","0.4","0.8","0.2","0.6","","","","","0.1573065196","0.7584360225","0.5708139437","0.7725207311","","","","","","","","","","74","J","1","","","44","main_expt","",""
"","bandit","126","761952","0.0-86.0-0.0","43854179","wem/bandit_party_2","A32J0WKL5KD8C0","either","2","1328","","","","","","","1","0","0","0.816959585","","0.4","0.8","0.2","0.6","","","","","0.1743203636","0.816959585","0.5703812278","0.8399140445","","","","","","","","","","74","J","1","","","45","main_expt","",""
"","bandit","127","764254","0.0-87.0-0.0","43854179","wem/bandit_party_2","A32J0WKL5KD8C0","either","2","787","","","","","","","0","1","0","","0.7571269921","0.4","0.8","0.2","0.6","0.1234040722","0.7571269921","0.4520700595","0.7830678696","","","","","","","","","","","","","","74","J","1","","","46","main_expt","",""
"","bandit","128","766589","0.0-88.0-0.0","43854179","wem/bandit_party_2","A32J0WKL5KD8C0","either","2","813","","","","","","","1","0","0","0.7086567283","","0.4","0.8","0.2","0.6","","","","","0.1592846429","0.7086567283","0.4953600952","0.8255209912","","","","","","","","","","74","J","1","","","47","main_expt","",""
"","bandit","129","769141","0.0-89.0-0.0","43854179","wem/bandit_party_2","A32J0WKL5KD8C0","either","2","1036","","","","","","","0","0","1","0.6428227569","","0.4","0.8","0.2","0.6","","","","","0.1880090658","0.6428227569","0.4912921637","0.7728754614","","","","","","","","","","74","J","1","","","48","main_expt","",""
"","bandit","130","771169","0.0-90.0-0.0","43854179","wem/bandit_party_2","A32J0WKL5KD8C0","either","2","515","","","","","","","0","0","1","0.7004196772","","0.4","0.8","0.2","0.6","","","","","0.3190576765","0.7004196772","0.4694413912","0.8607162984","","","","","","","","","","74","J","1","","","49","main_expt","",""
"","bandit","131","773861","0.0-91.0-0.0","43854179","wem/bandit_party_2","A32J0WKL5KD8C0","either","2","1173","","","","","","","0","1","0","","0.5835687148","0.4","0.8","0.2","0.6","0.277770718","0.6418514465","0.5835687148","0.8526113732","","","","","","","","","","","","","","75","K","2","","","50","main_expt","",""
"","bandit","132","775947","0.0-92.0-0.0","43854179","wem/bandit_party_2","A32J0WKL5KD8C0","either","2","572","","","","","","","1","0","0","0.6322169777","","0.4","0.8","0.2","0.6","","","","","0.3304163056","0.6322169777","0.581499138","0.8630835666","","","","","","","","","","74","J","1","","","51","main_expt","",""
"","bandit","133","778011","0.0-93.0-0.0","43854179","wem/bandit_party_2","A32J0WKL5KD8C0","either","2","547","","","","","","","0","0","1","0.6160259873","","0.4","0.8","0.2","0.6","","","","","0.3074301744","0.6160259873","0.6521379128","0.8689990829","","","","","","","","","","74","J","1","","","52","main_expt","",""
"","bandit","134","780097","0.0-94.0-0.0","43854179","wem/bandit_party_2","A32J0WKL5KD8C0","either","2","571","","","","","","","0","1","0","","0.6635838846","0.4","0.8","0.2","0.6","0.3292402402","0.6635838846","0.5743957808","0.8829627288","","","","","","","","","","","","","","74","J","1","","","53","main_expt","",""
"","bandit","135","782102","0.0-95.0-0.0","43854179","wem/bandit_party_2","A32J0WKL5KD8C0","either","2","489","","","","","","","0","1","0","","0.3701383524","0.4","0.8","0.2","0.6","0.3701383524","0.7334380463","0.4765250731","0.8577096669","","","","","","","","","","","","","","72","H","0","img/none_selected.jpg","","54","main_expt","",""
"","bandit","136","784088","0.0-96.0-0.0","43854179","wem/bandit_party_2","A32J0WKL5KD8C0","either","2","468","","","","","","","1","0","0","0.6625049704","","0.4","0.8","0.2","0.6","","","","","0.4023440482","0.6625049704","0.472038817","0.7951355038","","","","","","","","","","74","J","1","","","55","main_expt","",""
"","bandit","137","786101","0.0-97.0-0.0","43854179","wem/bandit_party_2","A32J0WKL5KD8C0","either","2","497","","","","","","","0","0","1","0.6060805283","","0.4","0.8","0.2","0.6","","","","","0.3320470731","0.6244126183","0.6060805283","0.7832403428","","","","","","","","","","75","K","2","","","56","main_expt","",""
"","bandit","138","787903","0.0-98.0-0.0","43854179","wem/bandit_party_2","A32J0WKL5KD8C0","either","2","285","","","","","","","0","1","0","","0.693445159","0.4","0.8","0.2","0.6","0.3398704556","0.693445159","0.5733746242","0.7165346004","","","","","","","","","","","","","","74","J","1","","","57","main_expt","",""
"","bandit","139","789791","0.0-99.0-0.0","43854179","wem/bandit_party_2","A32J0WKL5KD8C0","either","2","374","","","","","","","0","1","0","","0.3171476707","0.4","0.8","0.2","0.6","0.3171476707","0.6603141298","0.5268086549","0.7840704931","","","","","","","","","","","","","","72","H","0","img/none_selected.jpg","","58","main_expt","",""
"","bandit","140","791993","0.0-100.0-0.0","43854179","wem/bandit_party_2","A32J0WKL5KD8C0","either","2","685","","","","","","","0","1","0","","0.7166558068","0.4","0.8","0.2","0.6","0.1868584885","0.6435133917","0.5298916697","0.7166558068","","","","","","","","","","","","","","76","L","3","","","59","main_expt","",""
"","bandit","141","793956","0.0-101.0-0.0","43854179","wem/bandit_party_2","A32J0WKL5KD8C0","either","2","450","","","","","","","0","0","1","0.6720075741","","0.4","0.8","0.2","0.6","","","","","0.2163153633","0.6720075741","0.5547432704","0.6505055492","","","","","","","","","","74","J","1","","","60","main_expt","",""
"","bandit","142","796086","0.0-102.0-0.0","43854179","wem/bandit_party_2","A32J0WKL5KD8C0","either","2","614","","","","","","","1","0","0","0.6703611074","","0.4","0.8","0.2","0.6","","","","","0.2086512551","0.6703611074","0.5407031957","0.6465946667","","","","","","","","","","74","J","1","","","61","main_expt","",""
"","bandit","143","799221","0.0-103.0-0.0","43854179","wem/bandit_party_2","A32J0WKL5KD8C0","either","2","1620","","","","","","","1","0","0","0.6993449034","","0.4","0.8","0.2","0.6","","","","","0.2250062338","0.64477312","0.6993449034","0.709990362","","","","","","","","","","75","K","2","","","62","main_expt","",""
"","bandit","144","801514","0.0-104.0-0.0","43854179","wem/bandit_party_2","A32J0WKL5KD8C0","either","2","776","","","","","","","0","0","1","0.509049177","","0.4","0.8","0.2","0.6","","","","","0.2739380208","0.509049177","0.6342967703","0.7542168012","","","","","","","","","","74","J","1","","","63","main_expt","",""
"","bandit","145","803411","0.0-105.0-0.0","43854179","wem/bandit_party_2","A32J0WKL5KD8C0","either","2","382","","","","","","","1","0","0","0.3449536465","","0.4","0.8","0.2","0.6","","","","","0.3449536465","0.5535424332","0.5961490325","0.7660604158","","","","","","","","","","72","H","0","img/none_selected.jpg","","64","main_expt","",""
"","bandit","146","805541","0.0-106.0-0.0","43854179","wem/bandit_party_2","A32J0WKL5KD8C0","either","2","614","","","","","","","0","1","0","","0.7572602099","0.4","0.8","0.2","0.6","0.34640195","0.6608621899","0.5771190674","0.7572602099","","","","","","","","","","","","","","76","L","3","","","65","main_expt","",""
"","bandit","147","807508","0.0-107.0-0.0","43854179","wem/bandit_party_2","A32J0WKL5KD8C0","either","2","456","","","","","","","0","0","1","0.6535341977","","0.4","0.8","0.2","0.6","","","","","0.5266288285","0.6535341977","0.4765921407","0.686926195","","","","","","","","","","74","J","1","","","66","main_expt","",""
"","bandit","148","809903","0.0-108.0-0.0","43854179","wem/bandit_party_2","A32J0WKL5KD8C0","either","2","877","","","","","","","1","0","0","0.7334195653","","0.4","0.8","0.2","0.6","","","","","0.5588671697","0.6592628399","0.5714361875","0.7334195653","","","","","","","","","","76","L","3","","","67","main_expt","",""
"","bandit","149","812303","0.0-109.0-0.0","43854179","wem/bandit_party_2","A32J0WKL5KD8C0","either","2","884","","","","","","","0","1","0","","0.6231829193","0.4","0.8","0.2","0.6","0.6097536784","0.6735013879","0.6231829193","0.6114245881","","","","","","","","","","","","","","75","K","2","","","68","main_expt","",""
"","bandit","150","814228","0.0-110.0-0.0","43854179","wem/bandit_party_2","A32J0WKL5KD8C0","either","2","410","","","","","","","0","0","1","0.533457584","","0.4","0.8","0.2","0.6","","","","","0.533457584","0.7209687993","0.5130256365","0.6460921668","","","","","","","","","","72","H","0","img/none_selected.jpg","","69","main_expt","",""
"","bandit","151","816978","0.0-111.0-0.0","43854179","wem/bandit_party_2","A32J0WKL5KD8C0","either","2","1233","","","","","","","0","0","1","0.690528825","","0.4","0.8","0.2","0.6","","","","","0.4124750721","0.690528825","0.5167166","0.6700702736","","","","","","","","","","74","J","1","","","70","main_expt","",""
"","bandit","152","818939","0.0-112.0-0.0","43854179","wem/bandit_party_2","A32J0WKL5KD8C0","either","2","447","","","","","","","0","1","0","","0.6388012411","0.4","0.8","0.2","0.6","0.4486526525","0.6453310316","0.6448170737","0.6388012411","","","","","","","","","","","","","","76","L","3","","","71","main_expt","",""
"","bandit","153","820848","0.0-113.0-0.0","43854179","wem/bandit_party_2","A32J0WKL5KD8C0","either","2","392","","","","","","","0","0","1","","0.4313602212","0.4","0.8","0.2","0.6","0.4313602212","0.8140348339","0.5640434706","0.6046900378","","","","","","","","","","","","","","72","H","0","img/none_selected.jpg","","72","main_expt","",""
"","bandit","154","822737","0.0-114.0-0.0","43854179","wem/bandit_party_2","A32J0WKL5KD8C0","either","2","372","","","","","","","0","0","1","","0.6296110197","0.4","0.8","0.2","0.6","0.3639072561","0.820931829","0.6296110197","0.6062428704","","","","","","","","","","","","","","75","K","2","","","73","main_expt","",""
"","bandit","155","824618","0.0-115.0-0.0","43854179","wem/bandit_party_2","A32J0WKL5KD8C0","either","2","363","","","","","","","1","0","0","0.8096233945","","0.4","0.8","0.2","0.6","","","","","0.2882181569","0.8096233945","0.6730210969","0.6237194739","","","","","","","","","","74","J","1","","","74","main_expt","",""
"","bandit","156","826783","0.0-116.0-0.0","43854179","wem/bandit_party_2","A32J0WKL5KD8C0","either","2","650","","","","","","","0","1","0","","0.7615001707","0.4","0.8","0.2","0.6","0.3561187133","0.7615001707","0.5720403827","0.5971007372","","","","","","","","","","","","","","74","J","1","","","75","main_expt","",""
"","bandit","157","828863","0.0-117.0-0.0","43854179","wem/bandit_party_2","A32J0WKL5KD8C0","either","2","563","","","","","","","1","0","0","0.5810032438","","0.4","0.8","0.2","0.6","","","","","0.4480894403","0.8147365981","0.6303512149","0.5810032438","","","","","","","","","","76","L","3","","","76","main_expt","",""
"","bandit","158","830814","0.0-118.0-0.0","43854179","wem/bandit_party_2","A32J0WKL5KD8C0","either","2","436","","","","","","","1","0","0","0.8926338818","","0.4","0.8","0.2","0.6","","","","","0.3220850356","0.8926338818","0.5531797874","0.5792233978","","","","","","","","","","74","J","1","","","77","main_expt","",""
"","bandit","159","832782","0.0-119.0-0.0","43854179","wem/bandit_party_2","A32J0WKL5KD8C0","either","2","450","","","","","","","0","1","0","","0.692511921","0.4","0.8","0.2","0.6","0.3281133775","0.8669072201","0.5449672882","0.692511921","","","","","","","","","","","","","","76","L","3","","","78","main_expt","",""
"","bandit","160","834914","0.0-120.0-0.0","43854179","wem/bandit_party_2","A32J0WKL5KD8C0","either","2","611","","","","","","","1","0","0","0.9114006046","","0.4","0.8","0.2","0.6","","","","","0.3814329202","0.9114006046","0.4484013318","0.7019625083","","","","","","","","","","74","J","1","","","79","main_expt","",""
"","bandit","161","836988","0.0-121.0-0.0","43854179","wem/bandit_party_2","A32J0WKL5KD8C0","either","2","560","","","","","","","0","1","0","","0.3512572076","0.4","0.8","0.2","0.6","0.3512572076","0.9268398106","0.5041425745","0.6785675641","","","","","","","","","","","","","","72","H","0","img/none_selected.jpg","","80","main_expt","",""
"","bandit","162","838886","0.0-122.0-0.0","43854179","wem/bandit_party_2","A32J0WKL5KD8C0","either","2","381","","","","","","","1","0","0","0.9582858862","","0.4","0.8","0.2","0.6","","","","","0.3624285329","0.9582858862","0.3462078978","0.7101061672","","","","","","","","","","74","J","1","","","81","main_expt","",""
"","bandit","163","841184","0.0-123.0-0.0","43854179","wem/bandit_party_2","A32J0WKL5KD8C0","either","2","781","","","","","","","1","0","0","0.9590071975","","0.4","0.8","0.2","0.6","","","","","0.3111883408","0.9590071975","0.3226795418","0.7217376576","","","","","","","","","","74","J","1","","","82","main_expt","",""
"","bandit","164","843278","0.0-124.0-0.0","43854179","wem/bandit_party_2","A32J0WKL5KD8C0","either","2","576","","","","","","","1","0","0","0.9379973093","","0.4","0.8","0.2","0.6","","","","","0.243162563","0.9379973093","0.3023868023","0.6437777395","","","","","","","","","","74","J","1","","","83","main_expt","",""
"","bandit","165","845462","0.0-125.0-0.0","43854179","wem/bandit_party_2","A32J0WKL5KD8C0","either","2","666","","","","","","","0","1","0","","0.9411979228","0.4","0.8","0.2","0.6","0.347146949","0.9411979228","0.4040419094","0.6533183273","","","","","","","","","","","","","","74","J","1","","","84","main_expt","",""
"","bandit","166","847685","0.0-126.0-0.0","43854179","wem/bandit_party_2","A32J0WKL5KD8C0","either","2","706","","","","","","","0","1","0","","0.9441700551","0.4","0.8","0.2","0.6","0.4416309426","0.9441700551","0.4716136817","0.7469548387","","","","","","","","","","","","","","74","J","1","","","85","main_expt","",""
"","bandit","167","849524","0.0-127.0-0.0","43854179","wem/bandit_party_2","A32J0WKL5KD8C0","either","2","319","","","","","","","1","0","0","0.4455883603","","0.4","0.8","0.2","0.6","","","","","0.4523797492","0.9323605113","0.4455883603","0.7366570046","","","","","","","","","","75","K","2","","","86","main_expt","",""
"","bandit","168","851521","0.0-128.0-0.0","43854179","wem/bandit_party_2","A32J0WKL5KD8C0","either","2","480","","","","","","","1","0","0","0.8871332711","","0.4","0.8","0.2","0.6","","","","","0.4621103264","0.8871332711","0.5952575165","0.7142428019","","","","","","","","","","74","J","1","","","87","main_expt","",""
"","bandit","169","853575","0.0-129.0-0.0","43854179","wem/bandit_party_2","A32J0WKL5KD8C0","either","2","535","","","","","","","0","0","1","","0.3800084876","0.4","0.8","0.2","0.6","0.3800084876","0.8520973281","0.5333825583","0.7057172343","","","","","","","","","","","","","","72","H","0","img/none_selected.jpg","","88","main_expt","",""
"","bandit","170","855433","0.0-130.0-0.0","43854179","wem/bandit_party_2","A32J0WKL5KD8C0","either","2","340","","","","","","","1","0","0","0.7882210871","","0.4","0.8","0.2","0.6","","","","","0.2354372355","0.7882210871","0.4583166828","0.7289934888","","","","","","","","","","74","J","1","","","89","main_expt","",""
"","bandit","171","857467","0.0-131.0-0.0","43854179","wem/bandit_party_2","A32J0WKL5KD8C0","either","2","516","","","","","","","1","0","0","0.7475354559","","0.4","0.8","0.2","0.6","","","","","0.2978482647","0.720110267","0.4782349553","0.7475354559","","","","","","","","","","76","L","3","","","90","main_expt","",""
"","bandit","172","859390","0.0-132.0-0.0","43854179","wem/bandit_party_2","A32J0WKL5KD8C0","either","2","405","","","","","","","1","0","0","0.7390342074","","0.4","0.8","0.2","0.6","","","","","0.3723871884","0.7390342074","0.464138054","0.6316706059","","","","","","","","","","74","J","1","","","91","main_expt","",""
"","bandit","173","861293","0.0-133.0-0.0","43854179","wem/bandit_party_2","A32J0WKL5KD8C0","either","2","383","","","","","","","0","0","1","0.8135224625","","0.4","0.8","0.2","0.6","","","","","0.5400298203","0.8135224625","0.5084128334","0.6957908828","","","","","","","","","","74","J","1","","","92","main_expt","",""
"","bandit","174","863796","0.0-134.0-0.0","43854179","wem/bandit_party_2","A32J0WKL5KD8C0","either","2","985","","","","","","","0","0","1","","0.6812665662","0.4","0.8","0.2","0.6","0.5134744583","0.7814404678","0.5211356389","0.6812665662","","","","","","","","","","","","","","76","L","3","","","93","main_expt","",""
"","bandit","175","865933","0.0-135.0-0.0","43854179","wem/bandit_party_2","A32J0WKL5KD8C0","either","2","620","","","","","","","0","0","1","","0.4554037602","0.4","0.8","0.2","0.6","0.4101580275","0.7672416568","0.4554037602","0.6412933588","","","","","","","","","","","","","","75","K","2","","","94","main_expt","",""
"","bandit","176","867860","0.0-136.0-0.0","43854179","wem/bandit_party_2","A32J0WKL5KD8C0","either","2","407","","","","","","","0","0","1","","0.2995167601","0.4","0.8","0.2","0.6","0.2995167601","0.7573973965","0.4195046205","0.5696630174","","","","","","","","","","","","","","72","H","0","img/none_selected.jpg","","95","main_expt","",""
"","bandit","177","869734","0.0-137.0-0.0","43854179","wem/bandit_party_2","A32J0WKL5KD8C0","either","2","354","","","","","","","1","0","0","0.8177369732","","0.4","0.8","0.2","0.6","","","","","0.2934894425","0.8177369732","0.3638478563","0.6076398096","","","","","","","","","","74","J","1","","","96","main_expt","",""
"","bandit","178","871518","0.0-138.0-0.0","43854179","wem/bandit_party_2","A32J0WKL5KD8C0","either","2","263","","","","","","","0","0","1","","0.8124666872","0.4","0.8","0.2","0.6","0.2802715202","0.8124666872","0.2839735208","0.5551612935","","","","","","","","","","","","","","74","J","1","","","97","main_expt","",""
"","bandit","179","873504","0.0-139.0-0.0","43854179","wem/bandit_party_2","A32J0WKL5KD8C0","either","2","467","","","","","","","0","1","0","","0.881496875","0.4","0.8","0.2","0.6","0.2703087955","0.881496875","0.2109275999","0.6354974245","","","","","","","","","","","","","","74","J","1","","","98","main_expt","",""
"","bandit","180","875359","0.0-140.0-0.0","43854179","wem/bandit_party_2","A32J0WKL5KD8C0","either","2","338","","","","","","","1","0","0","0.8785981907","","0.4","0.8","0.2","0.6","","","","","0.3027543159","0.8785981907","0.1531506719","0.5945745664","","","","","","","","","","74","J","1","","","99","main_expt","",""
"","bandit","181","877245","0.0-141.0-0.0","43854179","wem/bandit_party_2","A32J0WKL5KD8C0","either","2","368","","","","","","","1","0","0","0.8494581726","","0.4","0.8","0.2","0.6","","","","","0.3645318829","0.8494581726","0.1262108991","0.5679097985","","","","","","","","","","74","J","1","","","100","main_expt","",""
"","bandit","182","879339","0.0-142.0-0.0","43854179","wem/bandit_party_2","A32J0WKL5KD8C0","either","2","573","","","","","","","1","0","0","0.7754784616","","0.4","0.8","0.2","0.6","","","","","0.4315832637","0.7754784616","0.1340220502","0.6430580454","","","","","","","","","","74","J","1","","","101","main_expt","",""
"","bandit","183","881294","0.0-143.0-0.0","43854179","wem/bandit_party_2","A32J0WKL5KD8C0","either","2","438","","","","","","","0","0","1","0.7626736499","","0.4","0.8","0.2","0.6","","","","","0.3608531129","0.7626736499","0.2167126086","0.6340200926","","","","","","","","","","74","J","1","","","102","main_expt","",""
"","bandit","184","883671","0.0-144.0-0.0","43854179","wem/bandit_party_2","A32J0WKL5KD8C0","either","2","860","","","","","","","0","0","1","0.7329996306","","0.4","0.8","0.2","0.6","","","","","0.3688981903","0.7329996306","0.2796352144","0.6377668076","","","","","","","","","","74","J","1","","","103","main_expt","",""
"","bandit","185","885663","0.0-145.0-0.0","43854179","wem/bandit_party_2","A32J0WKL5KD8C0","either","2","474","","","","","","","0","0","1","","0.3758155051","0.4","0.8","0.2","0.6","0.3758155051","0.7467689404","0.3556406549","0.6578341575","","","","","","","","","","","","","","72","H","0","img/none_selected.jpg","","104","main_expt","",""
"","bandit","186","887420","0.0-146.0-0.0","43854179","wem/bandit_party_2","A32J0WKL5KD8C0","either","2","240","","","","","","","1","0","0","0.737018723","","0.4","0.8","0.2","0.6","","","","","0.4508947075","0.737018723","0.3233911601","0.6727034752","","","","","","","","","","74","J","1","","","105","main_expt","",""
"","bandit","187","889707","0.0-147.0-0.0","43854179","wem/bandit_party_2","A32J0WKL5KD8C0","either","2","769","","","","","","","0","0","1","0.655194185","","0.4","0.8","0.2","0.6","","","","","0.4132181144","0.655194185","0.2024631506","0.6386482702","","","","","","","","","","74","J","1","","","106","main_expt","",""
"","bandit","188","1018930","0.0-148.0-0.0","43854179","wem/bandit_party_2","A32J0WKL5KD8C0","either","2","127704","","","","","","","1","0","0","0.7122819559","","0.4","0.8","0.2","0.6","","","","","0.4393512677","0.7122819559","0.2290393164","0.6788938686","","","","","","","","","","74","J","1","","","107","main_expt","",""
"","bandit","189","1020894","0.0-149.0-0.0","43854179","wem/bandit_party_2","A32J0WKL5KD8C0","either","2","448","","","","","","","0","1","0","","0.7326995505","0.4","0.8","0.2","0.6","0.4964319729","0.7326995505","0.2217712157","0.7076498576","","","","","","","","","","","","","","74","J","1","","","108","main_expt","",""
"","bandit","190","1022885","0.0-150.0-0.0","43854179","wem/bandit_party_2","A32J0WKL5KD8C0","either","2","475","","","","","","","1","0","0","0.7165499475","","0.4","0.8","0.2","0.6","","","","","0.4790921069","0.7165499475","0.1566860935","0.6932550908","","","","","","","","","","74","J","1","","","109","main_expt","",""
"","bandit","191","1024806","0.0-151.0-0.0","43854179","wem/bandit_party_2","A32J0WKL5KD8C0","either","2","403","","","","","","","1","0","0","0.6058017554","","0.4","0.8","0.2","0.6","","","","","0.5856434505","0.6058017554","0.1083987113","0.7436061547","","","","","","","","","","74","J","1","","","110","main_expt","",""
"","bandit","192","1026908","0.0-152.0-0.0","43854179","wem/bandit_party_2","A32J0WKL5KD8C0","either","2","584","","","","","","","0","0","1","","0.5476823758","0.4","0.8","0.2","0.6","0.6444230696","0.5476823758","0.217828795","0.657194241","","","","","","","","","","","","","","74","J","1","","","111","main_expt","",""
"","bandit","193","1028657","0.0-153.0-0.0","43854179","wem/bandit_party_2","A32J0WKL5KD8C0","either","2","231","","","","","","","1","0","0","0.603417252","","0.4","0.8","0.2","0.6","","","","","0.603417252","0.5688313193","0.2212119155","0.6317228327","","","","","","","","","","72","H","0","img/none_selected.jpg","","112","main_expt","",""
"","bandit","194","1030513","0.0-154.0-0.0","43854179","wem/bandit_party_2","A32J0WKL5KD8C0","either","2","337","","","","","","","0","1","0","","0.50852785","0.4","0.8","0.2","0.6","0.420613871","0.50852785","0.2374112476","0.4985892417","","","","","","","","","","","","","","74","J","1","","","113","main_expt","",""
"","bandit","195","1032378","0.0-155.0-0.0","43854179","wem/bandit_party_2","A32J0WKL5KD8C0","either","2","348","","","","","","","0","0","1","","0.2851569533","0.4","0.8","0.2","0.6","0.2851569533","0.5711084253","0.2703699348","0.579071345","","","","","","","","","","","","","","72","H","0","img/none_selected.jpg","","114","main_expt","",""
"","bandit","196","1034263","0.0-156.0-0.0","43854179","wem/bandit_party_2","A32J0WKL5KD8C0","either","2","365","","","","","","","0","0","1","0.4177754351","","0.4","0.8","0.2","0.6","","","","","0.3166589884","0.4177754351","0.1928485376","0.4595939904","","","","","","","","","","74","J","1","","","115","main_expt","",""
"","bandit","197","1036788","0.0-157.0-0.0","43854179","wem/bandit_party_2","A32J0WKL5KD8C0","either","2","1008","","","","","","","0","1","0","","0.3928451607","0.4","0.8","0.2","0.6","0.3928451607","0.387840809","0.136356343","0.3744567546","","","","","","","","","","","","","","72","H","0","img/none_selected.jpg","","116","main_expt","",""
"","bandit","198","1038605","0.0-158.0-0.0","43854179","wem/bandit_party_2","A32J0WKL5KD8C0","either","2","304","","","","","","","0","0","1","0.4456731606","","0.4","0.8","0.2","0.6","","","","","0.560845346","0.4456731606","0.2193113504","0.302145019","","","","","","","","","","74","J","1","","","117","main_expt","",""
"","bandit","199","1040411","0.0-159.0-0.0","43854179","wem/bandit_party_2","A32J0WKL5KD8C0","either","2","294","","","","","","","1","0","0","0.3045880574","","0.4","0.8","0.2","0.6","","","","","0.5536818424","0.3045880574","0.2686792008","0.3522466686","","","","","","","","","","74","J","1","","","118","main_expt","",""
"","bandit","200","1042526","0.0-160.0-0.0","43854179","wem/bandit_party_2","A32J0WKL5KD8C0","either","2","596","","","","","","","0","0","1","0.3994134075","","0.4","0.8","0.2","0.6","","","","","0.3617659687","0.3994134075","0.2668270476","0.4425542362","","","","","","","","","","74","J","1","","","119","main_expt","",""
"","bandit","201","1044952","0.0-161.0-0.0","43854179","wem/bandit_party_2","A32J0WKL5KD8C0","either","2","908","","","","","","","0","1","0","","0.3723992114","0.4","0.8","0.2","0.6","0.3454740543","0.351449483","0.3723992114","0.3377532805","","","","","","","","","","","","","","75","K","2","","","120","main_expt","",""
"","bandit","202","1046927","0.0-162.0-0.0","43854179","wem/bandit_party_2","A32J0WKL5KD8C0","either","2","454","","","","","","","1","0","0","0.3641911367","","0.4","0.8","0.2","0.6","","","","","0.2798257893","0.3641911367","0.4001238515","0.2929504356","","","","","","","","","","74","J","1","","","121","main_expt","",""
"","bandit","203","1048844","0.0-163.0-0.0","43854179","wem/bandit_party_2","A32J0WKL5KD8C0","either","2","399","","","","","","","1","0","0","0.2673706252","","0.4","0.8","0.2","0.6","","","","","0.2261540995","0.2673706252","0.4090120715","0.2504028886","","","","","","","","","","74","J","1","","","122","main_expt","",""
"","bandit","204","1050687","0.0-164.0-0.0","43854179","wem/bandit_party_2","A32J0WKL5KD8C0","either","2","323","","","","","","","0","0","1","0.3455372181","","0.4","0.8","0.2","0.6","","","","","0.2766663047","0.3455372181","0.4746108064","0.2414849785","","","","","","","","","","74","J","1","","","123","main_expt","",""
"","bandit","205","1052652","0.0-165.0-0.0","43854179","wem/bandit_party_2","A32J0WKL5KD8C0","either","2","447","","","","","","","0","0","1","","0.1791255979","0.4","0.8","0.2","0.6","0.3126864395","0.3524137631","0.453231646","0.1791255979","","","","","","","","","","","","","","76","L","3","","","124","main_expt","",""
"","bandit","206","1054417","0.0-166.0-0.0","43854179","wem/bandit_party_2","A32J0WKL5KD8C0","either","2","245","","","","","","","0","1","0","","0.3680881866","0.4","0.8","0.2","0.6","0.2772507379","0.3680881866","0.4888945922","0.1952456852","","","","","","","","","","","","","","74","J","1","","","125","main_expt","",""
"","bandit","207","1056311","0.0-167.0-0.0","43854179","wem/bandit_party_2","A32J0WKL5KD8C0","either","2","376","","","","","","","0","0","1","0.2884444508","","0.4","0.8","0.2","0.6","","","","","0.2441417391","0.2884444508","0.396932523","0.2614303707","","","","","","","","","","74","J","1","","","126","main_expt","",""
"","bandit","208","1060197","0.0-168.0-0.0","43854179","wem/bandit_party_2","A32J0WKL5KD8C0","either","2","2367","","","","","","","0","0","1","0.2304038214","","0.4","0.8","0.2","0.6","","","","","0.2304038214","0.2931854252","0.4026562496","0.267511235","","","","","","","","","","72","H","0","img/none_selected.jpg","","127","main_expt","",""
"","bandit","209","1062390","0.0-169.0-0.0","43854179","wem/bandit_party_2","A32J0WKL5KD8C0","either","2","674","","","","","","","0","0","1","","0.2463692943","0.4","0.8","0.2","0.6","0.2463692943","0.3115494401","0.3072143153","0.2582460394","","","","","","","","","","","","","","72","H","0","img/none_selected.jpg","","128","main_expt","",""
"","bandit","210","1063912","0.0-170.0-0.0","43854179","wem/bandit_party_2","A32J0WKL5KD8C0","either","2","2","","","","","","","0","1","0","","0.3024431642","0.4","0.8","0.2","0.6","0.262841392","0.287093163","0.3024431642","0.249100023","","","","","","","","","","","","","","75","K","2","","","129","main_expt","",""
"","bandit","211","1065942","0.0-171.0-0.0","43854179","wem/bandit_party_2","A32J0WKL5KD8C0","either","2","512","","","","","","","0","1","0","","0.383823705","0.4","0.8","0.2","0.6","0.3044503748","0.242368994","0.383823705","0.2014680341","","","","","","","","","","","","","","75","K","2","","","130","main_expt","",""
"","bandit","212","1067771","0.0-172.0-0.0","43854179","wem/bandit_party_2","A32J0WKL5KD8C0","either","2","310","","","","","","","0","0","1","","0.5448185218","0.4","0.8","0.2","0.6","0.2231782293","0.3141093292","0.5448185218","0.2514612397","","","","","","","","","","","","","","75","K","2","","","131","main_expt","",""
"","bandit","213","1069985","0.0-173.0-0.0","43854179","wem/bandit_party_2","A32J0WKL5KD8C0","either","2","695","","","","","","","0","0","1","0.3186943837","","0.4","0.8","0.2","0.6","","","","","0.265126842","0.3186943837","0.5741986762","0.1719215191","","","","","","","","","","74","J","1","","","132","main_expt","",""
"","bandit","214","1071531","0.0-174.0-0.0","43854179","wem/bandit_party_2","A32J0WKL5KD8C0","either","2","26","","","","","","","1","0","0","0.151851594","","0.4","0.8","0.2","0.6","","","","","0.1996467811","0.3218599317","0.54298015","0.151851594","","","","","","","","","","76","L","3","","","133","main_expt","",""
"","bandit","215","1073423","0.0-175.0-0.0","43854179","wem/bandit_party_2","A32J0WKL5KD8C0","either","2","378","","","","","","","1","0","0","0.1693242304","","0.4","0.8","0.2","0.6","","","","","0.1900899503","0.3372263261","0.5504084981","0.1693242304","","","","","","","","","","76","L","3","","","134","main_expt","",""
"","bandit","216","1075244","0.0-176.0-0.0","43854179","wem/bandit_party_2","A32J0WKL5KD8C0","either","2","303","","","","","","","0","0","1","0.1541174352","","0.4","0.8","0.2","0.6","","","","","0.172295534","0.3515125386","0.4874659601","0.1541174352","","","","","","","","","","76","L","3","","","135","main_expt","",""
"","bandit","217","1077112","0.0-177.0-0.0","43854179","wem/bandit_party_2","A32J0WKL5KD8C0","either","2","349","","","","","","","1","0","0","0.3677382912","","0.4","0.8","0.2","0.6","","","","","0.1171098277","0.2312583875","0.3677382912","0.1374012581","","","","","","","","","","75","K","2","","","136","main_expt","",""
"","bandit","218","1079147","0.0-178.0-0.0","43854179","wem/bandit_party_2","A32J0WKL5KD8C0","either","2","518","","","","","","","0","0","1","0.2889288236","","0.4","0.8","0.2","0.6","","","","","0.1390909791","0.3496768842","0.2944012193","0.2889288236","","","","","","","","","","76","L","3","","","137","main_expt","",""
"","bandit","219","1081280","0.0-179.0-0.0","43854179","wem/bandit_party_2","A32J0WKL5KD8C0","either","2","614","","","","","","","1","0","0","0.4217982028","","0.4","0.8","0.2","0.6","","","","","0.1209370274","0.4217982028","0.3020033879","0.2177367931","","","","","","","","","","74","J","1","","","138","main_expt","",""
"","bandit","220","1083375","0.0-180.0-0.0","43854179","wem/bandit_party_2","A32J0WKL5KD8C0","either","2","580","","","","","","","1","0","0","0.5123523738","","0.4","0.8","0.2","0.6","","","","","0.1441291996","0.5123523738","0.2908104057","0.1704259453","","","","","","","","","","74","J","1","","","139","main_expt","",""
"","bandit","221","1085269","0.0-181.0-0.0","43854179","wem/bandit_party_2","A32J0WKL5KD8C0","either","2","376","","","","","","","0","0","1","0.3892042576","","0.4","0.8","0.2","0.6","","","","","0.1380406349","0.3892042576","0.2738290205","0.1827322183","","","","","","","","","","74","J","1","","","140","main_expt","",""
"","bandit","222","1088270","0.0-182.0-0.0","43854179","wem/bandit_party_2","A32J0WKL5KD8C0","either","2","1481","","","","","","","0","1","0","","0.3865798498","0.4","0.8","0.2","0.6","0.1312769784","0.4680147771","0.3865798498","0.2030288612","","","","","","","","","","","","","","75","K","2","","","141","main_expt","",""
"","bandit","223","1090252","0.0-183.0-0.0","43854179","wem/bandit_party_2","A32J0WKL5KD8C0","either","2","465","","","","","","","0","0","1","","0.1760536641","0.4","0.8","0.2","0.6","0.1880730553","0.3970866904","0.3507917403","0.1760536641","","","","","","","","","","","","","","76","L","3","","","142","main_expt","",""
"","bandit","224","1092168","0.0-184.0-0.0","43854179","wem/bandit_party_2","A32J0WKL5KD8C0","either","2","395","","","","","","","0","0","1","0.3609481858","","0.4","0.8","0.2","0.6","","","","","0.1798266991","0.3609481858","0.2787839286","0.1428921374","","","","","","","","","","74","J","1","","","143","main_expt","",""
"","bandit","225","1094649","0.0-185.0-0.0","43854179","wem/bandit_party_2","A32J0WKL5KD8C0","either","2","962","","","","","","","0","0","1","0.2106619402","","0.4","0.8","0.2","0.6","","","","","0.1881666754","0.3701270871","0.2106619402","0.1260474704","","","","","","","","","","75","K","2","","","144","main_expt","",""
"","bandit","226","1096879","0.0-186.0-0.0","43854179","wem/bandit_party_2","A32J0WKL5KD8C0","either","2","713","","","","","","","0","1","0","","0.1683386122","0.4","0.8","0.2","0.6","0.1683386122","0.3110645609","0.3211677341","0.151337539","","","","","","","","","","","","","","72","H","0","img/none_selected.jpg","","145","main_expt","",""
"","bandit","227","1098730","0.0-187.0-0.0","43854179","wem/bandit_party_2","A32J0WKL5KD8C0","either","2","333","","","","","","","0","0","1","0.356964637","","0.4","0.8","0.2","0.6","","","","","0.2609121533","0.356964637","0.4417580917","0.1600114734","","","","","","","","","","74","J","1","","","146","main_expt","",""
"","bandit","228","1100604","0.0-188.0-0.0","43854179","wem/bandit_party_2","A32J0WKL5KD8C0","either","2","356","","","","","","","0","0","1","","0.280259565","0.4","0.8","0.2","0.6","0.280259565","0.5143633813","0.278611551","0.1262446547","","","","","","","","","","","","","","72","H","0","img/none_selected.jpg","","147","main_expt","",""
"","bandit","229","1103577","0.0-189.0-0.0","43854179","wem/bandit_party_2","A32J0WKL5KD8C0","either","2","596","","","","","","","0","0","1","","0.2972918914","0.4","0.8","0.2","0.6","0.2972918914","0.5086187798","0.2811332351","0.1030311585","","","","","","","","","","","","","","72","H","0","img/none_selected.jpg","","148","main_expt","",""
"","bandit","230","1151639","0.0-190.0-0.0","43854179","wem/bandit_party_2","A32J0WKL5KD8C0","either","2","46545","","","","","","","0","0","1","","0.2606345315","0.4","0.8","0.2","0.6","0.3284309668","0.4676315778","0.2606345315","0.123834606","","","","","","","","","","","","","","75","K","2","","","149","main_expt","",""
"","bandit","231","1153591","0.0-191.0-0.0","43854179","wem/bandit_party_2","A32J0WKL5KD8C0","either","2","440","","","","","","","0","1","0","","0.4737351686","0.4","0.8","0.2","0.6","0.3186890608","0.4737351686","0.260677327","0.06566206942","","","","","","","","","","","","","","74","J","1","","","150","main_expt","",""
"","bandit","232","1155507","0.0-192.0-0.0","43854179","wem/bandit_party_2","A32J0WKL5KD8C0","either","2","394","","","","","","","0","1","0","","0.3331747037","0.4","0.8","0.2","0.6","0.3331747037","0.5387476985","0.2579624968","0.06342121736","","","","","","","","","","","","","","72","H","0","img/none_selected.jpg","","151","main_expt","",""
"","bandit","233","1157487","0.0-193.0-0.0","43854179","wem/bandit_party_2","A32J0WKL5KD8C0","either","2","461","","","","","","","0","1","0","","0.2536911072","0.4","0.8","0.2","0.6","0.364096089","0.5065138565","0.2536911072","0.1162046696","","","","","","","","","","","","","","75","K","2","","","152","main_expt","",""
"","bandit","234","1159280","0.0-194.0-0.0","43854179","wem/bandit_party_2","A32J0WKL5KD8C0","either","2","278","","","","","","","0","0","1","0.5190676077","","0.4","0.8","0.2","0.6","","","","","0.3189440566","0.5190676077","0.1427943183","0.1388943584","","","","","","","","","","74","J","1","","","153","main_expt","",""
"","bandit","235","1161091","0.0-195.0-0.0","43854179","wem/bandit_party_2","A32J0WKL5KD8C0","either","2","292","","","","","","","0","0","1","0.486858514","","0.4","0.8","0.2","0.6","","","","","0.486858514","0.4944482457","0.08934943386","0.1188489222","","","","","","","","","","72","H","0","img/none_selected.jpg","","154","main_expt","",""
"","bandit","236","1162912","0.0-196.0-0.0","43854179","wem/bandit_party_2","A32J0WKL5KD8C0","either","2","302","","","","","","","1","0","0","0.398958755","","0.4","0.8","0.2","0.6","","","","","0.398958755","0.4987902374","0.1048919666","0.1255079792","","","","","","","","","","72","H","0","img/none_selected.jpg","","155","main_expt","",""
"","bandit","237","1164765","0.0-197.0-0.0","43854179","wem/bandit_party_2","A32J0WKL5KD8C0","either","2","333","","","","","","","0","0","1","","0.3508932217","0.4","0.8","0.2","0.6","0.3508932217","0.4151199053","0.1348874752","0.1705129017","","","","","","","","","","","","","","72","H","0","img/none_selected.jpg","","156","main_expt","",""
"","bandit","238","1166444","0.0-198.0-0.0","43854179","wem/bandit_party_2","A32J0WKL5KD8C0","either","2","159","","","","","","","0","0","1","0.1892203872","","0.4","0.8","0.2","0.6","","","","","0.3736640956","0.4215128153","0.1197456909","0.1892203872","","","","","","","","","","76","L","3","","","157","main_expt","",""
"","bandit","239","1168335","0.0-199.0-0.0","43854179","wem/bandit_party_2","A32J0WKL5KD8C0","either","2","371","","","","","","","0","0","1","","0.1343935597","0.4","0.8","0.2","0.6","0.3215678611","0.3666899102","0.1343935597","0.1589595026","","","","","","","","","","","","","","75","K","2","","","158","main_expt","",""
"","bandit","240","1170118","0.0-200.0-0.0","43854179","wem/bandit_party_2","A32J0WKL5KD8C0","either","2","265","","","","","","","0","0","1","","0.3906786657","0.4","0.8","0.2","0.6","0.2732838962","0.3906786657","0.04604274909","0.1426383857","","","","","","","","","","","","","","74","J","1","","","159","main_expt","",""
"","bandit","241","1171996","0.0-201.0-0.0","43854179","wem/bandit_party_2","A32J0WKL5KD8C0","either","2","356","","","","","","","0","0","1","0.4769972016","","0.4","0.8","0.2","0.6","","","","","0.2323229575","0.4769972016","0.08927965808","0.2747613825","","","","","","","","","","74","J","1","","","160","main_expt","",""
"","bandit","242","1174118","0.0-202.0-0.0","43854179","wem/bandit_party_2","A32J0WKL5KD8C0","either","2","604","","","","","","","0","0","1","0.4405879513","","0.4","0.8","0.2","0.6","","","","","0.399022808","0.4405879513","0.1038156196","0.2046882866","","","","","","","","","","74","J","1","","","161","main_expt","",""
"","bandit","243","1175942","0.0-203.0-0.0","43854179","wem/bandit_party_2","A32J0WKL5KD8C0","either","2","306","","","","","","","0","1","0","","0.4967313539","0.4","0.8","0.2","0.6","0.4967313539","0.44055992","0.1470739062","0.1715152701","","","","","","","","","","","","","","72","H","0","img/none_selected.jpg","","162","main_expt","",""
"","bandit","244","1178207","0.0-204.0-0.0","43854179","wem/bandit_party_2","A32J0WKL5KD8C0","either","2","745","","","","","","","0","0","1","","0.5245029489","0.4","0.8","0.2","0.6","0.5245029489","0.3434222481","0.1214264794","0.2396687428","","","","","","","","","","","","","","72","H","0","img/none_selected.jpg","","163","main_expt","",""
"","bandit","245","1304123","0.0-205.0-0.0","43854179","wem/bandit_party_2","A32J0WKL5KD8C0","either","2","124404","","","","","","","1","0","0","0.5808119749","","0.4","0.8","0.2","0.6","","","","","0.5808119749","0.3862652833","0.1563758897","0.3359744524","","","","","","","","","","72","H","0","img/none_selected.jpg","","164","main_expt","",""
"","bandit","246","1307504","0.0-206.0-0.0","43854179","wem/bandit_party_2","A32J0WKL5KD8C0","either","2","1858","","","","","","","0","0","1","0.6473032069","","0.4","0.8","0.2","0.6","","","","","0.6473032069","0.4270444342","0.1311500467","0.4940159592","","","","","","","","","","72","H","0","img/none_selected.jpg","","165","main_expt","",""
"","bandit","247","1309395","0.0-207.0-0.0","43854179","wem/bandit_party_2","A32J0WKL5KD8C0","either","2","372","","","","","","","0","0","1","","0.1419689761","0.4","0.8","0.2","0.6","0.6790689848","0.5073102058","0.1419689761","0.5922229292","","","","","","","","","","","","","","75","K","2","","","166","main_expt","",""
"","bandit","248","1311289","0.0-208.0-0.0","43854179","wem/bandit_party_2","A32J0WKL5KD8C0","either","2","368","","","","","","","0","1","0","","0.5959653185","0.4","0.8","0.2","0.6","0.5959653185","0.5417092253","0.150246256","0.5562626425","","","","","","","","","","","","","","72","H","0","img/none_selected.jpg","","167","main_expt","",""
"","bandit","249","1313492","0.0-209.0-0.0","43854179","wem/bandit_party_2","A32J0WKL5KD8C0","either","2","684","","","","","","","0","1","0","","0.6489587791","0.4","0.8","0.2","0.6","0.361841396","0.6505471885","0.2070971521","0.6489587791","","","","","","","","","","","","","","76","L","3","","","168","main_expt","",""
"","bandit","250","1315511","0.0-210.0-0.0","43854179","wem/bandit_party_2","A32J0WKL5KD8C0","either","2","498","","","","","","","0","0","1","","0.2594844845","0.4","0.8","0.2","0.6","0.2594844845","0.6226729341","0.2564452127","0.5652428614","","","","","","","","","","","","","","72","H","0","img/none_selected.jpg","","169","main_expt","",""
"","bandit","251","1317423","0.0-211.0-0.0","43854179","wem/bandit_party_2","A32J0WKL5KD8C0","either","2","392","","","","","","","1","0","0","0.7574543886","","0.4","0.8","0.2","0.6","","","","","0.1987556041","0.7574543886","0.2845729388","0.5344749526","","","","","","","","","","74","J","1","","","170","main_expt","",""
"","bandit","252","1319305","0.0-212.0-0.0","43854179","wem/bandit_party_2","A32J0WKL5KD8C0","either","2","363","","","","","","","0","0","1","0.774201251","","0.4","0.8","0.2","0.6","","","","","0.1583585206","0.774201251","0.2360657399","0.6364900983","","","","","","","","","","74","J","1","","","171","main_expt","",""
"","bandit","253","1321129","0.0-213.0-0.0","43854179","wem/bandit_party_2","A32J0WKL5KD8C0","either","2","303","","","","","","","0","0","1","","0.1494938987","0.4","0.8","0.2","0.6","0.1494938987","0.7739789177","0.3453554921","0.5516193693","","","","","","","","","","","","","","72","H","0","img/none_selected.jpg","","172","main_expt","",""
"","bandit","254","1322902","0.0-214.0-0.0","43854179","wem/bandit_party_2","A32J0WKL5KD8C0","either","2","233","","","","","","","0","1","0","","0.5081608063","0.4","0.8","0.2","0.6","0.1996494969","0.7146420849","0.2909261263","0.5081608063","","","","","","","","","","","","","","76","L","3","","","173","main_expt","",""
"","bandit","255","1324737","0.0-215.0-0.0","43854179","wem/bandit_party_2","A32J0WKL5KD8C0","either","2","313","","","","","","","1","0","0","0.683245412","","0.4","0.8","0.2","0.6","","","","","0.2200767262","0.683245412","0.3807546558","0.5247340446","","","","","","","","","","74","J","1","","","174","main_expt","",""
"","bandit","256","1326542","0.0-216.0-0.0","43854179","wem/bandit_party_2","A32J0WKL5KD8C0","either","2","284","","","","","","","1","0","0","0.7163731774","","0.4","0.8","0.2","0.6","","","","","0.1929710708","0.7163731774","0.3889518003","0.5823110366","","","","","","","","","","74","J","1","","","175","main_expt","",""
"","bandit","257","1328417","0.0-217.0-0.0","43854179","wem/bandit_party_2","A32J0WKL5KD8C0","either","2","355","","","","","","","1","0","0","0.6676116703","","0.4","0.8","0.2","0.6","","","","","0.1756556012","0.6676116703","0.3662842853","0.7693722391","","","","","","","","","","74","J","1","","","176","main_expt","",""
"","bandit","258","1330250","0.0-218.0-0.0","43854179","wem/bandit_party_2","A32J0WKL5KD8C0","either","2","312","","","","","","","0","0","1","","0.711116056","0.4","0.8","0.2","0.6","0.2404611203","0.711116056","0.3102656016","0.8048595062","","","","","","","","","","","","","","74","J","1","","","177","main_expt","",""
"","bandit","259","1332135","0.0-219.0-0.0","43854179","wem/bandit_party_2","A32J0WKL5KD8C0","either","2","351","","","","","","","1","0","0","0.6541247318","","0.4","0.8","0.2","0.6","","","","","0.1651874793","0.6541247318","0.3272385177","0.8147320782","","","","","","","","","","74","J","1","","","178","main_expt","",""
"","bandit","260","1333983","0.0-220.0-0.0","43854179","wem/bandit_party_2","A32J0WKL5KD8C0","either","2","325","","","","","","","1","0","0","0.600925469","","0.4","0.8","0.2","0.6","","","","","0.1297692321","0.600925469","0.3185807274","0.7755432213","","","","","","","","","","74","J","1","","","179","main_expt","",""
"","bandit","261","1335833","0.0-221.0-0.0","43854179","wem/bandit_party_2","A32J0WKL5KD8C0","either","2","328","","","","","","","1","0","0","0.6321701674","","0.4","0.8","0.2","0.6","","","","","0.1311169289","0.6321701674","0.3896265469","0.7309951384","","","","","","","","","","74","J","1","","","180","main_expt","",""
"","bandit","262","1337721","0.0-222.0-0.0","43854179","wem/bandit_party_2","A32J0WKL5KD8C0","either","2","366","","","","","","","1","0","0","0.7040606398","","0.4","0.8","0.2","0.6","","","","","0.2184653543","0.7040606398","0.4381139349","0.8068071681","","","","","","","","","","74","J","1","","","181","main_expt","",""
"","bandit","263","1339576","0.0-223.0-0.0","43854179","wem/bandit_party_2","A32J0WKL5KD8C0","either","2","333","","","","","","","1","0","0","0.6551517927","","0.4","0.8","0.2","0.6","","","","","0.156745214","0.6551517927","0.4339703771","0.8096694819","","","","","","","","","","74","J","1","","","182","main_expt","",""
"","bandit","264","1341474","0.0-224.0-0.0","43854179","wem/bandit_party_2","A32J0WKL5KD8C0","either","2","372","","","","","","","0","0","1","0.7709035389","","0.4","0.8","0.2","0.6","","","","","0.07710569088","0.7709035389","0.5270594011","0.8522040983","","","","","","","","","","74","J","1","","","183","main_expt","",""
"","bandit","265","1343340","0.0-225.0-0.0","43854179","wem/bandit_party_2","A32J0WKL5KD8C0","either","2","325","","","","","","","1","0","0","0.7869666122","","0.4","0.8","0.2","0.6","","","","","0.07901501252","0.7869666122","0.4791569234","0.8636776132","","","","","","","","","","74","J","1","","","184","main_expt","",""
"","bandit","266","1345194","0.0-226.0-0.0","43854179","wem/bandit_party_2","A32J0WKL5KD8C0","either","2","332","","","","","","","0","1","0","","0.804571828","0.4","0.8","0.2","0.6","0.05695362571","0.804571828","0.464074867","0.8605951951","","","","","","","","","","","","","","74","J","1","","","185","main_expt","",""
"","bandit","267","1347025","0.0-227.0-0.0","43854179","wem/bandit_party_2","A32J0WKL5KD8C0","either","2","308","","","","","","","1","0","0","0.7866627628","","0.4","0.8","0.2","0.6","","","","","0.03796608352","0.7866627628","0.4654947356","0.8578427848","","","","","","","","","","74","J","1","","","186","main_expt","",""
"","bandit","268","1348867","0.0-228.0-0.0","43854179","wem/bandit_party_2","A32J0WKL5KD8C0","either","2","320","","","","","","","1","0","0","0.8006736442","","0.4","0.8","0.2","0.6","","","","","0.05986429342","0.8006736442","0.4338668179","0.8253306036","","","","","","","","","","74","J","1","","","187","main_expt","",""
"","bandit","269","1350687","0.0-229.0-0.0","43854179","wem/bandit_party_2","A32J0WKL5KD8C0","either","2","296","","","","","","","0","1","0","","0.7687627789","0.4","0.8","0.2","0.6","0.05827831728","0.7687627789","0.4679469354","0.8118593573","","","","","","","","","","","","","","74","J","1","","","188","main_expt","",""
"","bandit","270","1352530","0.0-230.0-0.0","43854179","wem/bandit_party_2","A32J0WKL5KD8C0","either","2","322","","","","","","","1","0","0","0.7009429779","","0.4","0.8","0.2","0.6","","","","","0.06499387038","0.7009429779","0.4645116859","0.8319104568","","","","","","","","","","74","J","1","","","189","main_expt","",""
"","bandit","271","1354369","0.0-231.0-0.0","43854179","wem/bandit_party_2","A32J0WKL5KD8C0","either","2","318","","","","","","","1","0","0","0.7531121838","","0.4","0.8","0.2","0.6","","","","","0.0878029059","0.7531121838","0.4260553166","0.8949986836","","","","","","","","","","74","J","1","","","190","main_expt","",""
"","bandit","272","1356368","0.0-232.0-0.0","43854179","wem/bandit_party_2","A32J0WKL5KD8C0","either","2","477","","","","","","","0","0","1","0.6174616994","","0.4","0.8","0.2","0.6","","","","","0.1101088583","0.6174616994","0.5323747461","0.9258368343","","","","","","","","","","74","J","1","","","191","main_expt","",""
"","bandit","273","1358350","0.0-233.0-0.0","43854179","wem/bandit_party_2","A32J0WKL5KD8C0","either","2","461","","","","","","","0","0","1","0.6331996982","","0.4","0.8","0.2","0.6","","","","","0.1559643099","0.6331996982","0.6013900654","0.9221438833","","","","","","","","","","74","J","1","","","192","main_expt","",""
"","bandit","274","1360160","0.0-234.0-0.0","43854179","wem/bandit_party_2","A32J0WKL5KD8C0","either","2","288","","","","","","","0","0","1","0.5596167322","","0.4","0.8","0.2","0.6","","","","","0.1348882638","0.5596167322","0.5332063066","0.878376231","","","","","","","","","","74","J","1","","","193","main_expt","",""
"","bandit","275","1362153","0.0-235.0-0.0","43854179","wem/bandit_party_2","A32J0WKL5KD8C0","either","2","471","","","","","","","1","0","0","0.7914694382","","0.4","0.8","0.2","0.6","","","","","0.243093686","0.5887018809","0.5499496643","0.7914694382","","","","","","","","","","76","L","3","","","194","main_expt","",""
"","bandit","276","1364433","0.0-236.0-0.0","43854179","wem/bandit_party_2","A32J0WKL5KD8C0","either","2","758","","","","","","","0","1","0","","0.7843027812","0.4","0.8","0.2","0.6","0.2792315856","0.561552955","0.4170732774","0.7843027812","","","","","","","","","","","","","","76","L","3","","","195","main_expt","",""
"","bandit","277","1366294","0.0-237.0-0.0","43854179","wem/bandit_party_2","A32J0WKL5KD8C0","either","2","340","","","","","","","1","0","0","0.7888241066","","0.4","0.8","0.2","0.6","","","","","0.2075419965","0.6199522587","0.4050854298","0.7888241066","","","","","","","","","","76","L","3","","","196","main_expt","",""
"","bandit","278","1368181","0.0-238.0-0.0","43854179","wem/bandit_party_2","A32J0WKL5KD8C0","either","2","364","","","","","","","1","0","0","0.8145025162","","0.4","0.8","0.2","0.6","","","","","0.1899284635","0.6886125155","0.4522405917","0.8145025162","","","","","","","","","","76","L","3","","","197","main_expt","",""
"","bandit","279","1370161","0.0-239.0-0.0","43854179","wem/bandit_party_2","A32J0WKL5KD8C0","either","2","457","","","","","","","1","0","0","0.8795467387","","0.4","0.8","0.2","0.6","","","","","0.1632143895","0.6468609917","0.4547961131","0.8795467387","","","","","","","","","","76","L","3","","","198","main_expt","",""
"","bandit","280","1371988","0.0-240.0-0.0","43854179","wem/bandit_party_2","A32J0WKL5KD8C0","either","2","304","","","","","","","0","1","0","","0.8716255916","0.4","0.8","0.2","0.6","0.1580048483","0.7134983028","0.456709553","0.8716255916","","","","","","","","","","","","","","76","L","3","","","199","main_expt","",""
"","bandit","281","1373799","0.0-241.0-0.0","43854179","wem/bandit_party_2","A32J0WKL5KD8C0","either","2","288","","","","","","","1","0","0","0.8596876402","","0.4","0.8","0.2","0.6","","","","","0.1815025648","0.6545285445","0.4197111003","0.8596876402","","","","","","","","","","76","L","3","","","200","main_expt","",""
"","bandit","282","1375698","0.0-242.0-0.0","43854179","wem/bandit_party_2","A32J0WKL5KD8C0","either","2","373","","","","","","","1","0","0","0.8714244785","","0.4","0.8","0.2","0.6","","","","","0.1453003075","0.6827561938","0.4468864226","0.8714244785","","","","","","","","","","76","L","3","","","201","main_expt","",""
"","bandit","283","1377499","0.0-243.0-0.0","43854179","wem/bandit_party_2","A32J0WKL5KD8C0","either","2","278","","","","","","","1","0","0","0.8679491409","","0.4","0.8","0.2","0.6","","","","","0.1061510446","0.6590680519","0.3852152277","0.8679491409","","","","","","","","","","76","L","3","","","202","main_expt","",""
"","bandit","284","1379361","0.0-244.0-0.0","43854179","wem/bandit_party_2","A32J0WKL5KD8C0","either","2","339","","","","","","","0","0","1","0.8421855008","","0.4","0.8","0.2","0.6","","","","","0.09667757311","0.67998256","0.3481501846","0.8421855008","","","","","","","","","","76","L","3","","","203","main_expt","",""
"","bandit","285","1381185","0.0-245.0-0.0","43854179","wem/bandit_party_2","A32J0WKL5KD8C0","either","2","301","","","","","","","0","0","1","","0.3688904748","0.4","0.8","0.2","0.6","0.109576977","0.7157802034","0.3688904748","0.8741547355","","","","","","","","","","","","","","75","K","2","","","204","main_expt","",""
"","bandit","286","1383061","0.0-246.0-0.0","43854179","wem/bandit_party_2","A32J0WKL5KD8C0","either","2","353","","","","","","","0","0","1","","0.6750594522","0.4","0.8","0.2","0.6","0.1370524017","0.6750594522","0.4196025605","0.8589537271","","","","","","","","","","","","","","74","J","1","","","205","main_expt","",""
"","bandit","287","1384586","0.0-247.0-0.0","43854179","wem/bandit_party_2","A32J0WKL5KD8C0","either","2","1","","","","","","","0","0","1","","0.1005848846","0.4","0.8","0.2","0.6","0.1005848846","0.7170784861","0.3558717694","0.8009191088","","","","","","","","","","","","","","72","H","0","img/none_selected.jpg","","206","main_expt","",""
"","bandit","288","1386387","0.0-248.0-0.0","43854179","wem/bandit_party_2","A32J0WKL5KD8C0","either","2","284","","","","","","","1","0","0","0.6886550294","","0.4","0.8","0.2","0.6","","","","","0.1100528349","0.6886550294","0.3978287694","0.8146279372","","","","","","","","","","74","J","1","","","207","main_expt","",""
"","bandit","289","1388267","0.0-249.0-0.0","43854179","wem/bandit_party_2","A32J0WKL5KD8C0","either","2","357","","","","","","","0","0","1","0.7340041914","","0.4","0.8","0.2","0.6","","","","","0.1165568201","0.7340041914","0.3647175361","0.7498886323","","","","","","","","","","74","J","1","","","208","main_expt","",""
"","bandit","290","1390166","0.0-250.0-0.0","43854179","wem/bandit_party_2","A32J0WKL5KD8C0","either","2","377","","","","","","","1","0","0","0.781298432","","0.4","0.8","0.2","0.6","","","","","0.1607141963","0.7108339061","0.2942091963","0.781298432","","","","","","","","","","76","L","3","","","209","main_expt","",""
"","bandit","291","1392191","0.0-251.0-0.0","43854179","wem/bandit_party_2","A32J0WKL5KD8C0","either","2","494","","","","","","","0","1","0","","0.8374694261","0.4","0.8","0.2","0.6","0.2005879304","0.7322658343","0.3228874634","0.8374694261","","","","","","","","","","","","","","76","L","3","","","210","main_expt","",""
"","bandit","292","1394480","0.0-252.0-0.0","43854179","wem/bandit_party_2","A32J0WKL5KD8C0","either","2","766","","","","","","","1","0","0","0.7461264045","","0.4","0.8","0.2","0.6","","","","","0.1999716741","0.6220956771","0.3300931135","0.7461264045","","","","","","","","","","76","L","3","","","211","main_expt","",""
"","bandit","293","1396529","0.0-253.0-0.0","43854179","wem/bandit_party_2","A32J0WKL5KD8C0","either","2","526","","","","","","","0","1","0","","0.7267359419","0.4","0.8","0.2","0.6","0.2135957141","0.5400145011","0.4044608811","0.7267359419","","","","","","","","","","","","","","76","L","3","","","212","main_expt","",""
"","bandit","294","1398672","0.0-254.0-0.0","43854179","wem/bandit_party_2","A32J0WKL5KD8C0","either","2","620","","","","","","","1","0","0","0.6529835343","","0.4","0.8","0.2","0.6","","","","","0.2041793084","0.5419994818","0.4916994921","0.6529835343","","","","","","","","","","76","L","3","","","213","main_expt","",""
"","bandit","295","1400638","0.0-255.0-0.0","43854179","wem/bandit_party_2","A32J0WKL5KD8C0","either","2","442","","","","","","","1","0","0","0.5734554779","","0.4","0.8","0.2","0.6","","","","","0.2563089198","0.6195319152","0.5387088508","0.5734554779","","","","","","","","","","76","L","3","","","214","main_expt","",""
"","bandit","296","1402447","0.0-256.0-0.0","43854179","wem/bandit_party_2","A32J0WKL5KD8C0","either","2","293","","","","","","","1","0","0","0.7056003711","","0.4","0.8","0.2","0.6","","","","","0.2870699064","0.7405966814","0.567041903","0.7056003711","","","","","","","","","","76","L","3","","","215","main_expt","",""
"","bandit","297","1404340","0.0-257.0-0.0","43854179","wem/bandit_party_2","A32J0WKL5KD8C0","either","2","370","","","","","","","1","0","0","0.7717913507","","0.4","0.8","0.2","0.6","","","","","0.2715554895","0.8005734678","0.539749723","0.7717913507","","","","","","","","","","76","L","3","","","216","main_expt","",""
"","bandit","298","1406287","0.0-258.0-0.0","43854179","wem/bandit_party_2","A32J0WKL5KD8C0","either","2","427","","","","","","","0","0","1","0.834894728","","0.4","0.8","0.2","0.6","","","","","0.2027777883","0.8392159132","0.3803352486","0.834894728","","","","","","","","","","76","L","3","","","217","main_expt","",""
"","bandit","299","1408163","0.0-259.0-0.0","43854179","wem/bandit_party_2","A32J0WKL5KD8C0","either","2","354","","","","","","","0","1","0","","0.7445585264","0.4","0.8","0.2","0.6","0.2169787163","0.7445585264","0.3236333655","0.868580258","","","","","","","","","","","","","","74","J","1","","","218","main_expt","",""
"","bandit","300","1410203","0.0-260.0-0.0","43854179","wem/bandit_party_2","A32J0WKL5KD8C0","either","2","516","","","","","","","1","0","0","0.7174829008","","0.4","0.8","0.2","0.6","","","","","0.2292932202","0.7174829008","0.2612589469","0.8236231074","","","","","","","","","","74","J","1","","","219","main_expt","",""
"","bandit","301","1412379","0.0-261.0-0.0","43854179","wem/bandit_party_2","A32J0WKL5KD8C0","either","2","651","","","","","","","1","0","0","0.6601767392","","0.4","0.8","0.2","0.6","","","","","0.2829053382","0.6601767392","0.2228319794","0.7719294443","","","","","","","","","","74","J","1","","","220","main_expt","",""
"","bandit","302","1414261","0.0-262.0-0.0","43854179","wem/bandit_party_2","A32J0WKL5KD8C0","either","2","359","","","","","","","1","0","0","0.703996204","","0.4","0.8","0.2","0.6","","","","","0.2691731019","0.703996204","0.2204856404","0.7609360252","","","","","","","","","","74","J","1","","","221","main_expt","",""
"","bandit","303","1416162","0.0-263.0-0.0","43854179","wem/bandit_party_2","A32J0WKL5KD8C0","either","2","377","","","","","","","0","0","1","0.6188024556","","0.4","0.8","0.2","0.6","","","","","0.1974112065","0.6188024556","0.2269951902","0.7319851961","","","","","","","","","","74","J","1","","","222","main_expt","",""
"","bandit","304","1418086","0.0-264.0-0.0","43854179","wem/bandit_party_2","A32J0WKL5KD8C0","either","2","401","","","","","","","1","0","0","0.6994646324","","0.4","0.8","0.2","0.6","","","","","0.08486155027","0.5695888615","0.3417830843","0.6994646324","","","","","","","","","","76","L","3","","","223","main_expt","",""
"","bandit","305","1419846","0.0-265.0-0.0","43854179","wem/bandit_party_2","A32J0WKL5KD8C0","either","2","236","","","","","","","1","0","0","0.6590173842","","0.4","0.8","0.2","0.6","","","","","0.1930609847","0.6590173842","0.4057490183","0.6817307813","","","","","","","","","","74","J","1","","","224","main_expt","",""
"","bandit","306","1421659","0.0-266.0-0.0","43854179","wem/bandit_party_2","A32J0WKL5KD8C0","either","2","289","","","","","","","1","0","0","0.67394888","","0.4","0.8","0.2","0.6","","","","","0.2026087193","0.6779124893","0.4266979185","0.67394888","","","","","","","","","","76","L","3","","","225","main_expt","",""
"","bandit","307","1423566","0.0-267.0-0.0","43854179","wem/bandit_party_2","A32J0WKL5KD8C0","either","2","383","","","","","","","1","0","0","0.6433757785","","0.4","0.8","0.2","0.6","","","","","0.1295559036","0.6433757785","0.4723095555","0.6520670614","","","","","","","","","","74","J","1","","","226","main_expt","",""
"","bandit","308","1425387","0.0-268.0-0.0","43854179","wem/bandit_party_2","A32J0WKL5KD8C0","either","2","300","","","","","","","1","0","0","0.6598054912","","0.4","0.8","0.2","0.6","","","","","0.1014701128","0.6050090536","0.4396274322","0.6598054912","","","","","","","","","","76","L","3","","","227","main_expt","",""
"","bandit","309","1427229","0.0-269.0-0.0","43854179","wem/bandit_party_2","A32J0WKL5KD8C0","either","2","319","","","","","","","0","1","0","","0.5614220587","0.4","0.8","0.2","0.6","0.1374428951","0.5614220587","0.4581465293","0.7313296172","","","","","","","","","","","","","","74","J","1","","","228","main_expt","",""
"","bandit","310","1429046","0.0-270.0-0.0","43854179","wem/bandit_party_2","A32J0WKL5KD8C0","either","2","293","","","","","","","1","0","0","0.5771612872","","0.4","0.8","0.2","0.6","","","","","0.2147377822","0.536938762","0.3635076811","0.5771612872","","","","","","","","","","76","L","3","","","229","main_expt","",""
"","bandit","311","1431124","0.0-271.0-0.0","43854179","wem/bandit_party_2","A32J0WKL5KD8C0","either","2","554","","","","","","","0","0","1","0.4691369301","","0.4","0.8","0.2","0.6","","","","","0.2128984172","0.4691369301","0.4109812081","0.6474737632","","","","","","","","","","74","J","1","","","230","main_expt","",""
"","bandit","312","1432930","0.0-272.0-0.0","43854179","wem/bandit_party_2","A32J0WKL5KD8C0","either","2","279","","","","","","","1","0","0","0.77083729","","0.4","0.8","0.2","0.6","","","","","0.2566260117","0.3801843724","0.3769467169","0.77083729","","","","","","","","","","76","L","3","","","231","main_expt","",""
"","bandit","313","1434889","0.0-273.0-0.0","43854179","wem/bandit_party_2","A32J0WKL5KD8C0","either","2","431","","","","","","","0","0","1","0.7372448464","","0.4","0.8","0.2","0.6","","","","","0.307190163","0.4401380948","0.4489681289","0.7372448464","","","","","","","","","","76","L","3","","","232","main_expt","",""
"","bandit","314","1436998","0.0-274.0-0.0","43854179","wem/bandit_party_2","A32J0WKL5KD8C0","either","2","584","","","","","","","0","0","1","0.4589823784","","0.4","0.8","0.2","0.6","","","","","0.3235632008","0.4589823784","0.5191563331","0.8061851957","","","","","","","","","","74","J","1","","","233","main_expt","",""
"","bandit","315","1438888","0.0-275.0-0.0","43854179","wem/bandit_party_2","A32J0WKL5KD8C0","either","2","365","","","","","","","0","1","0","","0.5635532962","0.4","0.8","0.2","0.6","0.2229472669","0.412850409","0.5635532962","0.7628128465","","","","","","","","","","","","","","75","K","2","","","234","main_expt","",""
