"consent","trial_type","trial_index","time_elapsed","internal_node_id","subjID","study","MID","cond","drift","rt","responses","button_pressed","key_press","like","value","connected","gems","bombs","no_reward","GemPrChosen","BombPrChosen","GainOverPainPr_0","GainOverPainPr_1","GainOverPainPr_2","GainOverPainPr_3","LosePr_0","LosePr_1","LosePr_2","LosePr_3","WinPr_0","WinPr_1","WinPr_2","WinPr_3","Q0","Q1","Q2","gender","age","ethnicity","label","expt_phase","target","respCharCode","respKey","respChoiceNum","respChoice","practice","trial_counter","trial_label","Q0_index"
"GDM/GDM_behavioral_consent_30min_online.html","consent","0","33806","0.0-0.0","44683893","wem/bandit_party_2","A2G0HRT8HS9HRZ","either","6","","","","","","","","","","","","","","","","","","","","","","","","","","","","","","","","","","","","","","","","",""
"","survey-text","1","58704","0.0-1.0","44683893","wem/bandit_party_2","A2G0HRT8HS9HRZ","either","6","23874","{""Q0"":""A2G0HRT8HS9HRZ""}","","","","","","","","","","","","","","","","","","","","","","","","","","","","","","","","","","","","","","",""
"","button-response","2","62961","0.0-2.0","44683893","wem/bandit_party_2","A2G0HRT8HS9HRZ","either","6","3246","","1","","","","","","","","","","","","","","","","","","","","","","","","","","","","","","","","","","","","","",""
"","text-replacement","3","208256","0.0-3.0","44683893","wem/bandit_party_2","A2G0HRT8HS9HRZ","either","6","144287","","","32","","","","","","","","","","","","","","","","","","","","","","","","","","","","","","","","","","","","",""
"","text-replacement","4","369689","0.0-4.0","44683893","wem/bandit_party_2","A2G0HRT8HS9HRZ","either","6","161426","","","32","","","","","","","","","","","","","","","","","","","","","","","","","","","","","","","","","","","","",""
"","identification","5","379032","0.0-6.0-0.0","44683893","wem/bandit_party_2","A2G0HRT8HS9HRZ","either","6","9303","","","","0","0","0","","","","","","","","","","","","","","","","","","","","","","","","pre","identification_pre","the Republican Party","","","","","","","",""
"","identification","6","389144","0.0-6.0-1.0","44683893","wem/bandit_party_2","A2G0HRT8HS9HRZ","either","6","9076","","","","5","6","5","","","","","","","","","","","","","","","","","","","","","","","","pre","identification_pre","the Democratic Party","","","","","","","",""
"","text-replacement","7","397325","0.0-7.0","44683893","wem/bandit_party_2","A2G0HRT8HS9HRZ","either","6","7176","","","32","","","","","","","","","","","","","","","","","","","","","","","","","","","","","","","","","","","","",""
"","text-replacement","8","405680","0.0-8.0","44683893","wem/bandit_party_2","A2G0HRT8HS9HRZ","either","6","8350","","","32","","","","","","","","","","","","","","","","","","","","","","","","","","","","","","","","","","","","",""
"","text-replacement","9","418494","0.0-9.0","44683893","wem/bandit_party_2","A2G0HRT8HS9HRZ","either","6","12806","","","32","","","","","","","","","","","","","","","","","","","","","","","","","","","","","","","","","","","","",""
"","text-replacement","10","427718","0.0-10.0","44683893","wem/bandit_party_2","A2G0HRT8HS9HRZ","either","6","9219","","","32","","","","","","","","","","","","","","","","","","","","","","","","","","","","","","","","","","","","",""
"","text-replacement","11","434776","0.0-11.0","44683893","wem/bandit_party_2","A2G0HRT8HS9HRZ","either","6","7052","","","32","","","","","","","","","","","","","","","","","","","","","","","","","","","","","","","","","","","","",""
"","bandit","12","442872","0.0-12.0-0.0","44683893","wem/bandit_party_2","A2G0HRT8HS9HRZ","either","6","6575","","","","","","","0","0","1","0","0","","","","","0","","","","0","","","","","","","","","","","","","74","J","0","img/none_selected_demo.jpg","true","0","",""
"","bandit","13","445745","0.0-13.0-0.0","44683893","wem/bandit_party_2","A2G0HRT8HS9HRZ","either","6","1358","","","","","","","0","0","1","0","0","","","","","0","","","","0","","","","","","","","","","","","","75","K","0","img/none_selected_demo.jpg","true","0","",""
"","text-replacement","14","504416","0.0-14.0","44683893","wem/bandit_party_2","A2G0HRT8HS9HRZ","either","6","58666","","","32","","","","","","","","","","","","","","","","","","","","","","","","","","","","","","","","","","","","",""
"","text-replacement","15","511905","0.0-15.0","44683893","wem/bandit_party_2","A2G0HRT8HS9HRZ","either","6","7485","","","32","","","","","","","","","","","","","","","","","","","","","","","","","","","","","","","","","","","","",""
"","text-replacement","16","518691","0.0-16.0","44683893","wem/bandit_party_2","A2G0HRT8HS9HRZ","either","6","6781","","","32","","","","","","","","","","","","","","","","","","","","","","","","","","","","","","","","","","","","",""
"","text-replacement","17","522480","0.0-17.0","44683893","wem/bandit_party_2","A2G0HRT8HS9HRZ","either","6","3783","","","32","","","","","","","","","","","","","","","","","","","","","","","","","","","","","","","","","","","","",""
"","bandit","18","528207","0.0-18.0-0.0","44683893","wem/bandit_party_2","A2G0HRT8HS9HRZ","either","6","4214","","","","","","","1","0","0","0.8","","0.5","0.5","","","","","","","0.8","0.2","","","","","","","","","","","","74","J","0","img/none_selected_demo.jpg","true","0","80_20_practice",""
"","bandit","19","530141","0.0-18.0-1.0","44683893","wem/bandit_party_2","A2G0HRT8HS9HRZ","either","6","417","","","","","","","0","0","1","","0.8","0.5","0.5","","","0.8","0.2","","","","","","","","","","","","","","","","74","J","0","img/none_selected_demo.jpg","true","0","80_20_practice",""
"","bandit","20","531969","0.0-18.0-2.0","44683893","wem/bandit_party_2","A2G0HRT8HS9HRZ","either","6","314","","","","","","","0","0","1","","0.8","0.5","0.5","","","0.8","0.2","","","","","","","","","","","","","","","","74","J","0","img/none_selected_demo.jpg","true","0","80_20_practice",""
"","bandit","21","534170","0.0-18.0-3.0","44683893","wem/bandit_party_2","A2G0HRT8HS9HRZ","either","6","688","","","","","","","0","0","1","0.2","","0.5","0.5","","","","","","","0.8","0.2","","","","","","","","","","","","75","K","1","","true","0","80_20_practice",""
"","bandit","22","536011","0.0-18.0-4.0","44683893","wem/bandit_party_2","A2G0HRT8HS9HRZ","either","6","329","","","","","","","0","0","1","","0.2","0.5","0.5","","","0.8","0.2","","","","","","","","","","","","","","","","75","K","1","","true","0","80_20_practice",""
"","bandit","23","537973","0.0-18.0-5.0","44683893","wem/bandit_party_2","A2G0HRT8HS9HRZ","either","6","453","","","","","","","0","0","1","0.2","","0.5","0.5","","","","","","","0.8","0.2","","","","","","","","","","","","75","K","1","","true","0","80_20_practice",""
"","bandit","24","539974","0.0-18.0-6.0","44683893","wem/bandit_party_2","A2G0HRT8HS9HRZ","either","6","487","","","","","","","1","0","0","0.8","","0.5","0.5","","","","","","","0.8","0.2","","","","","","","","","","","","74","J","0","img/none_selected_demo.jpg","true","0","80_20_practice",""
"","bandit","25","542635","0.0-18.0-7.0","44683893","wem/bandit_party_2","A2G0HRT8HS9HRZ","either","6","1151","","","","","","","0","0","1","","0.8","0.5","0.5","","","0.8","0.2","","","","","","","","","","","","","","","","74","J","0","img/none_selected_demo.jpg","true","0","80_20_practice",""
"","bandit","26","544689","0.0-18.0-8.0","44683893","wem/bandit_party_2","A2G0HRT8HS9HRZ","either","6","543","","","","","","","1","0","0","0.8","","0.5","0.5","","","","","","","0.8","0.2","","","","","","","","","","","","74","J","0","img/none_selected_demo.jpg","true","0","80_20_practice",""
"","bandit","27","546752","0.0-18.0-9.0","44683893","wem/bandit_party_2","A2G0HRT8HS9HRZ","either","6","551","","","","","","","1","0","0","0.8","","0.5","0.5","","","","","","","0.8","0.2","","","","","","","","","","","","74","J","0","img/none_selected_demo.jpg","true","0","80_20_practice",""
"","bandit","28","548917","0.0-18.0-10.0","44683893","wem/bandit_party_2","A2G0HRT8HS9HRZ","either","6","654","","","","","","","0","0","1","","0.8","0.5","0.5","","","0.8","0.2","","","","","","","","","","","","","","","","74","J","0","img/none_selected_demo.jpg","true","0","80_20_practice",""
"","bandit","29","550936","0.0-18.0-11.0","44683893","wem/bandit_party_2","A2G0HRT8HS9HRZ","either","6","510","","","","","","","1","0","0","0.8","","0.5","0.5","","","","","","","0.8","0.2","","","","","","","","","","","","74","J","0","img/none_selected_demo.jpg","true","0","80_20_practice",""
"","bandit","30","553154","0.0-18.0-12.0","44683893","wem/bandit_party_2","A2G0HRT8HS9HRZ","either","6","703","","","","","","","1","0","0","0.8","","0.5","0.5","","","","","","","0.8","0.2","","","","","","","","","","","","74","J","0","img/none_selected_demo.jpg","true","0","80_20_practice",""
"","bandit","31","555331","0.0-18.0-13.0","44683893","wem/bandit_party_2","A2G0HRT8HS9HRZ","either","6","663","","","","","","","1","0","0","0.8","","0.5","0.5","","","","","","","0.8","0.2","","","","","","","","","","","","74","J","0","img/none_selected_demo.jpg","true","0","80_20_practice",""
"","bandit","32","557608","0.0-18.0-14.0","44683893","wem/bandit_party_2","A2G0HRT8HS9HRZ","either","6","762","","","","","","","1","0","0","0.8","","0.5","0.5","","","","","","","0.8","0.2","","","","","","","","","","","","74","J","0","img/none_selected_demo.jpg","true","0","80_20_practice",""
"","bandit","33","559903","0.0-18.0-15.0","44683893","wem/bandit_party_2","A2G0HRT8HS9HRZ","either","6","778","","","","","","","1","0","0","0.8","","0.5","0.5","","","","","","","0.8","0.2","","","","","","","","","","","","74","J","0","img/none_selected_demo.jpg","true","0","80_20_practice",""
"","bandit","34","562049","0.0-18.0-16.0","44683893","wem/bandit_party_2","A2G0HRT8HS9HRZ","either","6","635","","","","","","","0","1","0","","0.8","0.5","0.5","","","0.8","0.2","","","","","","","","","","","","","","","","74","J","0","img/none_selected_demo.jpg","true","0","80_20_practice",""
"","bandit","35","564394","0.0-18.0-17.0","44683893","wem/bandit_party_2","A2G0HRT8HS9HRZ","either","6","833","","","","","","","1","0","0","0.8","","0.5","0.5","","","","","","","0.8","0.2","","","","","","","","","","","","74","J","0","img/none_selected_demo.jpg","true","0","80_20_practice",""
"","bandit","36","566511","0.0-18.0-18.0","44683893","wem/bandit_party_2","A2G0HRT8HS9HRZ","either","6","603","","","","","","","1","0","0","0.8","","0.5","0.5","","","","","","","0.8","0.2","","","","","","","","","","","","74","J","0","img/none_selected_demo.jpg","true","0","80_20_practice",""
"","bandit","37","569163","0.0-18.0-19.0","44683893","wem/bandit_party_2","A2G0HRT8HS9HRZ","either","6","1137","","","","","","","1","0","0","0.8","","0.5","0.5","","","","","","","0.8","0.2","","","","","","","","","","","","74","J","0","img/none_selected_demo.jpg","true","0","80_20_practice",""
"","text-replacement","38","576370","0.0-19.0","44683893","wem/bandit_party_2","A2G0HRT8HS9HRZ","either","6","7202","","","32","","","","","","","","","","","","","","","","","","","","","","","","","","","","","","","","","","","","",""
"","bandit","39","581342","0.0-20.0-0.0","44683893","wem/bandit_party_2","A2G0HRT8HS9HRZ","either","6","3460","","","","","","","1","0","0","1","0","","","","","0","1","","","1","0","","","","","","","","","","","","74","J","0","img/none_selected_demo.jpg","true","0","",""
"","text-replacement","40","592465","0.0-21.0","44683893","wem/bandit_party_2","A2G0HRT8HS9HRZ","either","6","11117","","","32","","","","","","","","","","","","","","","","","","","","","","","","","","","","","","","","","","","","",""
"","text-replacement","41","599289","0.0-22.0","44683893","wem/bandit_party_2","A2G0HRT8HS9HRZ","either","6","6820","","","32","","","","","","","","","","","","","","","","","","","","","","","","","","","","","","","","","","","","",""
"","text-replacement","42","603110","0.0-23.0","44683893","wem/bandit_party_2","A2G0HRT8HS9HRZ","either","6","3814","","","32","","","","","","","","","","","","","","","","","","","","","","","","","","","","","","","","","","","","",""
"","text-replacement","43","607979","0.0-24.0","44683893","wem/bandit_party_2","A2G0HRT8HS9HRZ","either","6","4865","","","32","","","","","","","","","","","","","","","","","","","","","","","","","","","","","","","","","","","","",""
"","text-replacement","44","616766","0.0-25.0","44683893","wem/bandit_party_2","A2G0HRT8HS9HRZ","either","6","8781","","","32","","","","","","","","","","","","","","","","","","","","","","","","","","","","","","","","","","","","",""
"","text-replacement","45","620265","0.0-26.0","44683893","wem/bandit_party_2","A2G0HRT8HS9HRZ","either","6","3493","","","32","","","","","","","","","","","","","","","","","","","","","","","","","","","","","","","","","","","","",""
"","text-replacement","46","626022","0.0-27.0","44683893","wem/bandit_party_2","A2G0HRT8HS9HRZ","either","6","5752","","","32","","","","","","","","","","","","","","","","","","","","","","","","","","","","","","","","","","","","",""
"","text-replacement","47","630862","0.0-28.0","44683893","wem/bandit_party_2","A2G0HRT8HS9HRZ","either","6","4834","","","32","","","","","","","","","","","","","","","","","","","","","","","","","","","","","","","","","","","","",""
"","text-replacement","48","639545","0.0-29.0","44683893","wem/bandit_party_2","A2G0HRT8HS9HRZ","either","6","8678","","","32","","","","","","","","","","","","","","","","","","","","","","","","","","","","","","","","","","","","",""
"","text-replacement","49","642471","0.0-30.0","44683893","wem/bandit_party_2","A2G0HRT8HS9HRZ","either","6","2923","","","32","","","","","","","","","","","","","","","","","","","","","","","","","","","","","","","","","","","","",""
"","text-replacement","50","660452","0.0-31.0","44683893","wem/bandit_party_2","A2G0HRT8HS9HRZ","either","6","17976","","","32","","","","","","","","","","","","","","","","","","","","","","","","","","","","","","","","","","","","",""
"","bandit","51","662961","0.0-32.0-0.0","44683893","wem/bandit_party_2","A2G0HRT8HS9HRZ","either","6","996","","","","","","","1","0","0","0.8","","0.5","0.5","0.5","0.5","","","","","0.8","0.2","0.6","0.2","","","","","","","","","","72","H","0","img/none_selected.jpg","true","0","full_practice",""
"","bandit","52","665377","0.0-32.0-1.0","44683893","wem/bandit_party_2","A2G0HRT8HS9HRZ","either","6","902","","","","","","","1","0","0","0.2","","0.5","0.5","0.5","0.5","","","","","0.8","0.2","0.6","0.2","","","","","","","","","","76","L","3","","true","0","full_practice",""
"","bandit","53","667576","0.0-32.0-2.0","44683893","wem/bandit_party_2","A2G0HRT8HS9HRZ","either","6","686","","","","","","","1","0","0","0.6","","0.5","0.5","0.5","0.5","","","","","0.8","0.2","0.6","0.2","","","","","","","","","","75","K","2","","true","0","full_practice",""
"","bandit","54","669464","0.0-32.0-3.0","44683893","wem/bandit_party_2","A2G0HRT8HS9HRZ","either","6","374","","","","","","","0","1","0","","0.2","0.5","0.5","0.5","0.5","0.8","0.2","0.6","0.2","","","","","","","","","","","","","","74","J","1","","true","0","full_practice",""
"","bandit","55","671558","0.0-32.0-4.0","44683893","wem/bandit_party_2","A2G0HRT8HS9HRZ","either","6","581","","","","","","","0","0","1","0.2","","0.5","0.5","0.5","0.5","","","","","0.8","0.2","0.6","0.2","","","","","","","","","","74","J","1","","true","0","full_practice",""
"","bandit","56","673371","0.0-32.0-5.0","44683893","wem/bandit_party_2","A2G0HRT8HS9HRZ","either","6","299","","","","","","","1","0","0","0.8","","0.5","0.5","0.5","0.5","","","","","0.8","0.2","0.6","0.2","","","","","","","","","","72","H","0","img/none_selected.jpg","true","0","full_practice",""
"","bandit","57","675477","0.0-32.0-6.0","44683893","wem/bandit_party_2","A2G0HRT8HS9HRZ","either","6","593","","","","","","","1","0","0","0.8","","0.5","0.5","0.5","0.5","","","","","0.8","0.2","0.6","0.2","","","","","","","","","","72","H","0","img/none_selected.jpg","true","0","full_practice",""
"","bandit","58","677734","0.0-32.0-7.0","44683893","wem/bandit_party_2","A2G0HRT8HS9HRZ","either","6","744","","","","","","","0","1","0","","0.8","0.5","0.5","0.5","0.5","0.8","0.2","0.6","0.2","","","","","","","","","","","","","","72","H","0","img/none_selected.jpg","true","0","full_practice",""
"","bandit","59","679606","0.0-32.0-8.0","44683893","wem/bandit_party_2","A2G0HRT8HS9HRZ","either","6","360","","","","","","","0","1","0","","0.8","0.5","0.5","0.5","0.5","0.8","0.2","0.6","0.2","","","","","","","","","","","","","","72","H","0","img/none_selected.jpg","true","0","full_practice",""
"","bandit","60","681803","0.0-32.0-9.0","44683893","wem/bandit_party_2","A2G0HRT8HS9HRZ","either","6","678","","","","","","","1","0","0","0.8","","0.5","0.5","0.5","0.5","","","","","0.8","0.2","0.6","0.2","","","","","","","","","","72","H","0","img/none_selected.jpg","true","0","full_practice",""
"","bandit","61","683751","0.0-32.0-10.0","44683893","wem/bandit_party_2","A2G0HRT8HS9HRZ","either","6","433","","","","","","","1","0","0","0.8","","0.5","0.5","0.5","0.5","","","","","0.8","0.2","0.6","0.2","","","","","","","","","","72","H","0","img/none_selected.jpg","true","0","full_practice",""
"","bandit","62","686049","0.0-32.0-11.0","44683893","wem/bandit_party_2","A2G0HRT8HS9HRZ","either","6","784","","","","","","","1","0","0","0.8","","0.5","0.5","0.5","0.5","","","","","0.8","0.2","0.6","0.2","","","","","","","","","","72","H","0","img/none_selected.jpg","true","0","full_practice",""
"","bandit","63","688650","0.0-32.0-12.0","44683893","wem/bandit_party_2","A2G0HRT8HS9HRZ","either","6","1087","","","","","","","1","0","0","0.8","","0.5","0.5","0.5","0.5","","","","","0.8","0.2","0.6","0.2","","","","","","","","","","72","H","0","img/none_selected.jpg","true","0","full_practice",""
"","bandit","64","690785","0.0-32.0-13.0","44683893","wem/bandit_party_2","A2G0HRT8HS9HRZ","either","6","620","","","","","","","0","0","1","","0.8","0.5","0.5","0.5","0.5","0.8","0.2","0.6","0.2","","","","","","","","","","","","","","72","H","0","img/none_selected.jpg","true","0","full_practice",""
"","bandit","65","693042","0.0-32.0-14.0","44683893","wem/bandit_party_2","A2G0HRT8HS9HRZ","either","6","742","","","","","","","0","0","1","","0.2","0.5","0.5","0.5","0.5","0.8","0.2","0.6","0.2","","","","","","","","","","","","","","76","L","3","","true","0","full_practice",""
"","bandit","66","695112","0.0-32.0-15.0","44683893","wem/bandit_party_2","A2G0HRT8HS9HRZ","either","6","556","","","","","","","0","0","1","0.2","","0.5","0.5","0.5","0.5","","","","","0.8","0.2","0.6","0.2","","","","","","","","","","74","J","1","","true","0","full_practice",""
"","bandit","67","697014","0.0-32.0-16.0","44683893","wem/bandit_party_2","A2G0HRT8HS9HRZ","either","6","388","","","","","","","0","1","0","","0.6","0.5","0.5","0.5","0.5","0.8","0.2","0.6","0.2","","","","","","","","","","","","","","75","K","2","","true","0","full_practice",""
"","bandit","68","699009","0.0-32.0-17.0","44683893","wem/bandit_party_2","A2G0HRT8HS9HRZ","either","6","480","","","","","","","1","0","0","0.6","","0.5","0.5","0.5","0.5","","","","","0.8","0.2","0.6","0.2","","","","","","","","","","75","K","2","","true","0","full_practice",""
"","bandit","69","701110","0.0-32.0-18.0","44683893","wem/bandit_party_2","A2G0HRT8HS9HRZ","either","6","585","","","","","","","0","1","0","","0.6","0.5","0.5","0.5","0.5","0.8","0.2","0.6","0.2","","","","","","","","","","","","","","75","K","2","","true","0","full_practice",""
"","bandit","70","703313","0.0-32.0-19.0","44683893","wem/bandit_party_2","A2G0HRT8HS9HRZ","either","6","681","","","","","","","0","0","1","","0.6","0.5","0.5","0.5","0.5","0.8","0.2","0.6","0.2","","","","","","","","","","","","","","75","K","2","","true","0","full_practice",""
"","text","71","708111","0.0-33.0","44683893","wem/bandit_party_2","A2G0HRT8HS9HRZ","either","6","4781","","","32","","","","","","","","","","","","","","","","","","","","","","","","","","","","","","","","","","","","",""
"","text-replacement","72","727310","0.0-34.0","44683893","wem/bandit_party_2","A2G0HRT8HS9HRZ","either","6","18193","","","32","","","","","","","","","","","","","","","","","","","","","","","","","","","","","","","","","","","","",""
"","text-replacement","73","744207","0.0-35.0","44683893","wem/bandit_party_2","A2G0HRT8HS9HRZ","either","6","16892","","","32","","","","","","","","","","","","","","","","","","","","","","","","","","","","","","","","","","","","",""
"","text-replacement","74","751134","0.0-36.0","44683893","wem/bandit_party_2","A2G0HRT8HS9HRZ","either","6","6920","","","32","","","","","","","","","","","","","","","","","","","","","","","","","","","","","","","","","","","","",""
"","text-replacement","75","759213","0.0-37.0","44683893","wem/bandit_party_2","A2G0HRT8HS9HRZ","either","6","8070","","","32","","","","","","","","","","","","","","","","","","","","","","","","","","","","","","","","","","","","",""
"","text-replacement","76","770263","0.0-38.0","44683893","wem/bandit_party_2","A2G0HRT8HS9HRZ","either","6","11045","","","32","","","","","","","","","","","","","","","","","","","","","","","","","","","","","","","","","","","","",""
"","survey-multi-choice-replacement","77","777440","0.0-39.0-0.0","44683893","wem/bandit_party_2","A2G0HRT8HS9HRZ","either","6","7152","","","","","","","","","","","","","","","","","","","","","","","","Money will be added to the pool for <span style='color:blue;'>DEMOCRATS</span>","","","","","","","attn_check","","","","","","","","","0"
"","survey-multi-choice-replacement","78","804741","0.0-40.0-0.0","44683893","wem/bandit_party_2","A2G0HRT8HS9HRZ","either","6","26273","","","","","","","","","","","","","","","","","","","","","","","","Equal amounts of money will be added to the pool for <span style='color:blue;'>DEMOCRATS</span> and subtracted from the pool for <span style='color:red;'>REPUBLICANS</span>","","","","","","","attn_check","","","","","","","","","2"
"","survey-multi-choice-replacement","79","809636","0.0-41.0-0.0","44683893","wem/bandit_party_2","A2G0HRT8HS9HRZ","either","6","3869","","","","","","","","","","","","","","","","","","","","","","","","No money will be added to either pool","","","","","","","attn_check","","","","","","","","","3"
"","bandit","80","821025","0.0-42.0-0.0","44683893","wem/bandit_party_2","A2G0HRT8HS9HRZ","either","6","8868","","","","","","","0","0","1","","0.2309914537","0.8","0.4","0.6","0.2","0.7197236342","0.1947351938","0.3049938501","0.2309914537","","","","","","","","","","","","","","76","L","3","","","1","main_expt",""
"","bandit","81","823020","0.0-43.0-0.0","44683893","wem/bandit_party_2","A2G0HRT8HS9HRZ","either","6","478","","","","","","","0","0","1","0.7453792406","","0.8","0.4","0.6","0.2","","","","","0.7453792406","0.1865171684","0.3105507028","0.2351366282","","","","","","","","","","72","H","0","img/none_selected.jpg","","2","main_expt",""
"","bandit","82","824963","0.0-44.0-0.0","44683893","wem/bandit_party_2","A2G0HRT8HS9HRZ","either","6","428","","","","","","","0","1","0","","0.1578482069","0.8","0.4","0.6","0.2","0.7422746785","0.1578482069","0.347932066","0.3338792953","","","","","","","","","","","","","","74","J","1","","","3","main_expt",""
"","bandit","83","826994","0.0-45.0-0.0","44683893","wem/bandit_party_2","A2G0HRT8HS9HRZ","either","6","516","","","","","","","0","0","1","","0.1733557992","0.8","0.4","0.6","0.2","0.8152876082","0.1733557992","0.294099503","0.2578124611","","","","","","","","","","","","","","74","J","1","","","4","main_expt",""
"","bandit","84","829294","0.0-46.0-0.0","44683893","wem/bandit_party_2","A2G0HRT8HS9HRZ","either","6","786","","","","","","","0","0","1","","0.256228135","0.8","0.4","0.6","0.2","0.8494846052","0.1275681293","0.256228135","0.152782507","","","","","","","","","","","","","","75","K","2","","","5","main_expt",""
"","bandit","85","831274","0.0-47.0-0.0","44683893","wem/bandit_party_2","A2G0HRT8HS9HRZ","either","6","465","","","","","","","0","0","1","","0.1776351543","0.8","0.4","0.6","0.2","0.8036792828","0.1776351543","0.3142053347","0.200224935","","","","","","","","","","","","","","74","J","1","","","6","main_expt",""
"","bandit","86","833151","0.0-48.0-0.0","44683893","wem/bandit_party_2","A2G0HRT8HS9HRZ","either","6","364","","","","","","","1","0","0","0.8659664865","","0.8","0.4","0.6","0.2","","","","","0.8659664865","0.1412615145","0.2382568898","0.2200442108","","","","","","","","","","72","H","0","img/none_selected.jpg","","7","main_expt",""
"","bandit","87","835232","0.0-49.0-0.0","44683893","wem/bandit_party_2","A2G0HRT8HS9HRZ","either","6","567","","","","","","","1","0","0","0.8475436228","","0.8","0.4","0.6","0.2","","","","","0.8475436228","0.1508054742","0.220471749","0.1516915951","","","","","","","","","","72","H","0","img/none_selected.jpg","","8","main_expt",""
"","bandit","88","837559","0.0-50.0-0.0","44683893","wem/bandit_party_2","A2G0HRT8HS9HRZ","either","6","813","","","","","","","1","0","0","0.8034999265","","0.8","0.4","0.6","0.2","","","","","0.8034999265","0.1882404854","0.2842820234","0.1468829212","","","","","","","","","","72","H","0","img/none_selected.jpg","","9","main_expt",""
"","bandit","89","839632","0.0-51.0-0.0","44683893","wem/bandit_party_2","A2G0HRT8HS9HRZ","either","6","555","","","","","","","1","0","0","0.7148412232","","0.8","0.4","0.6","0.2","","","","","0.7148412232","0.1731305678","0.3392415315","0.1507643719","","","","","","","","","","72","H","0","img/none_selected.jpg","","10","main_expt",""
"","bandit","90","841635","0.0-52.0-0.0","44683893","wem/bandit_party_2","A2G0HRT8HS9HRZ","either","6","488","","","","","","","0","1","0","","0.7213030285","0.8","0.4","0.6","0.2","0.7213030285","0.2475279461","0.4470346709","0.18301","","","","","","","","","","","","","","72","H","0","img/none_selected.jpg","","11","main_expt",""
"","bandit","91","843863","0.0-53.0-0.0","44683893","wem/bandit_party_2","A2G0HRT8HS9HRZ","either","6","711","","","","","","","1","0","0","0.7396148754","","0.8","0.4","0.6","0.2","","","","","0.7396148754","0.2068792089","0.5143820195","0.209562337","","","","","","","","","","72","H","0","img/none_selected.jpg","","12","main_expt",""
"","bandit","92","845776","0.0-54.0-0.0","44683893","wem/bandit_party_2","A2G0HRT8HS9HRZ","either","6","399","","","","","","","1","0","0","0.6870781676","","0.8","0.4","0.6","0.2","","","","","0.6870781676","0.1594062408","0.4934308908","0.2133897639","","","","","","","","","","72","H","0","img/none_selected.jpg","","13","main_expt",""
"","bandit","93","847933","0.0-55.0-0.0","44683893","wem/bandit_party_2","A2G0HRT8HS9HRZ","either","6","636","","","","","","","1","0","0","0.6561171826","","0.8","0.4","0.6","0.2","","","","","0.6561171826","0.1808320347","0.5884397519","0.1865122749","","","","","","","","","","72","H","0","img/none_selected.jpg","","14","main_expt",""
"","bandit","94","849733","0.0-56.0-0.0","44683893","wem/bandit_party_2","A2G0HRT8HS9HRZ","either","6","285","","","","","","","1","0","0","0.6255101569","","0.8","0.4","0.6","0.2","","","","","0.6255101569","0.2401125286","0.425765204","0.3169691733","","","","","","","","","","72","H","0","img/none_selected.jpg","","15","main_expt",""
"","bandit","95","852001","0.0-57.0-0.0","44683893","wem/bandit_party_2","A2G0HRT8HS9HRZ","either","6","756","","","","","","","0","1","0","","0.6101220295","0.8","0.4","0.6","0.2","0.6101220295","0.1823220599","0.4458974369","0.3927767979","","","","","","","","","","","","","","72","H","0","img/none_selected.jpg","","16","main_expt",""
"","bandit","96","854191","0.0-58.0-0.0","44683893","wem/bandit_party_2","A2G0HRT8HS9HRZ","either","6","674","","","","","","","1","0","0","0.6233337625","","0.8","0.4","0.6","0.2","","","","","0.6233337625","0.2076179308","0.4907358526","0.2882183284","","","","","","","","","","72","H","0","img/none_selected.jpg","","17","main_expt",""
"","bandit","97","856463","0.0-59.0-0.0","44683893","wem/bandit_party_2","A2G0HRT8HS9HRZ","either","6","750","","","","","","","1","0","0","0.598865074","","0.8","0.4","0.6","0.2","","","","","0.598865074","0.2310064443","0.4895096529","0.3212622409","","","","","","","","","","72","H","0","img/none_selected.jpg","","18","main_expt",""
"","bandit","98","858491","0.0-60.0-0.0","44683893","wem/bandit_party_2","A2G0HRT8HS9HRZ","either","6","513","","","","","","","1","0","0","0.6318918302","","0.8","0.4","0.6","0.2","","","","","0.6318918302","0.1919199612","0.5437378015","0.3678238944","","","","","","","","","","72","H","0","img/none_selected.jpg","","19","main_expt",""
"","bandit","99","860491","0.0-61.0-0.0","44683893","wem/bandit_party_2","A2G0HRT8HS9HRZ","either","6","484","","","","","","","0","1","0","","0.5667690756","0.8","0.4","0.6","0.2","0.5667690756","0.2150176637","0.543071052","0.4357360734","","","","","","","","","","","","","","72","H","0","img/none_selected.jpg","","20","main_expt",""
"","bandit","100","862346","0.0-62.0-0.0","44683893","wem/bandit_party_2","A2G0HRT8HS9HRZ","either","6","339","","","","","","","0","0","1","0.6364396753","","0.8","0.4","0.6","0.2","","","","","0.6364396753","0.2980309021","0.5457928974","0.4486518506","","","","","","","","","","72","H","0","img/none_selected.jpg","","21","main_expt",""
"","bandit","101","864566","0.0-63.0-0.0","44683893","wem/bandit_party_2","A2G0HRT8HS9HRZ","either","6","705","","","","","","","1","0","0","0.3238742104","","0.8","0.4","0.6","0.2","","","","","0.5563436533","0.3238742104","0.4531799458","0.5145372488","","","","","","","","","","74","J","1","","","22","main_expt",""
"","bandit","102","866539","0.0-64.0-0.0","44683893","wem/bandit_party_2","A2G0HRT8HS9HRZ","either","6","459","","","","","","","1","0","0","0.4555064456","","0.8","0.4","0.6","0.2","","","","","0.4555064456","0.4158928209","0.4321579995","0.6324996067","","","","","","","","","","72","H","0","img/none_selected.jpg","","23","main_expt",""
"","bandit","103","868594","0.0-65.0-0.0","44683893","wem/bandit_party_2","A2G0HRT8HS9HRZ","either","6","537","","","","","","","0","0","1","0.4398961724","","0.8","0.4","0.6","0.2","","","","","0.4398961724","0.2798670784","0.3892872195","0.6665025749","","","","","","","","","","72","H","0","img/none_selected.jpg","","24","main_expt",""
"","bandit","104","870614","0.0-66.0-0.0","44683893","wem/bandit_party_2","A2G0HRT8HS9HRZ","either","6","505","","","","","","","0","0","1","","0.3932164435","0.8","0.4","0.6","0.2","0.3810464824","0.3932164435","0.4322880781","0.5316582614","","","","","","","","","","","","","","74","J","1","","","25","main_expt",""
"","bandit","105","874231","0.0-67.0-0.0","44683893","wem/bandit_party_2","A2G0HRT8HS9HRZ","either","6","2103","","","","","","","0","0","1","","0.4282094451","0.8","0.4","0.6","0.2","0.451695138","0.3243459504","0.4560392573","0.4282094451","","","","","","","","","","","","","","76","L","3","","","26","main_expt",""
"","bandit","106","876569","0.0-68.0-0.0","44683893","wem/bandit_party_2","A2G0HRT8HS9HRZ","either","6","821","","","","","","","0","1","0","","0.5372901799","0.8","0.4","0.6","0.2","0.4423729324","0.4266302179","0.5372901799","0.4711380508","","","","","","","","","","","","","","75","K","2","","","27","main_expt",""
"","bandit","107","878574","0.0-69.0-0.0","44683893","wem/bandit_party_2","A2G0HRT8HS9HRZ","either","6","491","","","","","","","0","0","1","","0.6619872032","0.8","0.4","0.6","0.2","0.4221124674","0.4206607535","0.6619872032","0.4539290932","","","","","","","","","","","","","","75","K","2","","","28","main_expt",""
"","bandit","108","880540","0.0-70.0-0.0","44683893","wem/bandit_party_2","A2G0HRT8HS9HRZ","either","6","450","","","","","","","0","0","1","","0.440099583","0.8","0.4","0.6","0.2","0.489207998","0.440099583","0.5939885142","0.4378511583","","","","","","","","","","","","","","74","J","1","","","29","main_expt",""
"","bandit","109","882565","0.0-71.0-0.0","44683893","wem/bandit_party_2","A2G0HRT8HS9HRZ","either","6","507","","","","","","","0","1","0","","0.5602145404","0.8","0.4","0.6","0.2","0.4406356357","0.3982168329","0.5602145404","0.3425428874","","","","","","","","","","","","","","75","K","2","","","30","main_expt",""
"","bandit","110","885975","0.0-72.0-0.0","44683893","wem/bandit_party_2","A2G0HRT8HS9HRZ","either","6","1897","","","","","","","1","0","0","0.5376870091","","0.8","0.4","0.6","0.2","","","","","0.484130952","0.3573437221","0.5376870091","0.2354865125","","","","","","","","","","75","K","2","","","31","main_expt",""
"","bandit","111","888480","0.0-73.0-0.0","44683893","wem/bandit_party_2","A2G0HRT8HS9HRZ","either","6","988","","","","","","","0","0","1","0.6346195819","","0.8","0.4","0.6","0.2","","","","","0.432294219","0.3712986889","0.6346195819","0.2552437171","","","","","","","","","","75","K","2","","","32","main_expt",""
"","bandit","112","890447","0.0-74.0-0.0","44683893","wem/bandit_party_2","A2G0HRT8HS9HRZ","either","6","451","","","","","","","0","0","1","0.4821309474","","0.8","0.4","0.6","0.2","","","","","0.4821309474","0.45096985","0.7540961955","0.2470382599","","","","","","","","","","72","H","0","img/none_selected.jpg","","33","main_expt",""
"","bandit","113","892352","0.0-75.0-0.0","44683893","wem/bandit_party_2","A2G0HRT8HS9HRZ","either","6","376","","","","","","","1","0","0","0.699797925","","0.8","0.4","0.6","0.2","","","","","0.4702474349","0.5559331637","0.699797925","0.2951894024","","","","","","","","","","75","K","2","","","34","main_expt",""
"","bandit","114","894758","0.0-76.0-0.0","44683893","wem/bandit_party_2","A2G0HRT8HS9HRZ","either","6","891","","","","","","","1","0","0","0.7410295452","","0.8","0.4","0.6","0.2","","","","","0.5363697359","0.7354386419","0.7410295452","0.2596626779","","","","","","","","","","75","K","2","","","35","main_expt",""
"","bandit","115","897659","0.0-77.0-0.0","44683893","wem/bandit_party_2","A2G0HRT8HS9HRZ","either","6","1383","","","","","","","0","0","1","0.7332281969","","0.8","0.4","0.6","0.2","","","","","0.602250539","0.6934166837","0.7332281969","0.3164764808","","","","","","","","","","75","K","2","","","36","main_expt",""
"","bandit","116","899637","0.0-78.0-0.0","44683893","wem/bandit_party_2","A2G0HRT8HS9HRZ","either","6","464","","","","","","","0","0","1","0.5337433964","","0.8","0.4","0.6","0.2","","","","","0.5337433964","0.6311869688","0.736713329","0.3672962009","","","","","","","","","","72","H","0","img/none_selected.jpg","","37","main_expt",""
"","bandit","117","901846","0.0-79.0-0.0","44683893","wem/bandit_party_2","A2G0HRT8HS9HRZ","either","6","691","","","","","","","0","1","0","","0.6860808007","0.8","0.4","0.6","0.2","0.5970413872","0.6583504975","0.6860808007","0.4056598401","","","","","","","","","","","","","","75","K","2","","","38","main_expt",""
"","bandit","118","903681","0.0-80.0-0.0","44683893","wem/bandit_party_2","A2G0HRT8HS9HRZ","either","6","320","","","","","","","0","0","1","","0.4236995386","0.8","0.4","0.6","0.2","0.6529448079","0.5861321806","0.7498761973","0.4236995386","","","","","","","","","","","","","","76","L","3","","","39","main_expt",""
"","bandit","119","905649","0.0-81.0-0.0","44683893","wem/bandit_party_2","A2G0HRT8HS9HRZ","either","6","449","","","","","","","1","0","0","0.4892836735","","0.8","0.4","0.6","0.2","","","","","0.6612991154","0.4892836735","0.7043283504","0.4365163158","","","","","","","","","","74","J","1","","","40","main_expt",""
"","bandit","120","907584","0.0-82.0-0.0","44683893","wem/bandit_party_2","A2G0HRT8HS9HRZ","either","6","416","","","","","","","0","0","1","","0.6469690382","0.8","0.4","0.6","0.2","0.7390431107","0.3479900608","0.6469690382","0.4854269132","","","","","","","","","","","","","","75","K","2","","","41","main_expt",""
"","bandit","121","909621","0.0-83.0-0.0","44683893","wem/bandit_party_2","A2G0HRT8HS9HRZ","either","6","515","","","","","","","0","1","0","","0.6388905256","0.8","0.4","0.6","0.2","0.7609423287","0.376709287","0.6388905256","0.4753587859","","","","","","","","","","","","","","75","K","2","","","42","main_expt",""
"","bandit","122","911827","0.0-84.0-0.0","44683893","wem/bandit_party_2","A2G0HRT8HS9HRZ","either","6","690","","","","","","","1","0","0","0.6383372244","","0.8","0.4","0.6","0.2","","","","","0.8039673949","0.4319300722","0.6383372244","0.452202747","","","","","","","","","","75","K","2","","","43","main_expt",""
"","bandit","123","914078","0.0-85.0-0.0","44683893","wem/bandit_party_2","A2G0HRT8HS9HRZ","either","6","724","","","","","","","1","0","0","0.6247854939","","0.8","0.4","0.6","0.2","","","","","0.8216753652","0.4458636389","0.6247854939","0.5522191005","","","","","","","","","","75","K","2","","","44","main_expt",""
"","bandit","124","918861","0.0-86.0-0.0","44683893","wem/bandit_party_2","A2G0HRT8HS9HRZ","either","6","3264","","","","","","","0","0","1","","0.6341880498","0.8","0.4","0.6","0.2","0.7636866317","0.4323480181","0.6341880498","0.4878962787","","","","","","","","","","","","","","75","K","2","","","45","main_expt",""
"","bandit","125","923666","0.0-87.0-0.0","44683893","wem/bandit_party_2","A2G0HRT8HS9HRZ","either","6","3283","","","","","","","0","0","1","","0.5081310512","0.8","0.4","0.6","0.2","0.8203755575","0.4348202433","0.5081310512","0.487595293","","","","","","","","","","","","","","75","K","2","","","46","main_expt",""
"","bandit","126","925212","0.0-88.0-0.0","44683893","wem/bandit_party_2","A2G0HRT8HS9HRZ","either","6","6","","","","","","","1","0","0","0.3430847618","","0.8","0.4","0.6","0.2","","","","","0.8706375764","0.3430847618","0.4202927251","0.444754188","","","","","","","","","","74","J","1","","","47","main_expt",""
"","bandit","127","927939","0.0-89.0-0.0","44683893","wem/bandit_party_2","A2G0HRT8HS9HRZ","either","6","1212","","","","","","","0","0","1","0.2601977795","","0.8","0.4","0.6","0.2","","","","","0.8019506245","0.2601977795","0.4767868938","0.5044276746","","","","","","","","","","74","J","1","","","48","main_expt",""
"","bandit","128","930038","0.0-90.0-0.0","44683893","wem/bandit_party_2","A2G0HRT8HS9HRZ","either","6","584","","","","","","","0","0","1","","0.3749468019","0.8","0.4","0.6","0.2","0.7331224435","0.2368144698","0.3749468019","0.3766714482","","","","","","","","","","","","","","75","K","2","","","49","main_expt",""
"","bandit","129","932216","0.0-91.0-0.0","44683893","wem/bandit_party_2","A2G0HRT8HS9HRZ","either","6","660","","","","","","","0","0","1","0.406992786","","0.8","0.4","0.6","0.2","","","","","0.7908344101","0.2484527115","0.3532902347","0.406992786","","","","","","","","","","76","L","3","","","50","main_expt",""
"","bandit","130","934149","0.0-92.0-0.0","44683893","wem/bandit_party_2","A2G0HRT8HS9HRZ","either","6","416","","","","","","","1","0","0","0.7922828235","","0.8","0.4","0.6","0.2","","","","","0.7922828235","0.230268934","0.2413466802","0.3854505747","","","","","","","","","","72","H","0","img/none_selected.jpg","","51","main_expt",""
"","bandit","131","936696","0.0-93.0-0.0","44683893","wem/bandit_party_2","A2G0HRT8HS9HRZ","either","6","1030","","","","","","","1","0","0","0.7485378942","","0.8","0.4","0.6","0.2","","","","","0.7485378942","0.3429002399","0.2673723166","0.3956915145","","","","","","","","","","72","H","0","img/none_selected.jpg","","52","main_expt",""
"","bandit","132","938721","0.0-94.0-0.0","44683893","wem/bandit_party_2","A2G0HRT8HS9HRZ","either","6","509","","","","","","","0","1","0","","0.6603794952","0.8","0.4","0.6","0.2","0.6603794952","0.2871029552","0.2806035608","0.3062348001","","","","","","","","","","","","","","72","H","0","img/none_selected.jpg","","53","main_expt",""
"","bandit","133","941056","0.0-95.0-0.0","44683893","wem/bandit_party_2","A2G0HRT8HS9HRZ","either","6","815","","","","","","","1","0","0","0.6931449795","","0.8","0.4","0.6","0.2","","","","","0.6931449795","0.2594444468","0.2544312064","0.2996500993","","","","","","","","","","72","H","0","img/none_selected.jpg","","54","main_expt",""
"","bandit","134","944138","0.0-96.0-0.0","44683893","wem/bandit_party_2","A2G0HRT8HS9HRZ","either","6","1566","","","","","","","0","0","1","0.3362815808","","0.8","0.4","0.6","0.2","","","","","0.7553272845","0.3333749245","0.3362815808","0.2518247787","","","","","","","","","","75","K","2","","","55","main_expt",""
"","bandit","135","946150","0.0-97.0-0.0","44683893","wem/bandit_party_2","A2G0HRT8HS9HRZ","either","6","494","","","","","","","1","0","0","0.7231548626","","0.8","0.4","0.6","0.2","","","","","0.7231548626","0.3049104067","0.3798256012","0.3014763065","","","","","","","","","","72","H","0","img/none_selected.jpg","","56","main_expt",""
"","bandit","136","948258","0.0-98.0-0.0","44683893","wem/bandit_party_2","A2G0HRT8HS9HRZ","either","6","592","","","","","","","0","1","0","","0.7485901337","0.8","0.4","0.6","0.2","0.7485901337","0.3623273811","0.3989549393","0.2730843718","","","","","","","","","","","","","","72","H","0","img/none_selected.jpg","","57","main_expt",""
"","bandit","137","950479","0.0-99.0-0.0","44683893","wem/bandit_party_2","A2G0HRT8HS9HRZ","either","6","703","","","","","","","0","0","1","0.797082508","","0.8","0.4","0.6","0.2","","","","","0.797082508","0.3621169042","0.3373398956","0.367239041","","","","","","","","","","72","H","0","img/none_selected.jpg","","58","main_expt",""
"","bandit","138","952434","0.0-100.0-0.0","44683893","wem/bandit_party_2","A2G0HRT8HS9HRZ","either","6","438","","","","","","","1","0","0","0.3672848169","","0.8","0.4","0.6","0.2","","","","","0.7466963627","0.3672848169","0.3381045731","0.4005220403","","","","","","","","","","74","J","1","","","59","main_expt",""
"","bandit","139","954594","0.0-101.0-0.0","44683893","wem/bandit_party_2","A2G0HRT8HS9HRZ","either","6","644","","","","","","","1","0","0","0.5123874715","","0.8","0.4","0.6","0.2","","","","","0.6359615323","0.5123874715","0.4838111383","0.4863912708","","","","","","","","","","74","J","1","","","60","main_expt",""
"","bandit","140","957107","0.0-102.0-0.0","44683893","wem/bandit_party_2","A2G0HRT8HS9HRZ","either","6","994","","","","","","","0","1","0","","0.5218319631","0.8","0.4","0.6","0.2","0.7125939799","0.5218319631","0.4290776342","0.5220595343","","","","","","","","","","","","","","74","J","1","","","61","main_expt",""
"","bandit","141","959128","0.0-103.0-0.0","44683893","wem/bandit_party_2","A2G0HRT8HS9HRZ","either","6","500","","","","","","","0","1","0","","0.6482151027","0.8","0.4","0.6","0.2","0.5978650666","0.6482151027","0.4387439774","0.5447889898","","","","","","","","","","","","","","74","J","1","","","62","main_expt",""
"","bandit","142","961319","0.0-104.0-0.0","44683893","wem/bandit_party_2","A2G0HRT8HS9HRZ","either","6","675","","","","","","","1","0","0","0.6966290852","","0.8","0.4","0.6","0.2","","","","","0.5166338879","0.6966290852","0.3670418014","0.5517390004","","","","","","","","","","74","J","1","","","63","main_expt",""
"","bandit","143","963734","0.0-105.0-0.0","44683893","wem/bandit_party_2","A2G0HRT8HS9HRZ","either","6","899","","","","","","","1","0","0","0.6497033777","","0.8","0.4","0.6","0.2","","","","","0.4901650138","0.6497033777","0.3470393933","0.6576188384","","","","","","","","","","74","J","1","","","64","main_expt",""
"","bandit","144","966150","0.0-106.0-0.0","44683893","wem/bandit_party_2","A2G0HRT8HS9HRZ","either","6","901","","","","","","","0","0","1","","0.6925184903","0.8","0.4","0.6","0.2","0.459365688","0.6925184903","0.3361574661","0.5156176703","","","","","","","","","","","","","","74","J","1","","","65","main_expt",""
"","bandit","145","968480","0.0-107.0-0.0","44683893","wem/bandit_party_2","A2G0HRT8HS9HRZ","either","6","814","","","","","","","0","0","1","0.3851410914","","0.8","0.4","0.6","0.2","","","","","0.4666104807","0.8298767513","0.34308242","0.3851410914","","","","","","","","","","76","L","3","","","66","main_expt",""
"","bandit","146","970352","0.0-108.0-0.0","44683893","wem/bandit_party_2","A2G0HRT8HS9HRZ","either","6","348","","","","","","","1","0","0","0.8506596021","","0.8","0.4","0.6","0.2","","","","","0.5547259005","0.8506596021","0.3730603492","0.3925250542","","","","","","","","","","74","J","1","","","67","main_expt",""
"","bandit","147","972287","0.0-109.0-0.0","44683893","wem/bandit_party_2","A2G0HRT8HS9HRZ","either","6","418","","","","","","","0","1","0","","0.8536910832","0.8","0.4","0.6","0.2","0.6038719492","0.8536910832","0.4089949532","0.3884113518","","","","","","","","","","","","","","74","J","1","","","68","main_expt",""
"","bandit","148","974540","0.0-110.0-0.0","44683893","wem/bandit_party_2","A2G0HRT8HS9HRZ","either","6","736","","","","","","","1","0","0","0.8642538991","","0.8","0.4","0.6","0.2","","","","","0.6148283845","0.8642538991","0.3749002533","0.3434478979","","","","","","","","","","74","J","1","","","69","main_expt",""
"","bandit","149","976679","0.0-111.0-0.0","44683893","wem/bandit_party_2","A2G0HRT8HS9HRZ","either","6","621","","","","","","","1","0","0","0.8073802352","","0.8","0.4","0.6","0.2","","","","","0.6683283761","0.8073802352","0.4133869845","0.4426642051","","","","","","","","","","74","J","1","","","70","main_expt",""
"","bandit","150","978667","0.0-112.0-0.0","44683893","wem/bandit_party_2","A2G0HRT8HS9HRZ","either","6","468","","","","","","","0","1","0","","0.8059201048","0.8","0.4","0.6","0.2","0.738459761","0.8059201048","0.3302164541","0.4518046004","","","","","","","","","","","","","","74","J","1","","","71","main_expt",""
"","bandit","151","980814","0.0-113.0-0.0","44683893","wem/bandit_party_2","A2G0HRT8HS9HRZ","either","6","629","","","","","","","1","0","0","0.8262275011","","0.8","0.4","0.6","0.2","","","","","0.6525166508","0.8262275011","0.2570952275","0.4903223245","","","","","","","","","","74","J","1","","","72","main_expt",""
"","bandit","152","983004","0.0-114.0-0.0","44683893","wem/bandit_party_2","A2G0HRT8HS9HRZ","either","6","672","","","","","","","1","0","0","0.7334390718","","0.8","0.4","0.6","0.2","","","","","0.5715134512","0.7334390718","0.2042885023","0.5296083002","","","","","","","","","","74","J","1","","","73","main_expt",""
"","bandit","153","985164","0.0-115.0-0.0","44683893","wem/bandit_party_2","A2G0HRT8HS9HRZ","either","6","642","","","","","","","0","0","1","0.7490977197","","0.8","0.4","0.6","0.2","","","","","0.6228045854","0.7490977197","0.2152837516","0.4883026933","","","","","","","","","","74","J","1","","","74","main_expt",""
"","bandit","154","987640","0.0-116.0-0.0","44683893","wem/bandit_party_2","A2G0HRT8HS9HRZ","either","6","957","","","","","","","0","1","0","","0.7554087461","0.8","0.4","0.6","0.2","0.613630376","0.7554087461","0.2044775694","0.4914171484","","","","","","","","","","","","","","74","J","1","","","75","main_expt",""
"","bandit","155","989702","0.0-117.0-0.0","44683893","wem/bandit_party_2","A2G0HRT8HS9HRZ","either","6","542","","","","","","","1","0","0","0.804443878","","0.8","0.4","0.6","0.2","","","","","0.7047266053","0.804443878","0.2247613499","0.6059218973","","","","","","","","","","74","J","1","","","76","main_expt",""
"","bandit","156","991718","0.0-118.0-0.0","44683893","wem/bandit_party_2","A2G0HRT8HS9HRZ","either","6","494","","","","","","","0","0","1","0.6656620098","","0.8","0.4","0.6","0.2","","","","","0.6910360943","0.6656620098","0.2266335256","0.553792366","","","","","","","","","","74","J","1","","","77","main_expt",""
"","bandit","157","993723","0.0-119.0-0.0","44683893","wem/bandit_party_2","A2G0HRT8HS9HRZ","either","6","486","","","","","","","0","1","0","","0.5898140708","0.8","0.4","0.6","0.2","0.5515992215","0.5898140708","0.1659731505","0.6884193839","","","","","","","","","","","","","","74","J","1","","","78","main_expt",""
"","bandit","158","995795","0.0-120.0-0.0","44683893","wem/bandit_party_2","A2G0HRT8HS9HRZ","either","6","555","","","","","","","0","1","0","","0.613215191","0.8","0.4","0.6","0.2","0.6448399581","0.613215191","0.2343921172","0.7214277645","","","","","","","","","","","","","","74","J","1","","","79","main_expt",""
"","bandit","159","998079","0.0-121.0-0.0","44683893","wem/bandit_party_2","A2G0HRT8HS9HRZ","either","6","765","","","","","","","0","0","1","0.4605925783","","0.8","0.4","0.6","0.2","","","","","0.739479497","0.4605925783","0.2164054515","0.7328142644","","","","","","","","","","74","J","1","","","80","main_expt",""
"","bandit","160","1000172","0.0-122.0-0.0","44683893","wem/bandit_party_2","A2G0HRT8HS9HRZ","either","6","576","","","","","","","0","1","0","","0.5390789087","0.8","0.4","0.6","0.2","0.6956071838","0.5390789087","0.1361232007","0.7101675561","","","","","","","","","","","","","","74","J","1","","","81","main_expt",""
"","bandit","161","1002294","0.0-123.0-0.0","44683893","wem/bandit_party_2","A2G0HRT8HS9HRZ","either","6","604","","","","","","","1","0","0","0.621290364","","0.8","0.4","0.6","0.2","","","","","0.5886517937","0.621290364","0.2275447725","0.6984384541","","","","","","","","","","74","J","1","","","82","main_expt",""
"","bandit","162","1004331","0.0-124.0-0.0","44683893","wem/bandit_party_2","A2G0HRT8HS9HRZ","either","6","519","","","","","","","0","1","0","","0.6359424421","0.8","0.4","0.6","0.2","0.4764182235","0.6359424421","0.1900607051","0.7447883659","","","","","","","","","","","","","","74","J","1","","","83","main_expt",""
"","bandit","163","1006344","0.0-125.0-0.0","44683893","wem/bandit_party_2","A2G0HRT8HS9HRZ","either","6","495","","","","","","","0","0","1","","0.6133664729","0.8","0.4","0.6","0.2","0.5149027494","0.6133664729","0.1306868958","0.6900592863","","","","","","","","","","","","","","74","J","1","","","84","main_expt",""
"","bandit","164","1008635","0.0-126.0-0.0","44683893","wem/bandit_party_2","A2G0HRT8HS9HRZ","either","6","771","","","","","","","0","1","0","","0.7815463305","0.8","0.4","0.6","0.2","0.4908067213","0.7815463305","0.1683201849","0.7010597455","","","","","","","","","","","","","","74","J","1","","","85","main_expt",""
"","bandit","165","1011746","0.0-127.0-0.0","44683893","wem/bandit_party_2","A2G0HRT8HS9HRZ","either","6","1585","","","","","","","0","1","0","","0.7355789231","0.8","0.4","0.6","0.2","0.4139472458","0.7355789231","0.1290314955","0.6171062652","","","","","","","","","","","","","","74","J","1","","","86","main_expt",""
"","bandit","166","1014320","0.0-128.0-0.0","44683893","wem/bandit_party_2","A2G0HRT8HS9HRZ","either","6","1055","","","","","","","0","1","0","","0.7267399876","0.8","0.4","0.6","0.2","0.4253818619","0.7267399876","0.2297537383","0.5629375242","","","","","","","","","","","","","","74","J","1","","","87","main_expt",""
"","bandit","167","1017711","0.0-129.0-0.0","44683893","wem/bandit_party_2","A2G0HRT8HS9HRZ","either","6","1875","","","","","","","1","0","0","0.7703195612","","0.8","0.4","0.6","0.2","","","","","0.4448862761","0.7703195612","0.1878263516","0.6434443074","","","","","","","","","","74","J","1","","","88","main_expt",""
"","bandit","168","1020034","0.0-130.0-0.0","44683893","wem/bandit_party_2","A2G0HRT8HS9HRZ","either","6","803","","","","","","","0","0","1","0.81872988","","0.8","0.4","0.6","0.2","","","","","0.4295642349","0.81872988","0.1896964823","0.7296698787","","","","","","","","","","74","J","1","","","89","main_expt",""
"","bandit","169","1022198","0.0-131.0-0.0","44683893","wem/bandit_party_2","A2G0HRT8HS9HRZ","either","6","643","","","","","","","0","0","1","","0.8032570632","0.8","0.4","0.6","0.2","0.3655203192","0.8032570632","0.1614970172","0.7042864347","","","","","","","","","","","","","","74","J","1","","","90","main_expt",""
"","bandit","170","1024242","0.0-132.0-0.0","44683893","wem/bandit_party_2","A2G0HRT8HS9HRZ","either","6","526","","","","","","","1","0","0","0.2107705911","","0.8","0.4","0.6","0.2","","","","","0.402428746","0.8257352781","0.2107705911","0.7606559624","","","","","","","","","","75","K","2","","","91","main_expt",""
"","bandit","171","1026497","0.0-133.0-0.0","44683893","wem/bandit_party_2","A2G0HRT8HS9HRZ","either","6","736","","","","","","","0","0","1","0.1317951273","","0.8","0.4","0.6","0.2","","","","","0.452733603","0.7762210657","0.1317951273","0.8466818248","","","","","","","","","","75","K","2","","","92","main_expt",""
"","bandit","172","1028548","0.0-134.0-0.0","44683893","wem/bandit_party_2","A2G0HRT8HS9HRZ","either","6","527","","","","","","","0","1","0","","0.8293629201","0.8","0.4","0.6","0.2","0.5416456901","0.8293629201","0.09268613222","0.8181600593","","","","","","","","","","","","","","74","J","1","","","93","main_expt",""
"","bandit","173","1031194","0.0-135.0-0.0","44683893","wem/bandit_party_2","A2G0HRT8HS9HRZ","either","6","1129","","","","","","","1","0","0","0.7849393417","","0.8","0.4","0.6","0.2","","","","","0.5246039132","0.7849393417","0.06418168538","0.7259749053","","","","","","","","","","74","J","1","","","94","main_expt",""
"","bandit","174","1033268","0.0-136.0-0.0","44683893","wem/bandit_party_2","A2G0HRT8HS9HRZ","either","6","553","","","","","","","0","1","0","","0.7850226125","0.8","0.4","0.6","0.2","0.606801291","0.7850226125","0.100072779","0.6538641892","","","","","","","","","","","","","","74","J","1","","","95","main_expt",""
"","bandit","175","1035597","0.0-137.0-0.0","44683893","wem/bandit_party_2","A2G0HRT8HS9HRZ","either","6","811","","","","","","","0","1","0","","0.8013150942","0.8","0.4","0.6","0.2","0.7175242067","0.8013150942","0.09628221604","0.6384360591","","","","","","","","","","","","","","74","J","1","","","96","main_expt",""
"","bandit","176","1037873","0.0-138.0-0.0","44683893","wem/bandit_party_2","A2G0HRT8HS9HRZ","either","6","756","","","","","","","0","0","1","","0.70340399","0.8","0.4","0.6","0.2","0.7706560561","0.70340399","0.1335622201","0.6836118029","","","","","","","","","","","","","","74","J","1","","","97","main_expt",""
"","bandit","177","1039810","0.0-139.0-0.0","44683893","wem/bandit_party_2","A2G0HRT8HS9HRZ","either","6","416","","","","","","","1","0","0","0.7234704616","","0.8","0.4","0.6","0.2","","","","","0.7234704616","0.7562517051","0.167202632","0.659457158","","","","","","","","","","72","H","0","img/none_selected.jpg","","98","main_expt",""
"","bandit","178","1042182","0.0-140.0-0.0","44683893","wem/bandit_party_2","A2G0HRT8HS9HRZ","either","6","853","","","","","","","0","0","1","","0.6582042781","0.8","0.4","0.6","0.2","0.6582042781","0.6514659141","0.1216125457","0.7726162223","","","","","","","","","","","","","","72","H","0","img/none_selected.jpg","","99","main_expt",""
"","bandit","179","1044170","0.0-141.0-0.0","44683893","wem/bandit_party_2","A2G0HRT8HS9HRZ","either","6","468","","","","","","","0","0","1","0.7112237606","","0.8","0.4","0.6","0.2","","","","","0.6530973887","0.7112237606","0.1163239148","0.8446518706","","","","","","","","","","74","J","1","","","100","main_expt",""
"","bandit","180","1046111","0.0-142.0-0.0","44683893","wem/bandit_party_2","A2G0HRT8HS9HRZ","either","6","416","","","","","","","0","1","0","","0.8784151442","0.8","0.4","0.6","0.2","0.6690961394","0.6865981462","0.1037928869","0.8784151442","","","","","","","","","","","","","","76","L","3","","","101","main_expt",""
"","bandit","181","1048170","0.0-143.0-0.0","44683893","wem/bandit_party_2","A2G0HRT8HS9HRZ","either","6","539","","","","","","","0","1","0","","0.8781202538","0.8","0.4","0.6","0.2","0.6268844929","0.6663704066","0.0991068806","0.8781202538","","","","","","","","","","","","","","76","L","3","","","102","main_expt",""
"","bandit","182","1050304","0.0-144.0-0.0","44683893","wem/bandit_party_2","A2G0HRT8HS9HRZ","either","6","609","","","","","","","1","0","0","0.8123732176","","0.8","0.4","0.6","0.2","","","","","0.6657789595","0.6006744832","0.1226752409","0.8123732176","","","","","","","","","","76","L","3","","","103","main_expt",""
"","bandit","183","1052336","0.0-145.0-0.0","44683893","wem/bandit_party_2","A2G0HRT8HS9HRZ","either","6","513","","","","","","","0","0","1","","0.8461937008","0.8","0.4","0.6","0.2","0.6951589836","0.518723913","0.1552466415","0.8461937008","","","","","","","","","","","","","","76","L","3","","","104","main_expt",""
"","bandit","184","1054300","0.0-146.0-0.0","44683893","wem/bandit_party_2","A2G0HRT8HS9HRZ","either","6","443","","","","","","","0","1","0","","0.8664825842","0.8","0.4","0.6","0.2","0.6382729445","0.5343999165","0.1702138509","0.8664825842","","","","","","","","","","","","","","76","L","3","","","105","main_expt",""
"","bandit","185","1056275","0.0-147.0-0.0","44683893","wem/bandit_party_2","A2G0HRT8HS9HRZ","either","6","453","","","","","","","0","0","1","","0.8703997655","0.8","0.4","0.6","0.2","0.7139624249","0.4959998489","0.2021425125","0.8703997655","","","","","","","","","","","","","","76","L","3","","","106","main_expt",""
"","bandit","186","1058229","0.0-148.0-0.0","44683893","wem/bandit_party_2","A2G0HRT8HS9HRZ","either","6","436","","","","","","","0","0","1","","0.2196373816","0.8","0.4","0.6","0.2","0.7718136471","0.5052663648","0.2196373816","0.8964314806","","","","","","","","","","","","","","75","K","2","","","107","main_expt",""
"","bandit","187","1060202","0.0-149.0-0.0","44683893","wem/bandit_party_2","A2G0HRT8HS9HRZ","either","6","456","","","","","","","1","0","0","0.9080126319","","0.8","0.4","0.6","0.2","","","","","0.8818715302","0.4859582203","0.2393661099","0.9080126319","","","","","","","","","","76","L","3","","","108","main_expt",""
"","bandit","188","1062278","0.0-150.0-0.0","44683893","wem/bandit_party_2","A2G0HRT8HS9HRZ","either","6","557","","","","","","","0","1","0","","0.8880845243","0.8","0.4","0.6","0.2","0.8757741924","0.523617738","0.2516352594","0.8880845243","","","","","","","","","","","","","","76","L","3","","","109","main_expt",""
"","bandit","189","1064402","0.0-151.0-0.0","44683893","wem/bandit_party_2","A2G0HRT8HS9HRZ","either","6","606","","","","","","","1","0","0","0.899251136","","0.8","0.4","0.6","0.2","","","","","0.8657151097","0.5492010791","0.2424291788","0.899251136","","","","","","","","","","76","L","3","","","110","main_expt",""
"","bandit","190","1066671","0.0-152.0-0.0","44683893","wem/bandit_party_2","A2G0HRT8HS9HRZ","either","6","750","","","","","","","1","0","0","0.9019514556","","0.8","0.4","0.6","0.2","","","","","0.8457624762","0.5467154696","0.2033086481","0.9019514556","","","","","","","","","","76","L","3","","","111","main_expt",""
"","bandit","191","1069012","0.0-153.0-0.0","44683893","wem/bandit_party_2","A2G0HRT8HS9HRZ","either","6","819","","","","","","","0","1","0","","0.9315537639","0.8","0.4","0.6","0.2","0.8756116827","0.5396215981","0.208613213","0.9315537639","","","","","","","","","","","","","","76","L","3","","","112","main_expt",""
"","bandit","192","1071473","0.0-154.0-0.0","44683893","wem/bandit_party_2","A2G0HRT8HS9HRZ","either","6","943","","","","","","","0","1","0","","0.9254394702","0.8","0.4","0.6","0.2","0.8773181328","0.5542875214","0.2743958833","0.9254394702","","","","","","","","","","","","","","76","L","3","","","113","main_expt",""
"","bandit","193","1073849","0.0-155.0-0.0","44683893","wem/bandit_party_2","A2G0HRT8HS9HRZ","either","6","856","","","","","","","1","0","0","0.9394904604","","0.8","0.4","0.6","0.2","","","","","0.8842236373","0.6411428718","0.2657329006","0.9394904604","","","","","","","","","","76","L","3","","","114","main_expt",""
"","bandit","194","1076162","0.0-156.0-0.0","44683893","wem/bandit_party_2","A2G0HRT8HS9HRZ","either","6","792","","","","","","","1","0","0","0.9533355239","","0.8","0.4","0.6","0.2","","","","","0.8499121835","0.7261400339","0.3234316928","0.9533355239","","","","","","","","","","76","L","3","","","115","main_expt",""
"","bandit","195","1078233","0.0-157.0-0.0","44683893","wem/bandit_party_2","A2G0HRT8HS9HRZ","either","6","553","","","","","","","0","1","0","","0.960842596","0.8","0.4","0.6","0.2","0.7890056153","0.7395407697","0.3625587123","0.960842596","","","","","","","","","","","","","","76","L","3","","","116","main_expt",""
"","bandit","196","1079761","0.0-158.0-0.0","44683893","wem/bandit_party_2","A2G0HRT8HS9HRZ","either","6","8","","","","","","","0","1","0","","0.937733065","0.8","0.4","0.6","0.2","0.7709890197","0.8231731708","0.4946904956","0.937733065","","","","","","","","","","","","","","76","L","3","","","117","main_expt",""
"","bandit","197","1081803","0.0-159.0-0.0","44683893","wem/bandit_party_2","A2G0HRT8HS9HRZ","either","6","524","","","","","","","0","1","0","","0.9561499645","0.8","0.4","0.6","0.2","0.7459937787","0.8278750807","0.6246330079","0.9561499645","","","","","","","","","","","","","","76","L","3","","","118","main_expt",""
"","bandit","198","1083818","0.0-160.0-0.0","44683893","wem/bandit_party_2","A2G0HRT8HS9HRZ","either","6","494","","","","","","","1","0","0","0.9595118281","","0.8","0.4","0.6","0.2","","","","","0.716881491","0.8715827524","0.5818097722","0.9595118281","","","","","","","","","","76","L","3","","","119","main_expt",""
"","bandit","199","1086730","0.0-161.0-0.0","44683893","wem/bandit_party_2","A2G0HRT8HS9HRZ","either","6","1393","","","","","","","0","1","0","","0.9548463758","0.8","0.4","0.6","0.2","0.6595649419","0.8522670476","0.5990025551","0.9548463758","","","","","","","","","","","","","","76","L","3","","","120","main_expt",""
"","bandit","200","1089957","0.0-162.0-0.0","44683893","wem/bandit_party_2","A2G0HRT8HS9HRZ","either","6","1705","","","","","","","0","1","0","","0.958085665","0.8","0.4","0.6","0.2","0.6576447048","0.8266542562","0.6534424477","0.958085665","","","","","","","","","","","","","","76","L","3","","","121","main_expt",""
"","bandit","201","1093314","0.0-163.0-0.0","44683893","wem/bandit_party_2","A2G0HRT8HS9HRZ","either","6","1836","","","","","","","0","1","0","","0.9630601427","0.8","0.4","0.6","0.2","0.6391957719","0.81688531","0.5952731017","0.9630601427","","","","","","","","","","","","","","76","L","3","","","122","main_expt",""
"","bandit","202","1096153","0.0-164.0-0.0","44683893","wem/bandit_party_2","A2G0HRT8HS9HRZ","either","6","1319","","","","","","","0","1","0","","0.9790283764","0.8","0.4","0.6","0.2","0.5873908865","0.8307363081","0.6469086187","0.9790283764","","","","","","","","","","","","","","76","L","3","","","123","main_expt",""
"","bandit","203","1098860","0.0-165.0-0.0","44683893","wem/bandit_party_2","A2G0HRT8HS9HRZ","either","6","1188","","","","","","","0","1","0","","0.9718765302","0.8","0.4","0.6","0.2","0.6592760984","0.6943824695","0.6911454426","0.9718765302","","","","","","","","","","","","","","76","L","3","","","124","main_expt",""
"","bandit","204","1101259","0.0-166.0-0.0","44683893","wem/bandit_party_2","A2G0HRT8HS9HRZ","either","6","877","","","","","","","0","1","0","","0.9845173964","0.8","0.4","0.6","0.2","0.6012083746","0.7137568944","0.750572215","0.9845173964","","","","","","","","","","","","","","76","L","3","","","125","main_expt",""
"","bandit","205","1103734","0.0-167.0-0.0","44683893","wem/bandit_party_2","A2G0HRT8HS9HRZ","either","6","952","","","","","","","0","1","0","","0.9804670004","0.8","0.4","0.6","0.2","0.6043440275","0.6878742658","0.8108432581","0.9804670004","","","","","","","","","","","","","","76","L","3","","","126","main_expt",""
"","bandit","206","1106303","0.0-168.0-0.0","44683893","wem/bandit_party_2","A2G0HRT8HS9HRZ","either","6","1047","","","","","","","0","1","0","","0.9792667249","0.8","0.4","0.6","0.2","0.5043142332","0.6175454059","0.8338196277","0.9792667249","","","","","","","","","","","","","","76","L","3","","","127","main_expt",""
"","bandit","207","1109152","0.0-169.0-0.0","44683893","wem/bandit_party_2","A2G0HRT8HS9HRZ","either","6","1330","","","","","","","0","1","0","","0.9853815399","0.8","0.4","0.6","0.2","0.5778209799","0.5556505876","0.8624128669","0.9853815399","","","","","","","","","","","","","","76","L","3","","","128","main_expt",""
"","bandit","208","1112117","0.0-170.0-0.0","44683893","wem/bandit_party_2","A2G0HRT8HS9HRZ","either","6","1445","","","","","","","1","0","0","0.9838319732","","0.8","0.4","0.6","0.2","","","","","0.5806273004","0.5948532478","0.9026068167","0.9838319732","","","","","","","","","","76","L","3","","","129","main_expt",""
"","bandit","209","1115291","0.0-171.0-0.0","44683893","wem/bandit_party_2","A2G0HRT8HS9HRZ","either","6","1653","","","","","","","0","1","0","","0.9798768453","0.8","0.4","0.6","0.2","0.4152233618","0.6646968067","0.8983636673","0.9798768453","","","","","","","","","","","","","","76","L","3","","","130","main_expt",""
"","bandit","210","1118063","0.0-172.0-0.0","44683893","wem/bandit_party_2","A2G0HRT8HS9HRZ","either","6","1252","","","","","","","0","1","0","","0.9628017066","0.8","0.4","0.6","0.2","0.4527057242","0.6676177377","0.888478962","0.9628017066","","","","","","","","","","","","","","76","L","3","","","131","main_expt",""
"","bandit","211","1120199","0.0-173.0-0.0","44683893","wem/bandit_party_2","A2G0HRT8HS9HRZ","either","6","617","","","","","","","0","1","0","","0.9723970119","0.8","0.4","0.6","0.2","0.5185753891","0.7638630926","0.8470567254","0.9723970119","","","","","","","","","","","","","","76","L","3","","","132","main_expt",""
"","bandit","212","1122261","0.0-174.0-0.0","44683893","wem/bandit_party_2","A2G0HRT8HS9HRZ","either","6","541","","","","","","","0","1","0","","0.9754432393","0.8","0.4","0.6","0.2","0.4567386081","0.726350598","0.8852081265","0.9754432393","","","","","","","","","","","","","","76","L","3","","","133","main_expt",""
"","bandit","213","1124705","0.0-175.0-0.0","44683893","wem/bandit_party_2","A2G0HRT8HS9HRZ","either","6","923","","","","","","","0","0","1","","0.9635376407","0.8","0.4","0.6","0.2","0.4494056808","0.7638059904","0.8317422298","0.9635376407","","","","","","","","","","","","","","76","L","3","","","134","main_expt",""
"","bandit","214","1126823","0.0-176.0-0.0","44683893","wem/bandit_party_2","A2G0HRT8HS9HRZ","either","6","598","","","","","","","0","0","1","0.7337835984","","0.8","0.4","0.6","0.2","","","","","0.4608562393","0.7337835984","0.8121858422","0.9304273523","","","","","","","","","","74","J","1","","","135","main_expt",""
"","bandit","215","1129131","0.0-177.0-0.0","44683893","wem/bandit_party_2","A2G0HRT8HS9HRZ","either","6","788","","","","","","","1","0","0","0.6684020244","","0.8","0.4","0.6","0.2","","","","","0.6684020244","0.7869055623","0.8473276522","0.9295592062","","","","","","","","","","72","H","0","img/none_selected.jpg","","136","main_expt",""
"","bandit","216","1131465","0.0-178.0-0.0","44683893","wem/bandit_party_2","A2G0HRT8HS9HRZ","either","6","813","","","","","","","0","0","1","","0.9343332129","0.8","0.4","0.6","0.2","0.614137061","0.8033651193","0.8251243182","0.9343332129","","","","","","","","","","","","","","76","L","3","","","137","main_expt",""
"","bandit","217","1133354","0.0-179.0-0.0","44683893","wem/bandit_party_2","A2G0HRT8HS9HRZ","either","6","369","","","","","","","0","0","1","0.711021659","","0.8","0.4","0.6","0.2","","","","","0.711021659","0.7620089345","0.7892590299","0.9325781127","","","","","","","","","","72","H","0","img/none_selected.jpg","","138","main_expt",""
"","bandit","218","1135321","0.0-180.0-0.0","44683893","wem/bandit_party_2","A2G0HRT8HS9HRZ","either","6","440","","","","","","","0","0","1","0.8098853196","","0.8","0.4","0.6","0.2","","","","","0.5731932267","0.8098853196","0.753698647","0.9687763229","","","","","","","","","","74","J","1","","","139","main_expt",""
"","bandit","219","1137483","0.0-181.0-0.0","44683893","wem/bandit_party_2","A2G0HRT8HS9HRZ","either","6","641","","","","","","","0","0","1","0.7281837229","","0.8","0.4","0.6","0.2","","","","","0.6553783698","0.8737133651","0.7281837229","0.9520204639","","","","","","","","","","75","K","2","","","140","main_expt",""
"","bandit","220","1139704","0.0-182.0-0.0","44683893","wem/bandit_party_2","A2G0HRT8HS9HRZ","either","6","701","","","","","","","0","1","0","","0.9615613541","0.8","0.4","0.6","0.2","0.5665224918","0.8464817719","0.7913145473","0.9615613541","","","","","","","","","","","","","","76","L","3","","","141","main_expt",""
"","bandit","221","1142028","0.0-183.0-0.0","44683893","wem/bandit_party_2","A2G0HRT8HS9HRZ","either","6","806","","","","","","","0","1","0","","0.9438722422","0.8","0.4","0.6","0.2","0.5230460729","0.8457688645","0.7498898283","0.9438722422","","","","","","","","","","","","","","76","L","3","","","142","main_expt",""
"","bandit","222","1144726","0.0-184.0-0.0","44683893","wem/bandit_party_2","A2G0HRT8HS9HRZ","either","6","1179","","","","","","","0","1","0","","0.9419241064","0.8","0.4","0.6","0.2","0.5401897842","0.8801682128","0.723110339","0.9419241064","","","","","","","","","","","","","","76","L","3","","","143","main_expt",""
"","bandit","223","1147145","0.0-185.0-0.0","44683893","wem/bandit_party_2","A2G0HRT8HS9HRZ","either","6","899","","","","","","","0","1","0","","0.9383966058","0.8","0.4","0.6","0.2","0.5495292383","0.7806105972","0.7697142539","0.9383966058","","","","","","","","","","","","","","76","L","3","","","144","main_expt",""
"","bandit","224","1149744","0.0-186.0-0.0","44683893","wem/bandit_party_2","A2G0HRT8HS9HRZ","either","6","1079","","","","","","","0","1","0","","0.9442204223","0.8","0.4","0.6","0.2","0.4718854897","0.7384744451","0.8279494337","0.9442204223","","","","","","","","","","","","","","76","L","3","","","145","main_expt",""
"","bandit","225","1152431","0.0-187.0-0.0","44683893","wem/bandit_party_2","A2G0HRT8HS9HRZ","either","6","1160","","","","","","","1","0","0","0.9461270134","","0.8","0.4","0.6","0.2","","","","","0.3790577705","0.7078417075","0.747104877","0.9461270134","","","","","","","","","","76","L","3","","","146","main_expt",""
"","bandit","226","1154436","0.0-188.0-0.0","44683893","wem/bandit_party_2","A2G0HRT8HS9HRZ","either","6","483","","","","","","","0","0","1","","0.9677113618","0.8","0.4","0.6","0.2","0.3671333747","0.7671729372","0.7635883185","0.9677113618","","","","","","","","","","","","","","76","L","3","","","147","main_expt",""
"","bandit","227","1156925","0.0-189.0-0.0","44683893","wem/bandit_party_2","A2G0HRT8HS9HRZ","either","6","969","","","","","","","0","1","0","","0.9603287673","0.8","0.4","0.6","0.2","0.4462771912","0.7515071201","0.6650729927","0.9603287673","","","","","","","","","","","","","","76","L","3","","","148","main_expt",""
"","bandit","228","1159276","0.0-190.0-0.0","44683893","wem/bandit_party_2","A2G0HRT8HS9HRZ","either","6","828","","","","","","","0","1","0","","0.9256305183","0.8","0.4","0.6","0.2","0.3929125452","0.7582160768","0.594527628","0.9256305183","","","","","","","","","","","","","","76","L","3","","","149","main_expt",""
"","bandit","229","1161781","0.0-191.0-0.0","44683893","wem/bandit_party_2","A2G0HRT8HS9HRZ","either","6","981","","","","","","","0","1","0","","0.9222609783","0.8","0.4","0.6","0.2","0.3825194633","0.6843302658","0.5101412162","0.9222609783","","","","","","","","","","","","","","76","L","3","","","150","main_expt",""
"","bandit","230","1164604","0.0-192.0-0.0","44683893","wem/bandit_party_2","A2G0HRT8HS9HRZ","either","6","1300","","","","","","","0","1","0","","0.9522131909","0.8","0.4","0.6","0.2","0.3889652011","0.4980827124","0.5755011036","0.9522131909","","","","","","","","","","","","","","76","L","3","","","151","main_expt",""
"","bandit","231","1167173","0.0-193.0-0.0","44683893","wem/bandit_party_2","A2G0HRT8HS9HRZ","either","6","1045","","","","","","","0","1","0","","0.9351777179","0.8","0.4","0.6","0.2","0.372169082","0.5418861514","0.5415628766","0.9351777179","","","","","","","","","","","","","","76","L","3","","","152","main_expt",""
"","bandit","232","1169792","0.0-194.0-0.0","44683893","wem/bandit_party_2","A2G0HRT8HS9HRZ","either","6","1097","","","","","","","1","0","0","0.9526549669","","0.8","0.4","0.6","0.2","","","","","0.4275919172","0.6424708626","0.6392888902","0.9526549669","","","","","","","","","","76","L","3","","","153","main_expt",""
"","bandit","233","1171747","0.0-195.0-0.0","44683893","wem/bandit_party_2","A2G0HRT8HS9HRZ","either","6","433","","","","","","","0","0","1","","0.944677936","0.8","0.4","0.6","0.2","0.3978897223","0.6200403258","0.6798835142","0.944677936","","","","","","","","","","","","","","76","L","3","","","154","main_expt",""
"","bandit","234","1174236","0.0-196.0-0.0","44683893","wem/bandit_party_2","A2G0HRT8HS9HRZ","either","6","969","","","","","","","0","1","0","","0.9443948233","0.8","0.4","0.6","0.2","0.4922143253","0.5087788092","0.7376683638","0.9443948233","","","","","","","","","","","","","","76","L","3","","","155","main_expt",""
"","bandit","235","1176821","0.0-197.0-0.0","44683893","wem/bandit_party_2","A2G0HRT8HS9HRZ","either","6","1064","","","","","","","0","1","0","","0.9312029685","0.8","0.4","0.6","0.2","0.5060601407","0.4397360723","0.7740838489","0.9312029685","","","","","","","","","","","","","","76","L","3","","","156","main_expt",""
"","bandit","236","1179672","0.0-198.0-0.0","44683893","wem/bandit_party_2","A2G0HRT8HS9HRZ","either","6","1330","","","","","","","0","1","0","","0.9009413449","0.8","0.4","0.6","0.2","0.56460533","0.4529934193","0.7526352547","0.9009413449","","","","","","","","","","","","","","76","L","3","","","157","main_expt",""
"","bandit","237","1182819","0.0-199.0-0.0","44683893","wem/bandit_party_2","A2G0HRT8HS9HRZ","either","6","1626","","","","","","","0","1","0","","0.8799225656","0.8","0.4","0.6","0.2","0.5551408743","0.522014142","0.807066173","0.8799225656","","","","","","","","","","","","","","76","L","3","","","158","main_expt",""
"","bandit","238","1185452","0.0-200.0-0.0","44683893","wem/bandit_party_2","A2G0HRT8HS9HRZ","either","6","1107","","","","","","","0","1","0","","0.9103166083","0.8","0.4","0.6","0.2","0.6362487126","0.447178695","0.8348587906","0.9103166083","","","","","","","","","","","","","","76","L","3","","","159","main_expt",""
"","bandit","239","1187746","0.0-201.0-0.0","44683893","wem/bandit_party_2","A2G0HRT8HS9HRZ","either","6","772","","","","","","","0","1","0","","0.9575168601","0.8","0.4","0.6","0.2","0.5818198138","0.4293784973","0.8054329593","0.9575168601","","","","","","","","","","","","","","76","L","3","","","160","main_expt",""
"","bandit","240","1190239","0.0-202.0-0.0","44683893","wem/bandit_party_2","A2G0HRT8HS9HRZ","either","6","970","","","","","","","0","1","0","","0.9323430526","0.8","0.4","0.6","0.2","0.5079421761","0.4263694152","0.8263011938","0.9323430526","","","","","","","","","","","","","","76","L","3","","","161","main_expt",""
"","bandit","241","1192760","0.0-203.0-0.0","44683893","wem/bandit_party_2","A2G0HRT8HS9HRZ","either","6","1003","","","","","","","0","1","0","","0.8731035433","0.8","0.4","0.6","0.2","0.3944353318","0.4394756583","0.8468561623","0.8731035433","","","","","","","","","","","","","","76","L","3","","","162","main_expt",""
"","bandit","242","1195346","0.0-204.0-0.0","44683893","wem/bandit_party_2","A2G0HRT8HS9HRZ","either","6","1063","","","","","","","0","1","0","","0.860239847","0.8","0.4","0.6","0.2","0.4560534757","0.4632532181","0.866861138","0.860239847","","","","","","","","","","","","","","76","L","3","","","163","main_expt",""
"","bandit","243","1197661","0.0-205.0-0.0","44683893","wem/bandit_party_2","A2G0HRT8HS9HRZ","either","6","789","","","","","","","0","1","0","","0.8327160304","0.8","0.4","0.6","0.2","0.4338988853","0.469091439","0.8621839131","0.8327160304","","","","","","","","","","","","","","76","L","3","","","164","main_expt",""
"","bandit","244","1200233","0.0-206.0-0.0","44683893","wem/bandit_party_2","A2G0HRT8HS9HRZ","either","6","1047","","","","","","","1","0","0","0.8780399083","","0.8","0.4","0.6","0.2","","","","","0.3640020004","0.4691854483","0.8368369455","0.8780399083","","","","","","","","","","76","L","3","","","165","main_expt",""
"","bandit","245","1202882","0.0-207.0-0.0","44683893","wem/bandit_party_2","A2G0HRT8HS9HRZ","either","6","1129","","","","","","","0","1","0","","0.8659509199","0.8","0.4","0.6","0.2","0.4433911144","0.424594696","0.8543831227","0.8659509199","","","","","","","","","","","","","","76","L","3","","","166","main_expt",""
"","bandit","246","1205701","0.0-208.0-0.0","44683893","wem/bandit_party_2","A2G0HRT8HS9HRZ","either","6","1296","","","","","","","0","1","0","","0.8458676595","0.8","0.4","0.6","0.2","0.4852122499","0.4691217736","0.8444257961","0.8458676595","","","","","","","","","","","","","","76","L","3","","","167","main_expt",""
"","bandit","247","1208231","0.0-209.0-0.0","44683893","wem/bandit_party_2","A2G0HRT8HS9HRZ","either","6","1009","","","","","","","0","0","1","","0.7368025647","0.8","0.4","0.6","0.2","0.4829488348","0.4605946041","0.8895061166","0.7368025647","","","","","","","","","","","","","","76","L","3","","","168","main_expt",""
"","bandit","248","1211181","0.0-210.0-0.0","44683893","wem/bandit_party_2","A2G0HRT8HS9HRZ","either","6","1428","","","","","","","0","0","1","","0.6811301937","0.8","0.4","0.6","0.2","0.467087579","0.4302520818","0.8980662015","0.6811301937","","","","","","","","","","","","","","76","L","3","","","169","main_expt",""
"","bandit","249","1213269","0.0-211.0-0.0","44683893","wem/bandit_party_2","A2G0HRT8HS9HRZ","either","6","565","","","","","","","0","1","0","","0.6781719117","0.8","0.4","0.6","0.2","0.3575164989","0.3846086554","0.9399190154","0.6781719117","","","","","","","","","","","","","","76","L","3","","","170","main_expt",""
"","bandit","250","1215651","0.0-212.0-0.0","44683893","wem/bandit_party_2","A2G0HRT8HS9HRZ","either","6","855","","","","","","","1","0","0","0.5779776893","","0.8","0.4","0.6","0.2","","","","","0.3433755155","0.4938912128","0.9199626721","0.5779776893","","","","","","","","","","76","L","3","","","171","main_expt",""
"","bandit","251","1217783","0.0-213.0-0.0","44683893","wem/bandit_party_2","A2G0HRT8HS9HRZ","either","6","608","","","","","","","0","1","0","","0.5461867433","0.8","0.4","0.6","0.2","0.2921203137","0.5409242696","0.8885959212","0.5461867433","","","","","","","","","","","","","","76","L","3","","","172","main_expt",""
"","bandit","252","1220121","0.0-214.0-0.0","44683893","wem/bandit_party_2","A2G0HRT8HS9HRZ","either","6","817","","","","","","","1","0","0","0.5898781272","","0.8","0.4","0.6","0.2","","","","","0.3237382503","0.4899310385","0.8502068985","0.5898781272","","","","","","","","","","76","L","3","","","173","main_expt",""
"","bandit","253","1222157","0.0-215.0-0.0","44683893","wem/bandit_party_2","A2G0HRT8HS9HRZ","either","6","512","","","","","","","0","1","0","","0.5990225055","0.8","0.4","0.6","0.2","0.2935635685","0.4464532747","0.9054067092","0.5990225055","","","","","","","","","","","","","","76","L","3","","","174","main_expt",""
"","bandit","254","1224256","0.0-216.0-0.0","44683893","wem/bandit_party_2","A2G0HRT8HS9HRZ","either","6","575","","","","","","","0","1","0","","0.6129624105","0.8","0.4","0.6","0.2","0.2797951809","0.4363040476","0.9096893241","0.6129624105","","","","","","","","","","","","","","76","L","3","","","175","main_expt",""
"","bandit","255","1226356","0.0-217.0-0.0","44683893","wem/bandit_party_2","A2G0HRT8HS9HRZ","either","6","576","","","","","","","0","0","1","0.5434192492","","0.8","0.4","0.6","0.2","","","","","0.2067270565","0.4198776974","0.9081003197","0.5434192492","","","","","","","","","","76","L","3","","","176","main_expt",""
"","bandit","256","1228368","0.0-218.0-0.0","44683893","wem/bandit_party_2","A2G0HRT8HS9HRZ","either","6","491","","","","","","","0","0","1","","0.5893108522","0.8","0.4","0.6","0.2","0.19266164","0.4001478854","0.8417535431","0.5893108522","","","","","","","","","","","","","","76","L","3","","","177","main_expt",""
"","bandit","257","1230472","0.0-219.0-0.0","44683893","wem/bandit_party_2","A2G0HRT8HS9HRZ","either","6","576","","","","","","","0","0","1","","0.3015477047","0.8","0.4","0.6","0.2","0.1393448617","0.3015477047","0.8045518304","0.4862463398","","","","","","","","","","","","","","74","J","1","","","178","main_expt",""
"","bandit","258","1232658","0.0-220.0-0.0","44683893","wem/bandit_party_2","A2G0HRT8HS9HRZ","either","6","662","","","","","","","0","0","1","","0.4227787996","0.8","0.4","0.6","0.2","0.1149816072","0.2700131006","0.8250115846","0.4227787996","","","","","","","","","","","","","","76","L","3","","","179","main_expt",""
"","bandit","259","1234767","0.0-221.0-0.0","44683893","wem/bandit_party_2","A2G0HRT8HS9HRZ","either","6","587","","","","","","","0","1","0","","0.1231561222","0.8","0.4","0.6","0.2","0.1231561222","0.3473069","0.7418096358","0.3583368423","","","","","","","","","","","","","","72","H","0","img/none_selected.jpg","","180","main_expt",""
"","bandit","260","1236864","0.0-222.0-0.0","44683893","wem/bandit_party_2","A2G0HRT8HS9HRZ","either","6","565","","","","","","","1","0","0","0.1134989143","","0.8","0.4","0.6","0.2","","","","","0.1134989143","0.3478804011","0.7180260456","0.3820052134","","","","","","","","","","72","H","0","img/none_selected.jpg","","181","main_expt",""
"","bandit","261","1239266","0.0-223.0-0.0","44683893","wem/bandit_party_2","A2G0HRT8HS9HRZ","either","6","878","","","","","","","0","0","1","","0.07317944644","0.8","0.4","0.6","0.2","0.07317944644","0.3304981007","0.6777378447","0.437769555","","","","","","","","","","","","","","72","H","0","img/none_selected.jpg","","182","main_expt",""
"","bandit","262","1241476","0.0-224.0-0.0","44683893","wem/bandit_party_2","A2G0HRT8HS9HRZ","either","6","687","","","","","","","0","0","1","","0.05085611098","0.8","0.4","0.6","0.2","0.05085611098","0.2578466268","0.6331465848","0.3951330089","","","","","","","","","","","","","","72","H","0","img/none_selected.jpg","","183","main_expt",""
"","bandit","263","1243639","0.0-225.0-0.0","44683893","wem/bandit_party_2","A2G0HRT8HS9HRZ","either","6","640","","","","","","","1","0","0","0.3550464129","","0.8","0.4","0.6","0.2","","","","","0.07152820202","0.3550464129","0.6578519513","0.4062376343","","","","","","","","","","74","J","1","","","184","main_expt",""
"","bandit","264","1245817","0.0-226.0-0.0","44683893","wem/bandit_party_2","A2G0HRT8HS9HRZ","either","6","654","","","","","","","0","0","1","","0.2993299556","0.8","0.4","0.6","0.2","0.08814522307","0.2993299556","0.7160298793","0.4035727276","","","","","","","","","","","","","","74","J","1","","","185","main_expt",""
"","bandit","265","1247976","0.0-227.0-0.0","44683893","wem/bandit_party_2","A2G0HRT8HS9HRZ","either","6","633","","","","","","","0","0","1","","0.3985972224","0.8","0.4","0.6","0.2","0.0931487442","0.3985972224","0.7081703269","0.4595565904","","","","","","","","","","","","","","74","J","1","","","186","main_expt",""
"","bandit","266","1249877","0.0-228.0-0.0","44683893","wem/bandit_party_2","A2G0HRT8HS9HRZ","either","6","378","","","","","","","0","1","0","","0.4956959756","0.8","0.4","0.6","0.2","0.05847154344","0.4563810555","0.7670757258","0.4956959756","","","","","","","","","","","","","","76","L","3","","","187","main_expt",""
"","bandit","267","1252239","0.0-229.0-0.0","44683893","wem/bandit_party_2","A2G0HRT8HS9HRZ","either","6","832","","","","","","","0","0","1","","0.4295585103","0.8","0.4","0.6","0.2","0.05005107021","0.4621092719","0.7986884496","0.4295585103","","","","","","","","","","","","","","76","L","3","","","188","main_expt",""
"","bandit","268","1254188","0.0-230.0-0.0","44683893","wem/bandit_party_2","A2G0HRT8HS9HRZ","either","6","424","","","","","","","1","0","0","0.8113194514","","0.8","0.4","0.6","0.2","","","","","0.05158958255","0.4214675273","0.8113194514","0.4121259827","","","","","","","","","","75","K","2","","","189","main_expt",""
"","bandit","269","1256353","0.0-231.0-0.0","44683893","wem/bandit_party_2","A2G0HRT8HS9HRZ","either","6","640","","","","","","","1","0","0","0.8311477635","","0.8","0.4","0.6","0.2","","","","","0.0530996007","0.4445162903","0.8311477635","0.40505342","","","","","","","","","","75","K","2","","","190","main_expt",""
"","bandit","270","1258712","0.0-232.0-0.0","44683893","wem/bandit_party_2","A2G0HRT8HS9HRZ","either","6","820","","","","","","","0","0","1","0.7941336253","","0.8","0.4","0.6","0.2","","","","","0.05342003941","0.4077799102","0.7941336253","0.3671493273","","","","","","","","","","75","K","2","","","191","main_expt",""
"","bandit","271","1260853","0.0-233.0-0.0","44683893","wem/bandit_party_2","A2G0HRT8HS9HRZ","either","6","619","","","","","","","1","0","0","0.841847859","","0.8","0.4","0.6","0.2","","","","","0.05264216412","0.413117206","0.841847859","0.3367263454","","","","","","","","","","75","K","2","","","192","main_expt",""
"","bandit","272","1263120","0.0-234.0-0.0","44683893","wem/bandit_party_2","A2G0HRT8HS9HRZ","either","6","739","","","","","","","0","0","1","0.865127625","","0.8","0.4","0.6","0.2","","","","","0.07418965368","0.374663265","0.865127625","0.2587514209","","","","","","","","","","75","K","2","","","193","main_expt",""
"","bandit","273","1265333","0.0-235.0-0.0","44683893","wem/bandit_party_2","A2G0HRT8HS9HRZ","either","6","689","","","","","","","0","1","0","","0.8369883383","0.8","0.4","0.6","0.2","0.1148515542","0.2792309937","0.8369883383","0.2123696513","","","","","","","","","","","","","","75","K","2","","","194","main_expt",""
"","bandit","274","1267608","0.0-236.0-0.0","44683893","wem/bandit_party_2","A2G0HRT8HS9HRZ","either","6","749","","","","","","","0","0","1","0.8226177272","","0.8","0.4","0.6","0.2","","","","","0.1102075851","0.3090424304","0.8226177272","0.2551117677","","","","","","","","","","75","K","2","","","195","main_expt",""
"","bandit","275","1269596","0.0-237.0-0.0","44683893","wem/bandit_party_2","A2G0HRT8HS9HRZ","either","6","463","","","","","","","0","0","1","","0.2948177706","0.8","0.4","0.6","0.2","0.09307195637","0.2254203465","0.8759919892","0.2948177706","","","","","","","","","","","","","","76","L","3","","","196","main_expt",""
"","bandit","276","1271585","0.0-238.0-0.0","44683893","wem/bandit_party_2","A2G0HRT8HS9HRZ","either","6","463","","","","","","","1","0","0","0.9413038234","","0.8","0.4","0.6","0.2","","","","","0.08341332984","0.2104085952","0.9413038234","0.2864074111","","","","","","","","","","75","K","2","","","197","main_expt",""
"","bandit","277","1273763","0.0-239.0-0.0","44683893","wem/bandit_party_2","A2G0HRT8HS9HRZ","either","6","645","","","","","","","1","0","0","0.06206278739","","0.8","0.4","0.6","0.2","","","","","0.06206278739","0.1686499416","0.9384937307","0.3044962429","","","","","","","","","","72","H","0","img/none_selected.jpg","","198","main_expt",""
"","bandit","278","1275697","0.0-240.0-0.0","44683893","wem/bandit_party_2","A2G0HRT8HS9HRZ","either","6","409","","","","","","","0","1","0","","0.927250614","0.8","0.4","0.6","0.2","0.1015706687","0.1696058054","0.927250614","0.2804127106","","","","","","","","","","","","","","75","K","2","","","199","main_expt",""
"","bandit","279","1277718","0.0-241.0-0.0","44683893","wem/bandit_party_2","A2G0HRT8HS9HRZ","either","6","495","","","","","","","0","0","1","0.07348353789","","0.8","0.4","0.6","0.2","","","","","0.07348353789","0.1940139532","0.8840406778","0.3151112274","","","","","","","","","","72","H","0","img/none_selected.jpg","","200","main_expt",""
"","bandit","280","1279705","0.0-242.0-0.0","44683893","wem/bandit_party_2","A2G0HRT8HS9HRZ","either","6","454","","","","","","","1","0","0","0.8866639954","","0.8","0.4","0.6","0.2","","","","","0.09218994405","0.2384341862","0.8866639954","0.3124471347","","","","","","","","","","75","K","2","","","201","main_expt",""
"","bandit","281","1281753","0.0-243.0-0.0","44683893","wem/bandit_party_2","A2G0HRT8HS9HRZ","either","6","523","","","","","","","0","0","1","0.1662378481","","0.8","0.4","0.6","0.2","","","","","0.1662378481","0.2069173963","0.8188103646","0.3418115628","","","","","","","","","","72","H","0","img/none_selected.jpg","","202","main_expt",""
"","bandit","282","1283780","0.0-244.0-0.0","44683893","wem/bandit_party_2","A2G0HRT8HS9HRZ","either","6","504","","","","","","","0","1","0","","0.8026106274","0.8","0.4","0.6","0.2","0.1808123801","0.2502389624","0.8026106274","0.2676578736","","","","","","","","","","","","","","75","K","2","","","203","main_expt",""
"","bandit","283","1285872","0.0-245.0-0.0","44683893","wem/bandit_party_2","A2G0HRT8HS9HRZ","either","6","557","","","","","","","0","0","1","0.2226806","","0.8","0.4","0.6","0.2","","","","","0.2011980288","0.2226806","0.6613987003","0.2513587973","","","","","","","","","","74","J","1","","","204","main_expt",""
"","bandit","284","1287882","0.0-246.0-0.0","44683893","wem/bandit_party_2","A2G0HRT8HS9HRZ","either","6","483","","","","","","","1","0","0","0.7402115251","","0.8","0.4","0.6","0.2","","","","","0.1877492959","0.2327973494","0.7402115251","0.2733703365","","","","","","","","","","75","K","2","","","205","main_expt",""
"","bandit","285","1290728","0.0-247.0-0.0","44683893","wem/bandit_party_2","A2G0HRT8HS9HRZ","either","6","1321","","","","","","","0","0","1","0.6792505986","","0.8","0.4","0.6","0.2","","","","","0.1891298069","0.3134624789","0.6792505986","0.3212331514","","","","","","","","","","75","K","2","","","206","main_expt",""
"","bandit","286","1294101","0.0-248.0-0.0","44683893","wem/bandit_party_2","A2G0HRT8HS9HRZ","either","6","1848","","","","","","","0","0","1","0.6510378203","","0.8","0.4","0.6","0.2","","","","","0.2092890992","0.3808856429","0.6510378203","0.3381772831","","","","","","","","","","75","K","2","","","207","main_expt",""
"","bandit","287","1296348","0.0-249.0-0.0","44683893","wem/bandit_party_2","A2G0HRT8HS9HRZ","either","6","714","","","","","","","1","0","0","0.5971377862","","0.8","0.4","0.6","0.2","","","","","0.2563161799","0.318509643","0.5971377862","0.2370260631","","","","","","","","","","75","K","2","","","208","main_expt",""
"","bandit","288","1298384","0.0-250.0-0.0","44683893","wem/bandit_party_2","A2G0HRT8HS9HRZ","either","6","507","","","","","","","0","0","1","","0.6040603887","0.8","0.4","0.6","0.2","0.2643940457","0.2932847295","0.6040603887","0.2157004535","","","","","","","","","","","","","","75","K","2","","","209","main_expt",""
"","bandit","289","1300385","0.0-251.0-0.0","44683893","wem/bandit_party_2","A2G0HRT8HS9HRZ","either","6","470","","","","","","","0","0","1","","0.2230023122","0.8","0.4","0.6","0.2","0.2710870001","0.2230023122","0.7794442159","0.2655169153","","","","","","","","","","","","","","74","J","1","","","210","main_expt",""
"","bandit","290","1302805","0.0-252.0-0.0","44683893","wem/bandit_party_2","A2G0HRT8HS9HRZ","either","6","894","","","","","","","1","0","0","0.2056380183","","0.8","0.4","0.6","0.2","","","","","0.2056380183","0.1899351836","0.8397026392","0.2359505063","","","","","","","","","","72","H","0","img/none_selected.jpg","","211","main_expt",""
"","bandit","291","1304809","0.0-253.0-0.0","44683893","wem/bandit_party_2","A2G0HRT8HS9HRZ","either","6","478","","","","","","","0","0","1","0.2487045614","","0.8","0.4","0.6","0.2","","","","","0.2487045614","0.2593929449","0.7883870126","0.2431981852","","","","","","","","","","72","H","0","img/none_selected.jpg","","212","main_expt",""
"","bandit","292","1307571","0.0-254.0-0.0","44683893","wem/bandit_party_2","A2G0HRT8HS9HRZ","either","6","1238","","","","","","","1","0","0","0.3520378668","","0.8","0.4","0.6","0.2","","","","","0.3520378668","0.2304425673","0.7160446845","0.3385658967","","","","","","","","","","72","H","0","img/none_selected.jpg","","213","main_expt",""
"","bandit","293","1309731","0.0-255.0-0.0","44683893","wem/bandit_party_2","A2G0HRT8HS9HRZ","either","6","632","","","","","","","0","0","1","0.3455661114","","0.8","0.4","0.6","0.2","","","","","0.3455661114","0.2849244028","0.7501162241","0.445002088","","","","","","","","","","72","H","0","img/none_selected.jpg","","214","main_expt",""
"","bandit","294","1311584","0.0-256.0-0.0","44683893","wem/bandit_party_2","A2G0HRT8HS9HRZ","either","6","327","","","","","","","0","0","1","0.4340580748","","0.8","0.4","0.6","0.2","","","","","0.3290646698","0.3184819088","0.7574589115","0.4340580748","","","","","","","","","","76","L","3","","","215","main_expt",""
"","bandit","295","1313674","0.0-257.0-0.0","44683893","wem/bandit_party_2","A2G0HRT8HS9HRZ","either","6","561","","","","","","","1","0","0","0.7376674805","","0.8","0.4","0.6","0.2","","","","","0.2737258078","0.2989728513","0.7376674805","0.3996931216","","","","","","","","","","75","K","2","","","216","main_expt",""
"","bandit","296","1315787","0.0-258.0-0.0","44683893","wem/bandit_party_2","A2G0HRT8HS9HRZ","either","6","588","","","","","","","1","0","0","0.67262171","","0.8","0.4","0.6","0.2","","","","","0.2401291484","0.5538830624","0.67262171","0.453570069","","","","","","","","","","75","K","2","","","217","main_expt",""
"","bandit","297","1318684","0.0-259.0-0.0","44683893","wem/bandit_party_2","A2G0HRT8HS9HRZ","either","6","1371","","","","","","","0","1","0","","0.6309662891","0.8","0.4","0.6","0.2","0.2395298113","0.5331458927","0.6309662891","0.3566620654","","","","","","","","","","","","","","75","K","2","","","218","main_expt",""
"","bandit","298","1321066","0.0-260.0-0.0","44683893","wem/bandit_party_2","A2G0HRT8HS9HRZ","either","6","857","","","","","","","0","1","0","","0.610488243","0.8","0.4","0.6","0.2","0.2333127667","0.409279481","0.610488243","0.3114207129","","","","","","","","","","","","","","75","K","2","","","219","main_expt",""
"","bandit","299","1324303","0.0-261.0-0.0","44683893","wem/bandit_party_2","A2G0HRT8HS9HRZ","either","6","1711","","","","","","","0","0","1","0.6741838821","","0.8","0.4","0.6","0.2","","","","","0.2097963002","0.3910907299","0.6741838821","0.348491043","","","","","","","","","","75","K","2","","","220","main_expt",""
"","bandit","300","1326429","0.0-262.0-0.0","44683893","wem/bandit_party_2","A2G0HRT8HS9HRZ","either","6","600","","","","","","","1","0","0","0.6938787555","","0.8","0.4","0.6","0.2","","","","","0.1761429423","0.37386253","0.6938787555","0.325682353","","","","","","","","","","75","K","2","","","221","main_expt",""
"","bandit","301","1328526","0.0-263.0-0.0","44683893","wem/bandit_party_2","A2G0HRT8HS9HRZ","either","6","570","","","","","","","0","1","0","","0.622086605","0.8","0.4","0.6","0.2","0.1770547834","0.5460784034","0.622086605","0.3582518194","","","","","","","","","","","","","","75","K","2","","","222","main_expt",""
"","bandit","302","1330924","0.0-264.0-0.0","44683893","wem/bandit_party_2","A2G0HRT8HS9HRZ","either","6","874","","","","","","","0","1","0","","0.6190419158","0.8","0.4","0.6","0.2","0.1494166006","0.5484594206","0.6190419158","0.3596631187","","","","","","","","","","","","","","75","K","2","","","223","main_expt",""
"","bandit","303","1333900","0.0-265.0-0.0","44683893","wem/bandit_party_2","A2G0HRT8HS9HRZ","either","6","1450","","","","","","","1","0","0","0.6525227655","","0.8","0.4","0.6","0.2","","","","","0.1444184755","0.5156266917","0.6525227655","0.4757784632","","","","","","","","","","75","K","2","","","224","main_expt",""
"","bandit","304","1336180","0.0-266.0-0.0","44683893","wem/bandit_party_2","A2G0HRT8HS9HRZ","either","6","752","","","","","","","0","0","1","0.5739960468","","0.8","0.4","0.6","0.2","","","","","0.2381889698","0.5120039273","0.5739960468","0.5384710229","","","","","","","","","","75","K","2","","","225","main_expt",""
"","bandit","305","1338726","0.0-267.0-0.0","44683893","wem/bandit_party_2","A2G0HRT8HS9HRZ","either","6","1017","","","","","","","0","0","1","0.6038380469","","0.8","0.4","0.6","0.2","","","","","0.1429230379","0.5568413113","0.6038380469","0.5308581489","","","","","","","","","","75","K","2","","","226","main_expt",""
"","bandit","306","1340744","0.0-268.0-0.0","44683893","wem/bandit_party_2","A2G0HRT8HS9HRZ","either","6","492","","","","","","","0","0","1","","0.5203417309","0.8","0.4","0.6","0.2","0.124100867","0.5277183188","0.5203417309","0.488482713","","","","","","","","","","","","","","75","K","2","","","227","main_expt",""
"","bandit","307","1342685","0.0-269.0-0.0","44683893","wem/bandit_party_2","A2G0HRT8HS9HRZ","either","6","416","","","","","","","0","0","1","","0.4263922038","0.8","0.4","0.6","0.2","0.1762219884","0.5041270258","0.4263922038","0.4406219513","","","","","","","","","","","","","","75","K","2","","","228","main_expt",""
"","bandit","308","1344821","0.0-270.0-0.0","44683893","wem/bandit_party_2","A2G0HRT8HS9HRZ","either","6","610","","","","","","","0","0","1","","0.3475105047","0.8","0.4","0.6","0.2","0.1910325121","0.4541369304","0.3475105047","0.4892119921","","","","","","","","","","","","","","75","K","2","","","229","main_expt",""
"","bandit","309","1347274","0.0-271.0-0.0","44683893","wem/bandit_party_2","A2G0HRT8HS9HRZ","either","6","927","","","","","","","1","0","0","0.3353007417","","0.8","0.4","0.6","0.2","","","","","0.2571549068","0.4504381994","0.3353007417","0.5129573662","","","","","","","","","","75","K","2","","","230","main_expt",""
"","bandit","310","1349538","0.0-272.0-0.0","44683893","wem/bandit_party_2","A2G0HRT8HS9HRZ","either","6","737","","","","","","","0","0","1","0.2870546929","","0.8","0.4","0.6","0.2","","","","","0.1781345747","0.4698668598","0.2870546929","0.4382888871","","","","","","","","","","75","K","2","","","231","main_expt",""
"","bandit","311","1351770","0.0-273.0-0.0","44683893","wem/bandit_party_2","A2G0HRT8HS9HRZ","either","6","709","","","","","","","0","1","0","","0.3092655517","0.8","0.4","0.6","0.2","0.1748933913","0.5460008395","0.3092655517","0.42174841","","","","","","","","","","","","","","75","K","2","","","232","main_expt",""
"","bandit","312","1354756","0.0-274.0-0.0","44683893","wem/bandit_party_2","A2G0HRT8HS9HRZ","either","6","1461","","","","","","","0","1","0","","0.4231157335","0.8","0.4","0.6","0.2","0.2196371411","0.5345299581","0.4231157335","0.4297142637","","","","","","","","","","","","","","75","K","2","","","233","main_expt",""
"","bandit","313","1357217","0.0-275.0-0.0","44683893","wem/bandit_party_2","A2G0HRT8HS9HRZ","either","6","934","","","","","","","0","0","1","0.5525929145","","0.8","0.4","0.6","0.2","","","","","0.2052749597","0.508060833","0.5525929145","0.3016140143","","","","","","","","","","75","K","2","","","234","main_expt",""
"","bandit","314","1359463","0.0-276.0-0.0","44683893","wem/bandit_party_2","A2G0HRT8HS9HRZ","either","6","716","","","","","","","0","1","0","","0.7239072418","0.8","0.4","0.6","0.2","0.3158924645","0.4956589368","0.7239072418","0.2735586703","","","","","","","","","","","","","","75","K","2","","","235","main_expt",""
"","bandit","315","1363853","0.0-277.0-0.0","44683893","wem/bandit_party_2","A2G0HRT8HS9HRZ","either","6","2863","","","","","","","1","0","0","0.8076920848","","0.8","0.4","0.6","0.2","","","","","0.3668106878","0.5514737959","0.8076920848","0.2536827631","","","","","","","","","","75","K","2","","","236","main_expt",""
"","bandit","316","1366266","0.0-278.0-0.0","44683893","wem/bandit_party_2","A2G0HRT8HS9HRZ","either","6","887","","","","","","","0","0","1","","0.7703095863","0.8","0.4","0.6","0.2","0.3866395083","0.5183580196","0.7703095863","0.2478783488","","","","","","","","","","","","","","75","K","2","","","237","main_expt",""
