"consent","trial_type","trial_index","time_elapsed","internal_node_id","subjID","study","MID","cond","drift","rt","responses","button_pressed","key_press","like","value","connected","gems","bombs","no_reward","GemPrChosen","BombPrChosen","GainOverPainPr_0","GainOverPainPr_1","GainOverPainPr_2","GainOverPainPr_3","LosePr_0","LosePr_1","LosePr_2","LosePr_3","WinPr_0","WinPr_1","WinPr_2","WinPr_3","Q0","Q1","Q2","gender","age","ethnicity","label","expt_phase","target","respCharCode","respKey","respChoiceNum","respChoice","practice","trial_counter","trial_label","Q0_index","view_history"
"GDM/GDM_behavioral_consent_30min_online.html","consent","0","13702","0.0-0.0","45001093","wem/bandit_party_2","A26UTJ26B5YUKQ","either","6","","","","","","","","","","","","","","","","","","","","","","","","","","","","","","","","","","","","","","","","","",""
"","survey-text","1","21098","0.0-1.0","45001093","wem/bandit_party_2","A26UTJ26B5YUKQ","either","6","6371","{""Q0"":""A26UTJ26B5YUKQ""}","","","","","","","","","","","","","","","","","","","","","","","","","","","","","","","","","","","","","","","",""
"","button-response","2","26333","0.0-2.0","45001093","wem/bandit_party_2","A26UTJ26B5YUKQ","either","6","4222","","0","","","","","","","","","","","","","","","","","","","","","","","","","","","","","","","","","","","","","","",""
"","text-replacement","3","200034","0.0-3.0","45001093","wem/bandit_party_2","A26UTJ26B5YUKQ","either","6","172697","","","32","","","","","","","","","","","","","","","","","","","","","","","","","","","","","","","","","","","","","",""
"","text-replacement","4","225119","0.0-4.0","45001093","wem/bandit_party_2","A26UTJ26B5YUKQ","either","6","25082","","","32","","","","","","","","","","","","","","","","","","","","","","","","","","","","","","","","","","","","","",""
"","identification","5","239294","0.0-6.0-0.0","45001093","wem/bandit_party_2","A26UTJ26B5YUKQ","either","6","14145","","","","1","1","1","","","","","","","","","","","","","","","","","","","","","","","","pre","identification_pre","the Democratic Party","","","","","","","","",""
"","identification","6","254583","0.0-6.0-1.0","45001093","wem/bandit_party_2","A26UTJ26B5YUKQ","either","6","14257","","","","4","4","4","","","","","","","","","","","","","","","","","","","","","","","","pre","identification_pre","the Republican Party","","","","","","","","",""
"","text-replacement","7","266813","0.0-7.0","45001093","wem/bandit_party_2","A26UTJ26B5YUKQ","either","6","11226","","","32","","","","","","","","","","","","","","","","","","","","","","","","","","","","","","","","","","","","","",""
"","text-replacement","8","280312","0.0-8.0","45001093","wem/bandit_party_2","A26UTJ26B5YUKQ","either","6","13496","","","32","","","","","","","","","","","","","","","","","","","","","","","","","","","","","","","","","","","","","",""
"","text-replacement","9","292091","0.0-9.0","45001093","wem/bandit_party_2","A26UTJ26B5YUKQ","either","6","11773","","","32","","","","","","","","","","","","","","","","","","","","","","","","","","","","","","","","","","","","","",""
"","text-replacement","10","295976","0.0-10.0","45001093","wem/bandit_party_2","A26UTJ26B5YUKQ","either","6","3879","","","32","","","","","","","","","","","","","","","","","","","","","","","","","","","","","","","","","","","","","",""
"","text-replacement","11","303336","0.0-11.0","45001093","wem/bandit_party_2","A26UTJ26B5YUKQ","either","6","7356","","","32","","","","","","","","","","","","","","","","","","","","","","","","","","","","","","","","","","","","","",""
"","bandit","12","307000","0.0-12.0-0.0","45001093","wem/bandit_party_2","A26UTJ26B5YUKQ","either","6","2148","","","","","","","0","0","1","0","0","","","","","0","","","","0","","","","","","","","","","","","","74","J","0","img/none_selected_demo.jpg","true","0","","",""
"","bandit","13","309513","0.0-13.0-0.0","45001093","wem/bandit_party_2","A26UTJ26B5YUKQ","either","6","999","","","","","","","0","0","1","0","0","","","","","0","","","","0","","","","","","","","","","","","","75","K","0","img/none_selected_demo.jpg","true","0","","",""
"","text-replacement","14","314478","0.0-14.0","45001093","wem/bandit_party_2","A26UTJ26B5YUKQ","either","6","4957","","","32","","","","","","","","","","","","","","","","","","","","","","","","","","","","","","","","","","","","","",""
"","text-replacement","15","316452","0.0-15.0","45001093","wem/bandit_party_2","A26UTJ26B5YUKQ","either","6","1970","","","32","","","","","","","","","","","","","","","","","","","","","","","","","","","","","","","","","","","","","",""
"","text-replacement","16","323495","0.0-16.0","45001093","wem/bandit_party_2","A26UTJ26B5YUKQ","either","6","7039","","","32","","","","","","","","","","","","","","","","","","","","","","","","","","","","","","","","","","","","","",""
"","text-replacement","17","324618","0.0-17.0","45001093","wem/bandit_party_2","A26UTJ26B5YUKQ","either","6","1119","","","32","","","","","","","","","","","","","","","","","","","","","","","","","","","","","","","","","","","","","",""
"","bandit","18","327382","0.0-18.0-0.0","45001093","wem/bandit_party_2","A26UTJ26B5YUKQ","either","6","1253","","","","","","","1","0","0","0.8","","0.5","0.5","","","","","","","0.8","0.2","","","","","","","","","","","","74","J","0","img/none_selected_demo.jpg","true","0","80_20_practice","",""
"","bandit","19","329798","0.0-18.0-1.0","45001093","wem/bandit_party_2","A26UTJ26B5YUKQ","either","6","903","","","","","","","0","0","1","0.2","","0.5","0.5","","","","","","","0.8","0.2","","","","","","","","","","","","75","K","1","","true","0","80_20_practice","",""
"","bandit","20","331777","0.0-18.0-2.0","45001093","wem/bandit_party_2","A26UTJ26B5YUKQ","either","6","461","","","","","","","0","1","0","","0.8","0.5","0.5","","","0.8","0.2","","","","","","","","","","","","","","","","74","J","0","img/none_selected_demo.jpg","true","0","80_20_practice","",""
"","bandit","21","333918","0.0-18.0-3.0","45001093","wem/bandit_party_2","A26UTJ26B5YUKQ","either","6","627","","","","","","","1","0","0","0.8","","0.5","0.5","","","","","","","0.8","0.2","","","","","","","","","","","","74","J","0","img/none_selected_demo.jpg","true","0","80_20_practice","",""
"","bandit","22","336960","0.0-18.0-4.0","45001093","wem/bandit_party_2","A26UTJ26B5YUKQ","either","6","1517","","","","","","","0","1","0","","0.8","0.5","0.5","","","0.8","0.2","","","","","","","","","","","","","","","","74","J","0","img/none_selected_demo.jpg","true","0","80_20_practice","",""
"","bandit","23","338948","0.0-18.0-5.0","45001093","wem/bandit_party_2","A26UTJ26B5YUKQ","either","6","470","","","","","","","1","0","0","0.2","","0.5","0.5","","","","","","","0.8","0.2","","","","","","","","","","","","75","K","1","","true","0","80_20_practice","",""
"","bandit","24","341094","0.0-18.0-6.0","45001093","wem/bandit_party_2","A26UTJ26B5YUKQ","either","6","627","","","","","","","0","0","1","0.2","","0.5","0.5","","","","","","","0.8","0.2","","","","","","","","","","","","75","K","1","","true","0","80_20_practice","",""
"","bandit","25","342971","0.0-18.0-7.0","45001093","wem/bandit_party_2","A26UTJ26B5YUKQ","either","6","363","","","","","","","0","0","1","0.2","","0.5","0.5","","","","","","","0.8","0.2","","","","","","","","","","","","75","K","1","","true","0","80_20_practice","",""
"","bandit","26","344858","0.0-18.0-8.0","45001093","wem/bandit_party_2","A26UTJ26B5YUKQ","either","6","374","","","","","","","1","0","0","0.8","","0.5","0.5","","","","","","","0.8","0.2","","","","","","","","","","","","74","J","0","img/none_selected_demo.jpg","true","0","80_20_practice","",""
"","bandit","27","346805","0.0-18.0-9.0","45001093","wem/bandit_party_2","A26UTJ26B5YUKQ","either","6","437","","","","","","","0","1","0","","0.8","0.5","0.5","","","0.8","0.2","","","","","","","","","","","","","","","","74","J","0","img/none_selected_demo.jpg","true","0","80_20_practice","",""
"","bandit","28","348694","0.0-18.0-10.0","45001093","wem/bandit_party_2","A26UTJ26B5YUKQ","either","6","372","","","","","","","0","1","0","","0.8","0.5","0.5","","","0.8","0.2","","","","","","","","","","","","","","","","74","J","0","img/none_selected_demo.jpg","true","0","80_20_practice","",""
"","bandit","29","350588","0.0-18.0-11.0","45001093","wem/bandit_party_2","A26UTJ26B5YUKQ","either","6","379","","","","","","","1","0","0","0.8","","0.5","0.5","","","","","","","0.8","0.2","","","","","","","","","","","","74","J","0","img/none_selected_demo.jpg","true","0","80_20_practice","",""
"","bandit","30","352470","0.0-18.0-12.0","45001093","wem/bandit_party_2","A26UTJ26B5YUKQ","either","6","367","","","","","","","1","0","0","0.8","","0.5","0.5","","","","","","","0.8","0.2","","","","","","","","","","","","74","J","0","img/none_selected_demo.jpg","true","0","80_20_practice","",""
"","bandit","31","354369","0.0-18.0-13.0","45001093","wem/bandit_party_2","A26UTJ26B5YUKQ","either","6","377","","","","","","","0","0","1","","0.2","0.5","0.5","","","0.8","0.2","","","","","","","","","","","","","","","","75","K","1","","true","0","80_20_practice","",""
"","bandit","32","356200","0.0-18.0-14.0","45001093","wem/bandit_party_2","A26UTJ26B5YUKQ","either","6","317","","","","","","","1","0","0","0.8","","0.5","0.5","","","","","","","0.8","0.2","","","","","","","","","","","","74","J","0","img/none_selected_demo.jpg","true","0","80_20_practice","",""
"","bandit","33","358094","0.0-18.0-15.0","45001093","wem/bandit_party_2","A26UTJ26B5YUKQ","either","6","377","","","","","","","1","0","0","0.8","","0.5","0.5","","","","","","","0.8","0.2","","","","","","","","","","","","74","J","0","img/none_selected_demo.jpg","true","0","80_20_practice","",""
"","bandit","34","360008","0.0-18.0-16.0","45001093","wem/bandit_party_2","A26UTJ26B5YUKQ","either","6","396","","","","","","","1","0","0","0.8","","0.5","0.5","","","","","","","0.8","0.2","","","","","","","","","","","","74","J","0","img/none_selected_demo.jpg","true","0","80_20_practice","",""
"","bandit","35","361788","0.0-18.0-17.0","45001093","wem/bandit_party_2","A26UTJ26B5YUKQ","either","6","265","","","","","","","0","1","0","","0.8","0.5","0.5","","","0.8","0.2","","","","","","","","","","","","","","","","74","J","0","img/none_selected_demo.jpg","true","0","80_20_practice","",""
"","bandit","36","363684","0.0-18.0-18.0","45001093","wem/bandit_party_2","A26UTJ26B5YUKQ","either","6","383","","","","","","","0","1","0","","0.8","0.5","0.5","","","0.8","0.2","","","","","","","","","","","","","","","","74","J","0","img/none_selected_demo.jpg","true","0","80_20_practice","",""
"","bandit","37","365658","0.0-18.0-19.0","45001093","wem/bandit_party_2","A26UTJ26B5YUKQ","either","6","412","","","","","","","1","0","0","0.8","","0.5","0.5","","","","","","","0.8","0.2","","","","","","","","","","","","74","J","0","img/none_selected_demo.jpg","true","0","80_20_practice","",""
"","text-replacement","38","375168","0.0-19.0","45001093","wem/bandit_party_2","A26UTJ26B5YUKQ","either","6","9506","","","32","","","","","","","","","","","","","","","","","","","","","","","","","","","","","","","","","","","","","",""
"","bandit","39","377686","0.0-20.0-0.0","45001093","wem/bandit_party_2","A26UTJ26B5YUKQ","either","6","991","","","","","","","1","0","0","1","0","","","","","0","1","","","1","0","","","","","","","","","","","","74","J","0","img/none_selected_demo.jpg","true","0","","",""
"","text-replacement","40","386657","0.0-21.0","45001093","wem/bandit_party_2","A26UTJ26B5YUKQ","either","6","8966","","","32","","","","","","","","","","","","","","","","","","","","","","","","","","","","","","","","","","","","","",""
"","text-replacement","41","394327","0.0-22.0","45001093","wem/bandit_party_2","A26UTJ26B5YUKQ","either","6","7663","","","32","","","","","","","","","","","","","","","","","","","","","","","","","","","","","","","","","","","","","",""
"","text-replacement","42","399788","0.0-23.0","45001093","wem/bandit_party_2","A26UTJ26B5YUKQ","either","6","5457","","","32","","","","","","","","","","","","","","","","","","","","","","","","","","","","","","","","","","","","","",""
"","text-replacement","43","404477","0.0-24.0","45001093","wem/bandit_party_2","A26UTJ26B5YUKQ","either","6","4685","","","32","","","","","","","","","","","","","","","","","","","","","","","","","","","","","","","","","","","","","",""
"","text-replacement","44","405713","0.0-25.0","45001093","wem/bandit_party_2","A26UTJ26B5YUKQ","either","6","1231","","","32","","","","","","","","","","","","","","","","","","","","","","","","","","","","","","","","","","","","","",""
"","text-replacement","45","407265","0.0-26.0","45001093","wem/bandit_party_2","A26UTJ26B5YUKQ","either","6","1548","","","32","","","","","","","","","","","","","","","","","","","","","","","","","","","","","","","","","","","","","",""
"","text-replacement","46","408415","0.0-27.0","45001093","wem/bandit_party_2","A26UTJ26B5YUKQ","either","6","1146","","","32","","","","","","","","","","","","","","","","","","","","","","","","","","","","","","","","","","","","","",""
"","text-replacement","47","409868","0.0-28.0","45001093","wem/bandit_party_2","A26UTJ26B5YUKQ","either","6","1450","","","32","","","","","","","","","","","","","","","","","","","","","","","","","","","","","","","","","","","","","",""
"","text-replacement","48","410707","0.0-29.0","45001093","wem/bandit_party_2","A26UTJ26B5YUKQ","either","6","835","","","32","","","","","","","","","","","","","","","","","","","","","","","","","","","","","","","","","","","","","",""
"","text-replacement","49","414732","0.0-30.0","45001093","wem/bandit_party_2","A26UTJ26B5YUKQ","either","6","4020","","","32","","","","","","","","","","","","","","","","","","","","","","","","","","","","","","","","","","","","","",""
"","text-replacement","50","419395","0.0-31.0","45001093","wem/bandit_party_2","A26UTJ26B5YUKQ","either","6","4659","","","32","","","","","","","","","","","","","","","","","","","","","","","","","","","","","","","","","","","","","",""
"","bandit","51","421544","0.0-32.0-0.0","45001093","wem/bandit_party_2","A26UTJ26B5YUKQ","either","6","634","","","","","","","1","0","0","0.8","","0.5","0.5","0.5","0.5","","","","","0.8","0.2","0.6","0.2","","","","","","","","","","72","H","0","img/none_selected.jpg","true","0","full_practice","",""
"","bandit","52","423698","0.0-32.0-1.0","45001093","wem/bandit_party_2","A26UTJ26B5YUKQ","either","6","625","","","","","","","0","0","1","","0.2","0.5","0.5","0.5","0.5","0.8","0.2","0.6","0.2","","","","","","","","","","","","","","74","J","1","","true","0","full_practice","",""
"","bandit","53","425665","0.0-32.0-2.0","45001093","wem/bandit_party_2","A26UTJ26B5YUKQ","either","6","448","","","","","","","0","0","1","0.6","","0.5","0.5","0.5","0.5","","","","","0.8","0.2","0.6","0.2","","","","","","","","","","75","K","2","","true","0","full_practice","",""
"","bandit","54","427743","0.0-32.0-3.0","45001093","wem/bandit_party_2","A26UTJ26B5YUKQ","either","6","561","","","","","","","0","0","1","","0.2","0.5","0.5","0.5","0.5","0.8","0.2","0.6","0.2","","","","","","","","","","","","","","76","L","3","","true","0","full_practice","",""
"","bandit","55","429783","0.0-32.0-4.0","45001093","wem/bandit_party_2","A26UTJ26B5YUKQ","either","6","528","","","","","","","1","0","0","0.8","","0.5","0.5","0.5","0.5","","","","","0.8","0.2","0.6","0.2","","","","","","","","","","72","H","0","img/none_selected.jpg","true","0","full_practice","",""
"","bandit","56","431810","0.0-32.0-5.0","45001093","wem/bandit_party_2","A26UTJ26B5YUKQ","either","6","507","","","","","","","0","0","1","","0.8","0.5","0.5","0.5","0.5","0.8","0.2","0.6","0.2","","","","","","","","","","","","","","72","H","0","img/none_selected.jpg","true","0","full_practice","",""
"","bandit","57","434083","0.0-32.0-6.0","45001093","wem/bandit_party_2","A26UTJ26B5YUKQ","either","6","753","","","","","","","1","0","0","0.8","","0.5","0.5","0.5","0.5","","","","","0.8","0.2","0.6","0.2","","","","","","","","","","72","H","0","img/none_selected.jpg","true","0","full_practice","",""
"","bandit","58","436137","0.0-32.0-7.0","45001093","wem/bandit_party_2","A26UTJ26B5YUKQ","either","6","525","","","","","","","0","1","0","","0.8","0.5","0.5","0.5","0.5","0.8","0.2","0.6","0.2","","","","","","","","","","","","","","72","H","0","img/none_selected.jpg","true","0","full_practice","",""
"","bandit","59","438172","0.0-32.0-8.0","45001093","wem/bandit_party_2","A26UTJ26B5YUKQ","either","6","521","","","","","","","1","0","0","0.8","","0.5","0.5","0.5","0.5","","","","","0.8","0.2","0.6","0.2","","","","","","","","","","72","H","0","img/none_selected.jpg","true","0","full_practice","",""
"","bandit","60","440134","0.0-32.0-9.0","45001093","wem/bandit_party_2","A26UTJ26B5YUKQ","either","6","445","","","","","","","0","1","0","","0.8","0.5","0.5","0.5","0.5","0.8","0.2","0.6","0.2","","","","","","","","","","","","","","72","H","0","img/none_selected.jpg","true","0","full_practice","",""
"","bandit","61","442158","0.0-32.0-10.0","45001093","wem/bandit_party_2","A26UTJ26B5YUKQ","either","6","504","","","","","","","0","1","0","","0.8","0.5","0.5","0.5","0.5","0.8","0.2","0.6","0.2","","","","","","","","","","","","","","72","H","0","img/none_selected.jpg","true","0","full_practice","",""
"","bandit","62","444167","0.0-32.0-11.0","45001093","wem/bandit_party_2","A26UTJ26B5YUKQ","either","6","494","","","","","","","1","0","0","0.8","","0.5","0.5","0.5","0.5","","","","","0.8","0.2","0.6","0.2","","","","","","","","","","72","H","0","img/none_selected.jpg","true","0","full_practice","",""
"","bandit","63","446304","0.0-32.0-12.0","45001093","wem/bandit_party_2","A26UTJ26B5YUKQ","either","6","611","","","","","","","1","0","0","0.8","","0.5","0.5","0.5","0.5","","","","","0.8","0.2","0.6","0.2","","","","","","","","","","72","H","0","img/none_selected.jpg","true","0","full_practice","",""
"","bandit","64","448228","0.0-32.0-13.0","45001093","wem/bandit_party_2","A26UTJ26B5YUKQ","either","6","413","","","","","","","1","0","0","0.8","","0.5","0.5","0.5","0.5","","","","","0.8","0.2","0.6","0.2","","","","","","","","","","72","H","0","img/none_selected.jpg","true","0","full_practice","",""
"","bandit","65","450180","0.0-32.0-14.0","45001093","wem/bandit_party_2","A26UTJ26B5YUKQ","either","6","420","","","","","","","0","0","1","0.2","","0.5","0.5","0.5","0.5","","","","","0.8","0.2","0.6","0.2","","","","","","","","","","74","J","1","","true","0","full_practice","",""
"","bandit","66","452459","0.0-32.0-15.0","45001093","wem/bandit_party_2","A26UTJ26B5YUKQ","either","6","769","","","","","","","1","0","0","0.6","","0.5","0.5","0.5","0.5","","","","","0.8","0.2","0.6","0.2","","","","","","","","","","75","K","2","","true","0","full_practice","",""
"","bandit","67","454740","0.0-32.0-16.0","45001093","wem/bandit_party_2","A26UTJ26B5YUKQ","either","6","762","","","","","","","0","1","0","","0.6","0.5","0.5","0.5","0.5","0.8","0.2","0.6","0.2","","","","","","","","","","","","","","75","K","2","","true","0","full_practice","",""
"","bandit","68","457426","0.0-32.0-17.0","45001093","wem/bandit_party_2","A26UTJ26B5YUKQ","either","6","1161","","","","","","","0","1","0","","0.6","0.5","0.5","0.5","0.5","0.8","0.2","0.6","0.2","","","","","","","","","","","","","","75","K","2","","true","0","full_practice","",""
"","bandit","69","459607","0.0-32.0-18.0","45001093","wem/bandit_party_2","A26UTJ26B5YUKQ","either","6","664","","","","","","","1","0","0","0.6","","0.5","0.5","0.5","0.5","","","","","0.8","0.2","0.6","0.2","","","","","","","","","","75","K","2","","true","0","full_practice","",""
"","bandit","70","461788","0.0-32.0-19.0","45001093","wem/bandit_party_2","A26UTJ26B5YUKQ","either","6","662","","","","","","","0","0","1","0.8","","0.5","0.5","0.5","0.5","","","","","0.8","0.2","0.6","0.2","","","","","","","","","","72","H","0","img/none_selected.jpg","true","0","full_practice","",""
"","text","71","465784","0.0-33.0","45001093","wem/bandit_party_2","A26UTJ26B5YUKQ","either","6","3969","","","32","","","","","","","","","","","","","","","","","","","","","","","","","","","","","","","","","","","","","",""
"","text-replacement","72","468893","0.0-34.0","45001093","wem/bandit_party_2","A26UTJ26B5YUKQ","either","6","2103","","","32","","","","","","","","","","","","","","","","","","","","","","","","","","","","","","","","","","","","","",""
"","text-replacement","73","469574","0.0-35.0","45001093","wem/bandit_party_2","A26UTJ26B5YUKQ","either","6","676","","","32","","","","","","","","","","","","","","","","","","","","","","","","","","","","","","","","","","","","","",""
"","text-replacement","74","470325","0.0-36.0","45001093","wem/bandit_party_2","A26UTJ26B5YUKQ","either","6","745","","","32","","","","","","","","","","","","","","","","","","","","","","","","","","","","","","","","","","","","","",""
"","text-replacement","75","470983","0.0-37.0","45001093","wem/bandit_party_2","A26UTJ26B5YUKQ","either","6","651","","","32","","","","","","","","","","","","","","","","","","","","","","","","","","","","","","","","","","","","","",""
"","text-replacement","76","471942","0.0-38.0","45001093","wem/bandit_party_2","A26UTJ26B5YUKQ","either","6","953","","","32","","","","","","","","","","","","","","","","","","","","","","","","","","","","","","","","","","","","","",""
"","survey-multi-choice-replacement","77","479429","0.0-39.0-0.0","45001093","wem/bandit_party_2","A26UTJ26B5YUKQ","either","6","7470","","","","","","","","","","","","","","","","","","","","","","","","Money will be added to the pool for <span style='color:red;'>REPUBLICANS</span>","","","","","","","attn_check","","","","","","","","","0",""
"","survey-multi-choice-replacement","78","484675","0.0-40.0-0.0","45001093","wem/bandit_party_2","A26UTJ26B5YUKQ","either","6","4225","","","","","","","","","","","","","","","","","","","","","","","","Money will be subtracted from the pool for <span style='color:blue;'>DEMOCRATS</span>","","","","","","","attn_check","","","","","","","","","1",""
"","instructions","79","487673","0.0-40.0-1.0-0.0","45001093","wem/bandit_party_2","A26UTJ26B5YUKQ","either","6","1989","","","","","","","","","","","","","","","","","","","","","","","","","","","","","","","","","","","","","","","","","[{""page_index"":0,""viewing_time"":1988}]"
"","survey-multi-choice-replacement","80","492798","0.0-40.1-0.1","45001093","wem/bandit_party_2","A26UTJ26B5YUKQ","either","6","4115","","","","","","","","","","","","","","","","","","","","","","","","Money will be added to the pool for <span style='color:red;'>REPUBLICANS</span>","","","","","","","attn_check","","","","","","","","","0",""
"","instructions","81","494996","0.0-40.1-1.1-0.1","45001093","wem/bandit_party_2","A26UTJ26B5YUKQ","either","6","1189","","","","","","","","","","","","","","","","","","","","","","","","","","","","","","","","","","","","","","","","","[{""page_index"":0,""viewing_time"":1188}]"
"","survey-multi-choice-replacement","82","500161","0.0-40.2-0.2","45001093","wem/bandit_party_2","A26UTJ26B5YUKQ","either","6","4149","","","","","","","","","","","","","","","","","","","","","","","","Equal amounts of money will be added to the pool for <span style='color:red;'>REPUBLICANS</span> and subtracted from the pool for <span style='color:blue;'>DEMOCRATS</span>","","","","","","","attn_check","","","","","","","","","2",""
"","survey-multi-choice-replacement","83","506380","0.0-41.0-0.0","45001093","wem/bandit_party_2","A26UTJ26B5YUKQ","either","6","5195","","","","","","","","","","","","","","","","","","","","","","","","No money will be added to either pool","","","","","","","attn_check","","","","","","","","","3",""
"","bandit","84","511069","0.0-42.0-0.0","45001093","wem/bandit_party_2","A26UTJ26B5YUKQ","either","6","2166","","","","","","","0","1","0","","0.3049938501","0.8","0.2","0.4","0.6","0.7197236342","0.3049938501","0.2309914537","0.1947351938","","","","","","","","","","","","","","74","J","1","","","1","main_expt","",""
"","bandit","85","513477","0.0-43.0-0.0","45001093","wem/bandit_party_2","A26UTJ26B5YUKQ","either","6","891","","","","","","","1","0","0","0.7453792406","","0.8","0.2","0.4","0.6","","","","","0.7453792406","0.3105507028","0.2351366282","0.1865171684","","","","","","","","","","72","H","0","img/none_selected.jpg","","2","main_expt","",""
"","bandit","86","515500","0.0-44.0-0.0","45001093","wem/bandit_party_2","A26UTJ26B5YUKQ","either","6","500","","","","","","","0","0","1","","0.347932066","0.8","0.2","0.4","0.6","0.7422746785","0.347932066","0.3338792953","0.1578482069","","","","","","","","","","","","","","74","J","1","","","3","main_expt","",""
"","bandit","87","517578","0.0-45.0-0.0","45001093","wem/bandit_party_2","A26UTJ26B5YUKQ","either","6","559","","","","","","","0","0","1","","0.8152876082","0.8","0.2","0.4","0.6","0.8152876082","0.294099503","0.2578124611","0.1733557992","","","","","","","","","","","","","","72","H","0","img/none_selected.jpg","","4","main_expt","",""
"","bandit","88","519379","0.0-46.0-0.0","45001093","wem/bandit_party_2","A26UTJ26B5YUKQ","either","6","283","","","","","","","0","0","1","","0.152782507","0.8","0.2","0.4","0.6","0.8494846052","0.256228135","0.152782507","0.1275681293","","","","","","","","","","","","","","75","K","2","","","5","main_expt","",""
"","bandit","89","521617","0.0-47.0-0.0","45001093","wem/bandit_party_2","A26UTJ26B5YUKQ","either","6","722","","","","","","","1","0","0","0.1776351543","","0.8","0.2","0.4","0.6","","","","","0.8036792828","0.3142053347","0.200224935","0.1776351543","","","","","","","","","","76","L","3","","","6","main_expt","",""
"","bandit","90","523773","0.0-48.0-0.0","45001093","wem/bandit_party_2","A26UTJ26B5YUKQ","either","6","642","","","","","","","1","0","0","0.1412615145","","0.8","0.2","0.4","0.6","","","","","0.8659664865","0.2382568898","0.2200442108","0.1412615145","","","","","","","","","","76","L","3","","","7","main_expt","",""
"","bandit","91","525641","0.0-49.0-0.0","45001093","wem/bandit_party_2","A26UTJ26B5YUKQ","either","6","351","","","","","","","0","0","1","","0.1508054742","0.8","0.2","0.4","0.6","0.8475436228","0.220471749","0.1516915951","0.1508054742","","","","","","","","","","","","","","76","L","3","","","8","main_expt","",""
"","bandit","92","527432","0.0-50.0-0.0","45001093","wem/bandit_party_2","A26UTJ26B5YUKQ","either","6","270","","","","","","","0","1","0","","0.8034999265","0.8","0.2","0.4","0.6","0.8034999265","0.2842820234","0.1468829212","0.1882404854","","","","","","","","","","","","","","72","H","0","img/none_selected.jpg","","9","main_expt","",""
"","bandit","93","529560","0.0-51.0-0.0","45001093","wem/bandit_party_2","A26UTJ26B5YUKQ","either","6","610","","","","","","","0","1","0","","0.7148412232","0.8","0.2","0.4","0.6","0.7148412232","0.3392415315","0.1507643719","0.1731305678","","","","","","","","","","","","","","72","H","0","img/none_selected.jpg","","10","main_expt","",""
"","bandit","94","531686","0.0-52.0-0.0","45001093","wem/bandit_party_2","A26UTJ26B5YUKQ","either","6","596","","","","","","","1","0","0","0.7213030285","","0.8","0.2","0.4","0.6","","","","","0.7213030285","0.4470346709","0.18301","0.2475279461","","","","","","","","","","72","H","0","img/none_selected.jpg","","11","main_expt","",""
"","bandit","95","533557","0.0-53.0-0.0","45001093","wem/bandit_party_2","A26UTJ26B5YUKQ","either","6","358","","","","","","","0","0","1","0.7396148754","","0.8","0.2","0.4","0.6","","","","","0.7396148754","0.5143820195","0.209562337","0.2068792089","","","","","","","","","","72","H","0","img/none_selected.jpg","","12","main_expt","",""
"","bandit","96","536578","0.0-54.0-0.0","45001093","wem/bandit_party_2","A26UTJ26B5YUKQ","either","6","1498","","","","","","","0","0","1","","0.4934308908","0.8","0.2","0.4","0.6","0.6870781676","0.4934308908","0.2133897639","0.1594062408","","","","","","","","","","","","","","74","J","1","","","13","main_expt","",""
"","bandit","97","538844","0.0-55.0-0.0","45001093","wem/bandit_party_2","A26UTJ26B5YUKQ","either","6","744","","","","","","","0","0","1","0.1865122749","","0.8","0.2","0.4","0.6","","","","","0.6561171826","0.5884397519","0.1865122749","0.1808320347","","","","","","","","","","75","K","2","","","14","main_expt","",""
"","bandit","98","543587","0.0-56.0-0.0","45001093","wem/bandit_party_2","A26UTJ26B5YUKQ","either","6","3222","","","","","","","0","0","1","0.2401125286","","0.8","0.2","0.4","0.6","","","","","0.6255101569","0.425765204","0.3169691733","0.2401125286","","","","","","","","","","76","L","3","","","15","main_expt","",""
"","bandit","99","545781","0.0-57.0-0.0","45001093","wem/bandit_party_2","A26UTJ26B5YUKQ","either","6","636","","","","","","","0","1","0","","0.6101220295","0.8","0.2","0.4","0.6","0.6101220295","0.4458974369","0.3927767979","0.1823220599","","","","","","","","","","","","","","72","H","0","img/none_selected.jpg","","16","main_expt","",""
"","bandit","100","548185","0.0-58.0-0.0","45001093","wem/bandit_party_2","A26UTJ26B5YUKQ","either","6","893","","","","","","","1","0","0","0.6233337625","","0.8","0.2","0.4","0.6","","","","","0.6233337625","0.4907358526","0.2882183284","0.2076179308","","","","","","","","","","72","H","0","img/none_selected.jpg","","17","main_expt","",""
"","bandit","101","550142","0.0-59.0-0.0","45001093","wem/bandit_party_2","A26UTJ26B5YUKQ","either","6","434","","","","","","","0","0","1","0.598865074","","0.8","0.2","0.4","0.6","","","","","0.598865074","0.4895096529","0.3212622409","0.2310064443","","","","","","","","","","72","H","0","img/none_selected.jpg","","18","main_expt","",""
"","bandit","102","552547","0.0-60.0-0.0","45001093","wem/bandit_party_2","A26UTJ26B5YUKQ","either","6","883","","","","","","","1","0","0","0.5437378015","","0.8","0.2","0.4","0.6","","","","","0.6318918302","0.5437378015","0.3678238944","0.1919199612","","","","","","","","","","74","J","1","","","19","main_expt","",""
"","bandit","103","554463","0.0-61.0-0.0","45001093","wem/bandit_party_2","A26UTJ26B5YUKQ","either","6","393","","","","","","","0","0","1","0.543071052","","0.8","0.2","0.4","0.6","","","","","0.5667690756","0.543071052","0.4357360734","0.2150176637","","","","","","","","","","74","J","1","","","20","main_expt","",""
"","bandit","104","556511","0.0-62.0-0.0","45001093","wem/bandit_party_2","A26UTJ26B5YUKQ","either","6","534","","","","","","","1","0","0","0.4486518506","","0.8","0.2","0.4","0.6","","","","","0.6364396753","0.5457928974","0.4486518506","0.2980309021","","","","","","","","","","75","K","2","","","21","main_expt","",""
"","bandit","105","558884","0.0-63.0-0.0","45001093","wem/bandit_party_2","A26UTJ26B5YUKQ","either","6","860","","","","","","","0","0","1","","0.5145372488","0.8","0.2","0.4","0.6","0.5563436533","0.4531799458","0.5145372488","0.3238742104","","","","","","","","","","","","","","75","K","2","","","22","main_expt","",""
"","bandit","106","560793","0.0-64.0-0.0","45001093","wem/bandit_party_2","A26UTJ26B5YUKQ","either","6","380","","","","","","","1","0","0","0.4158928209","","0.8","0.2","0.4","0.6","","","","","0.4555064456","0.4321579995","0.6324996067","0.4158928209","","","","","","","","","","76","L","3","","","23","main_expt","",""
"","bandit","107","563100","0.0-65.0-0.0","45001093","wem/bandit_party_2","A26UTJ26B5YUKQ","either","6","777","","","","","","","0","0","1","","0.2798670784","0.8","0.2","0.4","0.6","0.4398961724","0.3892872195","0.6665025749","0.2798670784","","","","","","","","","","","","","","76","L","3","","","24","main_expt","",""
"","bandit","108","565208","0.0-66.0-0.0","45001093","wem/bandit_party_2","A26UTJ26B5YUKQ","either","6","586","","","","","","","1","0","0","0.3810464824","","0.8","0.2","0.4","0.6","","","","","0.3810464824","0.4322880781","0.5316582614","0.3932164435","","","","","","","","","","72","H","0","img/none_selected.jpg","","25","main_expt","",""
"","bandit","109","567440","0.0-67.0-0.0","45001093","wem/bandit_party_2","A26UTJ26B5YUKQ","either","6","715","","","","","","","0","0","1","0.451695138","","0.8","0.2","0.4","0.6","","","","","0.451695138","0.4560392573","0.4282094451","0.3243459504","","","","","","","","","","72","H","0","img/none_selected.jpg","","26","main_expt","",""
"","bandit","110","570427","0.0-68.0-0.0","45001093","wem/bandit_party_2","A26UTJ26B5YUKQ","either","6","1467","","","","","","","1","0","0","0.4423729324","","0.8","0.2","0.4","0.6","","","","","0.4423729324","0.5372901799","0.4711380508","0.4266302179","","","","","","","","","","72","H","0","img/none_selected.jpg","","27","main_expt","",""
"","bandit","111","572561","0.0-69.0-0.0","45001093","wem/bandit_party_2","A26UTJ26B5YUKQ","either","6","608","","","","","","","0","1","0","","0.4221124674","0.8","0.2","0.4","0.6","0.4221124674","0.6619872032","0.4539290932","0.4206607535","","","","","","","","","","","","","","72","H","0","img/none_selected.jpg","","28","main_expt","",""
"","bandit","112","574839","0.0-70.0-0.0","45001093","wem/bandit_party_2","A26UTJ26B5YUKQ","either","6","755","","","","","","","0","0","1","","0.489207998","0.8","0.2","0.4","0.6","0.489207998","0.5939885142","0.4378511583","0.440099583","","","","","","","","","","","","","","72","H","0","img/none_selected.jpg","","29","main_expt","",""
"","bandit","113","577334","0.0-71.0-0.0","45001093","wem/bandit_party_2","A26UTJ26B5YUKQ","either","6","972","","","","","","","0","0","1","0.5602145404","","0.8","0.2","0.4","0.6","","","","","0.4406356357","0.5602145404","0.3425428874","0.3982168329","","","","","","","","","","74","J","1","","","30","main_expt","",""
"","bandit","114","579423","0.0-72.0-0.0","45001093","wem/bandit_party_2","A26UTJ26B5YUKQ","either","6","571","","","","","","","0","0","1","","0.2354865125","0.8","0.2","0.4","0.6","0.484130952","0.5376870091","0.2354865125","0.3573437221","","","","","","","","","","","","","","75","K","2","","","31","main_expt","",""
"","bandit","115","581351","0.0-73.0-0.0","45001093","wem/bandit_party_2","A26UTJ26B5YUKQ","either","6","408","","","","","","","0","0","1","","0.3712986889","0.8","0.2","0.4","0.6","0.432294219","0.6346195819","0.2552437171","0.3712986889","","","","","","","","","","","","","","76","L","3","","","32","main_expt","",""
"","bandit","116","583676","0.0-74.0-0.0","45001093","wem/bandit_party_2","A26UTJ26B5YUKQ","either","6","810","","","","","","","1","0","0","0.4821309474","","0.8","0.2","0.4","0.6","","","","","0.4821309474","0.7540961955","0.2470382599","0.45096985","","","","","","","","","","72","H","0","img/none_selected.jpg","","33","main_expt","",""
"","bandit","117","586845","0.0-75.0-0.0","45001093","wem/bandit_party_2","A26UTJ26B5YUKQ","either","6","1652","","","","","","","0","0","1","0.4702474349","","0.8","0.2","0.4","0.6","","","","","0.4702474349","0.699797925","0.2951894024","0.5559331637","","","","","","","","","","72","H","0","img/none_selected.jpg","","34","main_expt","",""
"","bandit","118","589196","0.0-76.0-0.0","45001093","wem/bandit_party_2","A26UTJ26B5YUKQ","either","6","828","","","","","","","0","1","0","","0.7410295452","0.8","0.2","0.4","0.6","0.5363697359","0.7410295452","0.2596626779","0.7354386419","","","","","","","","","","","","","","74","J","1","","","35","main_expt","",""
"","bandit","119","592220","0.0-77.0-0.0","45001093","wem/bandit_party_2","A26UTJ26B5YUKQ","either","6","1474","","","","","","","0","1","0","","0.7332281969","0.8","0.2","0.4","0.6","0.602250539","0.7332281969","0.3164764808","0.6934166837","","","","","","","","","","","","","","74","J","1","","","36","main_expt","",""
"","bandit","120","594167","0.0-78.0-0.0","45001093","wem/bandit_party_2","A26UTJ26B5YUKQ","either","6","418","","","","","","","0","1","0","","0.736713329","0.8","0.2","0.4","0.6","0.5337433964","0.736713329","0.3672962009","0.6311869688","","","","","","","","","","","","","","74","J","1","","","37","main_expt","",""
"","bandit","121","596453","0.0-79.0-0.0","45001093","wem/bandit_party_2","A26UTJ26B5YUKQ","either","6","765","","","","","","","0","1","0","","0.6860808007","0.8","0.2","0.4","0.6","0.5970413872","0.6860808007","0.4056598401","0.6583504975","","","","","","","","","","","","","","74","J","1","","","38","main_expt","",""
"","bandit","122","598671","0.0-80.0-0.0","45001093","wem/bandit_party_2","A26UTJ26B5YUKQ","either","6","700","","","","","","","0","1","0","","0.7498761973","0.8","0.2","0.4","0.6","0.6529448079","0.7498761973","0.4236995386","0.5861321806","","","","","","","","","","","","","","74","J","1","","","39","main_expt","",""
"","bandit","123","601553","0.0-81.0-0.0","45001093","wem/bandit_party_2","A26UTJ26B5YUKQ","either","6","1357","","","","","","","0","1","0","","0.7043283504","0.8","0.2","0.4","0.6","0.6612991154","0.7043283504","0.4365163158","0.4892836735","","","","","","","","","","","","","","74","J","1","","","40","main_expt","",""
"","bandit","124","603627","0.0-82.0-0.0","45001093","wem/bandit_party_2","A26UTJ26B5YUKQ","either","6","552","","","","","","","0","0","1","","0.6469690382","0.8","0.2","0.4","0.6","0.7390431107","0.6469690382","0.4854269132","0.3479900608","","","","","","","","","","","","","","74","J","1","","","41","main_expt","",""
"","bandit","125","605332","0.0-83.0-0.0","45001093","wem/bandit_party_2","A26UTJ26B5YUKQ","either","6","177","","","","","","","1","0","0","0.6388905256","","0.8","0.2","0.4","0.6","","","","","0.7609423287","0.6388905256","0.4753587859","0.376709287","","","","","","","","","","74","J","1","","","42","main_expt","",""
"","bandit","126","607305","0.0-84.0-0.0","45001093","wem/bandit_party_2","A26UTJ26B5YUKQ","either","6","451","","","","","","","0","1","0","","0.6383372244","0.8","0.2","0.4","0.6","0.8039673949","0.6383372244","0.452202747","0.4319300722","","","","","","","","","","","","","","74","J","1","","","43","main_expt","",""
"","bandit","127","610039","0.0-85.0-0.0","45001093","wem/bandit_party_2","A26UTJ26B5YUKQ","either","6","1209","","","","","","","0","0","1","","0.6247854939","0.8","0.2","0.4","0.6","0.8216753652","0.6247854939","0.5522191005","0.4458636389","","","","","","","","","","","","","","74","J","1","","","44","main_expt","",""
"","bandit","128","612317","0.0-86.0-0.0","45001093","wem/bandit_party_2","A26UTJ26B5YUKQ","either","6","757","","","","","","","0","0","1","","0.7636866317","0.8","0.2","0.4","0.6","0.7636866317","0.6341880498","0.4878962787","0.4323480181","","","","","","","","","","","","","","72","H","0","img/none_selected.jpg","","45","main_expt","",""
"","bandit","129","614477","0.0-87.0-0.0","45001093","wem/bandit_party_2","A26UTJ26B5YUKQ","either","6","622","","","","","","","0","1","0","","0.487595293","0.8","0.2","0.4","0.6","0.8203755575","0.5081310512","0.487595293","0.4348202433","","","","","","","","","","","","","","75","K","2","","","46","main_expt","",""
"","bandit","130","616830","0.0-88.0-0.0","45001093","wem/bandit_party_2","A26UTJ26B5YUKQ","either","6","836","","","","","","","1","0","0","0.444754188","","0.8","0.2","0.4","0.6","","","","","0.8706375764","0.4202927251","0.444754188","0.3430847618","","","","","","","","","","75","K","2","","","47","main_expt","",""
"","bandit","131","619314","0.0-89.0-0.0","45001093","wem/bandit_party_2","A26UTJ26B5YUKQ","either","6","963","","","","","","","1","0","0","0.5044276746","","0.8","0.2","0.4","0.6","","","","","0.8019506245","0.4767868938","0.5044276746","0.2601977795","","","","","","","","","","75","K","2","","","48","main_expt","",""
"","bandit","132","621184","0.0-90.0-0.0","45001093","wem/bandit_party_2","A26UTJ26B5YUKQ","either","6","343","","","","","","","0","0","1","","0.3766714482","0.8","0.2","0.4","0.6","0.7331224435","0.3749468019","0.3766714482","0.2368144698","","","","","","","","","","","","","","75","K","2","","","49","main_expt","",""
"","bandit","133","623045","0.0-91.0-0.0","45001093","wem/bandit_party_2","A26UTJ26B5YUKQ","either","6","335","","","","","","","0","0","1","0.406992786","","0.8","0.2","0.4","0.6","","","","","0.7908344101","0.3532902347","0.406992786","0.2484527115","","","","","","","","","","75","K","2","","","50","main_expt","",""
"","bandit","134","624849","0.0-92.0-0.0","45001093","wem/bandit_party_2","A26UTJ26B5YUKQ","either","6","284","","","","","","","0","0","1","","0.3854505747","0.8","0.2","0.4","0.6","0.7922828235","0.2413466802","0.3854505747","0.230268934","","","","","","","","","","","","","","75","K","2","","","51","main_expt","",""
"","bandit","135","626717","0.0-93.0-0.0","45001093","wem/bandit_party_2","A26UTJ26B5YUKQ","either","6","345","","","","","","","0","0","1","0.3429002399","","0.8","0.2","0.4","0.6","","","","","0.7485378942","0.2673723166","0.3956915145","0.3429002399","","","","","","","","","","76","L","3","","","52","main_expt","",""
"","bandit","136","628899","0.0-94.0-0.0","45001093","wem/bandit_party_2","A26UTJ26B5YUKQ","either","6","667","","","","","","","0","0","1","","0.2871029552","0.8","0.2","0.4","0.6","0.6603794952","0.2806035608","0.3062348001","0.2871029552","","","","","","","","","","","","","","76","L","3","","","53","main_expt","",""
"","bandit","137","630807","0.0-95.0-0.0","45001093","wem/bandit_party_2","A26UTJ26B5YUKQ","either","6","385","","","","","","","1","0","0","0.6931449795","","0.8","0.2","0.4","0.6","","","","","0.6931449795","0.2544312064","0.2996500993","0.2594444468","","","","","","","","","","72","H","0","img/none_selected.jpg","","54","main_expt","",""
"","bandit","138","632616","0.0-96.0-0.0","45001093","wem/bandit_party_2","A26UTJ26B5YUKQ","either","6","280","","","","","","","0","1","0","","0.7553272845","0.8","0.2","0.4","0.6","0.7553272845","0.3362815808","0.2518247787","0.3333749245","","","","","","","","","","","","","","72","H","0","img/none_selected.jpg","","55","main_expt","",""
"","bandit","139","634549","0.0-97.0-0.0","45001093","wem/bandit_party_2","A26UTJ26B5YUKQ","either","6","416","","","","","","","1","0","0","0.7231548626","","0.8","0.2","0.4","0.6","","","","","0.7231548626","0.3798256012","0.3014763065","0.3049104067","","","","","","","","","","72","H","0","img/none_selected.jpg","","56","main_expt","",""
"","bandit","140","636697","0.0-98.0-0.0","45001093","wem/bandit_party_2","A26UTJ26B5YUKQ","either","6","623","","","","","","","0","0","1","","0.3989549393","0.8","0.2","0.4","0.6","0.7485901337","0.3989549393","0.2730843718","0.3623273811","","","","","","","","","","","","","","74","J","1","","","57","main_expt","",""
"","bandit","141","638495","0.0-99.0-0.0","45001093","wem/bandit_party_2","A26UTJ26B5YUKQ","either","6","274","","","","","","","1","0","0","0.797082508","","0.8","0.2","0.4","0.6","","","","","0.797082508","0.3373398956","0.367239041","0.3621169042","","","","","","","","","","72","H","0","img/none_selected.jpg","","58","main_expt","",""
"","bandit","142","640733","0.0-100.0-0.0","45001093","wem/bandit_party_2","A26UTJ26B5YUKQ","either","6","710","","","","","","","1","0","0","0.7466963627","","0.8","0.2","0.4","0.6","","","","","0.7466963627","0.3381045731","0.4005220403","0.3672848169","","","","","","","","","","72","H","0","img/none_selected.jpg","","59","main_expt","",""
"","bandit","143","642975","0.0-101.0-0.0","45001093","wem/bandit_party_2","A26UTJ26B5YUKQ","either","6","718","","","","","","","0","0","1","0.6359615323","","0.8","0.2","0.4","0.6","","","","","0.6359615323","0.4838111383","0.4863912708","0.5123874715","","","","","","","","","","72","H","0","img/none_selected.jpg","","60","main_expt","",""
"","bandit","144","644781","0.0-102.0-0.0","45001093","wem/bandit_party_2","A26UTJ26B5YUKQ","either","6","273","","","","","","","0","0","1","0.5218319631","","0.8","0.2","0.4","0.6","","","","","0.7125939799","0.4290776342","0.5220595343","0.5218319631","","","","","","","","","","76","L","3","","","61","main_expt","",""
"","bandit","145","646309","0.0-103.0-0.0","45001093","wem/bandit_party_2","A26UTJ26B5YUKQ","either","6","8","","","","","","","1","0","0","0.5447889898","","0.8","0.2","0.4","0.6","","","","","0.5978650666","0.4387439774","0.5447889898","0.6482151027","","","","","","","","","","75","K","2","","","62","main_expt","",""
"","bandit","146","648265","0.0-104.0-0.0","45001093","wem/bandit_party_2","A26UTJ26B5YUKQ","either","6","430","","","","","","","0","0","1","","0.5517390004","0.8","0.2","0.4","0.6","0.5166338879","0.3670418014","0.5517390004","0.6966290852","","","","","","","","","","","","","","75","K","2","","","63","main_expt","",""
"","bandit","147","650073","0.0-105.0-0.0","45001093","wem/bandit_party_2","A26UTJ26B5YUKQ","either","6","270","","","","","","","1","0","0","0.6576188384","","0.8","0.2","0.4","0.6","","","","","0.4901650138","0.3470393933","0.6576188384","0.6497033777","","","","","","","","","","75","K","2","","","64","main_expt","",""
"","bandit","148","651852","0.0-106.0-0.0","45001093","wem/bandit_party_2","A26UTJ26B5YUKQ","either","6","249","","","","","","","1","0","0","0.5156176703","","0.8","0.2","0.4","0.6","","","","","0.459365688","0.3361574661","0.5156176703","0.6925184903","","","","","","","","","","75","K","2","","","65","main_expt","",""
"","bandit","149","653570","0.0-107.0-0.0","45001093","wem/bandit_party_2","A26UTJ26B5YUKQ","either","6","204","","","","","","","0","1","0","","0.3851410914","0.8","0.2","0.4","0.6","0.4666104807","0.34308242","0.3851410914","0.8298767513","","","","","","","","","","","","","","75","K","2","","","66","main_expt","",""
"","bandit","150","656405","0.0-108.0-0.0","45001093","wem/bandit_party_2","A26UTJ26B5YUKQ","either","6","1309","","","","","","","0","0","1","0.3925250542","","0.8","0.2","0.4","0.6","","","","","0.5547259005","0.3730603492","0.3925250542","0.8506596021","","","","","","","","","","75","K","2","","","67","main_expt","",""
"","bandit","151","658503","0.0-109.0-0.0","45001093","wem/bandit_party_2","A26UTJ26B5YUKQ","either","6","574","","","","","","","0","1","0","","0.4089949532","0.8","0.2","0.4","0.6","0.6038719492","0.4089949532","0.3884113518","0.8536910832","","","","","","","","","","","","","","74","J","1","","","68","main_expt","",""
"","bandit","152","660841","0.0-110.0-0.0","45001093","wem/bandit_party_2","A26UTJ26B5YUKQ","either","6","813","","","","","","","0","1","0","","0.3749002533","0.8","0.2","0.4","0.6","0.6148283845","0.3749002533","0.3434478979","0.8642538991","","","","","","","","","","","","","","74","J","1","","","69","main_expt","",""
"","bandit","153","662700","0.0-111.0-0.0","45001093","wem/bandit_party_2","A26UTJ26B5YUKQ","either","6","332","","","","","","","0","1","0","","0.4133869845","0.8","0.2","0.4","0.6","0.6683283761","0.4133869845","0.4426642051","0.8073802352","","","","","","","","","","","","","","74","J","1","","","70","main_expt","",""
"","bandit","154","664572","0.0-112.0-0.0","45001093","wem/bandit_party_2","A26UTJ26B5YUKQ","either","6","350","","","","","","","0","1","0","","0.3302164541","0.8","0.2","0.4","0.6","0.738459761","0.3302164541","0.4518046004","0.8059201048","","","","","","","","","","","","","","74","J","1","","","71","main_expt","",""
"","bandit","155","666408","0.0-113.0-0.0","45001093","wem/bandit_party_2","A26UTJ26B5YUKQ","either","6","312","","","","","","","0","0","1","","0.2570952275","0.8","0.2","0.4","0.6","0.6525166508","0.2570952275","0.4903223245","0.8262275011","","","","","","","","","","","","","","74","J","1","","","72","main_expt","",""
"","bandit","156","668760","0.0-114.0-0.0","45001093","wem/bandit_party_2","A26UTJ26B5YUKQ","either","6","828","","","","","","","1","0","0","0.5715134512","","0.8","0.2","0.4","0.6","","","","","0.5715134512","0.2042885023","0.5296083002","0.7334390718","","","","","","","","","","72","H","0","img/none_selected.jpg","","73","main_expt","",""
"","bandit","157","670692","0.0-115.0-0.0","45001093","wem/bandit_party_2","A26UTJ26B5YUKQ","either","6","403","","","","","","","1","0","0","0.6228045854","","0.8","0.2","0.4","0.6","","","","","0.6228045854","0.2152837516","0.4883026933","0.7490977197","","","","","","","","","","72","H","0","img/none_selected.jpg","","74","main_expt","",""
"","bandit","158","672692","0.0-116.0-0.0","45001093","wem/bandit_party_2","A26UTJ26B5YUKQ","either","6","476","","","","","","","1","0","0","0.613630376","","0.8","0.2","0.4","0.6","","","","","0.613630376","0.2044775694","0.4914171484","0.7554087461","","","","","","","","","","72","H","0","img/none_selected.jpg","","75","main_expt","",""
"","bandit","159","674622","0.0-117.0-0.0","45001093","wem/bandit_party_2","A26UTJ26B5YUKQ","either","6","408","","","","","","","1","0","0","0.7047266053","","0.8","0.2","0.4","0.6","","","","","0.7047266053","0.2247613499","0.6059218973","0.804443878","","","","","","","","","","72","H","0","img/none_selected.jpg","","76","main_expt","",""
"","bandit","160","676502","0.0-118.0-0.0","45001093","wem/bandit_party_2","A26UTJ26B5YUKQ","either","6","357","","","","","","","0","0","1","0.6910360943","","0.8","0.2","0.4","0.6","","","","","0.6910360943","0.2266335256","0.553792366","0.6656620098","","","","","","","","","","72","H","0","img/none_selected.jpg","","77","main_expt","",""
"","bandit","161","679100","0.0-119.0-0.0","45001093","wem/bandit_party_2","A26UTJ26B5YUKQ","either","6","1072","","","","","","","0","0","1","0.5515992215","","0.8","0.2","0.4","0.6","","","","","0.5515992215","0.1659731505","0.6884193839","0.5898140708","","","","","","","","","","72","H","0","img/none_selected.jpg","","78","main_expt","",""
"","bandit","162","680972","0.0-120.0-0.0","45001093","wem/bandit_party_2","A26UTJ26B5YUKQ","either","6","350","","","","","","","1","0","0","0.6448399581","","0.8","0.2","0.4","0.6","","","","","0.6448399581","0.2343921172","0.7214277645","0.613215191","","","","","","","","","","72","H","0","img/none_selected.jpg","","79","main_expt","",""
"","bandit","163","682904","0.0-121.0-0.0","45001093","wem/bandit_party_2","A26UTJ26B5YUKQ","either","6","405","","","","","","","1","0","0","0.739479497","","0.8","0.2","0.4","0.6","","","","","0.739479497","0.2164054515","0.7328142644","0.4605925783","","","","","","","","","","72","H","0","img/none_selected.jpg","","80","main_expt","",""
"","bandit","164","685391","0.0-122.0-0.0","45001093","wem/bandit_party_2","A26UTJ26B5YUKQ","either","6","967","","","","","","","1","0","0","0.6956071838","","0.8","0.2","0.4","0.6","","","","","0.6956071838","0.1361232007","0.7101675561","0.5390789087","","","","","","","","","","72","H","0","img/none_selected.jpg","","81","main_expt","",""
"","bandit","165","687248","0.0-123.0-0.0","45001093","wem/bandit_party_2","A26UTJ26B5YUKQ","either","6","328","","","","","","","1","0","0","0.5886517937","","0.8","0.2","0.4","0.6","","","","","0.5886517937","0.2275447725","0.6984384541","0.621290364","","","","","","","","","","72","H","0","img/none_selected.jpg","","82","main_expt","",""
"","bandit","166","689146","0.0-124.0-0.0","45001093","wem/bandit_party_2","A26UTJ26B5YUKQ","either","6","372","","","","","","","0","1","0","","0.4764182235","0.8","0.2","0.4","0.6","0.4764182235","0.1900607051","0.7447883659","0.6359424421","","","","","","","","","","","","","","72","H","0","img/none_selected.jpg","","83","main_expt","",""
"","bandit","167","691155","0.0-125.0-0.0","45001093","wem/bandit_party_2","A26UTJ26B5YUKQ","either","6","475","","","","","","","0","0","1","","0.5149027494","0.8","0.2","0.4","0.6","0.5149027494","0.1306868958","0.6900592863","0.6133664729","","","","","","","","","","","","","","72","H","0","img/none_selected.jpg","","84","main_expt","",""
"","bandit","168","693064","0.0-126.0-0.0","45001093","wem/bandit_party_2","A26UTJ26B5YUKQ","either","6","378","","","","","","","1","0","0","0.4908067213","","0.8","0.2","0.4","0.6","","","","","0.4908067213","0.1683201849","0.7010597455","0.7815463305","","","","","","","","","","72","H","0","img/none_selected.jpg","","85","main_expt","",""
"","bandit","169","694969","0.0-127.0-0.0","45001093","wem/bandit_party_2","A26UTJ26B5YUKQ","either","6","378","","","","","","","0","0","1","0.4139472458","","0.8","0.2","0.4","0.6","","","","","0.4139472458","0.1290314955","0.6171062652","0.7355789231","","","","","","","","","","72","H","0","img/none_selected.jpg","","86","main_expt","",""
"","bandit","170","696542","0.0-128.0-0.0","45001093","wem/bandit_party_2","A26UTJ26B5YUKQ","either","6","43","","","","","","","0","0","1","","0.4253818619","0.8","0.2","0.4","0.6","0.4253818619","0.2297537383","0.5629375242","0.7267399876","","","","","","","","","","","","","","72","H","0","img/none_selected.jpg","","87","main_expt","",""
"","bandit","171","698427","0.0-129.0-0.0","45001093","wem/bandit_party_2","A26UTJ26B5YUKQ","either","6","370","","","","","","","0","0","1","","0.1878263516","0.8","0.2","0.4","0.6","0.4448862761","0.1878263516","0.6434443074","0.7703195612","","","","","","","","","","","","","","74","J","1","","","88","main_expt","",""
"","bandit","172","700425","0.0-130.0-0.0","45001093","wem/bandit_party_2","A26UTJ26B5YUKQ","either","6","471","","","","","","","0","1","0","","0.7296698787","0.8","0.2","0.4","0.6","0.4295642349","0.1896964823","0.7296698787","0.81872988","","","","","","","","","","","","","","75","K","2","","","89","main_expt","",""
"","bandit","173","702587","0.0-131.0-0.0","45001093","wem/bandit_party_2","A26UTJ26B5YUKQ","either","6","639","","","","","","","0","1","0","","0.7042864347","0.8","0.2","0.4","0.6","0.3655203192","0.1614970172","0.7042864347","0.8032570632","","","","","","","","","","","","","","75","K","2","","","90","main_expt","",""
"","bandit","174","704816","0.0-132.0-0.0","45001093","wem/bandit_party_2","A26UTJ26B5YUKQ","either","6","697","","","","","","","1","0","0","0.7606559624","","0.8","0.2","0.4","0.6","","","","","0.402428746","0.2107705911","0.7606559624","0.8257352781","","","","","","","","","","75","K","2","","","91","main_expt","",""
"","bandit","175","706812","0.0-133.0-0.0","45001093","wem/bandit_party_2","A26UTJ26B5YUKQ","either","6","472","","","","","","","1","0","0","0.8466818248","","0.8","0.2","0.4","0.6","","","","","0.452733603","0.1317951273","0.8466818248","0.7762210657","","","","","","","","","","75","K","2","","","92","main_expt","",""
"","bandit","176","708789","0.0-134.0-0.0","45001093","wem/bandit_party_2","A26UTJ26B5YUKQ","either","6","443","","","","","","","1","0","0","0.8181600593","","0.8","0.2","0.4","0.6","","","","","0.5416456901","0.09268613222","0.8181600593","0.8293629201","","","","","","","","","","75","K","2","","","93","main_expt","",""
"","bandit","177","710724","0.0-135.0-0.0","45001093","wem/bandit_party_2","A26UTJ26B5YUKQ","either","6","406","","","","","","","1","0","0","0.7259749053","","0.8","0.2","0.4","0.6","","","","","0.5246039132","0.06418168538","0.7259749053","0.7849393417","","","","","","","","","","75","K","2","","","94","main_expt","",""
"","bandit","178","712612","0.0-136.0-0.0","45001093","wem/bandit_party_2","A26UTJ26B5YUKQ","either","6","361","","","","","","","0","1","0","","0.6538641892","0.8","0.2","0.4","0.6","0.606801291","0.100072779","0.6538641892","0.7850226125","","","","","","","","","","","","","","75","K","2","","","95","main_expt","",""
"","bandit","179","714566","0.0-137.0-0.0","45001093","wem/bandit_party_2","A26UTJ26B5YUKQ","either","6","427","","","","","","","1","0","0","0.6384360591","","0.8","0.2","0.4","0.6","","","","","0.7175242067","0.09628221604","0.6384360591","0.8013150942","","","","","","","","","","75","K","2","","","96","main_expt","",""
"","bandit","180","716565","0.0-138.0-0.0","45001093","wem/bandit_party_2","A26UTJ26B5YUKQ","either","6","473","","","","","","","0","1","0","","0.6836118029","0.8","0.2","0.4","0.6","0.7706560561","0.1335622201","0.6836118029","0.70340399","","","","","","","","","","","","","","75","K","2","","","97","main_expt","",""
"","bandit","181","718566","0.0-139.0-0.0","45001093","wem/bandit_party_2","A26UTJ26B5YUKQ","either","6","476","","","","","","","1","0","0","0.659457158","","0.8","0.2","0.4","0.6","","","","","0.7234704616","0.167202632","0.659457158","0.7562517051","","","","","","","","","","75","K","2","","","98","main_expt","",""
"","bandit","182","720563","0.0-140.0-0.0","45001093","wem/bandit_party_2","A26UTJ26B5YUKQ","either","6","473","","","","","","","0","0","1","0.7726162223","","0.8","0.2","0.4","0.6","","","","","0.6582042781","0.1216125457","0.7726162223","0.6514659141","","","","","","","","","","75","K","2","","","99","main_expt","",""
"","bandit","183","722149","0.0-141.0-0.0","45001093","wem/bandit_party_2","A26UTJ26B5YUKQ","either","6","61","","","","","","","0","0","1","","0.8446518706","0.8","0.2","0.4","0.6","0.6530973887","0.1163239148","0.8446518706","0.7112237606","","","","","","","","","","","","","","75","K","2","","","100","main_expt","",""
"","bandit","184","724731","0.0-142.0-0.0","45001093","wem/bandit_party_2","A26UTJ26B5YUKQ","either","6","1059","","","","","","","0","1","0","","0.8784151442","0.8","0.2","0.4","0.6","0.6690961394","0.1037928869","0.8784151442","0.6865981462","","","","","","","","","","","","","","75","K","2","","","101","main_expt","",""
"","bandit","185","726573","0.0-143.0-0.0","45001093","wem/bandit_party_2","A26UTJ26B5YUKQ","either","6","316","","","","","","","0","1","0","","0.8781202538","0.8","0.2","0.4","0.6","0.6268844929","0.0991068806","0.8781202538","0.6663704066","","","","","","","","","","","","","","75","K","2","","","102","main_expt","",""
"","bandit","186","728467","0.0-144.0-0.0","45001093","wem/bandit_party_2","A26UTJ26B5YUKQ","either","6","368","","","","","","","0","1","0","","0.8123732176","0.8","0.2","0.4","0.6","0.6657789595","0.1226752409","0.8123732176","0.6006744832","","","","","","","","","","","","","","75","K","2","","","103","main_expt","",""
"","bandit","187","730149","0.0-145.0-0.0","45001093","wem/bandit_party_2","A26UTJ26B5YUKQ","either","6","156","","","","","","","0","1","0","","0.8461937008","0.8","0.2","0.4","0.6","0.6951589836","0.1552466415","0.8461937008","0.518723913","","","","","","","","","","","","","","75","K","2","","","104","main_expt","",""
"","bandit","188","732468","0.0-146.0-0.0","45001093","wem/bandit_party_2","A26UTJ26B5YUKQ","either","6","791","","","","","","","1","0","0","0.8664825842","","0.8","0.2","0.4","0.6","","","","","0.6382729445","0.1702138509","0.8664825842","0.5343999165","","","","","","","","","","75","K","2","","","105","main_expt","",""
"","bandit","189","735465","0.0-147.0-0.0","45001093","wem/bandit_party_2","A26UTJ26B5YUKQ","either","6","1474","","","","","","","0","1","0","","0.8703997655","0.8","0.2","0.4","0.6","0.7139624249","0.2021425125","0.8703997655","0.4959998489","","","","","","","","","","","","","","75","K","2","","","106","main_expt","",""
"","bandit","190","737182","0.0-148.0-0.0","45001093","wem/bandit_party_2","A26UTJ26B5YUKQ","either","6","204","","","","","","","1","0","0","0.8964314806","","0.8","0.2","0.4","0.6","","","","","0.7718136471","0.2196373816","0.8964314806","0.5052663648","","","","","","","","","","75","K","2","","","107","main_expt","",""
"","bandit","191","739132","0.0-149.0-0.0","45001093","wem/bandit_party_2","A26UTJ26B5YUKQ","either","6","436","","","","","","","1","0","0","0.9080126319","","0.8","0.2","0.4","0.6","","","","","0.8818715302","0.2393661099","0.9080126319","0.4859582203","","","","","","","","","","75","K","2","","","108","main_expt","",""
"","bandit","192","740887","0.0-150.0-0.0","45001093","wem/bandit_party_2","A26UTJ26B5YUKQ","either","6","240","","","","","","","1","0","0","0.8880845243","","0.8","0.2","0.4","0.6","","","","","0.8757741924","0.2516352594","0.8880845243","0.523617738","","","","","","","","","","75","K","2","","","109","main_expt","",""
"","bandit","193","742418","0.0-151.0-0.0","45001093","wem/bandit_party_2","A26UTJ26B5YUKQ","either","6","18","","","","","","","1","0","0","0.899251136","","0.8","0.2","0.4","0.6","","","","","0.8657151097","0.2424291788","0.899251136","0.5492010791","","","","","","","","","","75","K","2","","","110","main_expt","",""
"","bandit","194","744118","0.0-152.0-0.0","45001093","wem/bandit_party_2","A26UTJ26B5YUKQ","either","6","187","","","","","","","0","1","0","","0.9019514556","0.8","0.2","0.4","0.6","0.8457624762","0.2033086481","0.9019514556","0.5467154696","","","","","","","","","","","","","","75","K","2","","","111","main_expt","",""
"","bandit","195","745750","0.0-153.0-0.0","45001093","wem/bandit_party_2","A26UTJ26B5YUKQ","either","6","119","","","","","","","1","0","0","0.9315537639","","0.8","0.2","0.4","0.6","","","","","0.8756116827","0.208613213","0.9315537639","0.5396215981","","","","","","","","","","75","K","2","","","112","main_expt","",""
"","bandit","196","747485","0.0-154.0-0.0","45001093","wem/bandit_party_2","A26UTJ26B5YUKQ","either","6","221","","","","","","","0","1","0","","0.9254394702","0.8","0.2","0.4","0.6","0.8773181328","0.2743958833","0.9254394702","0.5542875214","","","","","","","","","","","","","","75","K","2","","","113","main_expt","",""
"","bandit","197","749208","0.0-155.0-0.0","45001093","wem/bandit_party_2","A26UTJ26B5YUKQ","either","6","198","","","","","","","0","1","0","","0.9394904604","0.8","0.2","0.4","0.6","0.8842236373","0.2657329006","0.9394904604","0.6411428718","","","","","","","","","","","","","","75","K","2","","","114","main_expt","",""
"","bandit","198","751253","0.0-156.0-0.0","45001093","wem/bandit_party_2","A26UTJ26B5YUKQ","either","6","503","","","","","","","1","0","0","0.9533355239","","0.8","0.2","0.4","0.6","","","","","0.8499121835","0.3234316928","0.9533355239","0.7261400339","","","","","","","","","","75","K","2","","","115","main_expt","",""
"","bandit","199","753567","0.0-157.0-0.0","45001093","wem/bandit_party_2","A26UTJ26B5YUKQ","either","6","789","","","","","","","1","0","0","0.960842596","","0.8","0.2","0.4","0.6","","","","","0.7890056153","0.3625587123","0.960842596","0.7395407697","","","","","","","","","","75","K","2","","","116","main_expt","",""
"","bandit","200","755486","0.0-158.0-0.0","45001093","wem/bandit_party_2","A26UTJ26B5YUKQ","either","6","396","","","","","","","1","0","0","0.937733065","","0.8","0.2","0.4","0.6","","","","","0.7709890197","0.4946904956","0.937733065","0.8231731708","","","","","","","","","","75","K","2","","","117","main_expt","",""
"","bandit","201","757487","0.0-159.0-0.0","45001093","wem/bandit_party_2","A26UTJ26B5YUKQ","either","6","474","","","","","","","0","1","0","","0.9561499645","0.8","0.2","0.4","0.6","0.7459937787","0.6246330079","0.9561499645","0.8278750807","","","","","","","","","","","","","","75","K","2","","","118","main_expt","",""
"","bandit","202","759066","0.0-160.0-0.0","45001093","wem/bandit_party_2","A26UTJ26B5YUKQ","either","6","55","","","","","","","0","1","0","","0.9595118281","0.8","0.2","0.4","0.6","0.716881491","0.5818097722","0.9595118281","0.8715827524","","","","","","","","","","","","","","75","K","2","","","119","main_expt","",""
"","bandit","203","762132","0.0-161.0-0.0","45001093","wem/bandit_party_2","A26UTJ26B5YUKQ","either","6","1538","","","","","","","0","1","0","","0.9548463758","0.8","0.2","0.4","0.6","0.6595649419","0.5990025551","0.9548463758","0.8522670476","","","","","","","","","","","","","","75","K","2","","","120","main_expt","",""
"","bandit","204","764159","0.0-162.0-0.0","45001093","wem/bandit_party_2","A26UTJ26B5YUKQ","either","6","502","","","","","","","1","0","0","0.958085665","","0.8","0.2","0.4","0.6","","","","","0.6576447048","0.6534424477","0.958085665","0.8266542562","","","","","","","","","","75","K","2","","","121","main_expt","",""
"","bandit","205","766240","0.0-163.0-0.0","45001093","wem/bandit_party_2","A26UTJ26B5YUKQ","either","6","549","","","","","","","0","1","0","","0.9630601427","0.8","0.2","0.4","0.6","0.6391957719","0.5952731017","0.9630601427","0.81688531","","","","","","","","","","","","","","75","K","2","","","122","main_expt","",""
"","bandit","206","770226","0.0-164.0-0.0","45001093","wem/bandit_party_2","A26UTJ26B5YUKQ","either","6","2468","","","","","","","1","0","0","0.9790283764","","0.8","0.2","0.4","0.6","","","","","0.5873908865","0.6469086187","0.9790283764","0.8307363081","","","","","","","","","","75","K","2","","","123","main_expt","",""
"","bandit","207","771842","0.0-165.0-0.0","45001093","wem/bandit_party_2","A26UTJ26B5YUKQ","either","6","97","","","","","","","0","1","0","","0.9718765302","0.8","0.2","0.4","0.6","0.6592760984","0.6911454426","0.9718765302","0.6943824695","","","","","","","","","","","","","","75","K","2","","","124","main_expt","",""
"","bandit","208","775035","0.0-166.0-0.0","45001093","wem/bandit_party_2","A26UTJ26B5YUKQ","either","6","1663","","","","","","","0","1","0","","0.9845173964","0.8","0.2","0.4","0.6","0.6012083746","0.750572215","0.9845173964","0.7137568944","","","","","","","","","","","","","","75","K","2","","","125","main_expt","",""
"","bandit","209","776623","0.0-167.0-0.0","45001093","wem/bandit_party_2","A26UTJ26B5YUKQ","either","6","58","","","","","","","1","0","0","0.9804670004","","0.8","0.2","0.4","0.6","","","","","0.6043440275","0.8108432581","0.9804670004","0.6878742658","","","","","","","","","","75","K","2","","","126","main_expt","",""
"","bandit","210","779704","0.0-168.0-0.0","45001093","wem/bandit_party_2","A26UTJ26B5YUKQ","either","6","1564","","","","","","","0","1","0","","0.9792667249","0.8","0.2","0.4","0.6","0.5043142332","0.8338196277","0.9792667249","0.6175454059","","","","","","","","","","","","","","75","K","2","","","127","main_expt","",""
"","bandit","211","783076","0.0-169.0-0.0","45001093","wem/bandit_party_2","A26UTJ26B5YUKQ","either","6","1841","","","","","","","0","1","0","","0.9853815399","0.8","0.2","0.4","0.6","0.5778209799","0.8624128669","0.9853815399","0.5556505876","","","","","","","","","","","","","","75","K","2","","","128","main_expt","",""
"","bandit","212","785076","0.0-170.0-0.0","45001093","wem/bandit_party_2","A26UTJ26B5YUKQ","either","6","472","","","","","","","0","1","0","","0.9838319732","0.8","0.2","0.4","0.6","0.5806273004","0.9026068167","0.9838319732","0.5948532478","","","","","","","","","","","","","","75","K","2","","","129","main_expt","",""
"","bandit","213","786709","0.0-171.0-0.0","45001093","wem/bandit_party_2","A26UTJ26B5YUKQ","either","6","105","","","","","","","0","1","0","","0.9798768453","0.8","0.2","0.4","0.6","0.4152233618","0.8983636673","0.9798768453","0.6646968067","","","","","","","","","","","","","","75","K","2","","","130","main_expt","",""
"","bandit","214","790544","0.0-172.0-0.0","45001093","wem/bandit_party_2","A26UTJ26B5YUKQ","either","6","2308","","","","","","","1","0","0","0.9628017066","","0.8","0.2","0.4","0.6","","","","","0.4527057242","0.888478962","0.9628017066","0.6676177377","","","","","","","","","","75","K","2","","","131","main_expt","",""
"","bandit","215","793444","0.0-173.0-0.0","45001093","wem/bandit_party_2","A26UTJ26B5YUKQ","either","6","1373","","","","","","","0","0","1","","0.9723970119","0.8","0.2","0.4","0.6","0.5185753891","0.8470567254","0.9723970119","0.7638630926","","","","","","","","","","","","","","75","K","2","","","132","main_expt","",""
"","bandit","216","795131","0.0-174.0-0.0","45001093","wem/bandit_party_2","A26UTJ26B5YUKQ","either","6","159","","","","","","","1","0","0","0.9754432393","","0.8","0.2","0.4","0.6","","","","","0.4567386081","0.8852081265","0.9754432393","0.726350598","","","","","","","","","","75","K","2","","","133","main_expt","",""
"","bandit","217","796805","0.0-175.0-0.0","45001093","wem/bandit_party_2","A26UTJ26B5YUKQ","either","6","143","","","","","","","0","1","0","","0.9635376407","0.8","0.2","0.4","0.6","0.4494056808","0.8317422298","0.9635376407","0.7638059904","","","","","","","","","","","","","","75","K","2","","","134","main_expt","",""
"","bandit","218","798613","0.0-176.0-0.0","45001093","wem/bandit_party_2","A26UTJ26B5YUKQ","either","6","283","","","","","","","1","0","0","0.9304273523","","0.8","0.2","0.4","0.6","","","","","0.4608562393","0.8121858422","0.9304273523","0.7337835984","","","","","","","","","","75","K","2","","","135","main_expt","",""
"","bandit","219","800173","0.0-177.0-0.0","45001093","wem/bandit_party_2","A26UTJ26B5YUKQ","either","6","28","","","","","","","0","1","0","","0.9295592062","0.8","0.2","0.4","0.6","0.6684020244","0.8473276522","0.9295592062","0.7869055623","","","","","","","","","","","","","","75","K","2","","","136","main_expt","",""
"","bandit","220","801763","0.0-178.0-0.0","45001093","wem/bandit_party_2","A26UTJ26B5YUKQ","either","6","69","","","","","","","0","1","0","","0.9343332129","0.8","0.2","0.4","0.6","0.614137061","0.8251243182","0.9343332129","0.8033651193","","","","","","","","","","","","","","75","K","2","","","137","main_expt","",""
"","bandit","221","803444","0.0-179.0-0.0","45001093","wem/bandit_party_2","A26UTJ26B5YUKQ","either","6","167","","","","","","","0","1","0","","0.9325781127","0.8","0.2","0.4","0.6","0.711021659","0.7892590299","0.9325781127","0.7620089345","","","","","","","","","","","","","","75","K","2","","","138","main_expt","",""
"","bandit","222","805577","0.0-180.0-0.0","45001093","wem/bandit_party_2","A26UTJ26B5YUKQ","either","6","607","","","","","","","0","1","0","","0.9687763229","0.8","0.2","0.4","0.6","0.5731932267","0.753698647","0.9687763229","0.8098853196","","","","","","","","","","","","","","75","K","2","","","139","main_expt","",""
"","bandit","223","808363","0.0-181.0-0.0","45001093","wem/bandit_party_2","A26UTJ26B5YUKQ","either","6","1258","","","","","","","1","0","0","0.9520204639","","0.8","0.2","0.4","0.6","","","","","0.6553783698","0.7281837229","0.9520204639","0.8737133651","","","","","","","","","","75","K","2","","","140","main_expt","",""
"","bandit","224","809950","0.0-182.0-0.0","45001093","wem/bandit_party_2","A26UTJ26B5YUKQ","either","6","60","","","","","","","0","1","0","","0.9615613541","0.8","0.2","0.4","0.6","0.5665224918","0.7913145473","0.9615613541","0.8464817719","","","","","","","","","","","","","","75","K","2","","","141","main_expt","",""
"","bandit","225","811704","0.0-183.0-0.0","45001093","wem/bandit_party_2","A26UTJ26B5YUKQ","either","6","238","","","","","","","0","1","0","","0.9438722422","0.8","0.2","0.4","0.6","0.5230460729","0.7498898283","0.9438722422","0.8457688645","","","","","","","","","","","","","","75","K","2","","","142","main_expt","",""
"","bandit","226","813799","0.0-184.0-0.0","45001093","wem/bandit_party_2","A26UTJ26B5YUKQ","either","6","566","","","","","","","0","1","0","","0.9419241064","0.8","0.2","0.4","0.6","0.5401897842","0.723110339","0.9419241064","0.8801682128","","","","","","","","","","","","","","75","K","2","","","143","main_expt","",""
"","bandit","227","815527","0.0-185.0-0.0","45001093","wem/bandit_party_2","A26UTJ26B5YUKQ","either","6","193","","","","","","","1","0","0","0.9383966058","","0.8","0.2","0.4","0.6","","","","","0.5495292383","0.7697142539","0.9383966058","0.7806105972","","","","","","","","","","75","K","2","","","144","main_expt","",""
"","bandit","228","817306","0.0-186.0-0.0","45001093","wem/bandit_party_2","A26UTJ26B5YUKQ","either","6","257","","","","","","","0","1","0","","0.9442204223","0.8","0.2","0.4","0.6","0.4718854897","0.8279494337","0.9442204223","0.7384744451","","","","","","","","","","","","","","75","K","2","","","145","main_expt","",""
"","bandit","229","819522","0.0-187.0-0.0","45001093","wem/bandit_party_2","A26UTJ26B5YUKQ","either","6","685","","","","","","","0","1","0","","0.9461270134","0.8","0.2","0.4","0.6","0.3790577705","0.747104877","0.9461270134","0.7078417075","","","","","","","","","","","","","","75","K","2","","","146","main_expt","",""
"","bandit","230","821541","0.0-188.0-0.0","45001093","wem/bandit_party_2","A26UTJ26B5YUKQ","either","6","497","","","","","","","0","1","0","","0.9677113618","0.8","0.2","0.4","0.6","0.3671333747","0.7635883185","0.9677113618","0.7671729372","","","","","","","","","","","","","","75","K","2","","","147","main_expt","",""
"","bandit","231","823812","0.0-189.0-0.0","45001093","wem/bandit_party_2","A26UTJ26B5YUKQ","either","6","744","","","","","","","1","0","0","0.9603287673","","0.8","0.2","0.4","0.6","","","","","0.4462771912","0.6650729927","0.9603287673","0.7515071201","","","","","","","","","","75","K","2","","","148","main_expt","",""
"","bandit","232","826017","0.0-190.0-0.0","45001093","wem/bandit_party_2","A26UTJ26B5YUKQ","either","6","674","","","","","","","0","0","1","","0.9256305183","0.8","0.2","0.4","0.6","0.3929125452","0.594527628","0.9256305183","0.7582160768","","","","","","","","","","","","","","75","K","2","","","149","main_expt","",""
"","bandit","233","828399","0.0-191.0-0.0","45001093","wem/bandit_party_2","A26UTJ26B5YUKQ","either","6","849","","","","","","","1","0","0","0.9222609783","","0.8","0.2","0.4","0.6","","","","","0.3825194633","0.5101412162","0.9222609783","0.6843302658","","","","","","","","","","75","K","2","","","150","main_expt","",""
"","bandit","234","830937","0.0-192.0-0.0","45001093","wem/bandit_party_2","A26UTJ26B5YUKQ","either","6","1006","","","","","","","0","1","0","","0.9522131909","0.8","0.2","0.4","0.6","0.3889652011","0.5755011036","0.9522131909","0.4980827124","","","","","","","","","","","","","","75","K","2","","","151","main_expt","",""
"","bandit","235","833245","0.0-193.0-0.0","45001093","wem/bandit_party_2","A26UTJ26B5YUKQ","either","6","777","","","","","","","0","1","0","","0.9351777179","0.8","0.2","0.4","0.6","0.372169082","0.5415628766","0.9351777179","0.5418861514","","","","","","","","","","","","","","75","K","2","","","152","main_expt","",""
"","bandit","236","835200","0.0-194.0-0.0","45001093","wem/bandit_party_2","A26UTJ26B5YUKQ","either","6","426","","","","","","","0","1","0","","0.9526549669","0.8","0.2","0.4","0.6","0.4275919172","0.6392888902","0.9526549669","0.6424708626","","","","","","","","","","","","","","75","K","2","","","153","main_expt","",""
"","bandit","237","838117","0.0-195.0-0.0","45001093","wem/bandit_party_2","A26UTJ26B5YUKQ","either","6","1391","","","","","","","0","1","0","","0.944677936","0.8","0.2","0.4","0.6","0.3978897223","0.6798835142","0.944677936","0.6200403258","","","","","","","","","","","","","","75","K","2","","","154","main_expt","",""
"","bandit","238","839805","0.0-196.0-0.0","45001093","wem/bandit_party_2","A26UTJ26B5YUKQ","either","6","158","","","","","","","0","1","0","","0.9443948233","0.8","0.2","0.4","0.6","0.4922143253","0.7376683638","0.9443948233","0.5087788092","","","","","","","","","","","","","","75","K","2","","","155","main_expt","",""
"","bandit","239","843395","0.0-197.0-0.0","45001093","wem/bandit_party_2","A26UTJ26B5YUKQ","either","6","2055","","","","","","","1","0","0","0.9312029685","","0.8","0.2","0.4","0.6","","","","","0.5060601407","0.7740838489","0.9312029685","0.4397360723","","","","","","","","","","75","K","2","","","156","main_expt","",""
"","bandit","240","847175","0.0-198.0-0.0","45001093","wem/bandit_party_2","A26UTJ26B5YUKQ","either","6","2252","","","","","","","0","1","0","","0.9009413449","0.8","0.2","0.4","0.6","0.56460533","0.7526352547","0.9009413449","0.4529934193","","","","","","","","","","","","","","75","K","2","","","157","main_expt","",""
"","bandit","241","849279","0.0-199.0-0.0","45001093","wem/bandit_party_2","A26UTJ26B5YUKQ","either","6","574","","","","","","","0","1","0","","0.8799225656","0.8","0.2","0.4","0.6","0.5551408743","0.807066173","0.8799225656","0.522014142","","","","","","","","","","","","","","75","K","2","","","158","main_expt","",""
"","bandit","242","850861","0.0-200.0-0.0","45001093","wem/bandit_party_2","A26UTJ26B5YUKQ","either","6","49","","","","","","","0","1","0","","0.9103166083","0.8","0.2","0.4","0.6","0.6362487126","0.8348587906","0.9103166083","0.447178695","","","","","","","","","","","","","","75","K","2","","","159","main_expt","",""
"","bandit","243","852459","0.0-201.0-0.0","45001093","wem/bandit_party_2","A26UTJ26B5YUKQ","either","6","75","","","","","","","1","0","0","0.9575168601","","0.8","0.2","0.4","0.6","","","","","0.5818198138","0.8054329593","0.9575168601","0.4293784973","","","","","","","","","","75","K","2","","","160","main_expt","",""
"","bandit","244","854433","0.0-202.0-0.0","45001093","wem/bandit_party_2","A26UTJ26B5YUKQ","either","6","438","","","","","","","1","0","0","0.9323430526","","0.8","0.2","0.4","0.6","","","","","0.5079421761","0.8263011938","0.9323430526","0.4263694152","","","","","","","","","","75","K","2","","","161","main_expt","",""
"","bandit","245","856488","0.0-203.0-0.0","45001093","wem/bandit_party_2","A26UTJ26B5YUKQ","either","6","530","","","","","","","1","0","0","0.8731035433","","0.8","0.2","0.4","0.6","","","","","0.3944353318","0.8468561623","0.8731035433","0.4394756583","","","","","","","","","","75","K","2","","","162","main_expt","",""
"","bandit","246","858370","0.0-204.0-0.0","45001093","wem/bandit_party_2","A26UTJ26B5YUKQ","either","6","348","","","","","","","0","1","0","","0.860239847","0.8","0.2","0.4","0.6","0.4560534757","0.866861138","0.860239847","0.4632532181","","","","","","","","","","","","","","75","K","2","","","163","main_expt","",""
"","bandit","247","860041","0.0-205.0-0.0","45001093","wem/bandit_party_2","A26UTJ26B5YUKQ","either","6","139","","","","","","","0","1","0","","0.8327160304","0.8","0.2","0.4","0.6","0.4338988853","0.8621839131","0.8327160304","0.469091439","","","","","","","","","","","","","","75","K","2","","","164","main_expt","",""
"","bandit","248","861607","0.0-206.0-0.0","45001093","wem/bandit_party_2","A26UTJ26B5YUKQ","either","6","43","","","","","","","0","1","0","","0.8780399083","0.8","0.2","0.4","0.6","0.3640020004","0.8368369455","0.8780399083","0.4691854483","","","","","","","","","","","","","","75","K","2","","","165","main_expt","",""
"","bandit","249","931712","0.0-207.0-0.0","45001093","wem/bandit_party_2","A26UTJ26B5YUKQ","either","6","68577","","","","","","","1","0","0","0.4433911144","","0.8","0.2","0.4","0.6","","","","","0.4433911144","0.8543831227","0.8659509199","0.424594696","","","","","","","","","","72","H","0","img/none_selected.jpg","","166","main_expt","",""
"","bandit","250","933802","0.0-208.0-0.0","45001093","wem/bandit_party_2","A26UTJ26B5YUKQ","either","6","559","","","","","","","0","0","1","0.4852122499","","0.8","0.2","0.4","0.6","","","","","0.4852122499","0.8444257961","0.8458676595","0.4691217736","","","","","","","","","","72","H","0","img/none_selected.jpg","","167","main_expt","",""
"","bandit","251","937051","0.0-209.0-0.0","45001093","wem/bandit_party_2","A26UTJ26B5YUKQ","either","6","1715","","","","","","","0","0","1","0.4829488348","","0.8","0.2","0.4","0.6","","","","","0.4829488348","0.8895061166","0.7368025647","0.4605946041","","","","","","","","","","72","H","0","img/none_selected.jpg","","168","main_expt","",""
"","bandit","252","938908","0.0-210.0-0.0","45001093","wem/bandit_party_2","A26UTJ26B5YUKQ","either","6","326","","","","","","","0","0","1","","0.467087579","0.8","0.2","0.4","0.6","0.467087579","0.8980662015","0.6811301937","0.4302520818","","","","","","","","","","","","","","72","H","0","img/none_selected.jpg","","169","main_expt","",""
"","bandit","253","941891","0.0-211.0-0.0","45001093","wem/bandit_party_2","A26UTJ26B5YUKQ","either","6","1455","","","","","","","0","1","0","","0.9399190154","0.8","0.2","0.4","0.6","0.3575164989","0.9399190154","0.6781719117","0.3846086554","","","","","","","","","","","","","","74","J","1","","","170","main_expt","",""
"","bandit","254","944000","0.0-212.0-0.0","45001093","wem/bandit_party_2","A26UTJ26B5YUKQ","either","6","577","","","","","","","0","1","0","","0.9199626721","0.8","0.2","0.4","0.6","0.3433755155","0.9199626721","0.5779776893","0.4938912128","","","","","","","","","","","","","","74","J","1","","","171","main_expt","",""
"","bandit","255","945930","0.0-213.0-0.0","45001093","wem/bandit_party_2","A26UTJ26B5YUKQ","either","6","387","","","","","","","0","0","1","0.8885959212","","0.8","0.2","0.4","0.6","","","","","0.2921203137","0.8885959212","0.5461867433","0.5409242696","","","","","","","","","","74","J","1","","","172","main_expt","",""
"","bandit","256","948454","0.0-214.0-0.0","45001093","wem/bandit_party_2","A26UTJ26B5YUKQ","either","6","994","","","","","","","1","0","0","0.8502068985","","0.8","0.2","0.4","0.6","","","","","0.3237382503","0.8502068985","0.5898781272","0.4899310385","","","","","","","","","","74","J","1","","","173","main_expt","",""
"","bandit","257","950541","0.0-215.0-0.0","45001093","wem/bandit_party_2","A26UTJ26B5YUKQ","either","6","555","","","","","","","1","0","0","0.9054067092","","0.8","0.2","0.4","0.6","","","","","0.2935635685","0.9054067092","0.5990225055","0.4464532747","","","","","","","","","","74","J","1","","","174","main_expt","",""
"","bandit","258","952748","0.0-216.0-0.0","45001093","wem/bandit_party_2","A26UTJ26B5YUKQ","either","6","677","","","","","","","0","1","0","","0.9096893241","0.8","0.2","0.4","0.6","0.2797951809","0.9096893241","0.6129624105","0.4363040476","","","","","","","","","","","","","","74","J","1","","","175","main_expt","",""
"","bandit","259","954506","0.0-217.0-0.0","45001093","wem/bandit_party_2","A26UTJ26B5YUKQ","either","6","231","","","","","","","0","1","0","","0.9081003197","0.8","0.2","0.4","0.6","0.2067270565","0.9081003197","0.5434192492","0.4198776974","","","","","","","","","","","","","","74","J","1","","","176","main_expt","",""
"","bandit","260","956658","0.0-218.0-0.0","45001093","wem/bandit_party_2","A26UTJ26B5YUKQ","either","6","620","","","","","","","0","1","0","","0.8417535431","0.8","0.2","0.4","0.6","0.19266164","0.8417535431","0.5893108522","0.4001478854","","","","","","","","","","","","","","74","J","1","","","177","main_expt","",""
"","bandit","261","960145","0.0-219.0-0.0","45001093","wem/bandit_party_2","A26UTJ26B5YUKQ","either","6","1942","","","","","","","0","0","1","","0.8045518304","0.8","0.2","0.4","0.6","0.1393448617","0.8045518304","0.4862463398","0.3015477047","","","","","","","","","","","","","","74","J","1","","","178","main_expt","",""
"","bandit","262","962690","0.0-220.0-0.0","45001093","wem/bandit_party_2","A26UTJ26B5YUKQ","either","6","1015","","","","","","","0","0","1","0.4227787996","","0.8","0.2","0.4","0.6","","","","","0.1149816072","0.8250115846","0.4227787996","0.2700131006","","","","","","","","","","75","K","2","","","179","main_expt","",""
"","bandit","263","964991","0.0-221.0-0.0","45001093","wem/bandit_party_2","A26UTJ26B5YUKQ","either","6","767","","","","","","","0","0","1","0.3473069","","0.8","0.2","0.4","0.6","","","","","0.1231561222","0.7418096358","0.3583368423","0.3473069","","","","","","","","","","76","L","3","","","180","main_expt","",""
"","bandit","264","967042","0.0-222.0-0.0","45001093","wem/bandit_party_2","A26UTJ26B5YUKQ","either","6","514","","","","","","","0","0","1","0.1134989143","","0.8","0.2","0.4","0.6","","","","","0.1134989143","0.7180260456","0.3820052134","0.3478804011","","","","","","","","","","72","H","0","img/none_selected.jpg","","181","main_expt","",""
"","bandit","265","970133","0.0-223.0-0.0","45001093","wem/bandit_party_2","A26UTJ26B5YUKQ","either","6","1559","","","","","","","0","1","0","","0.6777378447","0.8","0.2","0.4","0.6","0.07317944644","0.6777378447","0.437769555","0.3304981007","","","","","","","","","","","","","","74","J","1","","","182","main_expt","",""
"","bandit","266","972097","0.0-224.0-0.0","45001093","wem/bandit_party_2","A26UTJ26B5YUKQ","either","6","425","","","","","","","0","1","0","","0.6331465848","0.8","0.2","0.4","0.6","0.05085611098","0.6331465848","0.3951330089","0.2578466268","","","","","","","","","","","","","","74","J","1","","","183","main_expt","",""
"","bandit","267","973655","0.0-225.0-0.0","45001093","wem/bandit_party_2","A26UTJ26B5YUKQ","either","6","33","","","","","","","1","0","0","0.6578519513","","0.8","0.2","0.4","0.6","","","","","0.07152820202","0.6578519513","0.4062376343","0.3550464129","","","","","","","","","","74","J","1","","","184","main_expt","",""
"","bandit","268","975193","0.0-226.0-0.0","45001093","wem/bandit_party_2","A26UTJ26B5YUKQ","either","6","1","","","","","","","0","1","0","","0.7160298793","0.8","0.2","0.4","0.6","0.08814522307","0.7160298793","0.4035727276","0.2993299556","","","","","","","","","","","","","","74","J","1","","","185","main_expt","",""
"","bandit","269","978393","0.0-227.0-0.0","45001093","wem/bandit_party_2","A26UTJ26B5YUKQ","either","6","1669","","","","","","","0","1","0","","0.7081703269","0.8","0.2","0.4","0.6","0.0931487442","0.7081703269","0.4595565904","0.3985972224","","","","","","","","","","","","","","74","J","1","","","186","main_expt","",""
"","bandit","270","980907","0.0-228.0-0.0","45001093","wem/bandit_party_2","A26UTJ26B5YUKQ","either","6","984","","","","","","","0","0","1","","0.7670757258","0.8","0.2","0.4","0.6","0.05847154344","0.7670757258","0.4956959756","0.4563810555","","","","","","","","","","","","","","74","J","1","","","187","main_expt","",""
"","bandit","271","982728","0.0-229.0-0.0","45001093","wem/bandit_party_2","A26UTJ26B5YUKQ","either","6","288","","","","","","","1","0","0","0.4295585103","","0.8","0.2","0.4","0.6","","","","","0.05005107021","0.7986884496","0.4295585103","0.4621092719","","","","","","","","","","75","K","2","","","188","main_expt","",""
"","bandit","272","984803","0.0-230.0-0.0","45001093","wem/bandit_party_2","A26UTJ26B5YUKQ","either","6","554","","","","","","","0","0","1","0.4121259827","","0.8","0.2","0.4","0.6","","","","","0.05158958255","0.8113194514","0.4121259827","0.4214675273","","","","","","","","","","75","K","2","","","189","main_expt","",""
"","bandit","273","986780","0.0-231.0-0.0","45001093","wem/bandit_party_2","A26UTJ26B5YUKQ","either","6","448","","","","","","","0","1","0","","0.40505342","0.8","0.2","0.4","0.6","0.0530996007","0.8311477635","0.40505342","0.4445162903","","","","","","","","","","","","","","75","K","2","","","190","main_expt","",""
"","bandit","274","988565","0.0-232.0-0.0","45001093","wem/bandit_party_2","A26UTJ26B5YUKQ","either","6","267","","","","","","","0","0","1","0.3671493273","","0.8","0.2","0.4","0.6","","","","","0.05342003941","0.7941336253","0.3671493273","0.4077799102","","","","","","","","","","75","K","2","","","191","main_expt","",""
"","bandit","275","990593","0.0-233.0-0.0","45001093","wem/bandit_party_2","A26UTJ26B5YUKQ","either","6","492","","","","","","","0","1","0","","0.3367263454","0.8","0.2","0.4","0.6","0.05264216412","0.841847859","0.3367263454","0.413117206","","","","","","","","","","","","","","75","K","2","","","192","main_expt","",""
"","bandit","276","993250","0.0-234.0-0.0","45001093","wem/bandit_party_2","A26UTJ26B5YUKQ","either","6","1125","","","","","","","0","0","1","","0.2587514209","0.8","0.2","0.4","0.6","0.07418965368","0.865127625","0.2587514209","0.374663265","","","","","","","","","","","","","","75","K","2","","","193","main_expt","",""
"","bandit","277","994991","0.0-235.0-0.0","45001093","wem/bandit_party_2","A26UTJ26B5YUKQ","either","6","209","","","","","","","0","0","1","0.2792309937","","0.8","0.2","0.4","0.6","","","","","0.1148515542","0.8369883383","0.2123696513","0.2792309937","","","","","","","","","","76","L","3","","","194","main_expt","",""
"","bandit","278","996513","0.0-236.0-0.0","45001093","wem/bandit_party_2","A26UTJ26B5YUKQ","either","6","3","","","","","","","1","0","0","0.3090424304","","0.8","0.2","0.4","0.6","","","","","0.1102075851","0.8226177272","0.2551117677","0.3090424304","","","","","","","","","","76","L","3","","","195","main_expt","",""
"","bandit","279","999398","0.0-237.0-0.0","45001093","wem/bandit_party_2","A26UTJ26B5YUKQ","either","6","1351","","","","","","","0","0","1","0.2254203465","","0.8","0.2","0.4","0.6","","","","","0.09307195637","0.8759919892","0.2948177706","0.2254203465","","","","","","","","","","76","L","3","","","196","main_expt","",""
"","bandit","280","1002315","0.0-238.0-0.0","45001093","wem/bandit_party_2","A26UTJ26B5YUKQ","either","6","1392","","","","","","","0","0","1","0.2104085952","","0.8","0.2","0.4","0.6","","","","","0.08341332984","0.9413038234","0.2864074111","0.2104085952","","","","","","","","","","76","L","3","","","197","main_expt","",""
"","bandit","281","1004037","0.0-239.0-0.0","45001093","wem/bandit_party_2","A26UTJ26B5YUKQ","either","6","187","","","","","","","0","0","1","0.1686499416","","0.8","0.2","0.4","0.6","","","","","0.06206278739","0.9384937307","0.3044962429","0.1686499416","","","","","","","","","","76","L","3","","","198","main_expt","",""
"","bandit","282","1005621","0.0-240.0-0.0","45001093","wem/bandit_party_2","A26UTJ26B5YUKQ","either","6","57","","","","","","","0","0","1","0.1015706687","","0.8","0.2","0.4","0.6","","","","","0.1015706687","0.927250614","0.2804127106","0.1696058054","","","","","","","","","","72","H","0","img/none_selected.jpg","","199","main_expt","",""
"","bandit","283","1007647","0.0-241.0-0.0","45001093","wem/bandit_party_2","A26UTJ26B5YUKQ","either","6","502","","","","","","","0","0","1","","0.07348353789","0.8","0.2","0.4","0.6","0.07348353789","0.8840406778","0.3151112274","0.1940139532","","","","","","","","","","","","","","72","H","0","img/none_selected.jpg","","200","main_expt","",""
"","bandit","284","1010085","0.0-242.0-0.0","45001093","wem/bandit_party_2","A26UTJ26B5YUKQ","either","6","904","","","","","","","0","1","0","","0.8866639954","0.8","0.2","0.4","0.6","0.09218994405","0.8866639954","0.3124471347","0.2384341862","","","","","","","","","","","","","","74","J","1","","","201","main_expt","",""
"","bandit","285","1012292","0.0-243.0-0.0","45001093","wem/bandit_party_2","A26UTJ26B5YUKQ","either","6","663","","","","","","","0","0","1","","0.8188103646","0.8","0.2","0.4","0.6","0.1662378481","0.8188103646","0.3418115628","0.2069173963","","","","","","","","","","","","","","74","J","1","","","202","main_expt","",""
"","bandit","286","1015388","0.0-244.0-0.0","45001093","wem/bandit_party_2","A26UTJ26B5YUKQ","either","6","1567","","","","","","","0","1","0","","0.8026106274","0.8","0.2","0.4","0.6","0.1808123801","0.8026106274","0.2676578736","0.2502389624","","","","","","","","","","","","","","74","J","1","","","203","main_expt","",""
"","bandit","287","1018008","0.0-245.0-0.0","45001093","wem/bandit_party_2","A26UTJ26B5YUKQ","either","6","1085","","","","","","","0","1","0","","0.6613987003","0.8","0.2","0.4","0.6","0.2011980288","0.6613987003","0.2513587973","0.2226806","","","","","","","","","","","","","","74","J","1","","","204","main_expt","",""
"","bandit","288","1020103","0.0-246.0-0.0","45001093","wem/bandit_party_2","A26UTJ26B5YUKQ","either","6","559","","","","","","","0","1","0","","0.7402115251","0.8","0.2","0.4","0.6","0.1877492959","0.7402115251","0.2733703365","0.2327973494","","","","","","","","","","","","","","74","J","1","","","205","main_expt","",""
"","bandit","289","1022206","0.0-247.0-0.0","45001093","wem/bandit_party_2","A26UTJ26B5YUKQ","either","6","578","","","","","","","0","0","1","","0.6792505986","0.8","0.2","0.4","0.6","0.1891298069","0.6792505986","0.3212331514","0.3134624789","","","","","","","","","","","","","","74","J","1","","","206","main_expt","",""
"","bandit","290","1025408","0.0-248.0-0.0","45001093","wem/bandit_party_2","A26UTJ26B5YUKQ","either","6","1678","","","","","","","0","0","1","","0.3381772831","0.8","0.2","0.4","0.6","0.2092890992","0.6510378203","0.3381772831","0.3808856429","","","","","","","","","","","","","","75","K","2","","","207","main_expt","",""
"","bandit","291","1028653","0.0-249.0-0.0","45001093","wem/bandit_party_2","A26UTJ26B5YUKQ","either","6","1712","","","","","","","0","1","0","","0.2370260631","0.8","0.2","0.4","0.6","0.2563161799","0.5971377862","0.2370260631","0.318509643","","","","","","","","","","","","","","75","K","2","","","208","main_expt","",""
"","bandit","292","1031773","0.0-250.0-0.0","45001093","wem/bandit_party_2","A26UTJ26B5YUKQ","either","6","1578","","","","","","","0","0","1","","0.2157004535","0.8","0.2","0.4","0.6","0.2643940457","0.6040603887","0.2157004535","0.2932847295","","","","","","","","","","","","","","75","K","2","","","209","main_expt","",""
"","bandit","293","1033910","0.0-251.0-0.0","45001093","wem/bandit_party_2","A26UTJ26B5YUKQ","either","6","593","","","","","","","0","0","1","","0.2655169153","0.8","0.2","0.4","0.6","0.2710870001","0.7794442159","0.2655169153","0.2230023122","","","","","","","","","","","","","","75","K","2","","","210","main_expt","",""
"","bandit","294","1036206","0.0-252.0-0.0","45001093","wem/bandit_party_2","A26UTJ26B5YUKQ","either","6","763","","","","","","","0","0","1","","0.2359505063","0.8","0.2","0.4","0.6","0.2056380183","0.8397026392","0.2359505063","0.1899351836","","","","","","","","","","","","","","75","K","2","","","211","main_expt","",""
"","bandit","295","1039272","0.0-253.0-0.0","45001093","wem/bandit_party_2","A26UTJ26B5YUKQ","either","6","1528","","","","","","","0","0","1","","0.2431981852","0.8","0.2","0.4","0.6","0.2487045614","0.7883870126","0.2431981852","0.2593929449","","","","","","","","","","","","","","75","K","2","","","212","main_expt","",""
"","bandit","296","1041816","0.0-254.0-0.0","45001093","wem/bandit_party_2","A26UTJ26B5YUKQ","either","6","1011","","","","","","","0","0","1","0.2304425673","","0.8","0.2","0.4","0.6","","","","","0.3520378668","0.7160446845","0.3385658967","0.2304425673","","","","","","","","","","76","L","3","","","213","main_expt","",""
"","bandit","297","1043895","0.0-255.0-0.0","45001093","wem/bandit_party_2","A26UTJ26B5YUKQ","either","6","559","","","","","","","0","0","1","0.3455661114","","0.8","0.2","0.4","0.6","","","","","0.3455661114","0.7501162241","0.445002088","0.2849244028","","","","","","","","","","72","H","0","img/none_selected.jpg","","214","main_expt","",""
"","bandit","298","1045967","0.0-256.0-0.0","45001093","wem/bandit_party_2","A26UTJ26B5YUKQ","either","6","539","","","","","","","0","0","1","0.3290646698","","0.8","0.2","0.4","0.6","","","","","0.3290646698","0.7574589115","0.4340580748","0.3184819088","","","","","","","","","","72","H","0","img/none_selected.jpg","","215","main_expt","",""
"","bandit","299","1048099","0.0-257.0-0.0","45001093","wem/bandit_party_2","A26UTJ26B5YUKQ","either","6","587","","","","","","","0","1","0","","0.7376674805","0.8","0.2","0.4","0.6","0.2737258078","0.7376674805","0.3996931216","0.2989728513","","","","","","","","","","","","","","74","J","1","","","216","main_expt","",""
"","bandit","300","1050174","0.0-258.0-0.0","45001093","wem/bandit_party_2","A26UTJ26B5YUKQ","either","6","544","","","","","","","1","0","0","0.67262171","","0.8","0.2","0.4","0.6","","","","","0.2401291484","0.67262171","0.453570069","0.5538830624","","","","","","","","","","74","J","1","","","217","main_expt","",""
"","bandit","301","1052435","0.0-259.0-0.0","45001093","wem/bandit_party_2","A26UTJ26B5YUKQ","either","6","729","","","","","","","0","1","0","","0.6309662891","0.8","0.2","0.4","0.6","0.2395298113","0.6309662891","0.3566620654","0.5331458927","","","","","","","","","","","","","","74","J","1","","","218","main_expt","",""
"","bandit","302","1055780","0.0-260.0-0.0","45001093","wem/bandit_party_2","A26UTJ26B5YUKQ","either","6","1815","","","","","","","0","0","1","","0.610488243","0.8","0.2","0.4","0.6","0.2333127667","0.610488243","0.3114207129","0.409279481","","","","","","","","","","","","","","74","J","1","","","219","main_expt","",""
"","bandit","303","1057883","0.0-261.0-0.0","45001093","wem/bandit_party_2","A26UTJ26B5YUKQ","either","6","566","","","","","","","0","1","0","","0.348491043","0.8","0.2","0.4","0.6","0.2097963002","0.6741838821","0.348491043","0.3910907299","","","","","","","","","","","","","","75","K","2","","","220","main_expt","",""
"","bandit","304","1059751","0.0-262.0-0.0","45001093","wem/bandit_party_2","A26UTJ26B5YUKQ","either","6","327","","","","","","","0","1","0","","0.325682353","0.8","0.2","0.4","0.6","0.1761429423","0.6938787555","0.325682353","0.37386253","","","","","","","","","","","","","","75","K","2","","","221","main_expt","",""
"","bandit","305","1063406","0.0-263.0-0.0","45001093","wem/bandit_party_2","A26UTJ26B5YUKQ","either","6","2123","","","","","","","0","0","1","","0.3582518194","0.8","0.2","0.4","0.6","0.1770547834","0.622086605","0.3582518194","0.5460784034","","","","","","","","","","","","","","75","K","2","","","222","main_expt","",""
"","bandit","306","1065437","0.0-264.0-0.0","45001093","wem/bandit_party_2","A26UTJ26B5YUKQ","either","6","498","","","","","","","0","0","1","0.5484594206","","0.8","0.2","0.4","0.6","","","","","0.1494166006","0.6190419158","0.3596631187","0.5484594206","","","","","","","","","","76","L","3","","","223","main_expt","",""
"","bandit","307","1067147","0.0-265.0-0.0","45001093","wem/bandit_party_2","A26UTJ26B5YUKQ","either","6","173","","","","","","","1","0","0","0.1444184755","","0.8","0.2","0.4","0.6","","","","","0.1444184755","0.6525227655","0.4757784632","0.5156266917","","","","","","","","","","72","H","0","img/none_selected.jpg","","224","main_expt","",""
"","bandit","308","1070295","0.0-266.0-0.0","45001093","wem/bandit_party_2","A26UTJ26B5YUKQ","either","6","1616","","","","","","","0","0","1","0.2381889698","","0.8","0.2","0.4","0.6","","","","","0.2381889698","0.5739960468","0.5384710229","0.5120039273","","","","","","","","","","72","H","0","img/none_selected.jpg","","225","main_expt","",""
"","bandit","309","1072085","0.0-267.0-0.0","45001093","wem/bandit_party_2","A26UTJ26B5YUKQ","either","6","256","","","","","","","0","0","1","","0.6038380469","0.8","0.2","0.4","0.6","0.1429230379","0.6038380469","0.5308581489","0.5568413113","","","","","","","","","","","","","","74","J","1","","","226","main_expt","",""
"","bandit","310","1074237","0.0-268.0-0.0","45001093","wem/bandit_party_2","A26UTJ26B5YUKQ","either","6","613","","","","","","","0","1","0","","0.5203417309","0.8","0.2","0.4","0.6","0.124100867","0.5203417309","0.488482713","0.5277183188","","","","","","","","","","","","","","74","J","1","","","227","main_expt","",""
"","bandit","311","1076492","0.0-269.0-0.0","45001093","wem/bandit_party_2","A26UTJ26B5YUKQ","either","6","723","","","","","","","0","0","1","","0.4263922038","0.8","0.2","0.4","0.6","0.1762219884","0.4263922038","0.4406219513","0.5041270258","","","","","","","","","","","","","","74","J","1","","","228","main_expt","",""
"","bandit","312","1078668","0.0-270.0-0.0","45001093","wem/bandit_party_2","A26UTJ26B5YUKQ","either","6","648","","","","","","","0","0","1","","0.3475105047","0.8","0.2","0.4","0.6","0.1910325121","0.3475105047","0.4892119921","0.4541369304","","","","","","","","","","","","","","74","J","1","","","229","main_expt","",""
"","bandit","313","1081226","0.0-271.0-0.0","45001093","wem/bandit_party_2","A26UTJ26B5YUKQ","either","6","1024","","","","","","","0","0","1","0.5129573662","","0.8","0.2","0.4","0.6","","","","","0.2571549068","0.3353007417","0.5129573662","0.4504381994","","","","","","","","","","75","K","2","","","230","main_expt","",""
