"consent","trial_type","trial_index","time_elapsed","internal_node_id","subjID","study","MID","cond","drift","rt","responses","button_pressed","key_press","like","value","connected","gems","bombs","no_reward","GemPrChosen","BombPrChosen","GainOverPainPr_0","GainOverPainPr_1","GainOverPainPr_2","GainOverPainPr_3","LosePr_0","LosePr_1","LosePr_2","LosePr_3","WinPr_0","WinPr_1","WinPr_2","WinPr_3","Q0","Q1","Q2","gender","age","ethnicity","label","expt_phase","target","respCharCode","respKey","respChoiceNum","respChoice","practice","trial_counter","trial_label","Q0_index"
"GDM/GDM_behavioral_consent_30min_online.html","consent","0","38953","0.0-0.0","45394626","wem/bandit_party_2","A3CAK26YRNTXDB","either","7","","","","","","","","","","","","","","","","","","","","","","","","","","","","","","","","","","","","","","","","",""
"","survey-text","1","47329","0.0-1.0","45394626","wem/bandit_party_2","A3CAK26YRNTXDB","either","7","7358","{""Q0"":""A3CAK26YRNTXDB""}","","","","","","","","","","","","","","","","","","","","","","","","","","","","","","","","","","","","","","",""
"","button-response","2","50745","0.0-2.0","45394626","wem/bandit_party_2","A3CAK26YRNTXDB","either","7","2406","","1","","","","","","","","","","","","","","","","","","","","","","","","","","","","","","","","","","","","","",""
"","text-replacement","3","62819","0.0-3.0","45394626","wem/bandit_party_2","A3CAK26YRNTXDB","either","7","11069","","","32","","","","","","","","","","","","","","","","","","","","","","","","","","","","","","","","","","","","",""
"","text-replacement","4","72790","0.0-4.0","45394626","wem/bandit_party_2","A3CAK26YRNTXDB","either","7","9967","","","32","","","","","","","","","","","","","","","","","","","","","","","","","","","","","","","","","","","","",""
"","identification","5","83390","0.0-6.0-0.0","45394626","wem/bandit_party_2","A3CAK26YRNTXDB","either","7","10564","","","","1","1","0","","","","","","","","","","","","","","","","","","","","","","","","pre","identification_pre","the Republican Party","","","","","","","",""
"","identification","6","92438","0.0-6.0-1.0","45394626","wem/bandit_party_2","A3CAK26YRNTXDB","either","7","8017","","","","5","5","5","","","","","","","","","","","","","","","","","","","","","","","","pre","identification_pre","the Democratic Party","","","","","","","",""
"","text-replacement","7","99161","0.0-7.0","45394626","wem/bandit_party_2","A3CAK26YRNTXDB","either","7","5719","","","32","","","","","","","","","","","","","","","","","","","","","","","","","","","","","","","","","","","","",""
"","text-replacement","8","106338","0.0-8.0","45394626","wem/bandit_party_2","A3CAK26YRNTXDB","either","7","7173","","","32","","","","","","","","","","","","","","","","","","","","","","","","","","","","","","","","","","","","",""
"","text-replacement","9","117214","0.0-9.0","45394626","wem/bandit_party_2","A3CAK26YRNTXDB","either","7","10871","","","32","","","","","","","","","","","","","","","","","","","","","","","","","","","","","","","","","","","","",""
"","text-replacement","10","121283","0.0-10.0","45394626","wem/bandit_party_2","A3CAK26YRNTXDB","either","7","4066","","","32","","","","","","","","","","","","","","","","","","","","","","","","","","","","","","","","","","","","",""
"","text-replacement","11","125546","0.0-11.0","45394626","wem/bandit_party_2","A3CAK26YRNTXDB","either","7","4259","","","32","","","","","","","","","","","","","","","","","","","","","","","","","","","","","","","","","","","","",""
"","bandit","12","129049","0.0-12.0-0.0","45394626","wem/bandit_party_2","A3CAK26YRNTXDB","either","7","1988","","","","","","","0","0","1","0","0","","","","","0","","","","0","","","","","","","","","","","","","74","J","0","img/none_selected_demo.jpg","true","0","",""
"","bandit","13","131320","0.0-13.0-0.0","45394626","wem/bandit_party_2","A3CAK26YRNTXDB","either","7","761","","","","","","","0","0","1","0","0","","","","","0","","","","0","","","","","","","","","","","","","75","K","0","img/none_selected_demo.jpg","true","0","",""
"","text-replacement","14","136995","0.0-14.0","45394626","wem/bandit_party_2","A3CAK26YRNTXDB","either","7","5672","","","32","","","","","","","","","","","","","","","","","","","","","","","","","","","","","","","","","","","","",""
"","text-replacement","15","143950","0.0-15.0","45394626","wem/bandit_party_2","A3CAK26YRNTXDB","either","7","6952","","","32","","","","","","","","","","","","","","","","","","","","","","","","","","","","","","","","","","","","",""
"","text-replacement","16","149956","0.0-16.0","45394626","wem/bandit_party_2","A3CAK26YRNTXDB","either","7","6003","","","32","","","","","","","","","","","","","","","","","","","","","","","","","","","","","","","","","","","","",""
"","text-replacement","17","156059","0.0-17.0","45394626","wem/bandit_party_2","A3CAK26YRNTXDB","either","7","6100","","","32","","","","","","","","","","","","","","","","","","","","","","","","","","","","","","","","","","","","",""
"","bandit","18","158284","0.0-18.0-0.0","45394626","wem/bandit_party_2","A3CAK26YRNTXDB","either","7","713","","","","","","","1","0","0","0.8","","0.5","0.5","","","","","","","0.8","0.2","","","","","","","","","","","","74","J","0","img/none_selected_demo.jpg","true","0","80_20_practice",""
"","bandit","19","160147","0.0-18.0-1.0","45394626","wem/bandit_party_2","A3CAK26YRNTXDB","either","7","352","","","","","","","0","0","1","0.8","","0.5","0.5","","","","","","","0.8","0.2","","","","","","","","","","","","74","J","0","img/none_selected_demo.jpg","true","0","80_20_practice",""
"","bandit","20","161997","0.0-18.0-2.0","45394626","wem/bandit_party_2","A3CAK26YRNTXDB","either","7","340","","","","","","","1","0","0","0.8","","0.5","0.5","","","","","","","0.8","0.2","","","","","","","","","","","","74","J","0","img/none_selected_demo.jpg","true","0","80_20_practice",""
"","bandit","21","163931","0.0-18.0-3.0","45394626","wem/bandit_party_2","A3CAK26YRNTXDB","either","7","424","","","","","","","0","0","1","0.8","","0.5","0.5","","","","","","","0.8","0.2","","","","","","","","","","","","74","J","0","img/none_selected_demo.jpg","true","0","80_20_practice",""
"","bandit","22","165836","0.0-18.0-4.0","45394626","wem/bandit_party_2","A3CAK26YRNTXDB","either","7","394","","","","","","","0","0","1","","0.2","0.5","0.5","","","0.8","0.2","","","","","","","","","","","","","","","","75","K","1","","true","0","80_20_practice",""
"","bandit","23","167556","0.0-18.0-5.0","45394626","wem/bandit_party_2","A3CAK26YRNTXDB","either","7","208","","","","","","","0","1","0","","0.2","0.5","0.5","","","0.8","0.2","","","","","","","","","","","","","","","","75","K","1","","true","0","80_20_practice",""
"","bandit","24","169169","0.0-18.0-6.0","45394626","wem/bandit_party_2","A3CAK26YRNTXDB","either","7","103","","","","","","","1","0","0","0.2","","0.5","0.5","","","","","","","0.8","0.2","","","","","","","","","","","","75","K","1","","true","0","80_20_practice",""
"","bandit","25","170968","0.0-18.0-7.0","45394626","wem/bandit_party_2","A3CAK26YRNTXDB","either","7","288","","","","","","","0","1","0","","0.2","0.5","0.5","","","0.8","0.2","","","","","","","","","","","","","","","","75","K","1","","true","0","80_20_practice",""
"","bandit","26","173250","0.0-18.0-8.0","45394626","wem/bandit_party_2","A3CAK26YRNTXDB","either","7","770","","","","","","","0","0","1","","0.2","0.5","0.5","","","0.8","0.2","","","","","","","","","","","","","","","","75","K","1","","true","0","80_20_practice",""
"","bandit","27","175088","0.0-18.0-9.0","45394626","wem/bandit_party_2","A3CAK26YRNTXDB","either","7","327","","","","","","","0","0","1","0.2","","0.5","0.5","","","","","","","0.8","0.2","","","","","","","","","","","","75","K","1","","true","0","80_20_practice",""
"","bandit","28","177032","0.0-18.0-10.0","45394626","wem/bandit_party_2","A3CAK26YRNTXDB","either","7","434","","","","","","","0","1","0","","0.8","0.5","0.5","","","0.8","0.2","","","","","","","","","","","","","","","","74","J","0","img/none_selected_demo.jpg","true","0","80_20_practice",""
"","bandit","29","178898","0.0-18.0-11.0","45394626","wem/bandit_party_2","A3CAK26YRNTXDB","either","7","356","","","","","","","0","1","0","","0.8","0.5","0.5","","","0.8","0.2","","","","","","","","","","","","","","","","74","J","0","img/none_selected_demo.jpg","true","0","80_20_practice",""
"","bandit","30","180713","0.0-18.0-12.0","45394626","wem/bandit_party_2","A3CAK26YRNTXDB","either","7","304","","","","","","","1","0","0","0.8","","0.5","0.5","","","","","","","0.8","0.2","","","","","","","","","","","","74","J","0","img/none_selected_demo.jpg","true","0","80_20_practice",""
"","bandit","31","182510","0.0-18.0-13.0","45394626","wem/bandit_party_2","A3CAK26YRNTXDB","either","7","286","","","","","","","0","1","0","","0.8","0.5","0.5","","","0.8","0.2","","","","","","","","","","","","","","","","74","J","0","img/none_selected_demo.jpg","true","0","80_20_practice",""
"","bandit","32","184298","0.0-18.0-14.0","45394626","wem/bandit_party_2","A3CAK26YRNTXDB","either","7","275","","","","","","","1","0","0","0.8","","0.5","0.5","","","","","","","0.8","0.2","","","","","","","","","","","","74","J","0","img/none_selected_demo.jpg","true","0","80_20_practice",""
"","bandit","33","186136","0.0-18.0-15.0","45394626","wem/bandit_party_2","A3CAK26YRNTXDB","either","7","326","","","","","","","1","0","0","0.8","","0.5","0.5","","","","","","","0.8","0.2","","","","","","","","","","","","74","J","0","img/none_selected_demo.jpg","true","0","80_20_practice",""
"","bandit","34","187947","0.0-18.0-16.0","45394626","wem/bandit_party_2","A3CAK26YRNTXDB","either","7","300","","","","","","","1","0","0","0.8","","0.5","0.5","","","","","","","0.8","0.2","","","","","","","","","","","","74","J","0","img/none_selected_demo.jpg","true","0","80_20_practice",""
"","bandit","35","189760","0.0-18.0-17.0","45394626","wem/bandit_party_2","A3CAK26YRNTXDB","either","7","302","","","","","","","1","0","0","0.2","","0.5","0.5","","","","","","","0.8","0.2","","","","","","","","","","","","75","K","1","","true","0","80_20_practice",""
"","bandit","36","191534","0.0-18.0-18.0","45394626","wem/bandit_party_2","A3CAK26YRNTXDB","either","7","263","","","","","","","1","0","0","0.2","","0.5","0.5","","","","","","","0.8","0.2","","","","","","","","","","","","75","K","1","","true","0","80_20_practice",""
"","bandit","37","193971","0.0-18.0-19.0","45394626","wem/bandit_party_2","A3CAK26YRNTXDB","either","7","927","","","","","","","0","0","1","","0.2","0.5","0.5","","","0.8","0.2","","","","","","","","","","","","","","","","75","K","1","","true","0","80_20_practice",""
"","text-replacement","38","196722","0.0-19.0","45394626","wem/bandit_party_2","A3CAK26YRNTXDB","either","7","2747","","","32","","","","","","","","","","","","","","","","","","","","","","","","","","","","","","","","","","","","",""
"","bandit","39","198773","0.0-20.0-0.0","45394626","wem/bandit_party_2","A3CAK26YRNTXDB","either","7","540","","","","","","","1","0","0","1","0","","","","","0","1","","","1","0","","","","","","","","","","","","74","J","0","img/none_selected_demo.jpg","true","0","",""
"","text-replacement","40","205126","0.0-21.0","45394626","wem/bandit_party_2","A3CAK26YRNTXDB","either","7","6346","","","32","","","","","","","","","","","","","","","","","","","","","","","","","","","","","","","","","","","","",""
"","text-replacement","41","208481","0.0-22.0","45394626","wem/bandit_party_2","A3CAK26YRNTXDB","either","7","3350","","","32","","","","","","","","","","","","","","","","","","","","","","","","","","","","","","","","","","","","",""
"","text-replacement","42","211628","0.0-23.0","45394626","wem/bandit_party_2","A3CAK26YRNTXDB","either","7","3143","","","32","","","","","","","","","","","","","","","","","","","","","","","","","","","","","","","","","","","","",""
"","text-replacement","43","214563","0.0-24.0","45394626","wem/bandit_party_2","A3CAK26YRNTXDB","either","7","2931","","","32","","","","","","","","","","","","","","","","","","","","","","","","","","","","","","","","","","","","",""
"","text-replacement","44","222141","0.0-25.0","45394626","wem/bandit_party_2","A3CAK26YRNTXDB","either","7","7574","","","32","","","","","","","","","","","","","","","","","","","","","","","","","","","","","","","","","","","","",""
"","text-replacement","45","225473","0.0-26.0","45394626","wem/bandit_party_2","A3CAK26YRNTXDB","either","7","3328","","","32","","","","","","","","","","","","","","","","","","","","","","","","","","","","","","","","","","","","",""
"","text-replacement","46","229543","0.0-27.0","45394626","wem/bandit_party_2","A3CAK26YRNTXDB","either","7","4065","","","32","","","","","","","","","","","","","","","","","","","","","","","","","","","","","","","","","","","","",""
"","text-replacement","47","232400","0.0-28.0","45394626","wem/bandit_party_2","A3CAK26YRNTXDB","either","7","2853","","","32","","","","","","","","","","","","","","","","","","","","","","","","","","","","","","","","","","","","",""
"","text-replacement","48","237575","0.0-29.0","45394626","wem/bandit_party_2","A3CAK26YRNTXDB","either","7","5171","","","32","","","","","","","","","","","","","","","","","","","","","","","","","","","","","","","","","","","","",""
"","text-replacement","49","240322","0.0-30.0","45394626","wem/bandit_party_2","A3CAK26YRNTXDB","either","7","2741","","","32","","","","","","","","","","","","","","","","","","","","","","","","","","","","","","","","","","","","",""
"","text-replacement","50","243869","0.0-31.0","45394626","wem/bandit_party_2","A3CAK26YRNTXDB","either","7","3543","","","32","","","","","","","","","","","","","","","","","","","","","","","","","","","","","","","","","","","","",""
"","bandit","51","245868","0.0-32.0-0.0","45394626","wem/bandit_party_2","A3CAK26YRNTXDB","either","7","487","","","","","","","1","0","0","0.8","","0.5","0.5","0.5","0.5","","","","","0.8","0.2","0.6","0.2","","","","","","","","","","72","H","0","img/none_selected.jpg","true","0","full_practice",""
"","bandit","52","247882","0.0-32.0-1.0","45394626","wem/bandit_party_2","A3CAK26YRNTXDB","either","7","502","","","","","","","1","0","0","0.8","","0.5","0.5","0.5","0.5","","","","","0.8","0.2","0.6","0.2","","","","","","","","","","72","H","0","img/none_selected.jpg","true","0","full_practice",""
"","bandit","53","249749","0.0-32.0-2.0","45394626","wem/bandit_party_2","A3CAK26YRNTXDB","either","7","355","","","","","","","0","0","1","","0.8","0.5","0.5","0.5","0.5","0.8","0.2","0.6","0.2","","","","","","","","","","","","","","72","H","0","img/none_selected.jpg","true","0","full_practice",""
"","bandit","54","251578","0.0-32.0-3.0","45394626","wem/bandit_party_2","A3CAK26YRNTXDB","either","7","316","","","","","","","1","0","0","0.8","","0.5","0.5","0.5","0.5","","","","","0.8","0.2","0.6","0.2","","","","","","","","","","72","H","0","img/none_selected.jpg","true","0","full_practice",""
"","bandit","55","253390","0.0-32.0-4.0","45394626","wem/bandit_party_2","A3CAK26YRNTXDB","either","7","301","","","","","","","0","0","1","","0.8","0.5","0.5","0.5","0.5","0.8","0.2","0.6","0.2","","","","","","","","","","","","","","72","H","0","img/none_selected.jpg","true","0","full_practice",""
"","bandit","56","255169","0.0-32.0-5.0","45394626","wem/bandit_party_2","A3CAK26YRNTXDB","either","7","266","","","","","","","1","0","0","0.8","","0.5","0.5","0.5","0.5","","","","","0.8","0.2","0.6","0.2","","","","","","","","","","72","H","0","img/none_selected.jpg","true","0","full_practice",""
"","bandit","57","257006","0.0-32.0-6.0","45394626","wem/bandit_party_2","A3CAK26YRNTXDB","either","7","326","","","","","","","0","0","1","","0.8","0.5","0.5","0.5","0.5","0.8","0.2","0.6","0.2","","","","","","","","","","","","","","72","H","0","img/none_selected.jpg","true","0","full_practice",""
"","bandit","58","259114","0.0-32.0-7.0","45394626","wem/bandit_party_2","A3CAK26YRNTXDB","either","7","597","","","","","","","0","0","1","0.2","","0.5","0.5","0.5","0.5","","","","","0.8","0.2","0.6","0.2","","","","","","","","","","74","J","1","","true","0","full_practice",""
"","bandit","59","260929","0.0-32.0-8.0","45394626","wem/bandit_party_2","A3CAK26YRNTXDB","either","7","303","","","","","","","0","0","1","","0.2","0.5","0.5","0.5","0.5","0.8","0.2","0.6","0.2","","","","","","","","","","","","","","74","J","1","","true","0","full_practice",""
"","bandit","60","262795","0.0-32.0-9.0","45394626","wem/bandit_party_2","A3CAK26YRNTXDB","either","7","355","","","","","","","1","0","0","0.2","","0.5","0.5","0.5","0.5","","","","","0.8","0.2","0.6","0.2","","","","","","","","","","74","J","1","","true","0","full_practice",""
"","bandit","61","264649","0.0-32.0-10.0","45394626","wem/bandit_party_2","A3CAK26YRNTXDB","either","7","343","","","","","","","0","0","1","0.2","","0.5","0.5","0.5","0.5","","","","","0.8","0.2","0.6","0.2","","","","","","","","","","74","J","1","","true","0","full_practice",""
"","bandit","62","266771","0.0-32.0-11.0","45394626","wem/bandit_party_2","A3CAK26YRNTXDB","either","7","611","","","","","","","1","0","0","0.6","","0.5","0.5","0.5","0.5","","","","","0.8","0.2","0.6","0.2","","","","","","","","","","75","K","2","","true","0","full_practice",""
"","bandit","63","268585","0.0-32.0-12.0","45394626","wem/bandit_party_2","A3CAK26YRNTXDB","either","7","300","","","","","","","0","1","0","","0.6","0.5","0.5","0.5","0.5","0.8","0.2","0.6","0.2","","","","","","","","","","","","","","75","K","2","","true","0","full_practice",""
"","bandit","64","270308","0.0-32.0-13.0","45394626","wem/bandit_party_2","A3CAK26YRNTXDB","either","7","209","","","","","","","0","1","0","","0.6","0.5","0.5","0.5","0.5","0.8","0.2","0.6","0.2","","","","","","","","","","","","","","75","K","2","","true","0","full_practice",""
"","bandit","65","272109","0.0-32.0-14.0","45394626","wem/bandit_party_2","A3CAK26YRNTXDB","either","7","289","","","","","","","0","1","0","","0.6","0.5","0.5","0.5","0.5","0.8","0.2","0.6","0.2","","","","","","","","","","","","","","75","K","2","","true","0","full_practice",""
"","bandit","66","273977","0.0-32.0-15.0","45394626","wem/bandit_party_2","A3CAK26YRNTXDB","either","7","355","","","","","","","0","0","1","","0.6","0.5","0.5","0.5","0.5","0.8","0.2","0.6","0.2","","","","","","","","","","","","","","75","K","2","","true","0","full_practice",""
"","bandit","67","275749","0.0-32.0-16.0","45394626","wem/bandit_party_2","A3CAK26YRNTXDB","either","7","261","","","","","","","0","1","0","","0.6","0.5","0.5","0.5","0.5","0.8","0.2","0.6","0.2","","","","","","","","","","","","","","75","K","2","","true","0","full_practice",""
"","bandit","68","277594","0.0-32.0-17.0","45394626","wem/bandit_party_2","A3CAK26YRNTXDB","either","7","332","","","","","","","0","0","1","0.2","","0.5","0.5","0.5","0.5","","","","","0.8","0.2","0.6","0.2","","","","","","","","","","76","L","3","","true","0","full_practice",""
"","bandit","69","279408","0.0-32.0-18.0","45394626","wem/bandit_party_2","A3CAK26YRNTXDB","either","7","299","","","","","","","0","0","1","","0.2","0.5","0.5","0.5","0.5","0.8","0.2","0.6","0.2","","","","","","","","","","","","","","76","L","3","","true","0","full_practice",""
"","bandit","70","281210","0.0-32.0-19.0","45394626","wem/bandit_party_2","A3CAK26YRNTXDB","either","7","290","","","","","","","0","0","1","","0.2","0.5","0.5","0.5","0.5","0.8","0.2","0.6","0.2","","","","","","","","","","","","","","76","L","3","","true","0","full_practice",""
"","text","71","284801","0.0-33.0","45394626","wem/bandit_party_2","A3CAK26YRNTXDB","either","7","3571","","","32","","","","","","","","","","","","","","","","","","","","","","","","","","","","","","","","","","","","",""
"","text-replacement","72","298204","0.0-34.0","45394626","wem/bandit_party_2","A3CAK26YRNTXDB","either","7","12395","","","32","","","","","","","","","","","","","","","","","","","","","","","","","","","","","","","","","","","","",""
"","text-replacement","73","310936","0.0-35.0","45394626","wem/bandit_party_2","A3CAK26YRNTXDB","either","7","12724","","","32","","","","","","","","","","","","","","","","","","","","","","","","","","","","","","","","","","","","",""
"","text-replacement","74","315590","0.0-36.0","45394626","wem/bandit_party_2","A3CAK26YRNTXDB","either","7","4649","","","32","","","","","","","","","","","","","","","","","","","","","","","","","","","","","","","","","","","","",""
"","text-replacement","75","322051","0.0-37.0","45394626","wem/bandit_party_2","A3CAK26YRNTXDB","either","7","6456","","","32","","","","","","","","","","","","","","","","","","","","","","","","","","","","","","","","","","","","",""
"","text-replacement","76","328629","0.0-38.0","45394626","wem/bandit_party_2","A3CAK26YRNTXDB","either","7","6572","","","32","","","","","","","","","","","","","","","","","","","","","","","","","","","","","","","","","","","","",""
"","survey-multi-choice-replacement","77","335335","0.0-39.0-0.0","45394626","wem/bandit_party_2","A3CAK26YRNTXDB","either","7","6684","","","","","","","","","","","","","","","","","","","","","","","","Money will be added to the pool for <span style='color:blue;'>DEMOCRATS</span>","","","","","","","attn_check","","","","","","","","","0"
"","survey-multi-choice-replacement","78","341561","0.0-40.0-0.0","45394626","wem/bandit_party_2","A3CAK26YRNTXDB","either","7","5203","","","","","","","","","","","","","","","","","","","","","","","","Equal amounts of money will be added to the pool for <span style='color:blue;'>DEMOCRATS</span> and subtracted from the pool for <span style='color:red;'>REPUBLICANS</span>","","","","","","","attn_check","","","","","","","","","2"
"","survey-multi-choice-replacement","79","345937","0.0-41.0-0.0","45394626","wem/bandit_party_2","A3CAK26YRNTXDB","either","7","3355","","","","","","","","","","","","","","","","","","","","","","","","No money will be added to either pool","","","","","","","attn_check","","","","","","","","","3"
"","bandit","80","350711","0.0-42.0-0.0","45394626","wem/bandit_party_2","A3CAK26YRNTXDB","either","7","2253","","","","","","","0","0","1","0.2888626749","","0.6","0.2","0.4","0.8","","","","","0.2888626749","0.1731741302","0.5514722813","0.7088318221","","","","","","","","","","72","H","0","img/none_selected.jpg","","1","main_expt",""
"","bandit","81","352606","0.0-43.0-0.0","45394626","wem/bandit_party_2","A3CAK26YRNTXDB","either","7","380","","","","","","","0","0","1","0.3999538902","","0.6","0.2","0.4","0.8","","","","","0.3999538902","0.2874485847","0.5039303977","0.6292935488","","","","","","","","","","72","H","0","img/none_selected.jpg","","2","main_expt",""
"","bandit","82","354715","0.0-44.0-0.0","45394626","wem/bandit_party_2","A3CAK26YRNTXDB","either","7","595","","","","","","","0","1","0","","0.4126831114","0.6","0.2","0.4","0.8","0.4126831114","0.2683250969","0.5527877924","0.5285482983","","","","","","","","","","","","","","72","H","0","img/none_selected.jpg","","3","main_expt",""
"","bandit","83","357117","0.0-45.0-0.0","45394626","wem/bandit_party_2","A3CAK26YRNTXDB","either","7","889","","","","","","","0","0","1","0.3923803367","","0.6","0.2","0.4","0.8","","","","","0.3923803367","0.3988631097","0.6336700584","0.6744491701","","","","","","","","","","72","H","0","img/none_selected.jpg","","4","main_expt",""
"","bandit","84","358864","0.0-46.0-0.0","45394626","wem/bandit_party_2","A3CAK26YRNTXDB","either","7","231","","","","","","","1","0","0","0.3568799457","","0.6","0.2","0.4","0.8","","","","","0.3803283439","0.3568799457","0.6340088104","0.7922285807","","","","","","","","","","74","J","1","","","5","main_expt",""
"","bandit","85","360649","0.0-47.0-0.0","45394626","wem/bandit_party_2","A3CAK26YRNTXDB","either","7","273","","","","","","","0","1","0","","0.3188731731","0.6","0.2","0.4","0.8","0.4214296899","0.3188731731","0.5784181907","0.7459441126","","","","","","","","","","","","","","74","J","1","","","6","main_expt",""
"","bandit","86","362440","0.0-48.0-0.0","45394626","wem/bandit_party_2","A3CAK26YRNTXDB","either","7","278","","","","","","","0","1","0","","0.4574196012","0.6","0.2","0.4","0.8","0.4755968838","0.4574196012","0.6727083857","0.7681481668","","","","","","","","","","","","","","74","J","1","","","7","main_expt",""
"","bandit","87","364628","0.0-49.0-0.0","45394626","wem/bandit_party_2","A3CAK26YRNTXDB","either","7","675","","","","","","","0","1","0","","0.5037884951","0.6","0.2","0.4","0.8","0.5353568537","0.5037884951","0.7574508858","0.7251609313","","","","","","","","","","","","","","74","J","1","","","8","main_expt",""
"","bandit","88","367110","0.0-50.0-0.0","45394626","wem/bandit_party_2","A3CAK26YRNTXDB","either","7","969","","","","","","","0","0","1","","0.5750013994","0.6","0.2","0.4","0.8","0.6246831942","0.5750013994","0.8280759311","0.7403055102","","","","","","","","","","","","","","74","J","1","","","9","main_expt",""
"","bandit","89","369232","0.0-51.0-0.0","45394626","wem/bandit_party_2","A3CAK26YRNTXDB","either","7","602","","","","","","","0","0","1","","0.5399040382","0.6","0.2","0.4","0.8","0.4475954046","0.5399040382","0.859726102","0.722944265","","","","","","","","","","","","","","74","J","1","","","10","main_expt",""
"","bandit","90","371219","0.0-52.0-0.0","45394626","wem/bandit_party_2","A3CAK26YRNTXDB","either","7","472","","","","","","","0","1","0","","0.5181098662","0.6","0.2","0.4","0.8","0.4514702697","0.5181098662","0.877956501","0.6833847698","","","","","","","","","","","","","","74","J","1","","","11","main_expt",""
"","bandit","91","373434","0.0-53.0-0.0","45394626","wem/bandit_party_2","A3CAK26YRNTXDB","either","7","702","","","","","","","0","1","0","","0.5489165229","0.6","0.2","0.4","0.8","0.4873058782","0.5489165229","0.8883669707","0.689227163","","","","","","","","","","","","","","74","J","1","","","12","main_expt",""
"","bandit","92","375824","0.0-54.0-0.0","45394626","wem/bandit_party_2","A3CAK26YRNTXDB","either","7","877","","","","","","","0","1","0","","0.6186986429","0.6","0.2","0.4","0.8","0.4862469224","0.6186986429","0.817149195","0.5178623456","","","","","","","","","","","","","","74","J","1","","","13","main_expt",""
"","bandit","93","378240","0.0-55.0-0.0","45394626","wem/bandit_party_2","A3CAK26YRNTXDB","either","7","904","","","","","","","0","0","1","0.4944095791","","0.6","0.2","0.4","0.8","","","","","0.360908092","0.4944095791","0.8589139609","0.4768489018","","","","","","","","","","74","J","1","","","14","main_expt",""
"","bandit","94","380553","0.0-56.0-0.0","45394626","wem/bandit_party_2","A3CAK26YRNTXDB","either","7","797","","","","","","","0","0","1","","0.4820951366","0.6","0.2","0.4","0.8","0.4126647893","0.4820951366","0.7955781648","0.5201849276","","","","","","","","","","","","","","74","J","1","","","15","main_expt",""
"","bandit","95","382673","0.0-57.0-0.0","45394626","wem/bandit_party_2","A3CAK26YRNTXDB","either","7","605","","","","","","","0","1","0","","0.4888848296","0.6","0.2","0.4","0.8","0.4930686601","0.4888848296","0.8864445785","0.6862231469","","","","","","","","","","","","","","74","J","1","","","16","main_expt",""
"","bandit","96","384835","0.0-58.0-0.0","45394626","wem/bandit_party_2","A3CAK26YRNTXDB","either","7","648","","","","","","","1","0","0","0.381306026","","0.6","0.2","0.4","0.8","","","","","0.5162343008","0.381306026","0.8746062981","0.7297328357","","","","","","","","","","74","J","1","","","17","main_expt",""
"","bandit","97","387476","0.0-59.0-0.0","45394626","wem/bandit_party_2","A3CAK26YRNTXDB","either","7","1128","","","","","","","0","1","0","","0.3537135189","0.6","0.2","0.4","0.8","0.5627456494","0.3537135189","0.8910236512","0.6686287009","","","","","","","","","","","","","","74","J","1","","","18","main_expt",""
"","bandit","98","389919","0.0-60.0-0.0","45394626","wem/bandit_party_2","A3CAK26YRNTXDB","either","7","928","","","","","","","0","0","1","","0.4891458502","0.6","0.2","0.4","0.8","0.4478227807","0.4891458502","0.8932054573","0.7885428456","","","","","","","","","","","","","","74","J","1","","","19","main_expt",""
"","bandit","99","391869","0.0-61.0-0.0","45394626","wem/bandit_party_2","A3CAK26YRNTXDB","either","7","434","","","","","","","1","0","0","0.8900063933","","0.6","0.2","0.4","0.8","","","","","0.5306796692","0.5440957398","0.8900063933","0.7442236049","","","","","","","","","","75","K","2","","","20","main_expt",""
"","bandit","100","393948","0.0-62.0-0.0","45394626","wem/bandit_party_2","A3CAK26YRNTXDB","either","7","566","","","","","","","0","1","0","","0.8748704397","0.6","0.2","0.4","0.8","0.5423611418","0.5621313733","0.8748704397","0.7908218503","","","","","","","","","","","","","","75","K","2","","","21","main_expt",""
"","bandit","101","396071","0.0-63.0-0.0","45394626","wem/bandit_party_2","A3CAK26YRNTXDB","either","7","609","","","","","","","1","0","0","0.8498769136","","0.6","0.2","0.4","0.8","","","","","0.4190568807","0.5296345876","0.8498769136","0.7163236006","","","","","","","","","","75","K","2","","","22","main_expt",""
"","bandit","102","398288","0.0-64.0-0.0","45394626","wem/bandit_party_2","A3CAK26YRNTXDB","either","7","703","","","","","","","0","0","1","","0.8357449374","0.6","0.2","0.4","0.8","0.4329937009","0.5187107172","0.8357449374","0.7061190667","","","","","","","","","","","","","","75","K","2","","","23","main_expt",""
"","bandit","103","400438","0.0-65.0-0.0","45394626","wem/bandit_party_2","A3CAK26YRNTXDB","either","7","636","","","","","","","1","0","0","0.8431908073","","0.6","0.2","0.4","0.8","","","","","0.4298879426","0.6000521927","0.8431908073","0.7470556917","","","","","","","","","","75","K","2","","","24","main_expt",""
"","bandit","104","402802","0.0-66.0-0.0","45394626","wem/bandit_party_2","A3CAK26YRNTXDB","either","7","850","","","","","","","0","0","1","","0.8741885854","0.6","0.2","0.4","0.8","0.2992323157","0.5443047256","0.8741885854","0.8154180688","","","","","","","","","","","","","","75","K","2","","","25","main_expt",""
"","bandit","105","405311","0.0-67.0-0.0","45394626","wem/bandit_party_2","A3CAK26YRNTXDB","either","7","994","","","","","","","1","0","0","0.8940719671","","0.6","0.2","0.4","0.8","","","","","0.3857263224","0.592493964","0.8940719671","0.8395379789","","","","","","","","","","75","K","2","","","26","main_expt",""
"","bandit","106","407553","0.0-68.0-0.0","45394626","wem/bandit_party_2","A3CAK26YRNTXDB","either","7","728","","","","","","","0","1","0","","0.8733378856","0.6","0.2","0.4","0.8","0.3715251318","0.5779569403","0.8733378856","0.8023078409","","","","","","","","","","","","","","75","K","2","","","27","main_expt",""
"","bandit","107","409795","0.0-69.0-0.0","45394626","wem/bandit_party_2","A3CAK26YRNTXDB","either","7","727","","","","","","","0","0","1","0.8695586723","","0.6","0.2","0.4","0.8","","","","","0.3387808014","0.7077223562","0.8695586723","0.8248968235","","","","","","","","","","75","K","2","","","28","main_expt",""
"","bandit","108","411650","0.0-70.0-0.0","45394626","wem/bandit_party_2","A3CAK26YRNTXDB","either","7","339","","","","","","","0","1","0","","0.8621011303","0.6","0.2","0.4","0.8","0.3737397218","0.7070353494","0.7908290088","0.8621011303","","","","","","","","","","","","","","76","L","3","","","29","main_expt",""
"","bandit","109","413868","0.0-71.0-0.0","45394626","wem/bandit_party_2","A3CAK26YRNTXDB","either","7","705","","","","","","","1","0","0","0.8873668535","","0.6","0.2","0.4","0.8","","","","","0.3232047389","0.6585428656","0.8518997755","0.8873668535","","","","","","","","","","76","L","3","","","30","main_expt",""
"","bandit","110","415922","0.0-72.0-0.0","45394626","wem/bandit_party_2","A3CAK26YRNTXDB","either","7","540","","","","","","","1","0","0","0.9318975106","","0.6","0.2","0.4","0.8","","","","","0.4130267239","0.6724088618","0.8509842625","0.9318975106","","","","","","","","","","76","L","3","","","31","main_expt",""
"","bandit","111","418418","0.0-73.0-0.0","45394626","wem/bandit_party_2","A3CAK26YRNTXDB","either","7","980","","","","","","","1","0","0","0.9013609786","","0.6","0.2","0.4","0.8","","","","","0.4167758813","0.6416581209","0.872996121","0.9013609786","","","","","","","","","","76","L","3","","","32","main_expt",""
"","bandit","112","420781","0.0-74.0-0.0","45394626","wem/bandit_party_2","A3CAK26YRNTXDB","either","7","848","","","","","","","0","1","0","","0.9041531295","0.6","0.2","0.4","0.8","0.4546052232","0.7055802426","0.8571046391","0.9041531295","","","","","","","","","","","","","","76","L","3","","","33","main_expt",""
"","bandit","113","423227","0.0-75.0-0.0","45394626","wem/bandit_party_2","A3CAK26YRNTXDB","either","7","930","","","","","","","1","0","0","0.9386104272","","0.6","0.2","0.4","0.8","","","","","0.5231803088","0.7554114371","0.9175819521","0.9386104272","","","","","","","","","","76","L","3","","","34","main_expt",""
"","bandit","114","425725","0.0-76.0-0.0","45394626","wem/bandit_party_2","A3CAK26YRNTXDB","either","7","976","","","","","","","0","1","0","","0.9180645683","0.6","0.2","0.4","0.8","0.4661188593","0.8008095759","0.9503165686","0.9180645683","","","","","","","","","","","","","","76","L","3","","","35","main_expt",""
"","bandit","115","428071","0.0-77.0-0.0","45394626","wem/bandit_party_2","A3CAK26YRNTXDB","either","7","831","","","","","","","1","0","0","0.9095107155","","0.6","0.2","0.4","0.8","","","","","0.4106027186","0.6925109639","0.9327615424","0.9095107155","","","","","","","","","","76","L","3","","","36","main_expt",""
"","bandit","116","430752","0.0-78.0-0.0","45394626","wem/bandit_party_2","A3CAK26YRNTXDB","either","7","1165","","","","","","","1","0","0","0.9405648028","","0.6","0.2","0.4","0.8","","","","","0.5021263718","0.7764255689","0.9196494001","0.9405648028","","","","","","","","","","76","L","3","","","37","main_expt",""
"","bandit","117","433411","0.0-79.0-0.0","45394626","wem/bandit_party_2","A3CAK26YRNTXDB","either","7","1144","","","","","","","0","1","0","","0.9058459248","0.6","0.2","0.4","0.8","0.5065313343","0.8392953971","0.928530414","0.9058459248","","","","","","","","","","","","","","76","L","3","","","38","main_expt",""
"","bandit","118","436136","0.0-80.0-0.0","45394626","wem/bandit_party_2","A3CAK26YRNTXDB","either","7","1210","","","","","","","1","0","0","0.8784462517","","0.6","0.2","0.4","0.8","","","","","0.6098243774","0.7614495855","0.9001545702","0.8784462517","","","","","","","","","","76","L","3","","","39","main_expt",""
"","bandit","119","438606","0.0-81.0-0.0","45394626","wem/bandit_party_2","A3CAK26YRNTXDB","either","7","954","","","","","","","1","0","0","0.8408568766","","0.6","0.2","0.4","0.8","","","","","0.679699592","0.8060705796","0.8432481254","0.8408568766","","","","","","","","","","76","L","3","","","40","main_expt",""
"","bandit","120","441034","0.0-82.0-0.0","45394626","wem/bandit_party_2","A3CAK26YRNTXDB","either","7","914","","","","","","","1","0","0","0.811342849","","0.6","0.2","0.4","0.8","","","","","0.616488607","0.7539991053","0.8326479564","0.811342849","","","","","","","","","","76","L","3","","","41","main_expt",""
"","bandit","121","443771","0.0-83.0-0.0","45394626","wem/bandit_party_2","A3CAK26YRNTXDB","either","7","1223","","","","","","","1","0","0","0.8058808774","","0.6","0.2","0.4","0.8","","","","","0.6307104111","0.7717369324","0.8602810298","0.8058808774","","","","","","","","","","76","L","3","","","42","main_expt",""
"","bandit","122","446419","0.0-84.0-0.0","45394626","wem/bandit_party_2","A3CAK26YRNTXDB","either","7","1132","","","","","","","1","0","0","0.7899844578","","0.6","0.2","0.4","0.8","","","","","0.554567591","0.7625968551","0.894365654","0.7899844578","","","","","","","","","","76","L","3","","","43","main_expt",""
"","bandit","123","448928","0.0-85.0-0.0","45394626","wem/bandit_party_2","A3CAK26YRNTXDB","either","7","992","","","","","","","1","0","0","0.7654486741","","0.6","0.2","0.4","0.8","","","","","0.5281861223","0.8488621298","0.9033664713","0.7654486741","","","","","","","","","","76","L","3","","","44","main_expt",""
"","bandit","124","451492","0.0-86.0-0.0","45394626","wem/bandit_party_2","A3CAK26YRNTXDB","either","7","1050","","","","","","","0","1","0","","0.7674111825","0.6","0.2","0.4","0.8","0.5043334007","0.8522077325","0.8829964613","0.7674111825","","","","","","","","","","","","","","76","L","3","","","45","main_expt",""
"","bandit","125","453965","0.0-87.0-0.0","45394626","wem/bandit_party_2","A3CAK26YRNTXDB","either","7","957","","","","","","","0","0","1","0.6301273516","","0.6","0.2","0.4","0.8","","","","","0.5426256613","0.8618589195","0.8674694879","0.6301273516","","","","","","","","","","76","L","3","","","46","main_expt",""
"","bandit","126","456879","0.0-88.0-0.0","45394626","wem/bandit_party_2","A3CAK26YRNTXDB","either","7","1398","","","","","","","0","1","0","","0.7885969413","0.6","0.2","0.4","0.8","0.5024796093","0.905897833","0.8886720039","0.7885969413","","","","","","","","","","","","","","76","L","3","","","47","main_expt",""
"","bandit","127","459789","0.0-89.0-0.0","45394626","wem/bandit_party_2","A3CAK26YRNTXDB","either","7","1393","","","","","","","1","0","0","0.7983786211","","0.6","0.2","0.4","0.8","","","","","0.4689138593","0.8929468812","0.9229902905","0.7983786211","","","","","","","","","","76","L","3","","","48","main_expt",""
"","bandit","128","462431","0.0-90.0-0.0","45394626","wem/bandit_party_2","A3CAK26YRNTXDB","either","7","1127","","","","","","","1","0","0","0.8249867574","","0.6","0.2","0.4","0.8","","","","","0.4439560463","0.854905512","0.9141434128","0.8249867574","","","","","","","","","","76","L","3","","","49","main_expt",""
"","bandit","129","464675","0.0-91.0-0.0","45394626","wem/bandit_party_2","A3CAK26YRNTXDB","either","7","728","","","","","","","1","0","0","0.7532301684","","0.6","0.2","0.4","0.8","","","","","0.4079842927","0.8363103738","0.9181160336","0.7532301684","","","","","","","","","","76","L","3","","","50","main_expt",""
"","bandit","130","466689","0.0-92.0-0.0","45394626","wem/bandit_party_2","A3CAK26YRNTXDB","either","7","497","","","","","","","1","0","0","0.6750909554","","0.6","0.2","0.4","0.8","","","","","0.4675199832","0.7168506975","0.9266489825","0.6750909554","","","","","","","","","","76","L","3","","","51","main_expt",""
"","bandit","131","468893","0.0-93.0-0.0","45394626","wem/bandit_party_2","A3CAK26YRNTXDB","either","7","689","","","","","","","0","1","0","","0.6762079337","0.6","0.2","0.4","0.8","0.4368052975","0.6507986152","0.9285581488","0.6762079337","","","","","","","","","","","","","","76","L","3","","","52","main_expt",""
"","bandit","132","471094","0.0-94.0-0.0","45394626","wem/bandit_party_2","A3CAK26YRNTXDB","either","7","685","","","","","","","0","1","0","","0.7882030045","0.6","0.2","0.4","0.8","0.4967902672","0.6531867096","0.9171724481","0.7882030045","","","","","","","","","","","","","","76","L","3","","","53","main_expt",""
"","bandit","133","473283","0.0-95.0-0.0","45394626","wem/bandit_party_2","A3CAK26YRNTXDB","either","7","671","","","","","","","1","0","0","0.8759533557","","0.6","0.2","0.4","0.8","","","","","0.5321533453","0.6178049746","0.8709862684","0.8759533557","","","","","","","","","","76","L","3","","","54","main_expt",""
"","bandit","134","475365","0.0-96.0-0.0","45394626","wem/bandit_party_2","A3CAK26YRNTXDB","either","7","567","","","","","","","1","0","0","0.9307112091","","0.6","0.2","0.4","0.8","","","","","0.593251847","0.5501477499","0.9016108676","0.9307112091","","","","","","","","","","76","L","3","","","55","main_expt",""
"","bandit","135","477381","0.0-97.0-0.0","45394626","wem/bandit_party_2","A3CAK26YRNTXDB","either","7","501","","","","","","","1","0","0","0.9486344027","","0.6","0.2","0.4","0.8","","","","","0.602347159","0.5181914202","0.9123335035","0.9486344027","","","","","","","","","","76","L","3","","","56","main_expt",""
"","bandit","136","480120","0.0-98.0-0.0","45394626","wem/bandit_party_2","A3CAK26YRNTXDB","either","7","1222","","","","","","","1","0","0","0.9450559811","","0.6","0.2","0.4","0.8","","","","","0.736851976","0.5052283364","0.9338523698","0.9450559811","","","","","","","","","","76","L","3","","","57","main_expt",""
"","bandit","137","482242","0.0-99.0-0.0","45394626","wem/bandit_party_2","A3CAK26YRNTXDB","either","7","604","","","","","","","0","1","0","","0.960587128","0.6","0.2","0.4","0.8","0.7112026436","0.4494585665","0.9023069914","0.960587128","","","","","","","","","","","","","","76","L","3","","","58","main_expt",""
"","bandit","138","484098","0.0-100.0-0.0","45394626","wem/bandit_party_2","A3CAK26YRNTXDB","either","7","339","","","","","","","1","0","0","0.9272570312","","0.6","0.2","0.4","0.8","","","","","0.7605469626","0.4431029696","0.903153386","0.9272570312","","","","","","","","","","76","L","3","","","59","main_expt",""
"","bandit","139","486250","0.0-101.0-0.0","45394626","wem/bandit_party_2","A3CAK26YRNTXDB","either","7","636","","","","","","","1","0","0","0.9075075979","","0.6","0.2","0.4","0.8","","","","","0.6504737249","0.4213069188","0.8975643475","0.9075075979","","","","","","","","","","76","L","3","","","60","main_expt",""
"","bandit","140","488321","0.0-102.0-0.0","45394626","wem/bandit_party_2","A3CAK26YRNTXDB","either","7","551","","","","","","","0","0","1","","0.9011961695","0.6","0.2","0.4","0.8","0.7417300409","0.4735464544","0.8455107238","0.9011961695","","","","","","","","","","","","","","76","L","3","","","61","main_expt",""
"","bandit","141","490888","0.0-103.0-0.0","45394626","wem/bandit_party_2","A3CAK26YRNTXDB","either","7","1050","","","","","","","1","0","0","0.9025442902","","0.6","0.2","0.4","0.8","","","","","0.6889655243","0.4260239588","0.8423106617","0.9025442902","","","","","","","","","","76","L","3","","","62","main_expt",""
"","bandit","142","493088","0.0-104.0-0.0","45394626","wem/bandit_party_2","A3CAK26YRNTXDB","either","7","684","","","","","","","1","0","0","0.900711875","","0.6","0.2","0.4","0.8","","","","","0.7532165261","0.4048641732","0.6997676278","0.900711875","","","","","","","","","","76","L","3","","","63","main_expt",""
"","bandit","143","495159","0.0-105.0-0.0","45394626","wem/bandit_party_2","A3CAK26YRNTXDB","either","7","554","","","","","","","1","0","0","0.8445511995","","0.6","0.2","0.4","0.8","","","","","0.7614619666","0.261135461","0.8033841581","0.8445511995","","","","","","","","","","76","L","3","","","64","main_expt",""
"","bandit","144","497524","0.0-106.0-0.0","45394626","wem/bandit_party_2","A3CAK26YRNTXDB","either","7","848","","","","","","","0","0","1","0.7838665633","","0.6","0.2","0.4","0.8","","","","","0.7474824059","0.4398785507","0.8458775523","0.7838665633","","","","","","","","","","76","L","3","","","65","main_expt",""
"","bandit","145","499633","0.0-107.0-0.0","45394626","wem/bandit_party_2","A3CAK26YRNTXDB","either","7","592","","","","","","","1","0","0","0.8399866527","","0.6","0.2","0.4","0.8","","","","","0.7083026918","0.4549930047","0.8612648572","0.8399866527","","","","","","","","","","76","L","3","","","66","main_expt",""
"","bandit","146","501692","0.0-108.0-0.0","45394626","wem/bandit_party_2","A3CAK26YRNTXDB","either","7","540","","","","","","","0","1","0","","0.9109535201","0.6","0.2","0.4","0.8","0.6535093674","0.5565794079","0.8686018104","0.9109535201","","","","","","","","","","","","","","76","L","3","","","67","main_expt",""
"","bandit","147","503972","0.0-109.0-0.0","45394626","wem/bandit_party_2","A3CAK26YRNTXDB","either","7","764","","","","","","","1","0","0","0.9064065477","","0.6","0.2","0.4","0.8","","","","","0.4923739087","0.4211802827","0.8693437115","0.9064065477","","","","","","","","","","76","L","3","","","68","main_expt",""
"","bandit","148","506121","0.0-110.0-0.0","45394626","wem/bandit_party_2","A3CAK26YRNTXDB","either","7","633","","","","","","","1","0","0","0.9315833469","","0.6","0.2","0.4","0.8","","","","","0.4898097669","0.3687693293","0.9168970181","0.9315833469","","","","","","","","","","76","L","3","","","69","main_expt",""
"","bandit","149","508165","0.0-111.0-0.0","45394626","wem/bandit_party_2","A3CAK26YRNTXDB","either","7","526","","","","","","","1","0","0","0.9393923483","","0.6","0.2","0.4","0.8","","","","","0.4369614599","0.3460903474","0.9293527272","0.9393923483","","","","","","","","","","76","L","3","","","70","main_expt",""
"","bandit","150","510235","0.0-112.0-0.0","45394626","wem/bandit_party_2","A3CAK26YRNTXDB","either","7","555","","","","","","","1","0","0","0.9568343035","","0.6","0.2","0.4","0.8","","","","","0.5031037484","0.3278112836","0.949087413","0.9568343035","","","","","","","","","","76","L","3","","","71","main_expt",""
"","bandit","151","512468","0.0-113.0-0.0","45394626","wem/bandit_party_2","A3CAK26YRNTXDB","either","7","717","","","","","","","1","0","0","0.947758434","","0.6","0.2","0.4","0.8","","","","","0.5397903688","0.2720469766","0.906373323","0.947758434","","","","","","","","","","76","L","3","","","72","main_expt",""
"","bandit","152","514792","0.0-114.0-0.0","45394626","wem/bandit_party_2","A3CAK26YRNTXDB","either","7","805","","","","","","","0","0","1","0.9052010222","","0.6","0.2","0.4","0.8","","","","","0.5540652028","0.2451019773","0.93965919","0.9052010222","","","","","","","","","","76","L","3","","","73","main_expt",""
"","bandit","153","516889","0.0-115.0-0.0","45394626","wem/bandit_party_2","A3CAK26YRNTXDB","either","7","580","","","","","","","1","0","0","0.927704936","","0.6","0.2","0.4","0.8","","","","","0.61733434","0.2645862521","0.9416319858","0.927704936","","","","","","","","","","76","L","3","","","74","main_expt",""
"","bandit","154","519224","0.0-116.0-0.0","45394626","wem/bandit_party_2","A3CAK26YRNTXDB","either","7","819","","","","","","","1","0","0","0.8769567517","","0.6","0.2","0.4","0.8","","","","","0.6341908543","0.2298582","0.9535384208","0.8769567517","","","","","","","","","","76","L","3","","","75","main_expt",""
"","bandit","155","521438","0.0-117.0-0.0","45394626","wem/bandit_party_2","A3CAK26YRNTXDB","either","7","694","","","","","","","0","1","0","","0.8456064169","0.6","0.2","0.4","0.8","0.6355577018","0.3460043445","0.9585479729","0.8456064169","","","","","","","","","","","","","","76","L","3","","","76","main_expt",""
"","bandit","156","523889","0.0-118.0-0.0","45394626","wem/bandit_party_2","A3CAK26YRNTXDB","either","7","932","","","","","","","1","0","0","0.8325595713","","0.6","0.2","0.4","0.8","","","","","0.7055426269","0.2526488818","0.9610253773","0.8325595713","","","","","","","","","","76","L","3","","","77","main_expt",""
"","bandit","157","526370","0.0-119.0-0.0","45394626","wem/bandit_party_2","A3CAK26YRNTXDB","either","7","965","","","","","","","1","0","0","0.9128982172","","0.6","0.2","0.4","0.8","","","","","0.6137882531","0.2625396382","0.9580320452","0.9128982172","","","","","","","","","","76","L","3","","","78","main_expt",""
"","bandit","158","528769","0.0-120.0-0.0","45394626","wem/bandit_party_2","A3CAK26YRNTXDB","either","7","881","","","","","","","0","1","0","","0.9213349282","0.6","0.2","0.4","0.8","0.668392527","0.2957535945","0.9403834825","0.9213349282","","","","","","","","","","","","","","76","L","3","","","79","main_expt",""
"","bandit","159","531329","0.0-121.0-0.0","45394626","wem/bandit_party_2","A3CAK26YRNTXDB","either","7","1043","","","","","","","1","0","0","0.8935563746","","0.6","0.2","0.4","0.8","","","","","0.7457361895","0.1831261498","0.946171157","0.8935563746","","","","","","","","","","76","L","3","","","80","main_expt",""
"","bandit","160","534299","0.0-122.0-0.0","45394626","wem/bandit_party_2","A3CAK26YRNTXDB","either","7","1450","","","","","","","0","1","0","","0.932831263","0.6","0.2","0.4","0.8","0.8028050151","0.1450659425","0.9800092583","0.932831263","","","","","","","","","","","","","","76","L","3","","","81","main_expt",""
"","bandit","161","536449","0.0-123.0-0.0","45394626","wem/bandit_party_2","A3CAK26YRNTXDB","either","7","632","","","","","","","1","0","0","0.9403650082","","0.6","0.2","0.4","0.8","","","","","0.8727424511","0.1486641529","0.9666397243","0.9403650082","","","","","","","","","","76","L","3","","","82","main_expt",""
"","bandit","162","538503","0.0-124.0-0.0","45394626","wem/bandit_party_2","A3CAK26YRNTXDB","either","7","537","","","","","","","1","0","0","0.9066396881","","0.6","0.2","0.4","0.8","","","","","0.8283068274","0.1567811066","0.9637330664","0.9066396881","","","","","","","","","","76","L","3","","","83","main_expt",""
"","bandit","163","540573","0.0-125.0-0.0","45394626","wem/bandit_party_2","A3CAK26YRNTXDB","either","7","552","","","","","","","1","0","0","0.8962006295","","0.6","0.2","0.4","0.8","","","","","0.8030064341","0.196091916","0.9617949183","0.8962006295","","","","","","","","","","76","L","3","","","84","main_expt",""
"","bandit","164","542710","0.0-126.0-0.0","45394626","wem/bandit_party_2","A3CAK26YRNTXDB","either","7","620","","","","","","","1","0","0","0.9093999993","","0.6","0.2","0.4","0.8","","","","","0.8622567251","0.1512390112","0.9561985801","0.9093999993","","","","","","","","","","76","L","3","","","85","main_expt",""
"","bandit","165","545101","0.0-127.0-0.0","45394626","wem/bandit_party_2","A3CAK26YRNTXDB","either","7","875","","","","","","","0","1","0","","0.9326862648","0.6","0.2","0.4","0.8","0.896584634","0.1486491559","0.9422505668","0.9326862648","","","","","","","","","","","","","","76","L","3","","","86","main_expt",""
"","bandit","166","547262","0.0-128.0-0.0","45394626","wem/bandit_party_2","A3CAK26YRNTXDB","either","7","645","","","","","","","0","1","0","","0.9039434857","0.6","0.2","0.4","0.8","0.9208758521","0.1047878604","0.926711091","0.9039434857","","","","","","","","","","","","","","76","L","3","","","87","main_expt",""
"","bandit","167","549777","0.0-129.0-0.0","45394626","wem/bandit_party_2","A3CAK26YRNTXDB","either","7","993","","","","","","","1","0","0","0.9195127861","","0.6","0.2","0.4","0.8","","","","","0.9266301883","0.07038149384","0.9092576496","0.9195127861","","","","","","","","","","76","L","3","","","88","main_expt",""
"","bandit","168","551696","0.0-130.0-0.0","45394626","wem/bandit_party_2","A3CAK26YRNTXDB","either","7","398","","","","","","","1","0","0","0.9225053559","","0.6","0.2","0.4","0.8","","","","","0.9259215542","0.1311535074","0.8948591238","0.9225053559","","","","","","","","","","76","L","3","","","89","main_expt",""
"","bandit","169","553690","0.0-131.0-0.0","45394626","wem/bandit_party_2","A3CAK26YRNTXDB","either","7","477","","","","","","","0","1","0","","0.9014563988","0.6","0.2","0.4","0.8","0.9400480964","0.1241310956","0.8716727139","0.9014563988","","","","","","","","","","","","","","76","L","3","","","90","main_expt",""
"","bandit","170","555735","0.0-132.0-0.0","45394626","wem/bandit_party_2","A3CAK26YRNTXDB","either","7","528","","","","","","","1","0","0","0.9162570652","","0.6","0.2","0.4","0.8","","","","","0.8961855863","0.09664170694","0.8969144331","0.9162570652","","","","","","","","","","76","L","3","","","91","main_expt",""
"","bandit","171","557750","0.0-133.0-0.0","45394626","wem/bandit_party_2","A3CAK26YRNTXDB","either","7","497","","","","","","","1","0","0","0.9171553871","","0.6","0.2","0.4","0.8","","","","","0.9211437923","0.09586364307","0.9171199264","0.9171553871","","","","","","","","","","76","L","3","","","92","main_expt",""
"","bandit","172","559643","0.0-134.0-0.0","45394626","wem/bandit_party_2","A3CAK26YRNTXDB","either","7","377","","","","","","","1","0","0","0.9463284029","","0.6","0.2","0.4","0.8","","","","","0.8947860396","0.08304118766","0.9593171332","0.9463284029","","","","","","","","","","76","L","3","","","93","main_expt",""
"","bandit","173","561919","0.0-135.0-0.0","45394626","wem/bandit_party_2","A3CAK26YRNTXDB","either","7","753","","","","","","","1","0","0","0.9477079066","","0.6","0.2","0.4","0.8","","","","","0.822540961","0.1222865453","0.959226596","0.9477079066","","","","","","","","","","76","L","3","","","94","main_expt",""
"","bandit","174","564275","0.0-136.0-0.0","45394626","wem/bandit_party_2","A3CAK26YRNTXDB","either","7","838","","","","","","","1","0","0","0.9474919074","","0.6","0.2","0.4","0.8","","","","","0.8288041746","0.211460517","0.947105423","0.9474919074","","","","","","","","","","76","L","3","","","95","main_expt",""
"","bandit","175","566554","0.0-137.0-0.0","45394626","wem/bandit_party_2","A3CAK26YRNTXDB","either","7","762","","","","","","","1","0","0","0.9722490369","","0.6","0.2","0.4","0.8","","","","","0.8217366877","0.2757920232","0.937205139","0.9722490369","","","","","","","","","","76","L","3","","","96","main_expt",""
"","bandit","176","568591","0.0-138.0-0.0","45394626","wem/bandit_party_2","A3CAK26YRNTXDB","either","7","518","","","","","","","1","0","0","0.980822097","","0.6","0.2","0.4","0.8","","","","","0.725285089","0.2646876298","0.9472767204","0.980822097","","","","","","","","","","76","L","3","","","97","main_expt",""
"","bandit","177","570576","0.0-139.0-0.0","45394626","wem/bandit_party_2","A3CAK26YRNTXDB","either","7","466","","","","","","","0","1","0","","0.9761591307","0.6","0.2","0.4","0.8","0.7958966199","0.3278454636","0.962959595","0.9761591307","","","","","","","","","","","","","","76","L","3","","","98","main_expt",""
"","bandit","178","572694","0.0-140.0-0.0","45394626","wem/bandit_party_2","A3CAK26YRNTXDB","either","7","600","","","","","","","1","0","0","0.9597391097","","0.6","0.2","0.4","0.8","","","","","0.7741840332","0.4641870332","0.9720903607","0.9597391097","","","","","","","","","","76","L","3","","","99","main_expt",""
"","bandit","179","574917","0.0-141.0-0.0","45394626","wem/bandit_party_2","A3CAK26YRNTXDB","either","7","704","","","","","","","1","0","0","0.9557148533","","0.6","0.2","0.4","0.8","","","","","0.7934767162","0.3972344865","0.9737169538","0.9557148533","","","","","","","","","","76","L","3","","","100","main_expt",""
"","bandit","180","577016","0.0-142.0-0.0","45394626","wem/bandit_party_2","A3CAK26YRNTXDB","either","7","580","","","","","","","1","0","0","0.9687934467","","0.6","0.2","0.4","0.8","","","","","0.8307638242","0.4395304924","0.986468331","0.9687934467","","","","","","","","","","76","L","3","","","101","main_expt",""
"","bandit","181","579014","0.0-143.0-0.0","45394626","wem/bandit_party_2","A3CAK26YRNTXDB","either","7","481","","","","","","","1","0","0","0.9713318577","","0.6","0.2","0.4","0.8","","","","","0.7737236933","0.5248298482","0.9859557102","0.9713318577","","","","","","","","","","76","L","3","","","102","main_expt",""
"","bandit","182","581201","0.0-144.0-0.0","45394626","wem/bandit_party_2","A3CAK26YRNTXDB","either","7","668","","","","","","","1","0","0","0.9768128314","","0.6","0.2","0.4","0.8","","","","","0.8168427084","0.6218364577","0.9828698412","0.9768128314","","","","","","","","","","76","L","3","","","103","main_expt",""
"","bandit","183","583258","0.0-145.0-0.0","45394626","wem/bandit_party_2","A3CAK26YRNTXDB","either","7","536","","","","","","","1","0","0","0.9566706727","","0.6","0.2","0.4","0.8","","","","","0.7020104164","0.5528563194","0.9655029871","0.9566706727","","","","","","","","","","76","L","3","","","104","main_expt",""
"","bandit","184","585286","0.0-146.0-0.0","45394626","wem/bandit_party_2","A3CAK26YRNTXDB","either","7","510","","","","","","","1","0","0","0.9352711559","","0.6","0.2","0.4","0.8","","","","","0.6750414237","0.515821512","0.9587067199","0.9352711559","","","","","","","","","","76","L","3","","","105","main_expt",""
"","bandit","185","587144","0.0-147.0-0.0","45394626","wem/bandit_party_2","A3CAK26YRNTXDB","either","7","337","","","","","","","1","0","0","0.8980036198","","0.6","0.2","0.4","0.8","","","","","0.5886413089","0.5380341879","0.9358961366","0.8980036198","","","","","","","","","","76","L","3","","","106","main_expt",""
"","bandit","186","589065","0.0-148.0-0.0","45394626","wem/bandit_party_2","A3CAK26YRNTXDB","either","7","403","","","","","","","1","0","0","0.9175797088","","0.6","0.2","0.4","0.8","","","","","0.5507707533","0.3291998873","0.8829949032","0.9175797088","","","","","","","","","","76","L","3","","","107","main_expt",""
"","bandit","187","590974","0.0-149.0-0.0","45394626","wem/bandit_party_2","A3CAK26YRNTXDB","either","7","391","","","","","","","1","0","0","0.8966825343","","0.6","0.2","0.4","0.8","","","","","0.4325904974","0.3608627265","0.7668100276","0.8966825343","","","","","","","","","","76","L","3","","","108","main_expt",""
"","bandit","188","593471","0.0-150.0-0.0","45394626","wem/bandit_party_2","A3CAK26YRNTXDB","either","7","978","","","","","","","1","0","0","0.8883819791","","0.6","0.2","0.4","0.8","","","","","0.3735159861","0.3837942066","0.7652463225","0.8883819791","","","","","","","","","","76","L","3","","","109","main_expt",""
"","bandit","189","595473","0.0-151.0-0.0","45394626","wem/bandit_party_2","A3CAK26YRNTXDB","either","7","485","","","","","","","1","0","0","0.9087011364","","0.6","0.2","0.4","0.8","","","","","0.3704440872","0.3019365294","0.7974745759","0.9087011364","","","","","","","","","","76","L","3","","","110","main_expt",""
"","bandit","190","597318","0.0-152.0-0.0","45394626","wem/bandit_party_2","A3CAK26YRNTXDB","either","7","325","","","","","","","1","0","0","0.9337026812","","0.6","0.2","0.4","0.8","","","","","0.2749067499","0.3483008865","0.812352323","0.9337026812","","","","","","","","","","76","L","3","","","111","main_expt",""
"","bandit","191","599250","0.0-153.0-0.0","45394626","wem/bandit_party_2","A3CAK26YRNTXDB","either","7","414","","","","","","","1","0","0","0.9113388615","","0.6","0.2","0.4","0.8","","","","","0.2734667401","0.4342302697","0.7428975936","0.9113388615","","","","","","","","","","76","L","3","","","112","main_expt",""
"","bandit","192","601180","0.0-154.0-0.0","45394626","wem/bandit_party_2","A3CAK26YRNTXDB","either","7","411","","","","","","","0","1","0","","0.8980528729","0.6","0.2","0.4","0.8","0.2291946885","0.5187246657","0.7139653514","0.8980528729","","","","","","","","","","","","","","76","L","3","","","113","main_expt",""
"","bandit","193","603082","0.0-155.0-0.0","45394626","wem/bandit_party_2","A3CAK26YRNTXDB","either","7","384","","","","","","","0","1","0","","0.8036326458","0.6","0.2","0.4","0.8","0.2413339081","0.5381742134","0.7945657698","0.8036326458","","","","","","","","","","","","","","76","L","3","","","114","main_expt",""
"","bandit","194","605013","0.0-156.0-0.0","45394626","wem/bandit_party_2","A3CAK26YRNTXDB","either","7","410","","","","","","","1","0","0","0.8700945717","","0.6","0.2","0.4","0.8","","","","","0.3092826039","0.4785029821","0.8405588069","0.8700945717","","","","","","","","","","76","L","3","","","115","main_expt",""
"","bandit","195","607039","0.0-157.0-0.0","45394626","wem/bandit_party_2","A3CAK26YRNTXDB","either","7","507","","","","","","","1","0","0","0.8895114993","","0.6","0.2","0.4","0.8","","","","","0.2361366225","0.4654757386","0.8641798474","0.8895114993","","","","","","","","","","76","L","3","","","116","main_expt",""
"","bandit","196","608897","0.0-158.0-0.0","45394626","wem/bandit_party_2","A3CAK26YRNTXDB","either","7","338","","","","","","","1","0","0","0.8936856952","","0.6","0.2","0.4","0.8","","","","","0.218402711","0.4578633225","0.8756768431","0.8936856952","","","","","","","","","","76","L","3","","","117","main_expt",""
"","bandit","197","610983","0.0-159.0-0.0","45394626","wem/bandit_party_2","A3CAK26YRNTXDB","either","7","568","","","","","","","1","0","0","0.8077127093","","0.6","0.2","0.4","0.8","","","","","0.2003641109","0.4773941538","0.9015269718","0.8077127093","","","","","","","","","","76","L","3","","","118","main_expt",""
"","bandit","198","612947","0.0-160.0-0.0","45394626","wem/bandit_party_2","A3CAK26YRNTXDB","either","7","443","","","","","","","1","0","0","0.8901108642","","0.6","0.2","0.4","0.8","","","","","0.1375137305","0.508374463","0.8709738884","0.8901108642","","","","","","","","","","76","L","3","","","119","main_expt",""
"","bandit","199","615138","0.0-161.0-0.0","45394626","wem/bandit_party_2","A3CAK26YRNTXDB","either","7","669","","","","","","","1","0","0","0.8731124259","","0.6","0.2","0.4","0.8","","","","","0.08656631556","0.4294310012","0.8268338002","0.8731124259","","","","","","","","","","76","L","3","","","120","main_expt",""
"","bandit","200","617217","0.0-162.0-0.0","45394626","wem/bandit_party_2","A3CAK26YRNTXDB","either","7","559","","","","","","","0","0","1","0.8509174952","","0.6","0.2","0.4","0.8","","","","","0.07812634859","0.3933985885","0.8432616236","0.8509174952","","","","","","","","","","76","L","3","","","121","main_expt",""
"","bandit","201","619343","0.0-163.0-0.0","45394626","wem/bandit_party_2","A3CAK26YRNTXDB","either","7","607","","","","","","","1","0","0","0.8707856005","","0.6","0.2","0.4","0.8","","","","","0.09046411854","0.2641409089","0.8128728295","0.8707856005","","","","","","","","","","76","L","3","","","122","main_expt",""
"","bandit","202","621624","0.0-164.0-0.0","45394626","wem/bandit_party_2","A3CAK26YRNTXDB","either","7","759","","","","","","","1","0","0","0.7592524618","","0.6","0.2","0.4","0.8","","","","","0.1132512529","0.2491349268","0.752198112","0.7592524618","","","","","","","","","","76","L","3","","","123","main_expt",""
"","bandit","203","623638","0.0-165.0-0.0","45394626","wem/bandit_party_2","A3CAK26YRNTXDB","either","7","496","","","","","","","1","0","0","0.7330206325","","0.6","0.2","0.4","0.8","","","","","0.09419269712","0.2587226179","0.7117781612","0.7330206325","","","","","","","","","","76","L","3","","","124","main_expt",""
"","bandit","204","625774","0.0-166.0-0.0","45394626","wem/bandit_party_2","A3CAK26YRNTXDB","either","7","616","","","","","","","0","1","0","","0.6903693331","0.6","0.2","0.4","0.8","0.110513045","0.2925679814","0.7177409252","0.6903693331","","","","","","","","","","","","","","76","L","3","","","125","main_expt",""
"","bandit","205","627711","0.0-167.0-0.0","45394626","wem/bandit_party_2","A3CAK26YRNTXDB","either","7","418","","","","","","","1","0","0","0.6370641568","","0.6","0.2","0.4","0.8","","","","","0.07088043536","0.3997536411","0.7240917845","0.6370641568","","","","","","","","","","76","L","3","","","126","main_expt",""
"","bandit","206","629865","0.0-168.0-0.0","45394626","wem/bandit_party_2","A3CAK26YRNTXDB","either","7","633","","","","","","","0","0","1","0.6192694325","","0.6","0.2","0.4","0.8","","","","","0.1041728595","0.4120812041","0.6788578752","0.6192694325","","","","","","","","","","76","L","3","","","127","main_expt",""
"","bandit","207","631746","0.0-169.0-0.0","45394626","wem/bandit_party_2","A3CAK26YRNTXDB","either","7","363","","","","","","","1","0","0","0.559348281","","0.6","0.2","0.4","0.8","","","","","0.1006708935","0.3731276689","0.6257789885","0.559348281","","","","","","","","","","76","L","3","","","128","main_expt",""
"","bandit","208","633896","0.0-170.0-0.0","45394626","wem/bandit_party_2","A3CAK26YRNTXDB","either","7","629","","","","","","","0","1","0","","0.610360397","0.6","0.2","0.4","0.8","0.1336488566","0.3263017501","0.4761868647","0.610360397","","","","","","","","","","","","","","76","L","3","","","129","main_expt",""
"","bandit","209","635899","0.0-171.0-0.0","45394626","wem/bandit_party_2","A3CAK26YRNTXDB","either","7","485","","","","","","","1","0","0","0.5737783772","","0.6","0.2","0.4","0.8","","","","","0.1271550391","0.3226142564","0.4745188583","0.5737783772","","","","","","","","","","76","L","3","","","130","main_expt",""
"","bandit","210","637916","0.0-172.0-0.0","45394626","wem/bandit_party_2","A3CAK26YRNTXDB","either","7","496","","","","","","","0","0","1","0.6252154127","","0.6","0.2","0.4","0.8","","","","","0.1594360192","0.3907136596","0.4674409752","0.6252154127","","","","","","","","","","76","L","3","","","131","main_expt",""
"","bandit","211","640561","0.0-173.0-0.0","45394626","wem/bandit_party_2","A3CAK26YRNTXDB","either","7","1126","","","","","","","0","0","1","","0.368649462","0.6","0.2","0.4","0.8","0.1027658661","0.4983036492","0.368649462","0.6473056352","","","","","","","","","","","","","","75","K","2","","","132","main_expt",""
"","bandit","212","642456","0.0-174.0-0.0","45394626","wem/bandit_party_2","A3CAK26YRNTXDB","either","7","374","","","","","","","0","0","1","","0.4313577514","0.6","0.2","0.4","0.8","0.1223548883","0.6347393695","0.4313577514","0.4595123468","","","","","","","","","","","","","","75","K","2","","","133","main_expt",""
"","bandit","213","644580","0.0-175.0-0.0","45394626","wem/bandit_party_2","A3CAK26YRNTXDB","either","7","604","","","","","","","0","0","1","","0.6037412299","0.6","0.2","0.4","0.8","0.1063029331","0.6037412299","0.3692150919","0.3043385566","","","","","","","","","","","","","","74","J","1","","","134","main_expt",""
"","bandit","214","646810","0.0-176.0-0.0","45394626","wem/bandit_party_2","A3CAK26YRNTXDB","either","7","708","","","","","","","0","1","0","","0.5511090861","0.6","0.2","0.4","0.8","0.080644856","0.5511090861","0.3077662431","0.340857567","","","","","","","","","","","","","","74","J","1","","","135","main_expt",""
"","bandit","215","648774","0.0-177.0-0.0","45394626","wem/bandit_party_2","A3CAK26YRNTXDB","either","7","444","","","","","","","0","1","0","","0.585911414","0.6","0.2","0.4","0.8","0.1359867045","0.585911414","0.314969588","0.2655810755","","","","","","","","","","","","","","74","J","1","","","136","main_expt",""
"","bandit","216","650937","0.0-178.0-0.0","45394626","wem/bandit_party_2","A3CAK26YRNTXDB","either","7","643","","","","","","","0","1","0","","0.5805905743","0.6","0.2","0.4","0.8","0.168344283","0.5805905743","0.3590847215","0.3025530854","","","","","","","","","","","","","","74","J","1","","","137","main_expt",""
"","bandit","217","652924","0.0-179.0-0.0","45394626","wem/bandit_party_2","A3CAK26YRNTXDB","either","7","466","","","","","","","0","1","0","","0.6357737786","0.6","0.2","0.4","0.8","0.1867455324","0.6357737786","0.3588584756","0.2888348812","","","","","","","","","","","","","","74","J","1","","","138","main_expt",""
"","bandit","218","655050","0.0-180.0-0.0","45394626","wem/bandit_party_2","A3CAK26YRNTXDB","either","7","603","","","","","","","0","0","1","","0.66639317","0.6","0.2","0.4","0.8","0.2277874407","0.66639317","0.4289761638","0.2463208975","","","","","","","","","","","","","","74","J","1","","","139","main_expt",""
"","bandit","219","657038","0.0-181.0-0.0","45394626","wem/bandit_party_2","A3CAK26YRNTXDB","either","7","468","","","","","","","0","0","1","","0.6365789307","0.6","0.2","0.4","0.8","0.2577820179","0.6365789307","0.3801639999","0.273109751","","","","","","","","","","","","","","74","J","1","","","140","main_expt",""
"","bandit","220","658987","0.0-182.0-0.0","45394626","wem/bandit_party_2","A3CAK26YRNTXDB","either","7","428","","","","","","","0","0","1","","0.6045632144","0.6","0.2","0.4","0.8","0.3674069736","0.6045632144","0.2445936549","0.3355442787","","","","","","","","","","","","","","74","J","1","","","141","main_expt",""
"","bandit","221","660886","0.0-183.0-0.0","45394626","wem/bandit_party_2","A3CAK26YRNTXDB","either","7","379","","","","","","","1","0","0","0.4345417514","","0.6","0.2","0.4","0.8","","","","","0.4345417514","0.5148607161","0.3394066497","0.2781999234","","","","","","","","","","72","H","0","img/none_selected.jpg","","142","main_expt",""
"","bandit","222","662864","0.0-184.0-0.0","45394626","wem/bandit_party_2","A3CAK26YRNTXDB","either","7","457","","","","","","","0","0","1","","0.3811672827","0.6","0.2","0.4","0.8","0.3811672827","0.4754154836","0.2899754881","0.2599467226","","","","","","","","","","","","","","72","H","0","img/none_selected.jpg","","143","main_expt",""
"","bandit","223","664905","0.0-185.0-0.0","45394626","wem/bandit_party_2","A3CAK26YRNTXDB","either","7","521","","","","","","","0","0","1","0.2754059391","","0.6","0.2","0.4","0.8","","","","","0.2754059391","0.516029258","0.3701332444","0.2353144144","","","","","","","","","","72","H","0","img/none_selected.jpg","","144","main_expt",""
"","bandit","224","666921","0.0-186.0-0.0","45394626","wem/bandit_party_2","A3CAK26YRNTXDB","either","7","495","","","","","","","0","0","1","0.2773400324","","0.6","0.2","0.4","0.8","","","","","0.2773400324","0.6646605279","0.3322753171","0.2120114759","","","","","","","","","","72","H","0","img/none_selected.jpg","","145","main_expt",""
"","bandit","225","668709","0.0-187.0-0.0","45394626","wem/bandit_party_2","A3CAK26YRNTXDB","either","7","267","","","","","","","0","0","1","0.176067728","","0.6","0.2","0.4","0.8","","","","","0.2780426824","0.6331546467","0.3203507811","0.176067728","","","","","","","","","","76","L","3","","","146","main_expt",""
"","bandit","226","670581","0.0-188.0-0.0","45394626","wem/bandit_party_2","A3CAK26YRNTXDB","either","7","351","","","","","","","0","0","1","","0.1329453439","0.6","0.2","0.4","0.8","0.3373608721","0.6356747602","0.304761248","0.1329453439","","","","","","","","","","","","","","76","L","3","","","147","main_expt",""
"","bandit","227","672448","0.0-189.0-0.0","45394626","wem/bandit_party_2","A3CAK26YRNTXDB","either","7","348","","","","","","","0","1","0","","0.3809280674","0.6","0.2","0.4","0.8","0.3529594122","0.6301772709","0.3809280674","0.1465103875","","","","","","","","","","","","","","75","K","2","","","148","main_expt",""
"","bandit","228","674376","0.0-190.0-0.0","45394626","wem/bandit_party_2","A3CAK26YRNTXDB","either","7","407","","","","","","","0","1","0","","0.3997986218","0.6","0.2","0.4","0.8","0.3878328211","0.6640591829","0.3997986218","0.1190451538","","","","","","","","","","","","","","75","K","2","","","149","main_expt",""
"","bandit","229","676483","0.0-191.0-0.0","45394626","wem/bandit_party_2","A3CAK26YRNTXDB","either","7","588","","","","","","","1","0","0","0.3159341416","","0.6","0.2","0.4","0.8","","","","","0.42943501","0.6592717552","0.3159341416","0.1195570164","","","","","","","","","","75","K","2","","","150","main_expt",""
"","bandit","230","678514","0.0-192.0-0.0","45394626","wem/bandit_party_2","A3CAK26YRNTXDB","either","7","509","","","","","","","1","0","0","0.3052853957","","0.6","0.2","0.4","0.8","","","","","0.5142681232","0.5928743102","0.3052853957","0.100492686","","","","","","","","","","75","K","2","","","151","main_expt",""
"","bandit","231","680384","0.0-193.0-0.0","45394626","wem/bandit_party_2","A3CAK26YRNTXDB","either","7","350","","","","","","","0","0","1","0.1896018403","","0.6","0.2","0.4","0.8","","","","","0.6321073962","0.6822187145","0.1896018403","0.1030367897","","","","","","","","","","75","K","2","","","152","main_expt",""
"","bandit","232","682547","0.0-194.0-0.0","45394626","wem/bandit_party_2","A3CAK26YRNTXDB","either","7","642","","","","","","","0","0","1","","0.2439656658","0.6","0.2","0.4","0.8","0.6965670792","0.6832005509","0.2439656658","0.2059045691","","","","","","","","","","","","","","75","K","2","","","153","main_expt",""
"","bandit","233","684702","0.0-195.0-0.0","45394626","wem/bandit_party_2","A3CAK26YRNTXDB","either","7","633","","","","","","","1","0","0","0.3068434149","","0.6","0.2","0.4","0.8","","","","","0.6516005735","0.7109729062","0.3068434149","0.2921647579","","","","","","","","","","75","K","2","","","154","main_expt",""
"","bandit","234","686702","0.0-196.0-0.0","45394626","wem/bandit_party_2","A3CAK26YRNTXDB","either","7","481","","","","","","","1","0","0","0.2314644909","","0.6","0.2","0.4","0.8","","","","","0.7291318088","0.6975465092","0.2314644909","0.1789694193","","","","","","","","","","75","K","2","","","155","main_expt",""
"","bandit","235","688559","0.0-197.0-0.0","45394626","wem/bandit_party_2","A3CAK26YRNTXDB","either","7","337","","","","","","","0","0","1","","0.2154001061","0.6","0.2","0.4","0.8","0.6273572288","0.6580608271","0.2154001061","0.2187195075","","","","","","","","","","","","","","75","K","2","","","156","main_expt",""
"","bandit","236","690443","0.0-198.0-0.0","45394626","wem/bandit_party_2","A3CAK26YRNTXDB","either","7","362","","","","","","","0","0","1","0.1648135251","","0.6","0.2","0.4","0.8","","","","","0.566197257","0.5695802138","0.1648135251","0.2669834713","","","","","","","","","","75","K","2","","","157","main_expt",""
"","bandit","237","692338","0.0-199.0-0.0","45394626","wem/bandit_party_2","A3CAK26YRNTXDB","either","7","373","","","","","","","1","0","0","0.4240307821","","0.6","0.2","0.4","0.8","","","","","0.4523642269","0.4733954301","0.2215973425","0.4240307821","","","","","","","","","","76","L","3","","","158","main_expt",""
"","bandit","238","694315","0.0-200.0-0.0","45394626","wem/bandit_party_2","A3CAK26YRNTXDB","either","7","457","","","","","","","0","0","1","","0.3840951437","0.6","0.2","0.4","0.8","0.3991212054","0.5619817243","0.2243274726","0.3840951437","","","","","","","","","","","","","","76","L","3","","","159","main_expt",""
"","bandit","239","696282","0.0-201.0-0.0","45394626","wem/bandit_party_2","A3CAK26YRNTXDB","either","7","443","","","","","","","0","0","1","0.4098147986","","0.6","0.2","0.4","0.8","","","","","0.3566558104","0.4701658979","0.2061161075","0.4098147986","","","","","","","","","","76","L","3","","","160","main_expt",""
"","bandit","240","698282","0.0-202.0-0.0","45394626","wem/bandit_party_2","A3CAK26YRNTXDB","either","7","479","","","","","","","0","0","1","0.4027252302","","0.6","0.2","0.4","0.8","","","","","0.4430908041","0.5673671472","0.209200141","0.4027252302","","","","","","","","","","76","L","3","","","161","main_expt",""
"","bandit","241","700447","0.0-203.0-0.0","45394626","wem/bandit_party_2","A3CAK26YRNTXDB","either","7","643","","","","","","","0","1","0","","0.3966098285","0.6","0.2","0.4","0.8","0.3966098285","0.4921809208","0.1477343718","0.3824170733","","","","","","","","","","","","","","72","H","0","img/none_selected.jpg","","162","main_expt",""
"","bandit","242","702665","0.0-204.0-0.0","45394626","wem/bandit_party_2","A3CAK26YRNTXDB","either","7","697","","","","","","","1","0","0","0.3455868331","","0.6","0.2","0.4","0.8","","","","","0.3455868331","0.4204505308","0.1525050104","0.3352280924","","","","","","","","","","72","H","0","img/none_selected.jpg","","163","main_expt",""
"","bandit","243","704818","0.0-205.0-0.0","45394626","wem/bandit_party_2","A3CAK26YRNTXDB","either","7","632","","","","","","","0","0","1","0.3368969945","","0.6","0.2","0.4","0.8","","","","","0.3368969945","0.534748173","0.08831047354","0.3379187571","","","","","","","","","","72","H","0","img/none_selected.jpg","","164","main_expt",""
"","bandit","244","706849","0.0-206.0-0.0","45394626","wem/bandit_party_2","A3CAK26YRNTXDB","either","7","508","","","","","","","0","1","0","","0.3767562303","0.6","0.2","0.4","0.8","0.3767562303","0.4724966102","0.1035482763","0.3160546663","","","","","","","","","","","","","","72","H","0","img/none_selected.jpg","","165","main_expt",""
"","bandit","245","708890","0.0-207.0-0.0","45394626","wem/bandit_party_2","A3CAK26YRNTXDB","either","7","515","","","","","","","0","0","1","","0.4727650462","0.6","0.2","0.4","0.8","0.4727650462","0.5280505203","0.06888190676","0.3058359067","","","","","","","","","","","","","","72","H","0","img/none_selected.jpg","","166","main_expt",""
"","bandit","246","710881","0.0-208.0-0.0","45394626","wem/bandit_party_2","A3CAK26YRNTXDB","either","7","468","","","","","","","0","0","1","0.6140635231","","0.6","0.2","0.4","0.8","","","","","0.6140635231","0.589670135","0.06051452263","0.2561334246","","","","","","","","","","72","H","0","img/none_selected.jpg","","167","main_expt",""
"","bandit","247","712777","0.0-209.0-0.0","45394626","wem/bandit_party_2","A3CAK26YRNTXDB","either","7","375","","","","","","","0","0","1","0.5629225295","","0.6","0.2","0.4","0.8","","","","","0.5629225295","0.5058201204","0.07905307949","0.2459084815","","","","","","","","","","72","H","0","img/none_selected.jpg","","168","main_expt",""
"","bandit","248","714526","0.0-210.0-0.0","45394626","wem/bandit_party_2","A3CAK26YRNTXDB","either","7","226","","","","","","","0","0","1","","0.4102709571","0.6","0.2","0.4","0.8","0.6456076899","0.4102709571","0.07051596905","0.2138460752","","","","","","","","","","","","","","74","J","1","","","169","main_expt",""
"","bandit","249","716945","0.0-211.0-0.0","45394626","wem/bandit_party_2","A3CAK26YRNTXDB","either","7","896","","","","","","","0","1","0","","0.1056762318","0.6","0.2","0.4","0.8","0.719827795","0.5061826445","0.1056762318","0.1642406351","","","","","","","","","","","","","","75","K","2","","","170","main_expt",""
"","bandit","250","718959","0.0-212.0-0.0","45394626","wem/bandit_party_2","A3CAK26YRNTXDB","either","7","493","","","","","","","0","0","1","0.1513980822","","0.6","0.2","0.4","0.8","","","","","0.6716280274","0.6092158501","0.1513980822","0.2337150112","","","","","","","","","","75","K","2","","","171","main_expt",""
"","bandit","251","720844","0.0-213.0-0.0","45394626","wem/bandit_party_2","A3CAK26YRNTXDB","either","7","361","","","","","","","0","0","1","","0.1552293495","0.6","0.2","0.4","0.8","0.5683226388","0.691496366","0.1552293495","0.3128682212","","","","","","","","","","","","","","75","K","2","","","172","main_expt",""
"","bandit","252","722658","0.0-214.0-0.0","45394626","wem/bandit_party_2","A3CAK26YRNTXDB","either","7","293","","","","","","","0","0","1","0.1325975083","","0.6","0.2","0.4","0.8","","","","","0.4581357746","0.7402253768","0.1325975083","0.2775517843","","","","","","","","","","75","K","2","","","173","main_expt",""
"","bandit","253","724394","0.0-215.0-0.0","45394626","wem/bandit_party_2","A3CAK26YRNTXDB","either","7","214","","","","","","","0","1","0","","0.6601004511","0.6","0.2","0.4","0.8","0.5903479164","0.6601004511","0.09024892351","0.4159305855","","","","","","","","","","","","","","74","J","1","","","174","main_expt",""
"","bandit","254","726251","0.0-216.0-0.0","45394626","wem/bandit_party_2","A3CAK26YRNTXDB","either","7","336","","","","","","","0","0","1","","0.6781732273","0.6","0.2","0.4","0.8","0.5658285383","0.6781732273","0.06963745108","0.4471770837","","","","","","","","","","","","","","74","J","1","","","175","main_expt",""
"","bandit","255","728123","0.0-217.0-0.0","45394626","wem/bandit_party_2","A3CAK26YRNTXDB","either","7","348","","","","","","","0","1","0","","0.6932650799","0.6","0.2","0.4","0.8","0.5313506173","0.6932650799","0.07897043431","0.5162211083","","","","","","","","","","","","","","74","J","1","","","176","main_expt",""
"","bandit","256","729951","0.0-218.0-0.0","45394626","wem/bandit_party_2","A3CAK26YRNTXDB","either","7","307","","","","","","","0","0","1","","0.6803850572","0.6","0.2","0.4","0.8","0.4231289234","0.6803850572","0.09469685393","0.6372676231","","","","","","","","","","","","","","74","J","1","","","177","main_expt",""
"","bandit","257","731900","0.0-219.0-0.0","45394626","wem/bandit_party_2","A3CAK26YRNTXDB","either","7","426","","","","","","","0","0","1","","0.5407017663","0.6","0.2","0.4","0.8","0.580807006","0.5407017663","0.1486386852","0.6295749113","","","","","","","","","","","","","","74","J","1","","","178","main_expt",""
"","bandit","258","734104","0.0-220.0-0.0","45394626","wem/bandit_party_2","A3CAK26YRNTXDB","either","7","679","","","","","","","0","0","1","","0.5931576708","0.6","0.2","0.4","0.8","0.5499948007","0.5931576708","0.1965095934","0.4126066341","","","","","","","","","","","","","","74","J","1","","","179","main_expt",""
"","bandit","259","736027","0.0-221.0-0.0","45394626","wem/bandit_party_2","A3CAK26YRNTXDB","either","7","401","","","","","","","0","1","0","","0.5390819372","0.6","0.2","0.4","0.8","0.4918200669","0.5390819372","0.1749048096","0.516991344","","","","","","","","","","","","","","74","J","1","","","180","main_expt",""
"","bandit","260","738057","0.0-222.0-0.0","45394626","wem/bandit_party_2","A3CAK26YRNTXDB","either","7","507","","","","","","","0","1","0","","0.4929910299","0.6","0.2","0.4","0.8","0.5428702931","0.4929910299","0.232896561","0.4239603033","","","","","","","","","","","","","","74","J","1","","","181","main_expt",""
"","bandit","261","740010","0.0-223.0-0.0","45394626","wem/bandit_party_2","A3CAK26YRNTXDB","either","7","428","","","","","","","0","1","0","","0.458433212","0.6","0.2","0.4","0.8","0.5870547156","0.458433212","0.2561822725","0.3961891141","","","","","","","","","","","","","","74","J","1","","","182","main_expt",""
"","bandit","262","741891","0.0-224.0-0.0","45394626","wem/bandit_party_2","A3CAK26YRNTXDB","either","7","358","","","","","","","0","0","1","","0.5725449786","0.6","0.2","0.4","0.8","0.5031908535","0.5725449786","0.2713883962","0.4364601233","","","","","","","","","","","","","","74","J","1","","","183","main_expt",""
"","bandit","263","743705","0.0-225.0-0.0","45394626","wem/bandit_party_2","A3CAK26YRNTXDB","either","7","290","","","","","","","0","0","1","","0.4878383732","0.6","0.2","0.4","0.8","0.4239978994","0.4878383732","0.3543557679","0.4826964198","","","","","","","","","","","","","","74","J","1","","","184","main_expt",""
"","bandit","264","745297","0.0-226.0-0.0","45394626","wem/bandit_party_2","A3CAK26YRNTXDB","either","7","69","","","","","","","0","0","1","0.5189350158","","0.6","0.2","0.4","0.8","","","","","0.3425545299","0.5189350158","0.2974533566","0.4448789548","","","","","","","","","","74","J","1","","","185","main_expt",""
"","bandit","265","747074","0.0-227.0-0.0","45394626","wem/bandit_party_2","A3CAK26YRNTXDB","either","7","254","","","","","","","0","0","1","","0.4310300585","0.6","0.2","0.4","0.8","0.2594221554","0.4310300585","0.3295130888","0.4585835861","","","","","","","","","","","","","","74","J","1","","","186","main_expt",""
"","bandit","266","748929","0.0-228.0-0.0","45394626","wem/bandit_party_2","A3CAK26YRNTXDB","either","7","333","","","","","","","1","0","0","0.5470412386","","0.6","0.2","0.4","0.8","","","","","0.350747246","0.4005994516","0.3440574025","0.5470412386","","","","","","","","","","76","L","3","","","187","main_expt",""
"","bandit","267","750815","0.0-229.0-0.0","45394626","wem/bandit_party_2","A3CAK26YRNTXDB","either","7","361","","","","","","","0","0","1","0.5485419855","","0.6","0.2","0.4","0.8","","","","","0.3667816541","0.5684333967","0.3176863717","0.5485419855","","","","","","","","","","76","L","3","","","188","main_expt",""
"","bandit","268","752698","0.0-230.0-0.0","45394626","wem/bandit_party_2","A3CAK26YRNTXDB","either","7","360","","","","","","","1","0","0","0.6161015427","","0.6","0.2","0.4","0.8","","","","","0.3129240978","0.5768443477","0.3194332301","0.6161015427","","","","","","","","","","76","L","3","","","189","main_expt",""
"","bandit","269","754595","0.0-231.0-0.0","45394626","wem/bandit_party_2","A3CAK26YRNTXDB","either","7","372","","","","","","","1","0","0","0.5145576236","","0.6","0.2","0.4","0.8","","","","","0.3681084497","0.6091254975","0.3585260795","0.5145576236","","","","","","","","","","76","L","3","","","190","main_expt",""
"","bandit","270","756425","0.0-232.0-0.0","45394626","wem/bandit_party_2","A3CAK26YRNTXDB","either","7","304","","","","","","","0","0","1","","0.4447609651","0.6","0.2","0.4","0.8","0.3284994938","0.6355225437","0.4438822556","0.4447609651","","","","","","","","","","","","","","76","L","3","","","191","main_expt",""
"","bandit","271","758255","0.0-233.0-0.0","45394626","wem/bandit_party_2","A3CAK26YRNTXDB","either","7","308","","","","","","","1","0","0","0.4273979598","","0.6","0.2","0.4","0.8","","","","","0.2913335268","0.7449996868","0.6336907385","0.4273979598","","","","","","","","","","76","L","3","","","192","main_expt",""
"","bandit","272","760138","0.0-234.0-0.0","45394626","wem/bandit_party_2","A3CAK26YRNTXDB","either","7","359","","","","","","","1","0","0","0.4382354048","","0.6","0.2","0.4","0.8","","","","","0.3614904019","0.7645281636","0.5871300795","0.4382354048","","","","","","","","","","76","L","3","","","193","main_expt",""
"","bandit","273","762050","0.0-235.0-0.0","45394626","wem/bandit_party_2","A3CAK26YRNTXDB","either","7","389","","","","","","","1","0","0","0.4367950698","","0.6","0.2","0.4","0.8","","","","","0.4180963095","0.7417458559","0.5919999684","0.4367950698","","","","","","","","","","76","L","3","","","194","main_expt",""
"","bandit","274","763891","0.0-236.0-0.0","45394626","wem/bandit_party_2","A3CAK26YRNTXDB","either","7","317","","","","","","","0","0","1","0.4306922929","","0.6","0.2","0.4","0.8","","","","","0.4129416526","0.7102393491","0.5599221581","0.4306922929","","","","","","","","","","76","L","3","","","195","main_expt",""
"","bandit","275","765734","0.0-237.0-0.0","45394626","wem/bandit_party_2","A3CAK26YRNTXDB","either","7","320","","","","","","","1","0","0","0.4436260943","","0.6","0.2","0.4","0.8","","","","","0.6027995291","0.6846894693","0.4552797342","0.4436260943","","","","","","","","","","76","L","3","","","196","main_expt",""
"","bandit","276","767737","0.0-238.0-0.0","45394626","wem/bandit_party_2","A3CAK26YRNTXDB","either","7","479","","","","","","","0","0","1","0.4547077395","","0.6","0.2","0.4","0.8","","","","","0.6174547511","0.6573901597","0.3045440077","0.4547077395","","","","","","","","","","76","L","3","","","197","main_expt",""
"","bandit","277","769769","0.0-239.0-0.0","45394626","wem/bandit_party_2","A3CAK26YRNTXDB","either","7","509","","","","","","","1","0","0","0.545148617","","0.6","0.2","0.4","0.8","","","","","0.5727893511","0.7020762336","0.4061180554","0.545148617","","","","","","","","","","76","L","3","","","198","main_expt",""
"","bandit","278","771598","0.0-240.0-0.0","45394626","wem/bandit_party_2","A3CAK26YRNTXDB","either","7","304","","","","","","","0","0","1","0.5838562778","","0.6","0.2","0.4","0.8","","","","","0.5803616598","0.7749867965","0.3406873398","0.5838562778","","","","","","","","","","76","L","3","","","199","main_expt",""
"","bandit","279","773630","0.0-241.0-0.0","45394626","wem/bandit_party_2","A3CAK26YRNTXDB","either","7","510","","","","","","","1","0","0","0.6569131065","","0.6","0.2","0.4","0.8","","","","","0.5109940584","0.7971262248","0.2810551981","0.6569131065","","","","","","","","","","76","L","3","","","200","main_expt",""
"","bandit","280","776635","0.0-242.0-0.0","45394626","wem/bandit_party_2","A3CAK26YRNTXDB","either","7","1483","","","","","","","0","0","1","","0.6559739125","0.6","0.2","0.4","0.8","0.444158281","0.6431063495","0.2295892347","0.6559739125","","","","","","","","","","","","","","76","L","3","","","201","main_expt",""
"","bandit","281","778547","0.0-243.0-0.0","45394626","wem/bandit_party_2","A3CAK26YRNTXDB","either","7","385","","","","","","","0","0","1","0.5940698896","","0.6","0.2","0.4","0.8","","","","","0.3774362348","0.6153479028","0.2134833186","0.5940698896","","","","","","","","","","76","L","3","","","202","main_expt",""
"","bandit","282","780443","0.0-244.0-0.0","45394626","wem/bandit_party_2","A3CAK26YRNTXDB","either","7","371","","","","","","","0","0","1","","0.1538434825","0.6","0.2","0.4","0.8","0.2852638898","0.6107921693","0.1538434825","0.6288005559","","","","","","","","","","","","","","75","K","2","","","203","main_expt",""
"","bandit","283","782327","0.0-245.0-0.0","45394626","wem/bandit_party_2","A3CAK26YRNTXDB","either","7","362","","","","","","","0","0","1","","0.08629221539","0.6","0.2","0.4","0.8","0.3900316507","0.6364312764","0.08629221539","0.7483345684","","","","","","","","","","","","","","75","K","2","","","204","main_expt",""
"","bandit","284","784150","0.0-246.0-0.0","45394626","wem/bandit_party_2","A3CAK26YRNTXDB","either","7","297","","","","","","","1","0","0","0.7098325313","","0.6","0.2","0.4","0.8","","","","","0.3334674042","0.7098325313","0.1303029892","0.7823609999","","","","","","","","","","74","J","1","","","205","main_expt",""
"","bandit","285","786005","0.0-247.0-0.0","45394626","wem/bandit_party_2","A3CAK26YRNTXDB","either","7","330","","","","","","","0","1","0","","0.6423198407","0.6","0.2","0.4","0.8","0.3997779834","0.6423198407","0.1290793888","0.7053347691","","","","","","","","","","","","","","74","J","1","","","206","main_expt",""
"","bandit","286","787889","0.0-248.0-0.0","45394626","wem/bandit_party_2","A3CAK26YRNTXDB","either","7","360","","","","","","","0","1","0","","0.7196337679","0.6","0.2","0.4","0.8","0.2791746034","0.7196337679","0.1471003053","0.692958529","","","","","","","","","","","","","","74","J","1","","","207","main_expt",""
"","bandit","287","789705","0.0-249.0-0.0","45394626","wem/bandit_party_2","A3CAK26YRNTXDB","either","7","292","","","","","","","0","0","1","","0.7273253538","0.6","0.2","0.4","0.8","0.3447420344","0.7273253538","0.1204476287","0.5726600787","","","","","","","","","","","","","","74","J","1","","","208","main_expt",""
"","bandit","288","791522","0.0-250.0-0.0","45394626","wem/bandit_party_2","A3CAK26YRNTXDB","either","7","294","","","","","","","0","1","0","","0.7701678217","0.6","0.2","0.4","0.8","0.2106944101","0.7701678217","0.1752658923","0.7193759884","","","","","","","","","","","","","","74","J","1","","","209","main_expt",""
"","bandit","289","793364","0.0-251.0-0.0","45394626","wem/bandit_party_2","A3CAK26YRNTXDB","either","7","318","","","","","","","0","1","0","","0.7673062315","0.6","0.2","0.4","0.8","0.2609791638","0.7673062315","0.2071456167","0.5469619257","","","","","","","","","","","","","","74","J","1","","","210","main_expt",""
"","bandit","290","795264","0.0-252.0-0.0","45394626","wem/bandit_party_2","A3CAK26YRNTXDB","either","7","374","","","","","","","0","0","1","","0.7733207599","0.6","0.2","0.4","0.8","0.3702243554","0.7733207599","0.1982577311","0.5432746348","","","","","","","","","","","","","","74","J","1","","","211","main_expt",""
"","bandit","291","799136","0.0-253.0-0.0","45394626","wem/bandit_party_2","A3CAK26YRNTXDB","either","7","2346","","","","","","","0","1","0","","0.7176010575","0.6","0.2","0.4","0.8","0.4070014152","0.7176010575","0.2837026457","0.4857525371","","","","","","","","","","","","","","74","J","1","","","212","main_expt",""
"","bandit","292","800992","0.0-254.0-0.0","45394626","wem/bandit_party_2","A3CAK26YRNTXDB","either","7","331","","","","","","","0","0","1","","0.7241732444","0.6","0.2","0.4","0.8","0.5001351259","0.7241732444","0.2192955177","0.4416723402","","","","","","","","","","","","","","74","J","1","","","213","main_expt",""
"","bandit","293","802861","0.0-255.0-0.0","45394626","wem/bandit_party_2","A3CAK26YRNTXDB","either","7","346","","","","","","","0","0","1","","0.6696022014","0.6","0.2","0.4","0.8","0.5667049056","0.6696022014","0.2885853396","0.4231083207","","","","","","","","","","","","","","74","J","1","","","214","main_expt",""
"","bandit","294","804689","0.0-256.0-0.0","45394626","wem/bandit_party_2","A3CAK26YRNTXDB","either","7","303","","","","","","","1","0","0","0.6255990046","","0.6","0.2","0.4","0.8","","","","","0.5259574602","0.6255990046","0.2451296471","0.329019478","","","","","","","","","","74","J","1","","","215","main_expt",""
"","bandit","295","807205","0.0-257.0-0.0","45394626","wem/bandit_party_2","A3CAK26YRNTXDB","either","7","990","","","","","","","0","0","1","","0.6771362935","0.6","0.2","0.4","0.8","0.5468860011","0.6771362935","0.1946790852","0.3469743373","","","","","","","","","","","","","","74","J","1","","","216","main_expt",""
"","bandit","296","808819","0.0-258.0-0.0","45394626","wem/bandit_party_2","A3CAK26YRNTXDB","either","7","90","","","","","","","0","1","0","","0.6918953154","0.6","0.2","0.4","0.8","0.6182745027","0.6918953154","0.2497229096","0.3618740044","","","","","","","","","","","","","","74","J","1","","","217","main_expt",""
"","bandit","297","810609","0.0-259.0-0.0","45394626","wem/bandit_party_2","A3CAK26YRNTXDB","either","7","265","","","","","","","0","1","0","","0.5726390237","0.6","0.2","0.4","0.8","0.5979125128","0.5726390237","0.3076421025","0.3574217595","","","","","","","","","","","","","","74","J","1","","","218","main_expt",""
"","bandit","298","812384","0.0-260.0-0.0","45394626","wem/bandit_party_2","A3CAK26YRNTXDB","either","7","251","","","","","","","0","0","1","","0.5179196303","0.6","0.2","0.4","0.8","0.5321687475","0.5179196303","0.3488941347","0.3862686792","","","","","","","","","","","","","","74","J","1","","","219","main_expt",""
"","bandit","299","814362","0.0-261.0-0.0","45394626","wem/bandit_party_2","A3CAK26YRNTXDB","either","7","452","","","","","","","0","1","0","","0.5578222379","0.6","0.2","0.4","0.8","0.6053830099","0.5578222379","0.306784001","0.4432846828","","","","","","","","","","","","","","74","J","1","","","220","main_expt",""
"","bandit","300","816099","0.0-262.0-0.0","45394626","wem/bandit_party_2","A3CAK26YRNTXDB","either","7","209","","","","","","","0","0","1","","0.6640911266","0.6","0.2","0.4","0.8","0.69383498","0.6640911266","0.3786925452","0.432499938","","","","","","","","","","","","","","74","J","1","","","221","main_expt",""
"","bandit","301","817624","0.0-263.0-0.0","45394626","wem/bandit_party_2","A3CAK26YRNTXDB","either","7","2","","","","","","","0","1","0","","0.7340686256","0.6","0.2","0.4","0.8","0.783375317","0.7340686256","0.5014801557","0.4050903391","","","","","","","","","","","","","","74","J","1","","","222","main_expt",""
"","bandit","302","819520","0.0-264.0-0.0","45394626","wem/bandit_party_2","A3CAK26YRNTXDB","either","7","373","","","","","","","0","0","1","","0.852862777","0.6","0.2","0.4","0.8","0.8374489269","0.852862777","0.4081704387","0.3282593462","","","","","","","","","","","","","","74","J","1","","","223","main_expt",""
"","bandit","303","821445","0.0-265.0-0.0","45394626","wem/bandit_party_2","A3CAK26YRNTXDB","either","7","399","","","","","","","0","1","0","","0.7801262993","0.6","0.2","0.4","0.8","0.7801262993","0.7830506485","0.422296693","0.2465370002","","","","","","","","","","","","","","72","H","0","img/none_selected.jpg","","224","main_expt",""
"","bandit","304","823315","0.0-266.0-0.0","45394626","wem/bandit_party_2","A3CAK26YRNTXDB","either","7","344","","","","","","","0","0","1","","0.7438235551","0.6","0.2","0.4","0.8","0.7438235551","0.7447555501","0.3998144739","0.2260872052","","","","","","","","","","","","","","72","H","0","img/none_selected.jpg","","225","main_expt",""
"","bandit","305","825095","0.0-267.0-0.0","45394626","wem/bandit_party_2","A3CAK26YRNTXDB","either","7","253","","","","","","","1","0","0","0.7561714458","","0.6","0.2","0.4","0.8","","","","","0.7561714458","0.7331719472","0.2692780115","0.2573895518","","","","","","","","","","72","H","0","img/none_selected.jpg","","226","main_expt",""
"","bandit","306","826938","0.0-268.0-0.0","45394626","wem/bandit_party_2","A3CAK26YRNTXDB","either","7","319","","","","","","","0","0","1","","0.7527106072","0.6","0.2","0.4","0.8","0.7527106072","0.6417259928","0.268728261","0.2134597582","","","","","","","","","","","","","","72","H","0","img/none_selected.jpg","","227","main_expt",""
"","bandit","307","828755","0.0-269.0-0.0","45394626","wem/bandit_party_2","A3CAK26YRNTXDB","either","7","292","","","","","","","1","0","0","0.6315627418","","0.6","0.2","0.4","0.8","","","","","0.6315627418","0.6050549784","0.2211951924","0.348479141","","","","","","","","","","72","H","0","img/none_selected.jpg","","228","main_expt",""
"","bandit","308","830558","0.0-270.0-0.0","45394626","wem/bandit_party_2","A3CAK26YRNTXDB","either","7","276","","","","","","","0","0","1","0.5564086662","","0.6","0.2","0.4","0.8","","","","","0.5564086662","0.5962230341","0.219241791","0.3250735223","","","","","","","","","","72","H","0","img/none_selected.jpg","","229","main_expt",""
"","bandit","309","832346","0.0-271.0-0.0","45394626","wem/bandit_party_2","A3CAK26YRNTXDB","either","7","261","","","","","","","0","1","0","","0.5895813861","0.6","0.2","0.4","0.8","0.5895813861","0.5594933722","0.291585141","0.3395219718","","","","","","","","","","","","","","72","H","0","img/none_selected.jpg","","230","main_expt",""
"","bandit","310","836610","0.0-272.0-0.0","45394626","wem/bandit_party_2","A3CAK26YRNTXDB","either","7","2740","","","","","","","0","1","0","","0.6148213975","0.6","0.2","0.4","0.8","0.6148213975","0.6411036761","0.2754541949","0.3315483329","","","","","","","","","","","","","","72","H","0","img/none_selected.jpg","","231","main_expt",""
"","bandit","311","838526","0.0-273.0-0.0","45394626","wem/bandit_party_2","A3CAK26YRNTXDB","either","7","391","","","","","","","1","0","0","0.5176988489","","0.6","0.2","0.4","0.8","","","","","0.5176988489","0.6653930637","0.3055336503","0.3876030756","","","","","","","","","","72","H","0","img/none_selected.jpg","","232","main_expt",""
"","bandit","312","840521","0.0-274.0-0.0","45394626","wem/bandit_party_2","A3CAK26YRNTXDB","either","7","469","","","","","","","1","0","0","0.4505666118","","0.6","0.2","0.4","0.8","","","","","0.4505666118","0.5426719569","0.3390100853","0.3696248546","","","","","","","","","","72","H","0","img/none_selected.jpg","","233","main_expt",""
"","bandit","313","842355","0.0-275.0-0.0","45394626","wem/bandit_party_2","A3CAK26YRNTXDB","either","7","307","","","","","","","0","0","1","","0.4393496879","0.6","0.2","0.4","0.8","0.4393496879","0.5581360181","0.3165323161","0.3927474605","","","","","","","","","","","","","","72","H","0","img/none_selected.jpg","","234","main_expt",""
"","bandit","314","844170","0.0-276.0-0.0","45394626","wem/bandit_party_2","A3CAK26YRNTXDB","either","7","287","","","","","","","0","0","1","","0.3542725407","0.6","0.2","0.4","0.8","0.3542725407","0.5299247183","0.2944333127","0.4734072524","","","","","","","","","","","","","","72","H","0","img/none_selected.jpg","","235","main_expt",""
"","bandit","315","845919","0.0-277.0-0.0","45394626","wem/bandit_party_2","A3CAK26YRNTXDB","either","7","223","","","","","","","0","0","1","0.452511288","","0.6","0.2","0.4","0.8","","","","","0.452511288","0.4709954077","0.4127469632","0.5857320117","","","","","","","","","","72","H","0","img/none_selected.jpg","","236","main_expt",""
"","bandit","316","847939","0.0-278.0-0.0","45394626","wem/bandit_party_2","A3CAK26YRNTXDB","either","7","494","","","","","","","0","1","0","","0.4171051322","0.6","0.2","0.4","0.8","0.4743784035","0.4171051322","0.4353664578","0.5208556897","","","","","","","","","","","","","","74","J","1","","","237","main_expt",""
"","bandit","317","849768","0.0-279.0-0.0","45394626","wem/bandit_party_2","A3CAK26YRNTXDB","either","7","304","","","","","","","0","0","1","","0.40722148","0.6","0.2","0.4","0.8","0.4666998134","0.40722148","0.3871798792","0.4551370454","","","","","","","","","","","","","","74","J","1","","","238","main_expt",""
"","bandit","318","851616","0.0-280.0-0.0","45394626","wem/bandit_party_2","A3CAK26YRNTXDB","either","7","322","","","","","","","0","0","1","","0.3113271407","0.6","0.2","0.4","0.8","0.4916456171","0.3113271407","0.3244704863","0.2979137516","","","","","","","","","","","","","","74","J","1","","","239","main_expt",""
