"consent","trial_type","trial_index","time_elapsed","internal_node_id","subjID","study","MID","cond","drift","rt","responses","button_pressed","key_press","like","value","connected","gems","bombs","no_reward","GemPrChosen","BombPrChosen","GainOverPainPr_0","GainOverPainPr_1","GainOverPainPr_2","GainOverPainPr_3","LosePr_0","LosePr_1","LosePr_2","LosePr_3","WinPr_0","WinPr_1","WinPr_2","WinPr_3","Q0","Q1","Q2","gender","age","ethnicity","label","expt_phase","target","respCharCode","respKey","respChoiceNum","respChoice","practice","trial_counter","trial_label","Q0_index"
"GDM/GDM_behavioral_consent_30min_online.html","consent","0","7662","0.0-0.0","45525388","wem/bandit_party_2","AZVHR847NQRU","either","7","","","","","","","","","","","","","","","","","","","","","","","","","","","","","","","","","","","","","","","","",""
"","survey-text","1","15686","0.0-1.0","45525388","wem/bandit_party_2","AZVHR847NQRU","either","7","7018","{""Q0"":""AZVHR847NQRU""}","","","","","","","","","","","","","","","","","","","","","","","","","","","","","","","","","","","","","","",""
"","button-response","2","18285","0.0-2.0","45525388","wem/bandit_party_2","AZVHR847NQRU","either","7","1594","","2","","","","","","","","","","","","","","","","","","","","","","","","","","","","","","","","","","","","","",""
"","text-replacement","3","33033","0.0-3.0","45525388","wem/bandit_party_2","AZVHR847NQRU","either","7","13743","","","32","","","","","","","","","","","","","","","","","","","","","","","","","","","","","","","","","","","","",""
"","text-replacement","4","41704","0.0-4.0","45525388","wem/bandit_party_2","AZVHR847NQRU","either","7","8669","","","32","","","","","","","","","","","","","","","","","","","","","","","","","","","","","","","","","","","","",""
"","text-replacement","5","52544","0.0-5.0-0.0","45525388","wem/bandit_party_2","AZVHR847NQRU","either","7","10837","","","32","","","","","","","","","","","","","","","","","","","","","","","","","","","","","","","","","","","","",""
"","identification","6","65224","0.0-6.0-0.0","45525388","wem/bandit_party_2","AZVHR847NQRU","either","7","12661","","","","0","0","0","","","","","","","","","","","","","","","","","","","","","","","","pre","identification_pre","the Republican Party","","","","","","","",""
"","identification","7","70548","0.0-6.0-1.0","45525388","wem/bandit_party_2","AZVHR847NQRU","either","7","4305","","","","0","0","0","","","","","","","","","","","","","","","","","","","","","","","","pre","identification_pre","the Democratic Party","","","","","","","",""
"","text-replacement","8","92919","0.0-7.0","45525388","wem/bandit_party_2","AZVHR847NQRU","either","7","21367","","","32","","","","","","","","","","","","","","","","","","","","","","","","","","","","","","","","","","","","",""
"","text-replacement","9","96399","0.0-8.0","45525388","wem/bandit_party_2","AZVHR847NQRU","either","7","3478","","","32","","","","","","","","","","","","","","","","","","","","","","","","","","","","","","","","","","","","",""
"","text-replacement","10","109688","0.0-9.0","45525388","wem/bandit_party_2","AZVHR847NQRU","either","7","13286","","","32","","","","","","","","","","","","","","","","","","","","","","","","","","","","","","","","","","","","",""
"","text-replacement","11","112335","0.0-10.0","45525388","wem/bandit_party_2","AZVHR847NQRU","either","7","2644","","","32","","","","","","","","","","","","","","","","","","","","","","","","","","","","","","","","","","","","",""
"","text-replacement","12","115839","0.0-11.0","45525388","wem/bandit_party_2","AZVHR847NQRU","either","7","3502","","","32","","","","","","","","","","","","","","","","","","","","","","","","","","","","","","","","","","","","",""
"","bandit","13","120945","0.0-12.0-0.0","45525388","wem/bandit_party_2","AZVHR847NQRU","either","7","3595","","","","","","","0","0","1","0","0","","","","","0","","","","0","","","","","","","","","","","","","74","J","0","img/none_selected_demo.jpg","true","0","",""
"","bandit","14","127063","0.0-13.0-0.0","45525388","wem/bandit_party_2","AZVHR847NQRU","either","7","4610","","","","","","","0","0","1","0","0","","","","","0","","","","0","","","","","","","","","","","","","75","K","0","img/none_selected_demo.jpg","true","0","",""
"","text-replacement","15","132502","0.0-14.0","45525388","wem/bandit_party_2","AZVHR847NQRU","either","7","5437","","","32","","","","","","","","","","","","","","","","","","","","","","","","","","","","","","","","","","","","",""
"","text-replacement","16","139046","0.0-15.0","45525388","wem/bandit_party_2","AZVHR847NQRU","either","7","6541","","","32","","","","","","","","","","","","","","","","","","","","","","","","","","","","","","","","","","","","",""
"","text-replacement","17","144254","0.0-16.0","45525388","wem/bandit_party_2","AZVHR847NQRU","either","7","5207","","","32","","","","","","","","","","","","","","","","","","","","","","","","","","","","","","","","","","","","",""
"","text-replacement","18","147440","0.0-17.0","45525388","wem/bandit_party_2","AZVHR847NQRU","either","7","3184","","","32","","","","","","","","","","","","","","","","","","","","","","","","","","","","","","","","","","","","",""
"","bandit","19","151746","0.0-18.0-0.0","45525388","wem/bandit_party_2","AZVHR847NQRU","either","7","2798","","","","","","","0","1","0","","0.8","0.5","0.5","","","0.8","0.2","","","","","","","","","","","","","","","","74","J","0","img/none_selected_demo.jpg","true","0","80_20_practice",""
"","bandit","20","153991","0.0-18.0-1.0","45525388","wem/bandit_party_2","AZVHR847NQRU","either","7","738","","","","","","","0","0","1","0.2","","0.5","0.5","","","","","","","0.8","0.2","","","","","","","","","","","","75","K","1","","true","0","80_20_practice",""
"","bandit","21","156012","0.0-18.0-2.0","45525388","wem/bandit_party_2","AZVHR847NQRU","either","7","517","","","","","","","0","0","1","","0.8","0.5","0.5","","","0.8","0.2","","","","","","","","","","","","","","","","74","J","0","img/none_selected_demo.jpg","true","0","80_20_practice",""
"","bandit","22","158405","0.0-18.0-3.0","45525388","wem/bandit_party_2","AZVHR847NQRU","either","7","889","","","","","","","0","0","1","0.2","","0.5","0.5","","","","","","","0.8","0.2","","","","","","","","","","","","75","K","1","","true","0","80_20_practice",""
"","bandit","23","160374","0.0-18.0-4.0","45525388","wem/bandit_party_2","AZVHR847NQRU","either","7","463","","","","","","","0","0","1","0.2","","0.5","0.5","","","","","","","0.8","0.2","","","","","","","","","","","","75","K","1","","true","0","80_20_practice",""
"","bandit","24","162226","0.0-18.0-5.0","45525388","wem/bandit_party_2","AZVHR847NQRU","either","7","346","","","","","","","0","1","0","","0.8","0.5","0.5","","","0.8","0.2","","","","","","","","","","","","","","","","74","J","0","img/none_selected_demo.jpg","true","0","80_20_practice",""
"","bandit","25","164173","0.0-18.0-6.0","45525388","wem/bandit_party_2","AZVHR847NQRU","either","7","442","","","","","","","0","0","1","0.2","","0.5","0.5","","","","","","","0.8","0.2","","","","","","","","","","","","75","K","1","","true","0","80_20_practice",""
"","bandit","26","166125","0.0-18.0-7.0","45525388","wem/bandit_party_2","AZVHR847NQRU","either","7","447","","","","","","","0","0","1","","0.2","0.5","0.5","","","0.8","0.2","","","","","","","","","","","","","","","","75","K","1","","true","0","80_20_practice",""
"","bandit","27","168150","0.0-18.0-8.0","45525388","wem/bandit_party_2","AZVHR847NQRU","either","7","519","","","","","","","0","0","1","","0.2","0.5","0.5","","","0.8","0.2","","","","","","","","","","","","","","","","75","K","1","","true","0","80_20_practice",""
"","bandit","28","170156","0.0-18.0-9.0","45525388","wem/bandit_party_2","AZVHR847NQRU","either","7","502","","","","","","","0","0","1","0.2","","0.5","0.5","","","","","","","0.8","0.2","","","","","","","","","","","","75","K","1","","true","0","80_20_practice",""
"","bandit","29","171909","0.0-18.0-10.0","45525388","wem/bandit_party_2","AZVHR847NQRU","either","7","247","","","","","","","0","0","1","0.8","","0.5","0.5","","","","","","","0.8","0.2","","","","","","","","","","","","74","J","0","img/none_selected_demo.jpg","true","0","80_20_practice",""
"","bandit","30","173701","0.0-18.0-11.0","45525388","wem/bandit_party_2","AZVHR847NQRU","either","7","285","","","","","","","0","0","1","","0.2","0.5","0.5","","","0.8","0.2","","","","","","","","","","","","","","","","75","K","1","","true","0","80_20_practice",""
"","bandit","31","175486","0.0-18.0-12.0","45525388","wem/bandit_party_2","AZVHR847NQRU","either","7","278","","","","","","","1","0","0","0.2","","0.5","0.5","","","","","","","0.8","0.2","","","","","","","","","","","","75","K","1","","true","0","80_20_practice",""
"","bandit","32","177302","0.0-18.0-13.0","45525388","wem/bandit_party_2","AZVHR847NQRU","either","7","309","","","","","","","0","0","1","","0.2","0.5","0.5","","","0.8","0.2","","","","","","","","","","","","","","","","75","K","1","","true","0","80_20_practice",""
"","bandit","33","179055","0.0-18.0-14.0","45525388","wem/bandit_party_2","AZVHR847NQRU","either","7","244","","","","","","","0","0","1","0.2","","0.5","0.5","","","","","","","0.8","0.2","","","","","","","","","","","","75","K","1","","true","0","80_20_practice",""
"","bandit","34","181046","0.0-18.0-15.0","45525388","wem/bandit_party_2","AZVHR847NQRU","either","7","485","","","","","","","1","0","0","0.2","","0.5","0.5","","","","","","","0.8","0.2","","","","","","","","","","","","75","K","1","","true","0","80_20_practice",""
"","bandit","35","182805","0.0-18.0-16.0","45525388","wem/bandit_party_2","AZVHR847NQRU","either","7","253","","","","","","","1","0","0","0.2","","0.5","0.5","","","","","","","0.8","0.2","","","","","","","","","","","","75","K","1","","true","0","80_20_practice",""
"","bandit","36","184540","0.0-18.0-17.0","45525388","wem/bandit_party_2","AZVHR847NQRU","either","7","228","","","","","","","0","0","1","0.2","","0.5","0.5","","","","","","","0.8","0.2","","","","","","","","","","","","75","K","1","","true","0","80_20_practice",""
"","bandit","37","186349","0.0-18.0-18.0","45525388","wem/bandit_party_2","AZVHR847NQRU","either","7","303","","","","","","","1","0","0","0.2","","0.5","0.5","","","","","","","0.8","0.2","","","","","","","","","","","","75","K","1","","true","0","80_20_practice",""
"","bandit","38","188299","0.0-18.0-19.0","45525388","wem/bandit_party_2","AZVHR847NQRU","either","7","437","","","","","","","0","0","1","0.2","","0.5","0.5","","","","","","","0.8","0.2","","","","","","","","","","","","75","K","1","","true","0","80_20_practice",""
"","text-replacement","39","193485","0.0-19.0","45525388","wem/bandit_party_2","AZVHR847NQRU","either","7","5168","","","32","","","","","","","","","","","","","","","","","","","","","","","","","","","","","","","","","","","","",""
"","bandit","40","196526","0.0-20.0-0.0","45525388","wem/bandit_party_2","AZVHR847NQRU","either","7","1533","","","","","","","0","1","0","0","1","","","","","0","1","","","1","0","","","","","","","","","","","","75","K","1","","true","0","",""
"","text-replacement","41","201238","0.0-21.0","45525388","wem/bandit_party_2","AZVHR847NQRU","either","7","4710","","","32","","","","","","","","","","","","","","","","","","","","","","","","","","","","","","","","","","","","",""
"","text-replacement","42","204590","0.0-22.0","45525388","wem/bandit_party_2","AZVHR847NQRU","either","7","3350","","","32","","","","","","","","","","","","","","","","","","","","","","","","","","","","","","","","","","","","",""
"","text-replacement","43","206134","0.0-23.0","45525388","wem/bandit_party_2","AZVHR847NQRU","either","7","1542","","","32","","","","","","","","","","","","","","","","","","","","","","","","","","","","","","","","","","","","",""
"","text-replacement","44","208438","0.0-24.0","45525388","wem/bandit_party_2","AZVHR847NQRU","either","7","2302","","","32","","","","","","","","","","","","","","","","","","","","","","","","","","","","","","","","","","","","",""
"","text-replacement","45","211310","0.0-25.0","45525388","wem/bandit_party_2","AZVHR847NQRU","either","7","2870","","","32","","","","","","","","","","","","","","","","","","","","","","","","","","","","","","","","","","","","",""
"","text-replacement","46","213446","0.0-26.0","45525388","wem/bandit_party_2","AZVHR847NQRU","either","7","2133","","","32","","","","","","","","","","","","","","","","","","","","","","","","","","","","","","","","","","","","",""
"","text-replacement","47","217061","0.0-27.0","45525388","wem/bandit_party_2","AZVHR847NQRU","either","7","3612","","","32","","","","","","","","","","","","","","","","","","","","","","","","","","","","","","","","","","","","",""
"","text-replacement","48","221694","0.0-28.0","45525388","wem/bandit_party_2","AZVHR847NQRU","either","7","4631","","","32","","","","","","","","","","","","","","","","","","","","","","","","","","","","","","","","","","","","",""
"","text-replacement","49","225734","0.0-29.0","45525388","wem/bandit_party_2","AZVHR847NQRU","either","7","4038","","","32","","","","","","","","","","","","","","","","","","","","","","","","","","","","","","","","","","","","",""
"","text-replacement","50","227413","0.0-30.0","45525388","wem/bandit_party_2","AZVHR847NQRU","either","7","1677","","","32","","","","","","","","","","","","","","","","","","","","","","","","","","","","","","","","","","","","",""
"","text-replacement","51","229430","0.0-31.0","45525388","wem/bandit_party_2","AZVHR847NQRU","either","7","2014","","","32","","","","","","","","","","","","","","","","","","","","","","","","","","","","","","","","","","","","",""
"","bandit","52","234702","0.0-32.0-0.0","45525388","wem/bandit_party_2","AZVHR847NQRU","either","7","3763","","","","","","","1","0","0","0.8","","0.5","0.5","0.5","0.5","","","","","0.8","0.2","0.6","0.2","","","","","","","","","","72","H","0","img/none_selected.jpg","true","0","full_practice",""
"","bandit","53","236533","0.0-32.0-1.0","45525388","wem/bandit_party_2","AZVHR847NQRU","either","7","324","","","","","","","1","0","0","0.8","","0.5","0.5","0.5","0.5","","","","","0.8","0.2","0.6","0.2","","","","","","","","","","72","H","0","img/none_selected.jpg","true","0","full_practice",""
"","bandit","54","238317","0.0-32.0-2.0","45525388","wem/bandit_party_2","AZVHR847NQRU","either","7","277","","","","","","","0","1","0","","0.8","0.5","0.5","0.5","0.5","0.8","0.2","0.6","0.2","","","","","","","","","","","","","","72","H","0","img/none_selected.jpg","true","0","full_practice",""
"","bandit","55","240116","0.0-32.0-3.0","45525388","wem/bandit_party_2","AZVHR847NQRU","either","7","293","","","","","","","0","0","1","","0.2","0.5","0.5","0.5","0.5","0.8","0.2","0.6","0.2","","","","","","","","","","","","","","74","J","1","","true","0","full_practice",""
"","bandit","56","241965","0.0-32.0-4.0","45525388","wem/bandit_party_2","AZVHR847NQRU","either","7","342","","","","","","","0","0","1","","0.2","0.5","0.5","0.5","0.5","0.8","0.2","0.6","0.2","","","","","","","","","","","","","","76","L","3","","true","0","full_practice",""
"","bandit","57","243732","0.0-32.0-5.0","45525388","wem/bandit_party_2","AZVHR847NQRU","either","7","260","","","","","","","1","0","0","0.6","","0.5","0.5","0.5","0.5","","","","","0.8","0.2","0.6","0.2","","","","","","","","","","75","K","2","","true","0","full_practice",""
"","bandit","58","245484","0.0-32.0-6.0","45525388","wem/bandit_party_2","AZVHR847NQRU","either","7","245","","","","","","","0","1","0","","0.6","0.5","0.5","0.5","0.5","0.8","0.2","0.6","0.2","","","","","","","","","","","","","","75","K","2","","true","0","full_practice",""
"","bandit","59","247261","0.0-32.0-7.0","45525388","wem/bandit_party_2","AZVHR847NQRU","either","7","269","","","","","","","0","0","1","","0.2","0.5","0.5","0.5","0.5","0.8","0.2","0.6","0.2","","","","","","","","","","","","","","76","L","3","","true","0","full_practice",""
"","bandit","60","249029","0.0-32.0-8.0","45525388","wem/bandit_party_2","AZVHR847NQRU","either","7","261","","","","","","","0","0","1","0.2","","0.5","0.5","0.5","0.5","","","","","0.8","0.2","0.6","0.2","","","","","","","","","","74","J","1","","true","0","full_practice",""
"","bandit","61","251077","0.0-32.0-9.0","45525388","wem/bandit_party_2","AZVHR847NQRU","either","7","539","","","","","","","1","0","0","0.6","","0.5","0.5","0.5","0.5","","","","","0.8","0.2","0.6","0.2","","","","","","","","","","75","K","2","","true","0","full_practice",""
"","bandit","62","252820","0.0-32.0-10.0","45525388","wem/bandit_party_2","AZVHR847NQRU","either","7","237","","","","","","","0","0","1","0.6","","0.5","0.5","0.5","0.5","","","","","0.8","0.2","0.6","0.2","","","","","","","","","","75","K","2","","true","0","full_practice",""
"","bandit","63","254605","0.0-32.0-11.0","45525388","wem/bandit_party_2","AZVHR847NQRU","either","7","278","","","","","","","0","1","0","","0.8","0.5","0.5","0.5","0.5","0.8","0.2","0.6","0.2","","","","","","","","","","","","","","72","H","0","img/none_selected.jpg","true","0","full_practice",""
"","bandit","64","256357","0.0-32.0-12.0","45525388","wem/bandit_party_2","AZVHR847NQRU","either","7","245","","","","","","","0","0","1","","0.6","0.5","0.5","0.5","0.5","0.8","0.2","0.6","0.2","","","","","","","","","","","","","","75","K","2","","true","0","full_practice",""
"","bandit","65","258260","0.0-32.0-13.0","45525388","wem/bandit_party_2","AZVHR847NQRU","either","7","396","","","","","","","0","0","1","","0.2","0.5","0.5","0.5","0.5","0.8","0.2","0.6","0.2","","","","","","","","","","","","","","76","L","3","","true","0","full_practice",""
"","bandit","66","260132","0.0-32.0-14.0","45525388","wem/bandit_party_2","AZVHR847NQRU","either","7","365","","","","","","","0","0","1","","0.2","0.5","0.5","0.5","0.5","0.8","0.2","0.6","0.2","","","","","","","","","","","","","","74","J","1","","true","0","full_practice",""
"","bandit","67","261803","0.0-32.0-15.0","45525388","wem/bandit_party_2","AZVHR847NQRU","either","7","167","","","","","","","0","0","1","0.6","","0.5","0.5","0.5","0.5","","","","","0.8","0.2","0.6","0.2","","","","","","","","","","75","K","2","","true","0","full_practice",""
"","bandit","68","263565","0.0-32.0-16.0","45525388","wem/bandit_party_2","AZVHR847NQRU","either","7","255","","","","","","","0","0","1","","0.8","0.5","0.5","0.5","0.5","0.8","0.2","0.6","0.2","","","","","","","","","","","","","","72","H","0","img/none_selected.jpg","true","0","full_practice",""
"","bandit","69","265132","0.0-32.0-17.0","45525388","wem/bandit_party_2","AZVHR847NQRU","either","7","60","","","","","","","0","0","1","","0.8","0.5","0.5","0.5","0.5","0.8","0.2","0.6","0.2","","","","","","","","","","","","","","72","H","0","img/none_selected.jpg","true","0","full_practice",""
"","bandit","70","266940","0.0-32.0-18.0","45525388","wem/bandit_party_2","AZVHR847NQRU","either","7","303","","","","","","","1","0","0","0.6","","0.5","0.5","0.5","0.5","","","","","0.8","0.2","0.6","0.2","","","","","","","","","","75","K","2","","true","0","full_practice",""
"","bandit","71","268637","0.0-32.0-19.0","45525388","wem/bandit_party_2","AZVHR847NQRU","either","7","186","","","","","","","0","1","0","","0.6","0.5","0.5","0.5","0.5","0.8","0.2","0.6","0.2","","","","","","","","","","","","","","75","K","2","","true","0","full_practice",""
"","text","72","271957","0.0-33.0","45525388","wem/bandit_party_2","AZVHR847NQRU","either","7","3313","","","32","","","","","","","","","","","","","","","","","","","","","","","","","","","","","","","","","","","","",""
"","text-replacement","73","281422","0.0-34.0","45525388","wem/bandit_party_2","AZVHR847NQRU","either","7","8461","","","32","","","","","","","","","","","","","","","","","","","","","","","","","","","","","","","","","","","","",""
"","text-replacement","74","286265","0.0-35.0","45525388","wem/bandit_party_2","AZVHR847NQRU","either","7","4841","","","32","","","","","","","","","","","","","","","","","","","","","","","","","","","","","","","","","","","","",""
"","text-replacement","75","289750","0.0-36.0","45525388","wem/bandit_party_2","AZVHR847NQRU","either","7","3484","","","32","","","","","","","","","","","","","","","","","","","","","","","","","","","","","","","","","","","","",""
"","text-replacement","76","297245","0.0-37.0","45525388","wem/bandit_party_2","AZVHR847NQRU","either","7","7493","","","32","","","","","","","","","","","","","","","","","","","","","","","","","","","","","","","","","","","","",""
"","text-replacement","77","302398","0.0-38.0","45525388","wem/bandit_party_2","AZVHR847NQRU","either","7","5149","","","32","","","","","","","","","","","","","","","","","","","","","","","","","","","","","","","","","","","","",""
"","survey-multi-choice-replacement","78","308636","0.0-39.0-0.0","45525388","wem/bandit_party_2","AZVHR847NQRU","either","7","6231","","","","","","","","","","","","","","","","","","","","","","","","Money will be added to the pool for <span style='color:red;'>REPUBLICANS</span>","","","","","","","attn_check","","","","","","","","","0"
"","survey-multi-choice-replacement","79","313858","0.0-40.0-0.0","45525388","wem/bandit_party_2","AZVHR847NQRU","either","7","4212","","","","","","","","","","","","","","","","","","","","","","","","Equal amounts of money will be added to the pool for <span style='color:red;'>REPUBLICANS</span> and subtracted from the pool for <span style='color:blue;'>DEMOCRATS</span>","","","","","","","attn_check","","","","","","","","","2"
"","survey-multi-choice-replacement","80","317411","0.0-41.0-0.0","45525388","wem/bandit_party_2","AZVHR847NQRU","either","7","2543","","","","","","","","","","","","","","","","","","","","","","","","No money will be added to either pool","","","","","","","attn_check","","","","","","","","","3"
"","bandit","81","323899","0.0-42.0-0.0","45525388","wem/bandit_party_2","AZVHR847NQRU","either","7","3979","","","","","","","0","0","1","0.2888626749","","0.4","0.8","0.6","0.2","","","","","0.2888626749","0.5514722813","0.1731741302","0.7088318221","","","","","","","","","","72","H","0","img/none_selected.jpg","","1","main_expt",""
"","bandit","82","325693","0.0-43.0-0.0","45525388","wem/bandit_party_2","AZVHR847NQRU","either","7","287","","","","","","","0","0","1","","0.5039303977","0.4","0.8","0.6","0.2","0.3999538902","0.5039303977","0.2874485847","0.6292935488","","","","","","","","","","","","","","74","J","1","","","2","main_expt",""
"","bandit","83","327435","0.0-44.0-0.0","45525388","wem/bandit_party_2","AZVHR847NQRU","either","7","236","","","","","","","0","0","1","","0.5285482983","0.4","0.8","0.6","0.2","0.4126831114","0.5527877924","0.2683250969","0.5285482983","","","","","","","","","","","","","","76","L","3","","","3","main_expt",""
"","bandit","84","330404","0.0-45.0-0.0","45525388","wem/bandit_party_2","AZVHR847NQRU","either","7","1460","","","","","","","0","0","1","","0.3988631097","0.4","0.8","0.6","0.2","0.3923803367","0.6336700584","0.3988631097","0.6744491701","","","","","","","","","","","","","","75","K","2","","","4","main_expt",""
"","bandit","85","332971","0.0-46.0-0.0","45525388","wem/bandit_party_2","AZVHR847NQRU","either","7","1062","","","","","","","0","0","1","0.6340088104","","0.4","0.8","0.6","0.2","","","","","0.3803283439","0.6340088104","0.3568799457","0.7922285807","","","","","","","","","","74","J","1","","","5","main_expt",""
"","bandit","86","335808","0.0-47.0-0.0","45525388","wem/bandit_party_2","AZVHR847NQRU","either","7","1327","","","","","","","0","1","0","","0.4214296899","0.4","0.8","0.6","0.2","0.4214296899","0.5784181907","0.3188731731","0.7459441126","","","","","","","","","","","","","","72","H","0","img/none_selected.jpg","","6","main_expt",""
"","bandit","87","338508","0.0-48.0-0.0","45525388","wem/bandit_party_2","AZVHR847NQRU","either","7","1193","","","","","","","1","0","0","0.4755968838","","0.4","0.8","0.6","0.2","","","","","0.4755968838","0.6727083857","0.4574196012","0.7681481668","","","","","","","","","","72","H","0","img/none_selected.jpg","","7","main_expt",""
"","bandit","88","340733","0.0-49.0-0.0","45525388","wem/bandit_party_2","AZVHR847NQRU","either","7","717","","","","","","","0","1","0","","0.5353568537","0.4","0.8","0.6","0.2","0.5353568537","0.7574508858","0.5037884951","0.7251609313","","","","","","","","","","","","","","72","H","0","img/none_selected.jpg","","8","main_expt",""
"","bandit","89","343301","0.0-50.0-0.0","45525388","wem/bandit_party_2","AZVHR847NQRU","either","7","1057","","","","","","","0","0","1","","0.6246831942","0.4","0.8","0.6","0.2","0.6246831942","0.8280759311","0.5750013994","0.7403055102","","","","","","","","","","","","","","72","H","0","img/none_selected.jpg","","9","main_expt",""
"","bandit","90","345325","0.0-51.0-0.0","45525388","wem/bandit_party_2","AZVHR847NQRU","either","7","516","","","","","","","0","0","1","","0.722944265","0.4","0.8","0.6","0.2","0.4475954046","0.859726102","0.5399040382","0.722944265","","","","","","","","","","","","","","76","L","3","","","10","main_expt",""
"","bandit","91","347282","0.0-52.0-0.0","45525388","wem/bandit_party_2","AZVHR847NQRU","either","7","452","","","","","","","0","1","0","","0.6833847698","0.4","0.8","0.6","0.2","0.4514702697","0.877956501","0.5181098662","0.6833847698","","","","","","","","","","","","","","76","L","3","","","11","main_expt",""
"","bandit","92","349428","0.0-53.0-0.0","45525388","wem/bandit_party_2","AZVHR847NQRU","either","7","639","","","","","","","0","0","1","","0.689227163","0.4","0.8","0.6","0.2","0.4873058782","0.8883669707","0.5489165229","0.689227163","","","","","","","","","","","","","","76","L","3","","","12","main_expt",""
"","bandit","93","351323","0.0-54.0-0.0","45525388","wem/bandit_party_2","AZVHR847NQRU","either","7","387","","","","","","","0","0","1","","0.6186986429","0.4","0.8","0.6","0.2","0.4862469224","0.817149195","0.6186986429","0.5178623456","","","","","","","","","","","","","","75","K","2","","","13","main_expt",""
"","bandit","94","353116","0.0-55.0-0.0","45525388","wem/bandit_party_2","AZVHR847NQRU","either","7","286","","","","","","","1","0","0","0.8589139609","","0.4","0.8","0.6","0.2","","","","","0.360908092","0.8589139609","0.4944095791","0.4768489018","","","","","","","","","","74","J","1","","","14","main_expt",""
"","bandit","95","354900","0.0-56.0-0.0","45525388","wem/bandit_party_2","AZVHR847NQRU","either","7","277","","","","","","","1","0","0","0.7955781648","","0.4","0.8","0.6","0.2","","","","","0.4126647893","0.7955781648","0.4820951366","0.5201849276","","","","","","","","","","74","J","1","","","15","main_expt",""
"","bandit","96","357163","0.0-57.0-0.0","45525388","wem/bandit_party_2","AZVHR847NQRU","either","7","755","","","","","","","0","1","0","","0.8864445785","0.4","0.8","0.6","0.2","0.4930686601","0.8864445785","0.4888848296","0.6862231469","","","","","","","","","","","","","","74","J","1","","","16","main_expt",""
"","bandit","97","359112","0.0-58.0-0.0","45525388","wem/bandit_party_2","AZVHR847NQRU","either","7","442","","","","","","","1","0","0","0.8746062981","","0.4","0.8","0.6","0.2","","","","","0.5162343008","0.8746062981","0.381306026","0.7297328357","","","","","","","","","","74","J","1","","","17","main_expt",""
"","bandit","98","360917","0.0-59.0-0.0","45525388","wem/bandit_party_2","AZVHR847NQRU","either","7","293","","","","","","","1","0","0","0.8910236512","","0.4","0.8","0.6","0.2","","","","","0.5627456494","0.8910236512","0.3537135189","0.6686287009","","","","","","","","","","74","J","1","","","18","main_expt",""
"","bandit","99","362963","0.0-60.0-0.0","45525388","wem/bandit_party_2","AZVHR847NQRU","either","7","539","","","","","","","0","1","0","","0.8932054573","0.4","0.8","0.6","0.2","0.4478227807","0.8932054573","0.4891458502","0.7885428456","","","","","","","","","","","","","","74","J","1","","","19","main_expt",""
"","bandit","100","364780","0.0-61.0-0.0","45525388","wem/bandit_party_2","AZVHR847NQRU","either","7","310","","","","","","","1","0","0","0.8900063933","","0.4","0.8","0.6","0.2","","","","","0.5306796692","0.8900063933","0.5440957398","0.7442236049","","","","","","","","","","74","J","1","","","20","main_expt",""
"","bandit","101","366757","0.0-62.0-0.0","45525388","wem/bandit_party_2","AZVHR847NQRU","either","7","469","","","","","","","1","0","0","0.8748704397","","0.4","0.8","0.6","0.2","","","","","0.5423611418","0.8748704397","0.5621313733","0.7908218503","","","","","","","","","","74","J","1","","","21","main_expt",""
"","bandit","102","368580","0.0-63.0-0.0","45525388","wem/bandit_party_2","AZVHR847NQRU","either","7","315","","","","","","","1","0","0","0.8498769136","","0.4","0.8","0.6","0.2","","","","","0.4190568807","0.8498769136","0.5296345876","0.7163236006","","","","","","","","","","74","J","1","","","22","main_expt",""
"","bandit","103","370691","0.0-64.0-0.0","45525388","wem/bandit_party_2","AZVHR847NQRU","either","7","602","","","","","","","0","1","0","","0.8357449374","0.4","0.8","0.6","0.2","0.4329937009","0.8357449374","0.5187107172","0.7061190667","","","","","","","","","","","","","","74","J","1","","","23","main_expt",""
"","bandit","104","372715","0.0-65.0-0.0","45525388","wem/bandit_party_2","AZVHR847NQRU","either","7","516","","","","","","","1","0","0","0.8431908073","","0.4","0.8","0.6","0.2","","","","","0.4298879426","0.8431908073","0.6000521927","0.7470556917","","","","","","","","","","74","J","1","","","24","main_expt",""
"","bandit","105","374677","0.0-66.0-0.0","45525388","wem/bandit_party_2","AZVHR847NQRU","either","7","453","","","","","","","0","1","0","","0.8741885854","0.4","0.8","0.6","0.2","0.2992323157","0.8741885854","0.5443047256","0.8154180688","","","","","","","","","","","","","","74","J","1","","","25","main_expt",""
"","bandit","106","376748","0.0-67.0-0.0","45525388","wem/bandit_party_2","AZVHR847NQRU","either","7","563","","","","","","","1","0","0","0.8940719671","","0.4","0.8","0.6","0.2","","","","","0.3857263224","0.8940719671","0.592493964","0.8395379789","","","","","","","","","","74","J","1","","","26","main_expt",""
"","bandit","107","378668","0.0-68.0-0.0","45525388","wem/bandit_party_2","AZVHR847NQRU","either","7","411","","","","","","","1","0","0","0.8733378856","","0.4","0.8","0.6","0.2","","","","","0.3715251318","0.8733378856","0.5779569403","0.8023078409","","","","","","","","","","74","J","1","","","27","main_expt",""
"","bandit","108","380548","0.0-69.0-0.0","45525388","wem/bandit_party_2","AZVHR847NQRU","either","7","373","","","","","","","1","0","0","0.8695586723","","0.4","0.8","0.6","0.2","","","","","0.3387808014","0.8695586723","0.7077223562","0.8248968235","","","","","","","","","","74","J","1","","","28","main_expt",""
"","bandit","109","382562","0.0-70.0-0.0","45525388","wem/bandit_party_2","AZVHR847NQRU","either","7","507","","","","","","","1","0","0","0.7908290088","","0.4","0.8","0.6","0.2","","","","","0.3737397218","0.7908290088","0.7070353494","0.8621011303","","","","","","","","","","74","J","1","","","29","main_expt",""
"","bandit","110","384388","0.0-71.0-0.0","45525388","wem/bandit_party_2","AZVHR847NQRU","either","7","318","","","","","","","1","0","0","0.8518997755","","0.4","0.8","0.6","0.2","","","","","0.3232047389","0.8518997755","0.6585428656","0.8873668535","","","","","","","","","","74","J","1","","","30","main_expt",""
"","bandit","111","386140","0.0-72.0-0.0","45525388","wem/bandit_party_2","AZVHR847NQRU","either","7","244","","","","","","","1","0","0","0.8509842625","","0.4","0.8","0.6","0.2","","","","","0.4130267239","0.8509842625","0.6724088618","0.9318975106","","","","","","","","","","74","J","1","","","31","main_expt",""
"","bandit","112","387972","0.0-73.0-0.0","45525388","wem/bandit_party_2","AZVHR847NQRU","either","7","323","","","","","","","1","0","0","0.872996121","","0.4","0.8","0.6","0.2","","","","","0.4167758813","0.872996121","0.6416581209","0.9013609786","","","","","","","","","","74","J","1","","","32","main_expt",""
"","bandit","113","389707","0.0-74.0-0.0","45525388","wem/bandit_party_2","AZVHR847NQRU","either","7","227","","","","","","","0","1","0","","0.8571046391","0.4","0.8","0.6","0.2","0.4546052232","0.8571046391","0.7055802426","0.9041531295","","","","","","","","","","","","","","74","J","1","","","33","main_expt",""
"","bandit","114","391720","0.0-75.0-0.0","45525388","wem/bandit_party_2","AZVHR847NQRU","either","7","500","","","","","","","0","1","0","","0.9175819521","0.4","0.8","0.6","0.2","0.5231803088","0.9175819521","0.7554114371","0.9386104272","","","","","","","","","","","","","","74","J","1","","","34","main_expt",""
"","bandit","115","393491","0.0-76.0-0.0","45525388","wem/bandit_party_2","AZVHR847NQRU","either","7","263","","","","","","","1","0","0","0.9503165686","","0.4","0.8","0.6","0.2","","","","","0.4661188593","0.9503165686","0.8008095759","0.9180645683","","","","","","","","","","74","J","1","","","35","main_expt",""
"","bandit","116","395268","0.0-77.0-0.0","45525388","wem/bandit_party_2","AZVHR847NQRU","either","7","267","","","","","","","1","0","0","0.9327615424","","0.4","0.8","0.6","0.2","","","","","0.4106027186","0.9327615424","0.6925109639","0.9095107155","","","","","","","","","","74","J","1","","","36","main_expt",""
"","bandit","117","397540","0.0-78.0-0.0","45525388","wem/bandit_party_2","AZVHR847NQRU","either","7","763","","","","","","","1","0","0","0.9196494001","","0.4","0.8","0.6","0.2","","","","","0.5021263718","0.9196494001","0.7764255689","0.9405648028","","","","","","","","","","74","J","1","","","37","main_expt",""
"","bandit","118","399347","0.0-79.0-0.0","45525388","wem/bandit_party_2","AZVHR847NQRU","either","7","299","","","","","","","0","1","0","","0.928530414","0.4","0.8","0.6","0.2","0.5065313343","0.928530414","0.8392953971","0.9058459248","","","","","","","","","","","","","","74","J","1","","","38","main_expt",""
"","bandit","119","401156","0.0-80.0-0.0","45525388","wem/bandit_party_2","AZVHR847NQRU","either","7","301","","","","","","","1","0","0","0.9001545702","","0.4","0.8","0.6","0.2","","","","","0.6098243774","0.9001545702","0.7614495855","0.8784462517","","","","","","","","","","74","J","1","","","39","main_expt",""
"","bandit","120","403131","0.0-81.0-0.0","45525388","wem/bandit_party_2","AZVHR847NQRU","either","7","467","","","","","","","1","0","0","0.8432481254","","0.4","0.8","0.6","0.2","","","","","0.679699592","0.8432481254","0.8060705796","0.8408568766","","","","","","","","","","74","J","1","","","40","main_expt",""
"","bandit","121","404891","0.0-82.0-0.0","45525388","wem/bandit_party_2","AZVHR847NQRU","either","7","251","","","","","","","0","1","0","","0.8326479564","0.4","0.8","0.6","0.2","0.616488607","0.8326479564","0.7539991053","0.811342849","","","","","","","","","","","","","","74","J","1","","","41","main_expt",""
"","bandit","122","406707","0.0-83.0-0.0","45525388","wem/bandit_party_2","AZVHR847NQRU","either","7","308","","","","","","","1","0","0","0.8602810298","","0.4","0.8","0.6","0.2","","","","","0.6307104111","0.8602810298","0.7717369324","0.8058808774","","","","","","","","","","74","J","1","","","42","main_expt",""
"","bandit","123","409020","0.0-84.0-0.0","45525388","wem/bandit_party_2","AZVHR847NQRU","either","7","806","","","","","","","1","0","0","0.894365654","","0.4","0.8","0.6","0.2","","","","","0.554567591","0.894365654","0.7625968551","0.7899844578","","","","","","","","","","74","J","1","","","43","main_expt",""
"","bandit","124","410780","0.0-85.0-0.0","45525388","wem/bandit_party_2","AZVHR847NQRU","either","7","253","","","","","","","1","0","0","0.9033664713","","0.4","0.8","0.6","0.2","","","","","0.5281861223","0.9033664713","0.8488621298","0.7654486741","","","","","","","","","","74","J","1","","","44","main_expt",""
"","bandit","125","412603","0.0-86.0-0.0","45525388","wem/bandit_party_2","AZVHR847NQRU","either","7","317","","","","","","","1","0","0","0.8829964613","","0.4","0.8","0.6","0.2","","","","","0.5043334007","0.8829964613","0.8522077325","0.7674111825","","","","","","","","","","74","J","1","","","45","main_expt",""
"","bandit","126","414420","0.0-87.0-0.0","45525388","wem/bandit_party_2","AZVHR847NQRU","either","7","307","","","","","","","1","0","0","0.8674694879","","0.4","0.8","0.6","0.2","","","","","0.5426256613","0.8674694879","0.8618589195","0.6301273516","","","","","","","","","","74","J","1","","","46","main_expt",""
"","bandit","127","416442","0.0-88.0-0.0","45525388","wem/bandit_party_2","AZVHR847NQRU","either","7","514","","","","","","","1","0","0","0.8886720039","","0.4","0.8","0.6","0.2","","","","","0.5024796093","0.8886720039","0.905897833","0.7885969413","","","","","","","","","","74","J","1","","","47","main_expt",""
"","bandit","128","419189","0.0-89.0-0.0","45525388","wem/bandit_party_2","AZVHR847NQRU","either","7","1236","","","","","","","0","1","0","","0.9229902905","0.4","0.8","0.6","0.2","0.4689138593","0.9229902905","0.8929468812","0.7983786211","","","","","","","","","","","","","","74","J","1","","","48","main_expt",""
"","bandit","129","421061","0.0-90.0-0.0","45525388","wem/bandit_party_2","AZVHR847NQRU","either","7","363","","","","","","","1","0","0","0.9141434128","","0.4","0.8","0.6","0.2","","","","","0.4439560463","0.9141434128","0.854905512","0.8249867574","","","","","","","","","","74","J","1","","","49","main_expt",""
"","bandit","130","423052","0.0-91.0-0.0","45525388","wem/bandit_party_2","AZVHR847NQRU","either","7","481","","","","","","","1","0","0","0.9181160336","","0.4","0.8","0.6","0.2","","","","","0.4079842927","0.9181160336","0.8363103738","0.7532301684","","","","","","","","","","74","J","1","","","50","main_expt",""
"","bandit","131","425220","0.0-92.0-0.0","45525388","wem/bandit_party_2","AZVHR847NQRU","either","7","661","","","","","","","1","0","0","0.9266489825","","0.4","0.8","0.6","0.2","","","","","0.4675199832","0.9266489825","0.7168506975","0.6750909554","","","","","","","","","","74","J","1","","","51","main_expt",""
"","bandit","132","427114","0.0-93.0-0.0","45525388","wem/bandit_party_2","AZVHR847NQRU","either","7","386","","","","","","","1","0","0","0.9285581488","","0.4","0.8","0.6","0.2","","","","","0.4368052975","0.9285581488","0.6507986152","0.6762079337","","","","","","","","","","74","J","1","","","52","main_expt",""
"","bandit","133","429163","0.0-94.0-0.0","45525388","wem/bandit_party_2","AZVHR847NQRU","either","7","543","","","","","","","1","0","0","0.9171724481","","0.4","0.8","0.6","0.2","","","","","0.4967902672","0.9171724481","0.6531867096","0.7882030045","","","","","","","","","","74","J","1","","","53","main_expt",""
"","bandit","134","431197","0.0-95.0-0.0","45525388","wem/bandit_party_2","AZVHR847NQRU","either","7","523","","","","","","","1","0","0","0.8709862684","","0.4","0.8","0.6","0.2","","","","","0.5321533453","0.8709862684","0.6178049746","0.8759533557","","","","","","","","","","74","J","1","","","54","main_expt",""
"","bandit","135","432948","0.0-96.0-0.0","45525388","wem/bandit_party_2","AZVHR847NQRU","either","7","243","","","","","","","0","0","1","0.9016108676","","0.4","0.8","0.6","0.2","","","","","0.593251847","0.9016108676","0.5501477499","0.9307112091","","","","","","","","","","74","J","1","","","55","main_expt",""
"","bandit","136","435268","0.0-97.0-0.0","45525388","wem/bandit_party_2","AZVHR847NQRU","either","7","810","","","","","","","0","0","1","0.9123335035","","0.4","0.8","0.6","0.2","","","","","0.602347159","0.9123335035","0.5181914202","0.9486344027","","","","","","","","","","74","J","1","","","56","main_expt",""
"","bandit","137","437178","0.0-98.0-0.0","45525388","wem/bandit_party_2","AZVHR847NQRU","either","7","402","","","","","","","1","0","0","0.5052283364","","0.4","0.8","0.6","0.2","","","","","0.736851976","0.9338523698","0.5052283364","0.9450559811","","","","","","","","","","75","K","2","","","57","main_expt",""
"","bandit","138","438979","0.0-99.0-0.0","45525388","wem/bandit_party_2","AZVHR847NQRU","either","7","292","","","","","","","1","0","0","0.4494585665","","0.4","0.8","0.6","0.2","","","","","0.7112026436","0.9023069914","0.4494585665","0.960587128","","","","","","","","","","75","K","2","","","58","main_expt",""
"","bandit","139","441067","0.0-100.0-0.0","45525388","wem/bandit_party_2","AZVHR847NQRU","either","7","580","","","","","","","0","1","0","","0.4431029696","0.4","0.8","0.6","0.2","0.7605469626","0.903153386","0.4431029696","0.9272570312","","","","","","","","","","","","","","75","K","2","","","59","main_expt",""
"","bandit","140","442925","0.0-101.0-0.0","45525388","wem/bandit_party_2","AZVHR847NQRU","either","7","347","","","","","","","1","0","0","0.4213069188","","0.4","0.8","0.6","0.2","","","","","0.6504737249","0.8975643475","0.4213069188","0.9075075979","","","","","","","","","","75","K","2","","","60","main_expt",""
"","bandit","141","444788","0.0-102.0-0.0","45525388","wem/bandit_party_2","AZVHR847NQRU","either","7","354","","","","","","","1","0","0","0.4735464544","","0.4","0.8","0.6","0.2","","","","","0.7417300409","0.8455107238","0.4735464544","0.9011961695","","","","","","","","","","75","K","2","","","61","main_expt",""
"","bandit","142","446564","0.0-103.0-0.0","45525388","wem/bandit_party_2","AZVHR847NQRU","either","7","267","","","","","","","0","0","1","","0.4260239588","0.4","0.8","0.6","0.2","0.6889655243","0.8423106617","0.4260239588","0.9025442902","","","","","","","","","","","","","","75","K","2","","","62","main_expt",""
"","bandit","143","448347","0.0-104.0-0.0","45525388","wem/bandit_party_2","AZVHR847NQRU","either","7","277","","","","","","","1","0","0","0.7532165261","","0.4","0.8","0.6","0.2","","","","","0.7532165261","0.6997676278","0.4048641732","0.900711875","","","","","","","","","","72","H","0","img/none_selected.jpg","","63","main_expt",""
"","bandit","144","450149","0.0-105.0-0.0","45525388","wem/bandit_party_2","AZVHR847NQRU","either","7","295","","","","","","","0","1","0","","0.7614619666","0.4","0.8","0.6","0.2","0.7614619666","0.8033841581","0.261135461","0.8445511995","","","","","","","","","","","","","","72","H","0","img/none_selected.jpg","","64","main_expt",""
"","bandit","145","452140","0.0-106.0-0.0","45525388","wem/bandit_party_2","AZVHR847NQRU","either","7","481","","","","","","","0","1","0","","0.7474824059","0.4","0.8","0.6","0.2","0.7474824059","0.8458775523","0.4398785507","0.7838665633","","","","","","","","","","","","","","72","H","0","img/none_selected.jpg","","65","main_expt",""
"","bandit","146","453972","0.0-107.0-0.0","45525388","wem/bandit_party_2","AZVHR847NQRU","either","7","323","","","","","","","1","0","0","0.7083026918","","0.4","0.8","0.6","0.2","","","","","0.7083026918","0.8612648572","0.4549930047","0.8399866527","","","","","","","","","","72","H","0","img/none_selected.jpg","","66","main_expt",""
"","bandit","147","456067","0.0-108.0-0.0","45525388","wem/bandit_party_2","AZVHR847NQRU","either","7","586","","","","","","","0","1","0","","0.6535093674","0.4","0.8","0.6","0.2","0.6535093674","0.8686018104","0.5565794079","0.9109535201","","","","","","","","","","","","","","72","H","0","img/none_selected.jpg","","67","main_expt",""
"","bandit","148","458092","0.0-109.0-0.0","45525388","wem/bandit_party_2","AZVHR847NQRU","either","7","516","","","","","","","0","0","1","","0.4923739087","0.4","0.8","0.6","0.2","0.4923739087","0.8693437115","0.4211802827","0.9064065477","","","","","","","","","","","","","","72","H","0","img/none_selected.jpg","","68","main_expt",""
"","bandit","149","459811","0.0-110.0-0.0","45525388","wem/bandit_party_2","AZVHR847NQRU","either","7","210","","","","","","","0","1","0","","0.9315833469","0.4","0.8","0.6","0.2","0.4898097669","0.9168970181","0.3687693293","0.9315833469","","","","","","","","","","","","","","76","L","3","","","69","main_expt",""
"","bandit","150","461893","0.0-111.0-0.0","45525388","wem/bandit_party_2","AZVHR847NQRU","either","7","572","","","","","","","0","1","0","","0.9393923483","0.4","0.8","0.6","0.2","0.4369614599","0.9293527272","0.3460903474","0.9393923483","","","","","","","","","","","","","","76","L","3","","","70","main_expt",""
"","bandit","151","463883","0.0-112.0-0.0","45525388","wem/bandit_party_2","AZVHR847NQRU","either","7","478","","","","","","","0","1","0","","0.9568343035","0.4","0.8","0.6","0.2","0.5031037484","0.949087413","0.3278112836","0.9568343035","","","","","","","","","","","","","","76","L","3","","","71","main_expt",""
"","bandit","152","465692","0.0-113.0-0.0","45525388","wem/bandit_party_2","AZVHR847NQRU","either","7","299","","","","","","","0","1","0","","0.947758434","0.4","0.8","0.6","0.2","0.5397903688","0.906373323","0.2720469766","0.947758434","","","","","","","","","","","","","","76","L","3","","","72","main_expt",""
"","bandit","153","467718","0.0-114.0-0.0","45525388","wem/bandit_party_2","AZVHR847NQRU","either","7","517","","","","","","","0","1","0","","0.9052010222","0.4","0.8","0.6","0.2","0.5540652028","0.93965919","0.2451019773","0.9052010222","","","","","","","","","","","","","","76","L","3","","","73","main_expt",""
"","bandit","154","469588","0.0-115.0-0.0","45525388","wem/bandit_party_2","AZVHR847NQRU","either","7","358","","","","","","","0","1","0","","0.927704936","0.4","0.8","0.6","0.2","0.61733434","0.9416319858","0.2645862521","0.927704936","","","","","","","","","","","","","","76","L","3","","","74","main_expt",""
"","bandit","155","471363","0.0-116.0-0.0","45525388","wem/bandit_party_2","AZVHR847NQRU","either","7","266","","","","","","","1","0","0","0.8769567517","","0.4","0.8","0.6","0.2","","","","","0.6341908543","0.9535384208","0.2298582","0.8769567517","","","","","","","","","","76","L","3","","","75","main_expt",""
"","bandit","156","473204","0.0-117.0-0.0","45525388","wem/bandit_party_2","AZVHR847NQRU","either","7","332","","","","","","","0","1","0","","0.8456064169","0.4","0.8","0.6","0.2","0.6355577018","0.9585479729","0.3460043445","0.8456064169","","","","","","","","","","","","","","76","L","3","","","76","main_expt",""
"","bandit","157","475108","0.0-118.0-0.0","45525388","wem/bandit_party_2","AZVHR847NQRU","either","7","397","","","","","","","0","1","0","","0.8325595713","0.4","0.8","0.6","0.2","0.7055426269","0.9610253773","0.2526488818","0.8325595713","","","","","","","","","","","","","","76","L","3","","","77","main_expt",""
"","bandit","158","477155","0.0-119.0-0.0","45525388","wem/bandit_party_2","AZVHR847NQRU","either","7","540","","","","","","","1","0","0","0.9128982172","","0.4","0.8","0.6","0.2","","","","","0.6137882531","0.9580320452","0.2625396382","0.9128982172","","","","","","","","","","76","L","3","","","78","main_expt",""
"","bandit","159","478996","0.0-120.0-0.0","45525388","wem/bandit_party_2","AZVHR847NQRU","either","7","334","","","","","","","0","1","0","","0.9213349282","0.4","0.8","0.6","0.2","0.668392527","0.9403834825","0.2957535945","0.9213349282","","","","","","","","","","","","","","76","L","3","","","79","main_expt",""
"","bandit","160","480892","0.0-121.0-0.0","45525388","wem/bandit_party_2","AZVHR847NQRU","either","7","386","","","","","","","1","0","0","0.8935563746","","0.4","0.8","0.6","0.2","","","","","0.7457361895","0.946171157","0.1831261498","0.8935563746","","","","","","","","","","76","L","3","","","80","main_expt",""
"","bandit","161","482696","0.0-122.0-0.0","45525388","wem/bandit_party_2","AZVHR847NQRU","either","7","295","","","","","","","0","1","0","","0.932831263","0.4","0.8","0.6","0.2","0.8028050151","0.9800092583","0.1450659425","0.932831263","","","","","","","","","","","","","","76","L","3","","","81","main_expt",""
"","bandit","162","484515","0.0-123.0-0.0","45525388","wem/bandit_party_2","AZVHR847NQRU","either","7","313","","","","","","","1","0","0","0.9403650082","","0.4","0.8","0.6","0.2","","","","","0.8727424511","0.9666397243","0.1486641529","0.9403650082","","","","","","","","","","76","L","3","","","82","main_expt",""
"","bandit","163","486284","0.0-124.0-0.0","45525388","wem/bandit_party_2","AZVHR847NQRU","either","7","261","","","","","","","0","1","0","","0.9066396881","0.4","0.8","0.6","0.2","0.8283068274","0.9637330664","0.1567811066","0.9066396881","","","","","","","","","","","","","","76","L","3","","","83","main_expt",""
"","bandit","164","488204","0.0-125.0-0.0","45525388","wem/bandit_party_2","AZVHR847NQRU","either","7","410","","","","","","","1","0","0","0.8962006295","","0.4","0.8","0.6","0.2","","","","","0.8030064341","0.9617949183","0.196091916","0.8962006295","","","","","","","","","","76","L","3","","","84","main_expt",""
"","bandit","165","489987","0.0-126.0-0.0","45525388","wem/bandit_party_2","AZVHR847NQRU","either","7","274","","","","","","","0","1","0","","0.9093999993","0.4","0.8","0.6","0.2","0.8622567251","0.9561985801","0.1512390112","0.9093999993","","","","","","","","","","","","","","76","L","3","","","85","main_expt",""
"","bandit","166","491755","0.0-127.0-0.0","45525388","wem/bandit_party_2","AZVHR847NQRU","either","7","259","","","","","","","0","1","0","","0.9326862648","0.4","0.8","0.6","0.2","0.896584634","0.9422505668","0.1486491559","0.9326862648","","","","","","","","","","","","","","76","L","3","","","86","main_expt",""
"","bandit","167","493772","0.0-128.0-0.0","45525388","wem/bandit_party_2","AZVHR847NQRU","either","7","509","","","","","","","0","1","0","","0.9039434857","0.4","0.8","0.6","0.2","0.9208758521","0.926711091","0.1047878604","0.9039434857","","","","","","","","","","","","","","76","L","3","","","87","main_expt",""
"","bandit","168","495556","0.0-129.0-0.0","45525388","wem/bandit_party_2","AZVHR847NQRU","either","7","276","","","","","","","0","1","0","","0.9195127861","0.4","0.8","0.6","0.2","0.9266301883","0.9092576496","0.07038149384","0.9195127861","","","","","","","","","","","","","","76","L","3","","","88","main_expt",""
"","bandit","169","497485","0.0-130.0-0.0","45525388","wem/bandit_party_2","AZVHR847NQRU","either","7","420","","","","","","","0","1","0","","0.9225053559","0.4","0.8","0.6","0.2","0.9259215542","0.8948591238","0.1311535074","0.9225053559","","","","","","","","","","","","","","76","L","3","","","89","main_expt",""
"","bandit","170","499315","0.0-131.0-0.0","45525388","wem/bandit_party_2","AZVHR847NQRU","either","7","321","","","","","","","1","0","0","0.9014563988","","0.4","0.8","0.6","0.2","","","","","0.9400480964","0.8716727139","0.1241310956","0.9014563988","","","","","","","","","","76","L","3","","","90","main_expt",""
"","bandit","171","501149","0.0-132.0-0.0","45525388","wem/bandit_party_2","AZVHR847NQRU","either","7","323","","","","","","","0","1","0","","0.9162570652","0.4","0.8","0.6","0.2","0.8961855863","0.8969144331","0.09664170694","0.9162570652","","","","","","","","","","","","","","76","L","3","","","91","main_expt",""
"","bandit","172","503012","0.0-133.0-0.0","45525388","wem/bandit_party_2","AZVHR847NQRU","either","7","353","","","","","","","0","1","0","","0.9171553871","0.4","0.8","0.6","0.2","0.9211437923","0.9171199264","0.09586364307","0.9171553871","","","","","","","","","","","","","","76","L","3","","","92","main_expt",""
"","bandit","173","504883","0.0-134.0-0.0","45525388","wem/bandit_party_2","AZVHR847NQRU","either","7","356","","","","","","","0","1","0","","0.9463284029","0.4","0.8","0.6","0.2","0.8947860396","0.9593171332","0.08304118766","0.9463284029","","","","","","","","","","","","","","76","L","3","","","93","main_expt",""
"","bandit","174","506684","0.0-135.0-0.0","45525388","wem/bandit_party_2","AZVHR847NQRU","either","7","287","","","","","","","0","1","0","","0.9477079066","0.4","0.8","0.6","0.2","0.822540961","0.959226596","0.1222865453","0.9477079066","","","","","","","","","","","","","","76","L","3","","","94","main_expt",""
"","bandit","175","508461","0.0-136.0-0.0","45525388","wem/bandit_party_2","AZVHR847NQRU","either","7","268","","","","","","","0","1","0","","0.9474919074","0.4","0.8","0.6","0.2","0.8288041746","0.947105423","0.211460517","0.9474919074","","","","","","","","","","","","","","76","L","3","","","95","main_expt",""
"","bandit","176","510364","0.0-137.0-0.0","45525388","wem/bandit_party_2","AZVHR847NQRU","either","7","393","","","","","","","0","1","0","","0.9722490369","0.4","0.8","0.6","0.2","0.8217366877","0.937205139","0.2757920232","0.9722490369","","","","","","","","","","","","","","76","L","3","","","96","main_expt",""
"","bandit","177","512458","0.0-138.0-0.0","45525388","wem/bandit_party_2","AZVHR847NQRU","either","7","586","","","","","","","0","1","0","","0.980822097","0.4","0.8","0.6","0.2","0.725285089","0.9472767204","0.2646876298","0.980822097","","","","","","","","","","","","","","76","L","3","","","97","main_expt",""
"","bandit","178","514419","0.0-139.0-0.0","45525388","wem/bandit_party_2","AZVHR847NQRU","either","7","455","","","","","","","0","0","1","","0.9761591307","0.4","0.8","0.6","0.2","0.7958966199","0.962959595","0.3278454636","0.9761591307","","","","","","","","","","","","","","76","L","3","","","98","main_expt",""
"","bandit","179","516511","0.0-140.0-0.0","45525388","wem/bandit_party_2","AZVHR847NQRU","either","7","581","","","","","","","1","0","0","0.9597391097","","0.4","0.8","0.6","0.2","","","","","0.7741840332","0.9720903607","0.4641870332","0.9597391097","","","","","","","","","","76","L","3","","","99","main_expt",""
"","bandit","180","518455","0.0-141.0-0.0","45525388","wem/bandit_party_2","AZVHR847NQRU","either","7","432","","","","","","","0","1","0","","0.9557148533","0.4","0.8","0.6","0.2","0.7934767162","0.9737169538","0.3972344865","0.9557148533","","","","","","","","","","","","","","76","L","3","","","100","main_expt",""
"","bandit","181","520284","0.0-142.0-0.0","45525388","wem/bandit_party_2","AZVHR847NQRU","either","7","320","","","","","","","1","0","0","0.9687934467","","0.4","0.8","0.6","0.2","","","","","0.8307638242","0.986468331","0.4395304924","0.9687934467","","","","","","","","","","76","L","3","","","101","main_expt",""
"","bandit","182","522596","0.0-143.0-0.0","45525388","wem/bandit_party_2","AZVHR847NQRU","either","7","802","","","","","","","0","1","0","","0.9713318577","0.4","0.8","0.6","0.2","0.7737236933","0.9859557102","0.5248298482","0.9713318577","","","","","","","","","","","","","","76","L","3","","","102","main_expt",""
"","bandit","183","524427","0.0-144.0-0.0","45525388","wem/bandit_party_2","AZVHR847NQRU","either","7","321","","","","","","","0","1","0","","0.9768128314","0.4","0.8","0.6","0.2","0.8168427084","0.9828698412","0.6218364577","0.9768128314","","","","","","","","","","","","","","76","L","3","","","103","main_expt",""
"","bandit","184","526228","0.0-145.0-0.0","45525388","wem/bandit_party_2","AZVHR847NQRU","either","7","293","","","","","","","0","1","0","","0.9566706727","0.4","0.8","0.6","0.2","0.7020104164","0.9655029871","0.5528563194","0.9566706727","","","","","","","","","","","","","","76","L","3","","","104","main_expt",""
"","bandit","185","528083","0.0-146.0-0.0","45525388","wem/bandit_party_2","AZVHR847NQRU","either","7","347","","","","","","","0","1","0","","0.9352711559","0.4","0.8","0.6","0.2","0.6750414237","0.9587067199","0.515821512","0.9352711559","","","","","","","","","","","","","","76","L","3","","","105","main_expt",""
"","bandit","186","530284","0.0-147.0-0.0","45525388","wem/bandit_party_2","AZVHR847NQRU","either","7","690","","","","","","","0","1","0","","0.8980036198","0.4","0.8","0.6","0.2","0.5886413089","0.9358961366","0.5380341879","0.8980036198","","","","","","","","","","","","","","76","L","3","","","106","main_expt",""
"","bandit","187","532651","0.0-148.0-0.0","45525388","wem/bandit_party_2","AZVHR847NQRU","either","7","860","","","","","","","0","1","0","","0.9175797088","0.4","0.8","0.6","0.2","0.5507707533","0.8829949032","0.3291998873","0.9175797088","","","","","","","","","","","","","","76","L","3","","","107","main_expt",""
"","bandit","188","534508","0.0-149.0-0.0","45525388","wem/bandit_party_2","AZVHR847NQRU","either","7","349","","","","","","","1","0","0","0.8966825343","","0.4","0.8","0.6","0.2","","","","","0.4325904974","0.7668100276","0.3608627265","0.8966825343","","","","","","","","","","76","L","3","","","108","main_expt",""
"","bandit","189","536468","0.0-150.0-0.0","45525388","wem/bandit_party_2","AZVHR847NQRU","either","7","449","","","","","","","1","0","0","0.8883819791","","0.4","0.8","0.6","0.2","","","","","0.3735159861","0.7652463225","0.3837942066","0.8883819791","","","","","","","","","","76","L","3","","","109","main_expt",""
"","bandit","190","538554","0.0-151.0-0.0","45525388","wem/bandit_party_2","AZVHR847NQRU","either","7","576","","","","","","","1","0","0","0.9087011364","","0.4","0.8","0.6","0.2","","","","","0.3704440872","0.7974745759","0.3019365294","0.9087011364","","","","","","","","","","76","L","3","","","110","main_expt",""
"","bandit","191","540340","0.0-152.0-0.0","45525388","wem/bandit_party_2","AZVHR847NQRU","either","7","276","","","","","","","0","1","0","","0.9337026812","0.4","0.8","0.6","0.2","0.2749067499","0.812352323","0.3483008865","0.9337026812","","","","","","","","","","","","","","76","L","3","","","111","main_expt",""
"","bandit","192","542354","0.0-153.0-0.0","45525388","wem/bandit_party_2","AZVHR847NQRU","either","7","504","","","","","","","0","1","0","","0.9113388615","0.4","0.8","0.6","0.2","0.2734667401","0.7428975936","0.4342302697","0.9113388615","","","","","","","","","","","","","","76","L","3","","","112","main_expt",""
"","bandit","193","544182","0.0-154.0-0.0","45525388","wem/bandit_party_2","AZVHR847NQRU","either","7","314","","","","","","","0","0","1","0.8980528729","","0.4","0.8","0.6","0.2","","","","","0.2291946885","0.7139653514","0.5187246657","0.8980528729","","","","","","","","","","76","L","3","","","113","main_expt",""
"","bandit","194","546178","0.0-155.0-0.0","45525388","wem/bandit_party_2","AZVHR847NQRU","either","7","488","","","","","","","0","0","1","","0.2413339081","0.4","0.8","0.6","0.2","0.2413339081","0.7945657698","0.5381742134","0.8036326458","","","","","","","","","","","","","","72","H","0","img/none_selected.jpg","","114","main_expt",""
"","bandit","195","547940","0.0-156.0-0.0","45525388","wem/bandit_party_2","AZVHR847NQRU","either","7","251","","","","","","","0","0","1","0.4785029821","","0.4","0.8","0.6","0.2","","","","","0.3092826039","0.8405588069","0.4785029821","0.8700945717","","","","","","","","","","75","K","2","","","115","main_expt",""
"","bandit","196","549682","0.0-157.0-0.0","45525388","wem/bandit_party_2","AZVHR847NQRU","either","7","233","","","","","","","1","0","0","0.8641798474","","0.4","0.8","0.6","0.2","","","","","0.2361366225","0.8641798474","0.4654757386","0.8895114993","","","","","","","","","","74","J","1","","","116","main_expt",""
"","bandit","197","551426","0.0-158.0-0.0","45525388","wem/bandit_party_2","AZVHR847NQRU","either","7","235","","","","","","","1","0","0","0.8756768431","","0.4","0.8","0.6","0.2","","","","","0.218402711","0.8756768431","0.4578633225","0.8936856952","","","","","","","","","","74","J","1","","","117","main_expt",""
"","bandit","198","553394","0.0-159.0-0.0","45525388","wem/bandit_party_2","AZVHR847NQRU","either","7","461","","","","","","","1","0","0","0.9015269718","","0.4","0.8","0.6","0.2","","","","","0.2003641109","0.9015269718","0.4773941538","0.8077127093","","","","","","","","","","74","J","1","","","118","main_expt",""
"","bandit","199","555210","0.0-160.0-0.0","45525388","wem/bandit_party_2","AZVHR847NQRU","either","7","309","","","","","","","1","0","0","0.8709738884","","0.4","0.8","0.6","0.2","","","","","0.1375137305","0.8709738884","0.508374463","0.8901108642","","","","","","","","","","74","J","1","","","119","main_expt",""
"","bandit","200","556965","0.0-161.0-0.0","45525388","wem/bandit_party_2","AZVHR847NQRU","either","7","246","","","","","","","1","0","0","0.8268338002","","0.4","0.8","0.6","0.2","","","","","0.08656631556","0.8268338002","0.4294310012","0.8731124259","","","","","","","","","","74","J","1","","","120","main_expt",""
"","bandit","201","558764","0.0-162.0-0.0","45525388","wem/bandit_party_2","AZVHR847NQRU","either","7","288","","","","","","","1","0","0","0.8432616236","","0.4","0.8","0.6","0.2","","","","","0.07812634859","0.8432616236","0.3933985885","0.8509174952","","","","","","","","","","74","J","1","","","121","main_expt",""
"","bandit","202","560528","0.0-163.0-0.0","45525388","wem/bandit_party_2","AZVHR847NQRU","either","7","256","","","","","","","1","0","0","0.8128728295","","0.4","0.8","0.6","0.2","","","","","0.09046411854","0.8128728295","0.2641409089","0.8707856005","","","","","","","","","","74","J","1","","","122","main_expt",""
"","bandit","203","562397","0.0-164.0-0.0","45525388","wem/bandit_party_2","AZVHR847NQRU","either","7","355","","","","","","","0","0","1","0.752198112","","0.4","0.8","0.6","0.2","","","","","0.1132512529","0.752198112","0.2491349268","0.7592524618","","","","","","","","","","74","J","1","","","123","main_expt",""
"","bandit","204","564118","0.0-165.0-0.0","45525388","wem/bandit_party_2","AZVHR847NQRU","either","7","209","","","","","","","0","0","1","0.09419269712","","0.4","0.8","0.6","0.2","","","","","0.09419269712","0.7117781612","0.2587226179","0.7330206325","","","","","","","","","","72","H","0","img/none_selected.jpg","","124","main_expt",""
"","bandit","205","565844","0.0-166.0-0.0","45525388","wem/bandit_party_2","AZVHR847NQRU","either","7","214","","","","","","","0","1","0","","0.6903693331","0.4","0.8","0.6","0.2","0.110513045","0.7177409252","0.2925679814","0.6903693331","","","","","","","","","","","","","","76","L","3","","","125","main_expt",""
"","bandit","206","567859","0.0-167.0-0.0","45525388","wem/bandit_party_2","AZVHR847NQRU","either","7","506","","","","","","","0","1","0","","0.6370641568","0.4","0.8","0.6","0.2","0.07088043536","0.7240917845","0.3997536411","0.6370641568","","","","","","","","","","","","","","76","L","3","","","126","main_expt",""
"","bandit","207","569723","0.0-168.0-0.0","45525388","wem/bandit_party_2","AZVHR847NQRU","either","7","352","","","","","","","0","1","0","","0.6192694325","0.4","0.8","0.6","0.2","0.1041728595","0.6788578752","0.4120812041","0.6192694325","","","","","","","","","","","","","","76","L","3","","","127","main_expt",""
"","bandit","208","571537","0.0-169.0-0.0","45525388","wem/bandit_party_2","AZVHR847NQRU","either","7","303","","","","","","","0","1","0","","0.559348281","0.4","0.8","0.6","0.2","0.1006708935","0.6257789885","0.3731276689","0.559348281","","","","","","","","","","","","","","76","L","3","","","128","main_expt",""
"","bandit","209","573396","0.0-170.0-0.0","45525388","wem/bandit_party_2","AZVHR847NQRU","either","7","347","","","","","","","0","0","1","","0.610360397","0.4","0.8","0.6","0.2","0.1336488566","0.4761868647","0.3263017501","0.610360397","","","","","","","","","","","","","","76","L","3","","","129","main_expt",""
"","bandit","210","575165","0.0-171.0-0.0","45525388","wem/bandit_party_2","AZVHR847NQRU","either","7","256","","","","","","","1","0","0","0.3226142564","","0.4","0.8","0.6","0.2","","","","","0.1271550391","0.4745188583","0.3226142564","0.5737783772","","","","","","","","","","75","K","2","","","130","main_expt",""
"","bandit","211","576923","0.0-172.0-0.0","45525388","wem/bandit_party_2","AZVHR847NQRU","either","7","248","","","","","","","0","0","1","","0.3907136596","0.4","0.8","0.6","0.2","0.1594360192","0.4674409752","0.3907136596","0.6252154127","","","","","","","","","","","","","","75","K","2","","","131","main_expt",""
"","bandit","212","578708","0.0-173.0-0.0","45525388","wem/bandit_party_2","AZVHR847NQRU","either","7","274","","","","","","","1","0","0","0.368649462","","0.4","0.8","0.6","0.2","","","","","0.1027658661","0.368649462","0.4983036492","0.6473056352","","","","","","","","","","74","J","1","","","132","main_expt",""
"","bandit","213","580691","0.0-174.0-0.0","45525388","wem/bandit_party_2","AZVHR847NQRU","either","7","473","","","","","","","0","0","1","0.4313577514","","0.4","0.8","0.6","0.2","","","","","0.1223548883","0.4313577514","0.6347393695","0.4595123468","","","","","","","","","","74","J","1","","","133","main_expt",""
"","bandit","214","582475","0.0-175.0-0.0","45525388","wem/bandit_party_2","AZVHR847NQRU","either","7","272","","","","","","","0","0","1","","0.1063029331","0.4","0.8","0.6","0.2","0.1063029331","0.3692150919","0.6037412299","0.3043385566","","","","","","","","","","","","","","72","H","0","img/none_selected.jpg","","134","main_expt",""
"","bandit","215","584147","0.0-176.0-0.0","45525388","wem/bandit_party_2","AZVHR847NQRU","either","7","160","","","","","","","0","0","1","","0.5511090861","0.4","0.8","0.6","0.2","0.080644856","0.3077662431","0.5511090861","0.340857567","","","","","","","","","","","","","","75","K","2","","","135","main_expt",""
"","bandit","216","585955","0.0-177.0-0.0","45525388","wem/bandit_party_2","AZVHR847NQRU","either","7","296","","","","","","","0","0","1","0.314969588","","0.4","0.8","0.6","0.2","","","","","0.1359867045","0.314969588","0.585911414","0.2655810755","","","","","","","","","","74","J","1","","","136","main_expt",""
"","bandit","217","587716","0.0-178.0-0.0","45525388","wem/bandit_party_2","AZVHR847NQRU","either","7","250","","","","","","","0","0","1","","0.3025530854","0.4","0.8","0.6","0.2","0.168344283","0.3590847215","0.5805905743","0.3025530854","","","","","","","","","","","","","","76","L","3","","","137","main_expt",""
"","bandit","218","589659","0.0-179.0-0.0","45525388","wem/bandit_party_2","AZVHR847NQRU","either","7","436","","","","","","","0","0","1","0.1867455324","","0.4","0.8","0.6","0.2","","","","","0.1867455324","0.3588584756","0.6357737786","0.2888348812","","","","","","","","","","72","H","0","img/none_selected.jpg","","138","main_expt",""
"","bandit","219","591387","0.0-180.0-0.0","45525388","wem/bandit_party_2","AZVHR847NQRU","either","7","220","","","","","","","0","1","0","","0.4289761638","0.4","0.8","0.6","0.2","0.2277874407","0.4289761638","0.66639317","0.2463208975","","","","","","","","","","","","","","74","J","1","","","139","main_expt",""
"","bandit","220","593250","0.0-181.0-0.0","45525388","wem/bandit_party_2","AZVHR847NQRU","either","7","353","","","","","","","0","0","1","0.3801639999","","0.4","0.8","0.6","0.2","","","","","0.2577820179","0.3801639999","0.6365789307","0.273109751","","","","","","","","","","74","J","1","","","140","main_expt",""
"","bandit","221","594987","0.0-182.0-0.0","45525388","wem/bandit_party_2","AZVHR847NQRU","either","7","228","","","","","","","0","0","1","0.6045632144","","0.4","0.8","0.6","0.2","","","","","0.3674069736","0.2445936549","0.6045632144","0.3355442787","","","","","","","","","","75","K","2","","","141","main_expt",""
"","bandit","222","596740","0.0-183.0-0.0","45525388","wem/bandit_party_2","AZVHR847NQRU","either","7","242","","","","","","","1","0","0","0.2781999234","","0.4","0.8","0.6","0.2","","","","","0.4345417514","0.3394066497","0.5148607161","0.2781999234","","","","","","","","","","76","L","3","","","142","main_expt",""
"","bandit","223","598507","0.0-184.0-0.0","45525388","wem/bandit_party_2","AZVHR847NQRU","either","7","257","","","","","","","0","1","0","","0.2599467226","0.4","0.8","0.6","0.2","0.3811672827","0.2899754881","0.4754154836","0.2599467226","","","","","","","","","","","","","","76","L","3","","","143","main_expt",""
"","bandit","224","600315","0.0-185.0-0.0","45525388","wem/bandit_party_2","AZVHR847NQRU","either","7","297","","","","","","","0","0","1","0.2353144144","","0.4","0.8","0.6","0.2","","","","","0.2754059391","0.3701332444","0.516029258","0.2353144144","","","","","","","","","","76","L","3","","","144","main_expt",""
"","bandit","225","602100","0.0-186.0-0.0","45525388","wem/bandit_party_2","AZVHR847NQRU","either","7","274","","","","","","","0","0","1","0.2773400324","","0.4","0.8","0.6","0.2","","","","","0.2773400324","0.3322753171","0.6646605279","0.2120114759","","","","","","","","","","72","H","0","img/none_selected.jpg","","145","main_expt",""
"","bandit","226","603770","0.0-187.0-0.0","45525388","wem/bandit_party_2","AZVHR847NQRU","either","7","159","","","","","","","0","0","1","0.176067728","","0.4","0.8","0.6","0.2","","","","","0.2780426824","0.3203507811","0.6331546467","0.176067728","","","","","","","","","","76","L","3","","","146","main_expt",""
"","bandit","227","605661","0.0-188.0-0.0","45525388","wem/bandit_party_2","AZVHR847NQRU","either","7","379","","","","","","","1","0","0","0.304761248","","0.4","0.8","0.6","0.2","","","","","0.3373608721","0.304761248","0.6356747602","0.1329453439","","","","","","","","","","74","J","1","","","147","main_expt",""
"","bandit","228","607491","0.0-189.0-0.0","45525388","wem/bandit_party_2","AZVHR847NQRU","either","7","319","","","","","","","0","0","1","0.3809280674","","0.4","0.8","0.6","0.2","","","","","0.3529594122","0.3809280674","0.6301772709","0.1465103875","","","","","","","","","","74","J","1","","","148","main_expt",""
"","bandit","229","609292","0.0-190.0-0.0","45525388","wem/bandit_party_2","AZVHR847NQRU","either","7","288","","","","","","","0","0","1","0.6640591829","","0.4","0.8","0.6","0.2","","","","","0.3878328211","0.3997986218","0.6640591829","0.1190451538","","","","","","","","","","75","K","2","","","149","main_expt",""
"","bandit","230","611035","0.0-191.0-0.0","45525388","wem/bandit_party_2","AZVHR847NQRU","either","7","232","","","","","","","0","0","1","","0.1195570164","0.4","0.8","0.6","0.2","0.42943501","0.3159341416","0.6592717552","0.1195570164","","","","","","","","","","","","","","76","L","3","","","150","main_expt",""
"","bandit","231","612779","0.0-192.0-0.0","45525388","wem/bandit_party_2","AZVHR847NQRU","either","7","231","","","","","","","1","0","0","0.5142681232","","0.4","0.8","0.6","0.2","","","","","0.5142681232","0.3052853957","0.5928743102","0.100492686","","","","","","","","","","72","H","0","img/none_selected.jpg","","151","main_expt",""
"","bandit","232","614562","0.0-193.0-0.0","45525388","wem/bandit_party_2","AZVHR847NQRU","either","7","273","","","","","","","0","1","0","","0.6321073962","0.4","0.8","0.6","0.2","0.6321073962","0.1896018403","0.6822187145","0.1030367897","","","","","","","","","","","","","","72","H","0","img/none_selected.jpg","","152","main_expt",""
"","bandit","233","616331","0.0-194.0-0.0","45525388","wem/bandit_party_2","AZVHR847NQRU","either","7","256","","","","","","","0","0","1","0.6965670792","","0.4","0.8","0.6","0.2","","","","","0.6965670792","0.2439656658","0.6832005509","0.2059045691","","","","","","","","","","72","H","0","img/none_selected.jpg","","153","main_expt",""
"","bandit","234","617988","0.0-195.0-0.0","45525388","wem/bandit_party_2","AZVHR847NQRU","either","7","144","","","","","","","0","0","1","0.3068434149","","0.4","0.8","0.6","0.2","","","","","0.6516005735","0.3068434149","0.7109729062","0.2921647579","","","","","","","","","","74","J","1","","","154","main_expt",""
"","bandit","235","619780","0.0-196.0-0.0","45525388","wem/bandit_party_2","AZVHR847NQRU","either","7","279","","","","","","","0","1","0","","0.7291318088","0.4","0.8","0.6","0.2","0.7291318088","0.2314644909","0.6975465092","0.1789694193","","","","","","","","","","","","","","72","H","0","img/none_selected.jpg","","155","main_expt",""
"","bandit","236","621612","0.0-197.0-0.0","45525388","wem/bandit_party_2","AZVHR847NQRU","either","7","320","","","","","","","0","1","0","","0.6273572288","0.4","0.8","0.6","0.2","0.6273572288","0.2154001061","0.6580608271","0.2187195075","","","","","","","","","","","","","","72","H","0","img/none_selected.jpg","","156","main_expt",""
"","bandit","237","623660","0.0-198.0-0.0","45525388","wem/bandit_party_2","AZVHR847NQRU","either","7","535","","","","","","","0","0","1","","0.566197257","0.4","0.8","0.6","0.2","0.566197257","0.1648135251","0.5695802138","0.2669834713","","","","","","","","","","","","","","72","H","0","img/none_selected.jpg","","157","main_expt",""
"","bandit","238","625426","0.0-199.0-0.0","45525388","wem/bandit_party_2","AZVHR847NQRU","either","7","254","","","","","","","0","0","1","","0.4733954301","0.4","0.8","0.6","0.2","0.4523642269","0.2215973425","0.4733954301","0.4240307821","","","","","","","","","","","","","","75","K","2","","","158","main_expt",""
"","bandit","239","627210","0.0-200.0-0.0","45525388","wem/bandit_party_2","AZVHR847NQRU","either","7","272","","","","","","","0","0","1","0.3991212054","","0.4","0.8","0.6","0.2","","","","","0.3991212054","0.2243274726","0.5619817243","0.3840951437","","","","","","","","","","72","H","0","img/none_selected.jpg","","159","main_expt",""
"","bandit","240","628898","0.0-201.0-0.0","45525388","wem/bandit_party_2","AZVHR847NQRU","either","7","177","","","","","","","0","0","1","","0.4098147986","0.4","0.8","0.6","0.2","0.3566558104","0.2061161075","0.4701658979","0.4098147986","","","","","","","","","","","","","","76","L","3","","","160","main_expt",""
"","bandit","241","630675","0.0-202.0-0.0","45525388","wem/bandit_party_2","AZVHR847NQRU","either","7","265","","","","","","","0","1","0","","0.4430908041","0.4","0.8","0.6","0.2","0.4430908041","0.209200141","0.5673671472","0.4027252302","","","","","","","","","","","","","","72","H","0","img/none_selected.jpg","","161","main_expt",""
"","bandit","242","632523","0.0-203.0-0.0","45525388","wem/bandit_party_2","AZVHR847NQRU","either","7","336","","","","","","","0","1","0","","0.3966098285","0.4","0.8","0.6","0.2","0.3966098285","0.1477343718","0.4921809208","0.3824170733","","","","","","","","","","","","","","72","H","0","img/none_selected.jpg","","162","main_expt",""
"","bandit","243","634259","0.0-204.0-0.0","45525388","wem/bandit_party_2","AZVHR847NQRU","either","7","224","","","","","","","0","1","0","","0.3455868331","0.4","0.8","0.6","0.2","0.3455868331","0.1525050104","0.4204505308","0.3352280924","","","","","","","","","","","","","","72","H","0","img/none_selected.jpg","","163","main_expt",""
"","bandit","244","636099","0.0-205.0-0.0","45525388","wem/bandit_party_2","AZVHR847NQRU","either","7","327","","","","","","","0","0","1","","0.3368969945","0.4","0.8","0.6","0.2","0.3368969945","0.08831047354","0.534748173","0.3379187571","","","","","","","","","","","","","","72","H","0","img/none_selected.jpg","","164","main_expt",""
"","bandit","245","637715","0.0-206.0-0.0","45525388","wem/bandit_party_2","AZVHR847NQRU","either","7","104","","","","","","","0","0","1","","0.4724966102","0.4","0.8","0.6","0.2","0.3767562303","0.1035482763","0.4724966102","0.3160546663","","","","","","","","","","","","","","75","K","2","","","165","main_expt",""
"","bandit","246","639458","0.0-207.0-0.0","45525388","wem/bandit_party_2","AZVHR847NQRU","either","7","229","","","","","","","0","0","1","0.06888190676","","0.4","0.8","0.6","0.2","","","","","0.4727650462","0.06888190676","0.5280505203","0.3058359067","","","","","","","","","","74","J","1","","","166","main_expt",""
"","bandit","247","641210","0.0-208.0-0.0","45525388","wem/bandit_party_2","AZVHR847NQRU","either","7","241","","","","","","","1","0","0","0.6140635231","","0.4","0.8","0.6","0.2","","","","","0.6140635231","0.06051452263","0.589670135","0.2561334246","","","","","","","","","","72","H","0","img/none_selected.jpg","","167","main_expt",""
"","bandit","248","643002","0.0-209.0-0.0","45525388","wem/bandit_party_2","AZVHR847NQRU","either","7","281","","","","","","","0","0","1","0.5629225295","","0.4","0.8","0.6","0.2","","","","","0.5629225295","0.07905307949","0.5058201204","0.2459084815","","","","","","","","","","72","H","0","img/none_selected.jpg","","168","main_expt",""
"","bandit","249","644763","0.0-210.0-0.0","45525388","wem/bandit_party_2","AZVHR847NQRU","either","7","249","","","","","","","0","0","1","","0.2138460752","0.4","0.8","0.6","0.2","0.6456076899","0.07051596905","0.4102709571","0.2138460752","","","","","","","","","","","","","","76","L","3","","","169","main_expt",""
"","bandit","250","646715","0.0-211.0-0.0","45525388","wem/bandit_party_2","AZVHR847NQRU","either","7","440","","","","","","","0","1","0","","0.719827795","0.4","0.8","0.6","0.2","0.719827795","0.1056762318","0.5061826445","0.1642406351","","","","","","","","","","","","","","72","H","0","img/none_selected.jpg","","170","main_expt",""
"","bandit","251","648499","0.0-212.0-0.0","45525388","wem/bandit_party_2","AZVHR847NQRU","either","7","273","","","","","","","0","0","1","","0.6716280274","0.4","0.8","0.6","0.2","0.6716280274","0.1513980822","0.6092158501","0.2337150112","","","","","","","","","","","","","","72","H","0","img/none_selected.jpg","","171","main_expt",""
"","bandit","252","650235","0.0-213.0-0.0","45525388","wem/bandit_party_2","AZVHR847NQRU","either","7","226","","","","","","","1","0","0","0.691496366","","0.4","0.8","0.6","0.2","","","","","0.5683226388","0.1552293495","0.691496366","0.3128682212","","","","","","","","","","75","K","2","","","172","main_expt",""
"","bandit","253","651987","0.0-214.0-0.0","45525388","wem/bandit_party_2","AZVHR847NQRU","either","7","244","","","","","","","1","0","0","0.7402253768","","0.4","0.8","0.6","0.2","","","","","0.4581357746","0.1325975083","0.7402253768","0.2775517843","","","","","","","","","","75","K","2","","","173","main_expt",""
"","bandit","254","653764","0.0-215.0-0.0","45525388","wem/bandit_party_2","AZVHR847NQRU","either","7","264","","","","","","","0","0","1","","0.6601004511","0.4","0.8","0.6","0.2","0.5903479164","0.09024892351","0.6601004511","0.4159305855","","","","","","","","","","","","","","75","K","2","","","174","main_expt",""
"","bandit","255","655563","0.0-216.0-0.0","45525388","wem/bandit_party_2","AZVHR847NQRU","either","7","287","","","","","","","1","0","0","0.6781732273","","0.4","0.8","0.6","0.2","","","","","0.5658285383","0.06963745108","0.6781732273","0.4471770837","","","","","","","","","","75","K","2","","","175","main_expt",""
"","bandit","256","657611","0.0-217.0-0.0","45525388","wem/bandit_party_2","AZVHR847NQRU","either","7","534","","","","","","","0","1","0","","0.6932650799","0.4","0.8","0.6","0.2","0.5313506173","0.07897043431","0.6932650799","0.5162211083","","","","","","","","","","","","","","75","K","2","","","176","main_expt",""
"","bandit","257","659427","0.0-218.0-0.0","45525388","wem/bandit_party_2","AZVHR847NQRU","either","7","303","","","","","","","1","0","0","0.6803850572","","0.4","0.8","0.6","0.2","","","","","0.4231289234","0.09469685393","0.6803850572","0.6372676231","","","","","","","","","","75","K","2","","","177","main_expt",""
"","bandit","258","661275","0.0-219.0-0.0","45525388","wem/bandit_party_2","AZVHR847NQRU","either","7","336","","","","","","","0","1","0","","0.5407017663","0.4","0.8","0.6","0.2","0.580807006","0.1486386852","0.5407017663","0.6295749113","","","","","","","","","","","","","","75","K","2","","","178","main_expt",""
"","bandit","259","663100","0.0-220.0-0.0","45525388","wem/bandit_party_2","AZVHR847NQRU","either","7","311","","","","","","","1","0","0","0.5931576708","","0.4","0.8","0.6","0.2","","","","","0.5499948007","0.1965095934","0.5931576708","0.4126066341","","","","","","","","","","75","K","2","","","179","main_expt",""
"","bandit","260","664827","0.0-221.0-0.0","45525388","wem/bandit_party_2","AZVHR847NQRU","either","7","211","","","","","","","0","0","1","","0.5390819372","0.4","0.8","0.6","0.2","0.4918200669","0.1749048096","0.5390819372","0.516991344","","","","","","","","","","","","","","75","K","2","","","180","main_expt",""
"","bandit","261","666587","0.0-222.0-0.0","45525388","wem/bandit_party_2","AZVHR847NQRU","either","7","248","","","","","","","0","0","1","0.4929910299","","0.4","0.8","0.6","0.2","","","","","0.5428702931","0.232896561","0.4929910299","0.4239603033","","","","","","","","","","75","K","2","","","181","main_expt",""
"","bandit","262","668418","0.0-223.0-0.0","45525388","wem/bandit_party_2","AZVHR847NQRU","either","7","318","","","","","","","0","0","1","","0.2561822725","0.4","0.8","0.6","0.2","0.5870547156","0.2561822725","0.458433212","0.3961891141","","","","","","","","","","","","","","74","J","1","","","182","main_expt",""
"","bandit","263","670187","0.0-224.0-0.0","45525388","wem/bandit_party_2","AZVHR847NQRU","either","7","256","","","","","","","0","0","1","","0.5031908535","0.4","0.8","0.6","0.2","0.5031908535","0.2713883962","0.5725449786","0.4364601233","","","","","","","","","","","","","","72","H","0","img/none_selected.jpg","","183","main_expt",""
"","bandit","264","671962","0.0-225.0-0.0","45525388","wem/bandit_party_2","AZVHR847NQRU","either","7","263","","","","","","","0","1","0","","0.4878383732","0.4","0.8","0.6","0.2","0.4239978994","0.3543557679","0.4878383732","0.4826964198","","","","","","","","","","","","","","75","K","2","","","184","main_expt",""
"","bandit","265","673772","0.0-226.0-0.0","45525388","wem/bandit_party_2","AZVHR847NQRU","either","7","298","","","","","","","1","0","0","0.5189350158","","0.4","0.8","0.6","0.2","","","","","0.3425545299","0.2974533566","0.5189350158","0.4448789548","","","","","","","","","","75","K","2","","","185","main_expt",""
"","bandit","266","675571","0.0-227.0-0.0","45525388","wem/bandit_party_2","AZVHR847NQRU","either","7","286","","","","","","","0","0","1","0.4310300585","","0.4","0.8","0.6","0.2","","","","","0.2594221554","0.3295130888","0.4310300585","0.4585835861","","","","","","","","","","75","K","2","","","186","main_expt",""
"","bandit","267","677338","0.0-228.0-0.0","45525388","wem/bandit_party_2","AZVHR847NQRU","either","7","254","","","","","","","0","0","1","","0.4005994516","0.4","0.8","0.6","0.2","0.350747246","0.3440574025","0.4005994516","0.5470412386","","","","","","","","","","","","","","75","K","2","","","187","main_expt",""
"","bandit","268","679042","0.0-229.0-0.0","45525388","wem/bandit_party_2","AZVHR847NQRU","either","7","191","","","","","","","0","1","0","","0.5485419855","0.4","0.8","0.6","0.2","0.3667816541","0.3176863717","0.5684333967","0.5485419855","","","","","","","","","","","","","","76","L","3","","","188","main_expt",""
"","bandit","269","680785","0.0-230.0-0.0","45525388","wem/bandit_party_2","AZVHR847NQRU","either","7","231","","","","","","","0","0","1","","0.6161015427","0.4","0.8","0.6","0.2","0.3129240978","0.3194332301","0.5768443477","0.6161015427","","","","","","","","","","","","","","76","L","3","","","189","main_expt",""
"","bandit","270","682547","0.0-231.0-0.0","45525388","wem/bandit_party_2","AZVHR847NQRU","either","7","249","","","","","","","1","0","0","0.6091254975","","0.4","0.8","0.6","0.2","","","","","0.3681084497","0.3585260795","0.6091254975","0.5145576236","","","","","","","","","","75","K","2","","","190","main_expt",""
"","bandit","271","684323","0.0-232.0-0.0","45525388","wem/bandit_party_2","AZVHR847NQRU","either","7","266","","","","","","","1","0","0","0.6355225437","","0.4","0.8","0.6","0.2","","","","","0.3284994938","0.4438822556","0.6355225437","0.4447609651","","","","","","","","","","75","K","2","","","191","main_expt",""
"","bandit","272","685992","0.0-233.0-0.0","45525388","wem/bandit_party_2","AZVHR847NQRU","either","7","158","","","","","","","1","0","0","0.7449996868","","0.4","0.8","0.6","0.2","","","","","0.2913335268","0.6336907385","0.7449996868","0.4273979598","","","","","","","","","","75","K","2","","","192","main_expt",""
"","bandit","273","687739","0.0-234.0-0.0","45525388","wem/bandit_party_2","AZVHR847NQRU","either","7","236","","","","","","","0","1","0","","0.7645281636","0.4","0.8","0.6","0.2","0.3614904019","0.5871300795","0.7645281636","0.4382354048","","","","","","","","","","","","","","75","K","2","","","193","main_expt",""
"","bandit","274","689512","0.0-235.0-0.0","45525388","wem/bandit_party_2","AZVHR847NQRU","either","7","262","","","","","","","1","0","0","0.7417458559","","0.4","0.8","0.6","0.2","","","","","0.4180963095","0.5919999684","0.7417458559","0.4367950698","","","","","","","","","","75","K","2","","","194","main_expt",""
"","bandit","275","691098","0.0-236.0-0.0","45525388","wem/bandit_party_2","AZVHR847NQRU","either","7","73","","","","","","","0","0","1","","0.7102393491","0.4","0.8","0.6","0.2","0.4129416526","0.5599221581","0.7102393491","0.4306922929","","","","","","","","","","","","","","75","K","2","","","195","main_expt",""
"","bandit","276","692714","0.0-237.0-0.0","45525388","wem/bandit_party_2","AZVHR847NQRU","either","7","102","","","","","","","0","0","1","0.4552797342","","0.4","0.8","0.6","0.2","","","","","0.6027995291","0.4552797342","0.6846894693","0.4436260943","","","","","","","","","","74","J","1","","","196","main_expt",""
"","bandit","277","694473","0.0-238.0-0.0","45525388","wem/bandit_party_2","AZVHR847NQRU","either","7","248","","","","","","","0","0","1","","0.4547077395","0.4","0.8","0.6","0.2","0.6174547511","0.3045440077","0.6573901597","0.4547077395","","","","","","","","","","","","","","76","L","3","","","197","main_expt",""
"","bandit","278","696242","0.0-239.0-0.0","45525388","wem/bandit_party_2","AZVHR847NQRU","either","7","255","","","","","","","1","0","0","0.7020762336","","0.4","0.8","0.6","0.2","","","","","0.5727893511","0.4061180554","0.7020762336","0.545148617","","","","","","","","","","75","K","2","","","198","main_expt",""
"","bandit","279","698010","0.0-240.0-0.0","45525388","wem/bandit_party_2","AZVHR847NQRU","either","7","254","","","","","","","1","0","0","0.7749867965","","0.4","0.8","0.6","0.2","","","","","0.5803616598","0.3406873398","0.7749867965","0.5838562778","","","","","","","","","","75","K","2","","","199","main_expt",""
"","bandit","280","699720","0.0-241.0-0.0","45525388","wem/bandit_party_2","AZVHR847NQRU","either","7","196","","","","","","","0","1","0","","0.7971262248","0.4","0.8","0.6","0.2","0.5109940584","0.2810551981","0.7971262248","0.6569131065","","","","","","","","","","","","","","75","K","2","","","200","main_expt",""
"","bandit","281","701442","0.0-242.0-0.0","45525388","wem/bandit_party_2","AZVHR847NQRU","either","7","211","","","","","","","0","0","1","","0.6431063495","0.4","0.8","0.6","0.2","0.444158281","0.2295892347","0.6431063495","0.6559739125","","","","","","","","","","","","","","75","K","2","","","201","main_expt",""
"","bandit","282","703225","0.0-243.0-0.0","45525388","wem/bandit_party_2","AZVHR847NQRU","either","7","270","","","","","","","1","0","0","0.6153479028","","0.4","0.8","0.6","0.2","","","","","0.3774362348","0.2134833186","0.6153479028","0.5940698896","","","","","","","","","","75","K","2","","","202","main_expt",""
"","bandit","283","704978","0.0-244.0-0.0","45525388","wem/bandit_party_2","AZVHR847NQRU","either","7","238","","","","","","","1","0","0","0.6107921693","","0.4","0.8","0.6","0.2","","","","","0.2852638898","0.1538434825","0.6107921693","0.6288005559","","","","","","","","","","75","K","2","","","203","main_expt",""
"","bandit","284","706866","0.0-245.0-0.0","45525388","wem/bandit_party_2","AZVHR847NQRU","either","7","374","","","","","","","1","0","0","0.6364312764","","0.4","0.8","0.6","0.2","","","","","0.3900316507","0.08629221539","0.6364312764","0.7483345684","","","","","","","","","","75","K","2","","","204","main_expt",""
"","bandit","285","708673","0.0-246.0-0.0","45525388","wem/bandit_party_2","AZVHR847NQRU","either","7","295","","","","","","","0","1","0","","0.7098325313","0.4","0.8","0.6","0.2","0.3334674042","0.1303029892","0.7098325313","0.7823609999","","","","","","","","","","","","","","75","K","2","","","205","main_expt",""
"","bandit","286","711128","0.0-247.0-0.0","45525388","wem/bandit_party_2","AZVHR847NQRU","either","7","942","","","","","","","0","1","0","","0.6423198407","0.4","0.8","0.6","0.2","0.3997779834","0.1290793888","0.6423198407","0.7053347691","","","","","","","","","","","","","","75","K","2","","","206","main_expt",""
"","bandit","287","713064","0.0-248.0-0.0","45525388","wem/bandit_party_2","AZVHR847NQRU","either","7","428","","","","","","","0","1","0","","0.7196337679","0.4","0.8","0.6","0.2","0.2791746034","0.1471003053","0.7196337679","0.692958529","","","","","","","","","","","","","","75","K","2","","","207","main_expt",""
"","bandit","288","714849","0.0-249.0-0.0","45525388","wem/bandit_party_2","AZVHR847NQRU","either","7","271","","","","","","","0","0","1","0.7273253538","","0.4","0.8","0.6","0.2","","","","","0.3447420344","0.1204476287","0.7273253538","0.5726600787","","","","","","","","","","75","K","2","","","208","main_expt",""
"","bandit","289","716713","0.0-250.0-0.0","45525388","wem/bandit_party_2","AZVHR847NQRU","either","7","350","","","","","","","0","0","1","","0.2106944101","0.4","0.8","0.6","0.2","0.2106944101","0.1752658923","0.7701678217","0.7193759884","","","","","","","","","","","","","","72","H","0","img/none_selected.jpg","","209","main_expt",""
"","bandit","290","718361","0.0-251.0-0.0","45525388","wem/bandit_party_2","AZVHR847NQRU","either","7","135","","","","","","","0","0","1","0.7673062315","","0.4","0.8","0.6","0.2","","","","","0.2609791638","0.2071456167","0.7673062315","0.5469619257","","","","","","","","","","75","K","2","","","210","main_expt",""
"","bandit","291","720098","0.0-252.0-0.0","45525388","wem/bandit_party_2","AZVHR847NQRU","either","7","222","","","","","","","1","0","0","0.1982577311","","0.4","0.8","0.6","0.2","","","","","0.3702243554","0.1982577311","0.7733207599","0.5432746348","","","","","","","","","","74","J","1","","","211","main_expt",""
"","bandit","292","721860","0.0-253.0-0.0","45525388","wem/bandit_party_2","AZVHR847NQRU","either","7","249","","","","","","","1","0","0","0.2837026457","","0.4","0.8","0.6","0.2","","","","","0.4070014152","0.2837026457","0.7176010575","0.4857525371","","","","","","","","","","74","J","1","","","212","main_expt",""
"","bandit","293","723618","0.0-254.0-0.0","45525388","wem/bandit_party_2","AZVHR847NQRU","either","7","244","","","","","","","0","0","1","0.2192955177","","0.4","0.8","0.6","0.2","","","","","0.5001351259","0.2192955177","0.7241732444","0.4416723402","","","","","","","","","","74","J","1","","","213","main_expt",""
"","bandit","294","725328","0.0-255.0-0.0","45525388","wem/bandit_party_2","AZVHR847NQRU","either","7","198","","","","","","","0","1","0","","0.4231083207","0.4","0.8","0.6","0.2","0.5667049056","0.2885853396","0.6696022014","0.4231083207","","","","","","","","","","","","","","76","L","3","","","214","main_expt",""
"","bandit","295","727129","0.0-256.0-0.0","45525388","wem/bandit_party_2","AZVHR847NQRU","either","7","287","","","","","","","0","0","1","","0.329019478","0.4","0.8","0.6","0.2","0.5259574602","0.2451296471","0.6255990046","0.329019478","","","","","","","","","","","","","","76","L","3","","","215","main_expt",""
"","bandit","296","728906","0.0-257.0-0.0","45525388","wem/bandit_party_2","AZVHR847NQRU","either","7","263","","","","","","","0","1","0","","0.6771362935","0.4","0.8","0.6","0.2","0.5468860011","0.1946790852","0.6771362935","0.3469743373","","","","","","","","","","","","","","75","K","2","","","216","main_expt",""
"","bandit","297","730745","0.0-258.0-0.0","45525388","wem/bandit_party_2","AZVHR847NQRU","either","7","325","","","","","","","0","0","1","","0.6918953154","0.4","0.8","0.6","0.2","0.6182745027","0.2497229096","0.6918953154","0.3618740044","","","","","","","","","","","","","","75","K","2","","","217","main_expt",""
"","bandit","298","732464","0.0-259.0-0.0","45525388","wem/bandit_party_2","AZVHR847NQRU","either","7","205","","","","","","","0","0","1","0.3076421025","","0.4","0.8","0.6","0.2","","","","","0.5979125128","0.3076421025","0.5726390237","0.3574217595","","","","","","","","","","74","J","1","","","218","main_expt",""
"","bandit","299","734240","0.0-260.0-0.0","45525388","wem/bandit_party_2","AZVHR847NQRU","either","7","264","","","","","","","0","1","0","","0.5179196303","0.4","0.8","0.6","0.2","0.5321687475","0.3488941347","0.5179196303","0.3862686792","","","","","","","","","","","","","","75","K","2","","","219","main_expt",""
"","bandit","300","736081","0.0-261.0-0.0","45525388","wem/bandit_party_2","AZVHR847NQRU","either","7","331","","","","","","","1","0","0","0.5578222379","","0.4","0.8","0.6","0.2","","","","","0.6053830099","0.306784001","0.5578222379","0.4432846828","","","","","","","","","","75","K","2","","","220","main_expt",""
"","bandit","301","737880","0.0-262.0-0.0","45525388","wem/bandit_party_2","AZVHR847NQRU","either","7","285","","","","","","","1","0","0","0.6640911266","","0.4","0.8","0.6","0.2","","","","","0.69383498","0.3786925452","0.6640911266","0.432499938","","","","","","","","","","75","K","2","","","221","main_expt",""
"","bandit","302","740009","0.0-263.0-0.0","45525388","wem/bandit_party_2","AZVHR847NQRU","either","7","615","","","","","","","0","1","0","","0.7340686256","0.4","0.8","0.6","0.2","0.783375317","0.5014801557","0.7340686256","0.4050903391","","","","","","","","","","","","","","75","K","2","","","222","main_expt",""
"","bandit","303","742163","0.0-264.0-0.0","45525388","wem/bandit_party_2","AZVHR847NQRU","either","7","639","","","","","","","0","1","0","","0.852862777","0.4","0.8","0.6","0.2","0.8374489269","0.4081704387","0.852862777","0.3282593462","","","","","","","","","","","","","","75","K","2","","","223","main_expt",""
"","bandit","304","744513","0.0-265.0-0.0","45525388","wem/bandit_party_2","AZVHR847NQRU","either","7","840","","","","","","","1","0","0","0.7830506485","","0.4","0.8","0.6","0.2","","","","","0.7801262993","0.422296693","0.7830506485","0.2465370002","","","","","","","","","","75","K","2","","","224","main_expt",""
"","bandit","305","746611","0.0-266.0-0.0","45525388","wem/bandit_party_2","AZVHR847NQRU","either","7","584","","","","","","","1","0","0","0.7447555501","","0.4","0.8","0.6","0.2","","","","","0.7438235551","0.3998144739","0.7447555501","0.2260872052","","","","","","","","","","75","K","2","","","225","main_expt",""
"","bandit","306","748546","0.0-267.0-0.0","45525388","wem/bandit_party_2","AZVHR847NQRU","either","7","425","","","","","","","0","0","1","0.7331719472","","0.4","0.8","0.6","0.2","","","","","0.7561714458","0.2692780115","0.7331719472","0.2573895518","","","","","","","","","","75","K","2","","","226","main_expt",""
"","bandit","307","750121","0.0-268.0-0.0","45525388","wem/bandit_party_2","AZVHR847NQRU","either","7","62","","","","","","","0","1","0","","0.7527106072","0.4","0.8","0.6","0.2","0.7527106072","0.268728261","0.6417259928","0.2134597582","","","","","","","","","","","","","","72","H","0","img/none_selected.jpg","","227","main_expt",""
"","bandit","308","751922","0.0-269.0-0.0","45525388","wem/bandit_party_2","AZVHR847NQRU","either","7","287","","","","","","","0","0","1","","0.6315627418","0.4","0.8","0.6","0.2","0.6315627418","0.2211951924","0.6050549784","0.348479141","","","","","","","","","","","","","","72","H","0","img/none_selected.jpg","","228","main_expt",""
"","bandit","309","753554","0.0-270.0-0.0","45525388","wem/bandit_party_2","AZVHR847NQRU","either","7","119","","","","","","","0","1","0","","0.3250735223","0.4","0.8","0.6","0.2","0.5564086662","0.219241791","0.5962230341","0.3250735223","","","","","","","","","","","","","","76","L","3","","","229","main_expt",""
"","bandit","310","755346","0.0-271.0-0.0","45525388","wem/bandit_party_2","AZVHR847NQRU","either","7","277","","","","","","","0","1","0","","0.3395219718","0.4","0.8","0.6","0.2","0.5895813861","0.291585141","0.5594933722","0.3395219718","","","","","","","","","","","","","","76","L","3","","","230","main_expt",""
"","bandit","311","757122","0.0-272.0-0.0","45525388","wem/bandit_party_2","AZVHR847NQRU","either","7","262","","","","","","","0","0","1","","0.3315483329","0.4","0.8","0.6","0.2","0.6148213975","0.2754541949","0.6411036761","0.3315483329","","","","","","","","","","","","","","76","L","3","","","231","main_expt",""
"","bandit","312","758897","0.0-273.0-0.0","45525388","wem/bandit_party_2","AZVHR847NQRU","either","7","262","","","","","","","0","0","1","0.3055336503","","0.4","0.8","0.6","0.2","","","","","0.5176988489","0.3055336503","0.6653930637","0.3876030756","","","","","","","","","","74","J","1","","","232","main_expt",""
"","bandit","313","760841","0.0-274.0-0.0","45525388","wem/bandit_party_2","AZVHR847NQRU","either","7","431","","","","","","","0","0","1","0.5426719569","","0.4","0.8","0.6","0.2","","","","","0.4505666118","0.3390100853","0.5426719569","0.3696248546","","","","","","","","","","75","K","2","","","233","main_expt",""
"","bandit","314","762602","0.0-275.0-0.0","45525388","wem/bandit_party_2","AZVHR847NQRU","either","7","247","","","","","","","0","0","1","","0.5581360181","0.4","0.8","0.6","0.2","0.4393496879","0.3165323161","0.5581360181","0.3927474605","","","","","","","","","","","","","","75","K","2","","","234","main_expt",""
"","bandit","315","764377","0.0-276.0-0.0","45525388","wem/bandit_party_2","AZVHR847NQRU","either","7","262","","","","","","","0","0","1","","0.3542725407","0.4","0.8","0.6","0.2","0.3542725407","0.2944333127","0.5299247183","0.4734072524","","","","","","","","","","","","","","72","H","0","img/none_selected.jpg","","235","main_expt",""
"","bandit","316","766161","0.0-277.0-0.0","45525388","wem/bandit_party_2","AZVHR847NQRU","either","7","270","","","","","","","0","1","0","","0.5857320117","0.4","0.8","0.6","0.2","0.452511288","0.4127469632","0.4709954077","0.5857320117","","","","","","","","","","","","","","76","L","3","","","236","main_expt",""
"","bandit","317","767913","0.0-278.0-0.0","45525388","wem/bandit_party_2","AZVHR847NQRU","either","7","238","","","","","","","0","1","0","","0.5208556897","0.4","0.8","0.6","0.2","0.4743784035","0.4353664578","0.4171051322","0.5208556897","","","","","","","","","","","","","","76","L","3","","","237","main_expt",""
"","bandit","318","769699","0.0-279.0-0.0","45525388","wem/bandit_party_2","AZVHR847NQRU","either","7","270","","","","","","","0","0","1","","0.4551370454","0.4","0.8","0.6","0.2","0.4666998134","0.3871798792","0.40722148","0.4551370454","","","","","","","","","","","","","","76","L","3","","","238","main_expt",""
"","bandit","319","771427","0.0-280.0-0.0","45525388","wem/bandit_party_2","AZVHR847NQRU","either","7","213","","","","","","","0","0","1","0.3113271407","","0.4","0.8","0.6","0.2","","","","","0.4916456171","0.3244704863","0.3113271407","0.2979137516","","","","","","","","","","75","K","2","","","239","main_expt",""
"","bandit","320","773211","0.0-281.0-0.0","45525388","wem/bandit_party_2","AZVHR847NQRU","either","7","269","","","","","","","0","1","0","","0.2453134511","0.4","0.8","0.6","0.2","0.7128417261","0.3606581002","0.2505753432","0.2453134511","","","","","","","","","","","","","","76","L","3","","","240","main_expt",""
"","bandit","321","775009","0.0-282.0-0.0","45525388","wem/bandit_party_2","AZVHR847NQRU","either","7","284","","","","","","","0","0","1","","0.1984184333","0.4","0.8","0.6","0.2","0.7711562233","0.3524522155","0.2015136922","0.1984184333","","","","","","","","","","","","","","76","L","3","","","241","main_expt",""
