"consent","trial_type","trial_index","time_elapsed","internal_node_id","subjID","study","MID","cond","drift","rt","responses","button_pressed","key_press","like","value","connected","gems","bombs","no_reward","GemPrChosen","BombPrChosen","GainOverPainPr_0","GainOverPainPr_1","GainOverPainPr_2","GainOverPainPr_3","LosePr_0","LosePr_1","LosePr_2","LosePr_3","WinPr_0","WinPr_1","WinPr_2","WinPr_3","Q0","Q1","Q2","gender","age","ethnicity","label","expt_phase","target","respCharCode","respKey","respChoiceNum","respChoice","practice","trial_counter","trial_label","Q0_index"
"GDM/GDM_behavioral_consent_30min_online.html","consent","0","34086","0.0-0.0","47720986","wem/bandit_party_2","A8KZ2Z0OXZM3W","either","5","","","","","","","","","","","","","","","","","","","","","","","","","","","","","","","","","","","","","","","","",""
"","survey-text","1","189455","0.0-1.0","47720986","wem/bandit_party_2","A8KZ2Z0OXZM3W","either","5","154352","{""Q0"":""A8KZ2Z0OXZM3W""}","","","","","","","","","","","","","","","","","","","","","","","","","","","","","","","","","","","","","","",""
"","button-response","2","194013","0.0-2.0","47720986","wem/bandit_party_2","A8KZ2Z0OXZM3W","either","5","3541","","1","","","","","","","","","","","","","","","","","","","","","","","","","","","","","","","","","","","","","",""
"","text-replacement","3","210567","0.0-3.0","47720986","wem/bandit_party_2","A8KZ2Z0OXZM3W","either","5","15543","","","32","","","","","","","","","","","","","","","","","","","","","","","","","","","","","","","","","","","","",""
"","text-replacement","4","217932","0.0-4.0","47720986","wem/bandit_party_2","A8KZ2Z0OXZM3W","either","5","7362","","","32","","","","","","","","","","","","","","","","","","","","","","","","","","","","","","","","","","","","",""
"","identification","5","233993","0.0-6.0-0.0","47720986","wem/bandit_party_2","A8KZ2Z0OXZM3W","either","5","16030","","","","1","1","1","","","","","","","","","","","","","","","","","","","","","","","","pre","identification_pre","the Republican Party","","","","","","","",""
"","identification","6","247485","0.0-6.0-1.0","47720986","wem/bandit_party_2","A8KZ2Z0OXZM3W","either","5","12457","","","","3","4","3","","","","","","","","","","","","","","","","","","","","","","","","pre","identification_pre","the Democratic Party","","","","","","","",""
"","text-replacement","7","261758","0.0-7.0","47720986","wem/bandit_party_2","A8KZ2Z0OXZM3W","either","5","13257","","","32","","","","","","","","","","","","","","","","","","","","","","","","","","","","","","","","","","","","",""
"","text-replacement","8","268092","0.0-8.0","47720986","wem/bandit_party_2","A8KZ2Z0OXZM3W","either","5","6332","","","32","","","","","","","","","","","","","","","","","","","","","","","","","","","","","","","","","","","","",""
"","text-replacement","9","275093","0.0-9.0","47720986","wem/bandit_party_2","A8KZ2Z0OXZM3W","either","5","6998","","","32","","","","","","","","","","","","","","","","","","","","","","","","","","","","","","","","","","","","",""
"","text-replacement","10","280013","0.0-10.0","47720986","wem/bandit_party_2","A8KZ2Z0OXZM3W","either","5","4918","","","32","","","","","","","","","","","","","","","","","","","","","","","","","","","","","","","","","","","","",""
"","text-replacement","11","284423","0.0-11.0","47720986","wem/bandit_party_2","A8KZ2Z0OXZM3W","either","5","4408","","","32","","","","","","","","","","","","","","","","","","","","","","","","","","","","","","","","","","","","",""
"","bandit","12","289242","0.0-12.0-0.0","47720986","wem/bandit_party_2","A8KZ2Z0OXZM3W","either","5","3297","","","","","","","0","0","1","0","0","","","","","0","","","","0","","","","","","","","","","","","","74","J","0","img/none_selected_demo.jpg","true","0","",""
"","bandit","13","292732","0.0-13.0-0.0","47720986","wem/bandit_party_2","A8KZ2Z0OXZM3W","either","5","1966","","","","","","","0","0","1","0","0","","","","","0","","","","0","","","","","","","","","","","","","75","K","0","img/none_selected_demo.jpg","true","0","",""
"","text-replacement","14","301446","0.0-14.0","47720986","wem/bandit_party_2","A8KZ2Z0OXZM3W","either","5","8711","","","32","","","","","","","","","","","","","","","","","","","","","","","","","","","","","","","","","","","","",""
"","text-replacement","15","312982","0.0-15.0","47720986","wem/bandit_party_2","A8KZ2Z0OXZM3W","either","5","11534","","","32","","","","","","","","","","","","","","","","","","","","","","","","","","","","","","","","","","","","",""
"","text-replacement","16","324045","0.0-16.0","47720986","wem/bandit_party_2","A8KZ2Z0OXZM3W","either","5","11061","","","32","","","","","","","","","","","","","","","","","","","","","","","","","","","","","","","","","","","","",""
"","text-replacement","17","332926","0.0-17.0","47720986","wem/bandit_party_2","A8KZ2Z0OXZM3W","either","5","8879","","","32","","","","","","","","","","","","","","","","","","","","","","","","","","","","","","","","","","","","",""
"","bandit","18","335881","0.0-18.0-0.0","47720986","wem/bandit_party_2","A8KZ2Z0OXZM3W","either","5","1437","","","","","","","0","0","1","0.8","","0.5","0.5","","","","","","","0.8","0.2","","","","","","","","","","","","74","J","0","img/none_selected_demo.jpg","true","0","80_20_practice",""
"","bandit","19","338718","0.0-18.0-1.0","47720986","wem/bandit_party_2","A8KZ2Z0OXZM3W","either","5","1329","","","","","","","0","0","1","","0.2","0.5","0.5","","","0.8","0.2","","","","","","","","","","","","","","","","75","K","1","","true","0","80_20_practice",""
"","bandit","20","340973","0.0-18.0-2.0","47720986","wem/bandit_party_2","A8KZ2Z0OXZM3W","either","5","723","","","","","","","0","0","1","0.2","","0.5","0.5","","","","","","","0.8","0.2","","","","","","","","","","","","75","K","1","","true","0","80_20_practice",""
"","bandit","21","343408","0.0-18.0-3.0","47720986","wem/bandit_party_2","A8KZ2Z0OXZM3W","either","5","916","","","","","","","0","0","1","","0.2","0.5","0.5","","","0.8","0.2","","","","","","","","","","","","","","","","75","K","1","","true","0","80_20_practice",""
"","bandit","22","345518","0.0-18.0-4.0","47720986","wem/bandit_party_2","A8KZ2Z0OXZM3W","either","5","578","","","","","","","0","1","0","","0.8","0.5","0.5","","","0.8","0.2","","","","","","","","","","","","","","","","74","J","0","img/none_selected_demo.jpg","true","0","80_20_practice",""
"","bandit","23","347756","0.0-18.0-5.0","47720986","wem/bandit_party_2","A8KZ2Z0OXZM3W","either","5","717","","","","","","","1","0","0","0.8","","0.5","0.5","","","","","","","0.8","0.2","","","","","","","","","","","","74","J","0","img/none_selected_demo.jpg","true","0","80_20_practice",""
"","bandit","24","349874","0.0-18.0-6.0","47720986","wem/bandit_party_2","A8KZ2Z0OXZM3W","either","5","597","","","","","","","0","1","0","","0.8","0.5","0.5","","","0.8","0.2","","","","","","","","","","","","","","","","74","J","0","img/none_selected_demo.jpg","true","0","80_20_practice",""
"","bandit","25","352362","0.0-18.0-7.0","47720986","wem/bandit_party_2","A8KZ2Z0OXZM3W","either","5","966","","","","","","","1","0","0","0.8","","0.5","0.5","","","","","","","0.8","0.2","","","","","","","","","","","","74","J","0","img/none_selected_demo.jpg","true","0","80_20_practice",""
"","bandit","26","354912","0.0-18.0-8.0","47720986","wem/bandit_party_2","A8KZ2Z0OXZM3W","either","5","1032","","","","","","","0","1","0","","0.8","0.5","0.5","","","0.8","0.2","","","","","","","","","","","","","","","","74","J","0","img/none_selected_demo.jpg","true","0","80_20_practice",""
"","bandit","27","357051","0.0-18.0-9.0","47720986","wem/bandit_party_2","A8KZ2Z0OXZM3W","either","5","615","","","","","","","0","1","0","","0.8","0.5","0.5","","","0.8","0.2","","","","","","","","","","","","","","","","74","J","0","img/none_selected_demo.jpg","true","0","80_20_practice",""
"","bandit","28","359318","0.0-18.0-10.0","47720986","wem/bandit_party_2","A8KZ2Z0OXZM3W","either","5","734","","","","","","","0","0","1","0.8","","0.5","0.5","","","","","","","0.8","0.2","","","","","","","","","","","","74","J","0","img/none_selected_demo.jpg","true","0","80_20_practice",""
"","bandit","29","367409","0.0-18.0-11.0","47720986","wem/bandit_party_2","A8KZ2Z0OXZM3W","either","5","6570","","","","","","","1","0","0","0.8","","0.5","0.5","","","","","","","0.8","0.2","","","","","","","","","","","","74","J","0","img/none_selected_demo.jpg","true","0","80_20_practice",""
"","bandit","30","369717","0.0-18.0-12.0","47720986","wem/bandit_party_2","A8KZ2Z0OXZM3W","either","5","785","","","","","","","0","0","1","","0.8","0.5","0.5","","","0.8","0.2","","","","","","","","","","","","","","","","74","J","0","img/none_selected_demo.jpg","true","0","80_20_practice",""
"","bandit","31","371942","0.0-18.0-13.0","47720986","wem/bandit_party_2","A8KZ2Z0OXZM3W","either","5","692","","","","","","","0","0","1","0.8","","0.5","0.5","","","","","","","0.8","0.2","","","","","","","","","","","","74","J","0","img/none_selected_demo.jpg","true","0","80_20_practice",""
"","bandit","32","374587","0.0-18.0-14.0","47720986","wem/bandit_party_2","A8KZ2Z0OXZM3W","either","5","1124","","","","","","","1","0","0","0.8","","0.5","0.5","","","","","","","0.8","0.2","","","","","","","","","","","","74","J","0","img/none_selected_demo.jpg","true","0","80_20_practice",""
"","bandit","33","376992","0.0-18.0-15.0","47720986","wem/bandit_party_2","A8KZ2Z0OXZM3W","either","5","886","","","","","","","0","1","0","","0.8","0.5","0.5","","","0.8","0.2","","","","","","","","","","","","","","","","74","J","0","img/none_selected_demo.jpg","true","0","80_20_practice",""
"","bandit","34","379648","0.0-18.0-16.0","47720986","wem/bandit_party_2","A8KZ2Z0OXZM3W","either","5","1137","","","","","","","0","1","0","","0.8","0.5","0.5","","","0.8","0.2","","","","","","","","","","","","","","","","74","J","0","img/none_selected_demo.jpg","true","0","80_20_practice",""
"","bandit","35","382423","0.0-18.0-17.0","47720986","wem/bandit_party_2","A8KZ2Z0OXZM3W","either","5","1247","","","","","","","0","0","1","0.8","","0.5","0.5","","","","","","","0.8","0.2","","","","","","","","","","","","74","J","0","img/none_selected_demo.jpg","true","0","80_20_practice",""
"","bandit","36","385031","0.0-18.0-18.0","47720986","wem/bandit_party_2","A8KZ2Z0OXZM3W","either","5","1090","","","","","","","1","0","0","0.8","","0.5","0.5","","","","","","","0.8","0.2","","","","","","","","","","","","74","J","0","img/none_selected_demo.jpg","true","0","80_20_practice",""
"","bandit","37","388457","0.0-18.0-19.0","47720986","wem/bandit_party_2","A8KZ2Z0OXZM3W","either","5","1905","","","","","","","1","0","0","0.8","","0.5","0.5","","","","","","","0.8","0.2","","","","","","","","","","","","74","J","0","img/none_selected_demo.jpg","true","0","80_20_practice",""
"","text-replacement","38","421262","0.0-19.0","47720986","wem/bandit_party_2","A8KZ2Z0OXZM3W","either","5","32802","","","32","","","","","","","","","","","","","","","","","","","","","","","","","","","","","","","","","","","","",""
"","bandit","39","425422","0.0-20.0-0.0","47720986","wem/bandit_party_2","A8KZ2Z0OXZM3W","either","5","2634","","","","","","","1","0","0","1","0","","","","","0","1","","","1","0","","","","","","","","","","","","74","J","0","img/none_selected_demo.jpg","true","0","",""
"","text-replacement","40","449397","0.0-21.0","47720986","wem/bandit_party_2","A8KZ2Z0OXZM3W","either","5","23972","","","32","","","","","","","","","","","","","","","","","","","","","","","","","","","","","","","","","","","","",""
"","text-replacement","41","455273","0.0-22.0","47720986","wem/bandit_party_2","A8KZ2Z0OXZM3W","either","5","5874","","","32","","","","","","","","","","","","","","","","","","","","","","","","","","","","","","","","","","","","",""
"","text-replacement","42","458500","0.0-23.0","47720986","wem/bandit_party_2","A8KZ2Z0OXZM3W","either","5","3225","","","32","","","","","","","","","","","","","","","","","","","","","","","","","","","","","","","","","","","","",""
"","text-replacement","43","462159","0.0-24.0","47720986","wem/bandit_party_2","A8KZ2Z0OXZM3W","either","5","3657","","","32","","","","","","","","","","","","","","","","","","","","","","","","","","","","","","","","","","","","",""
"","text-replacement","44","468693","0.0-25.0","47720986","wem/bandit_party_2","A8KZ2Z0OXZM3W","either","5","6531","","","32","","","","","","","","","","","","","","","","","","","","","","","","","","","","","","","","","","","","",""
"","text-replacement","45","472688","0.0-26.0","47720986","wem/bandit_party_2","A8KZ2Z0OXZM3W","either","5","3992","","","32","","","","","","","","","","","","","","","","","","","","","","","","","","","","","","","","","","","","",""
"","text-replacement","46","476869","0.0-27.0","47720986","wem/bandit_party_2","A8KZ2Z0OXZM3W","either","5","4179","","","32","","","","","","","","","","","","","","","","","","","","","","","","","","","","","","","","","","","","",""
"","text-replacement","47","481495","0.0-28.0","47720986","wem/bandit_party_2","A8KZ2Z0OXZM3W","either","5","4624","","","32","","","","","","","","","","","","","","","","","","","","","","","","","","","","","","","","","","","","",""
"","text-replacement","48","487063","0.0-29.0","47720986","wem/bandit_party_2","A8KZ2Z0OXZM3W","either","5","5565","","","32","","","","","","","","","","","","","","","","","","","","","","","","","","","","","","","","","","","","",""
"","text-replacement","49","489565","0.0-30.0","47720986","wem/bandit_party_2","A8KZ2Z0OXZM3W","either","5","2499","","","32","","","","","","","","","","","","","","","","","","","","","","","","","","","","","","","","","","","","",""
"","text-replacement","50","492919","0.0-31.0","47720986","wem/bandit_party_2","A8KZ2Z0OXZM3W","either","5","3353","","","32","","","","","","","","","","","","","","","","","","","","","","","","","","","","","","","","","","","","",""
"","bandit","51","496330","0.0-32.0-0.0","47720986","wem/bandit_party_2","A8KZ2Z0OXZM3W","either","5","1890","","","","","","","0","1","0","","0.8","0.5","0.5","0.5","0.5","0.8","0.2","0.6","0.2","","","","","","","","","","","","","","72","H","0","img/none_selected.jpg","true","0","full_practice",""
"","bandit","52","498518","0.0-32.0-1.0","47720986","wem/bandit_party_2","A8KZ2Z0OXZM3W","either","5","662","","","","","","","1","0","0","0.8","","0.5","0.5","0.5","0.5","","","","","0.8","0.2","0.6","0.2","","","","","","","","","","72","H","0","img/none_selected.jpg","true","0","full_practice",""
"","bandit","53","500665","0.0-32.0-2.0","47720986","wem/bandit_party_2","A8KZ2Z0OXZM3W","either","5","626","","","","","","","1","0","0","0.8","","0.5","0.5","0.5","0.5","","","","","0.8","0.2","0.6","0.2","","","","","","","","","","72","H","0","img/none_selected.jpg","true","0","full_practice",""
"","bandit","54","502785","0.0-32.0-3.0","47720986","wem/bandit_party_2","A8KZ2Z0OXZM3W","either","5","612","","","","","","","0","1","0","","0.8","0.5","0.5","0.5","0.5","0.8","0.2","0.6","0.2","","","","","","","","","","","","","","72","H","0","img/none_selected.jpg","true","0","full_practice",""
"","bandit","55","504907","0.0-32.0-4.0","47720986","wem/bandit_party_2","A8KZ2Z0OXZM3W","either","5","591","","","","","","","0","1","0","","0.8","0.5","0.5","0.5","0.5","0.8","0.2","0.6","0.2","","","","","","","","","","","","","","72","H","0","img/none_selected.jpg","true","0","full_practice",""
"","bandit","56","506928","0.0-32.0-5.0","47720986","wem/bandit_party_2","A8KZ2Z0OXZM3W","either","5","496","","","","","","","0","1","0","","0.8","0.5","0.5","0.5","0.5","0.8","0.2","0.6","0.2","","","","","","","","","","","","","","72","H","0","img/none_selected.jpg","true","0","full_practice",""
"","bandit","57","509180","0.0-32.0-6.0","47720986","wem/bandit_party_2","A8KZ2Z0OXZM3W","either","5","728","","","","","","","1","0","0","0.8","","0.5","0.5","0.5","0.5","","","","","0.8","0.2","0.6","0.2","","","","","","","","","","72","H","0","img/none_selected.jpg","true","0","full_practice",""
"","bandit","58","511346","0.0-32.0-7.0","47720986","wem/bandit_party_2","A8KZ2Z0OXZM3W","either","5","644","","","","","","","0","0","1","","0.8","0.5","0.5","0.5","0.5","0.8","0.2","0.6","0.2","","","","","","","","","","","","","","72","H","0","img/none_selected.jpg","true","0","full_practice",""
"","bandit","59","513471","0.0-32.0-8.0","47720986","wem/bandit_party_2","A8KZ2Z0OXZM3W","either","5","600","","","","","","","1","0","0","0.8","","0.5","0.5","0.5","0.5","","","","","0.8","0.2","0.6","0.2","","","","","","","","","","72","H","0","img/none_selected.jpg","true","0","full_practice",""
"","bandit","60","515662","0.0-32.0-9.0","47720986","wem/bandit_party_2","A8KZ2Z0OXZM3W","either","5","683","","","","","","","1","0","0","0.8","","0.5","0.5","0.5","0.5","","","","","0.8","0.2","0.6","0.2","","","","","","","","","","72","H","0","img/none_selected.jpg","true","0","full_practice",""
"","bandit","61","517828","0.0-32.0-10.0","47720986","wem/bandit_party_2","A8KZ2Z0OXZM3W","either","5","643","","","","","","","0","0","1","0.8","","0.5","0.5","0.5","0.5","","","","","0.8","0.2","0.6","0.2","","","","","","","","","","72","H","0","img/none_selected.jpg","true","0","full_practice",""
"","bandit","62","520554","0.0-32.0-11.0","47720986","wem/bandit_party_2","A8KZ2Z0OXZM3W","either","5","1204","","","","","","","1","0","0","0.8","","0.5","0.5","0.5","0.5","","","","","0.8","0.2","0.6","0.2","","","","","","","","","","72","H","0","img/none_selected.jpg","true","0","full_practice",""
"","bandit","63","522647","0.0-32.0-12.0","47720986","wem/bandit_party_2","A8KZ2Z0OXZM3W","either","5","568","","","","","","","0","1","0","","0.8","0.5","0.5","0.5","0.5","0.8","0.2","0.6","0.2","","","","","","","","","","","","","","72","H","0","img/none_selected.jpg","true","0","full_practice",""
"","bandit","64","524724","0.0-32.0-13.0","47720986","wem/bandit_party_2","A8KZ2Z0OXZM3W","either","5","554","","","","","","","1","0","0","0.8","","0.5","0.5","0.5","0.5","","","","","0.8","0.2","0.6","0.2","","","","","","","","","","72","H","0","img/none_selected.jpg","true","0","full_practice",""
"","bandit","65","526889","0.0-32.0-14.0","47720986","wem/bandit_party_2","A8KZ2Z0OXZM3W","either","5","652","","","","","","","1","0","0","0.8","","0.5","0.5","0.5","0.5","","","","","0.8","0.2","0.6","0.2","","","","","","","","","","72","H","0","img/none_selected.jpg","true","0","full_practice",""
"","bandit","66","528906","0.0-32.0-15.0","47720986","wem/bandit_party_2","A8KZ2Z0OXZM3W","either","5","495","","","","","","","1","0","0","0.8","","0.5","0.5","0.5","0.5","","","","","0.8","0.2","0.6","0.2","","","","","","","","","","72","H","0","img/none_selected.jpg","true","0","full_practice",""
"","bandit","67","530998","0.0-32.0-16.0","47720986","wem/bandit_party_2","A8KZ2Z0OXZM3W","either","5","582","","","","","","","0","0","1","0.8","","0.5","0.5","0.5","0.5","","","","","0.8","0.2","0.6","0.2","","","","","","","","","","72","H","0","img/none_selected.jpg","true","0","full_practice",""
"","bandit","68","533242","0.0-32.0-17.0","47720986","wem/bandit_party_2","A8KZ2Z0OXZM3W","either","5","723","","","","","","","0","1","0","","0.8","0.5","0.5","0.5","0.5","0.8","0.2","0.6","0.2","","","","","","","","","","","","","","72","H","0","img/none_selected.jpg","true","0","full_practice",""
"","bandit","69","535420","0.0-32.0-18.0","47720986","wem/bandit_party_2","A8KZ2Z0OXZM3W","either","5","657","","","","","","","0","1","0","","0.8","0.5","0.5","0.5","0.5","0.8","0.2","0.6","0.2","","","","","","","","","","","","","","72","H","0","img/none_selected.jpg","true","0","full_practice",""
"","bandit","70","537518","0.0-32.0-19.0","47720986","wem/bandit_party_2","A8KZ2Z0OXZM3W","either","5","584","","","","","","","1","0","0","0.8","","0.5","0.5","0.5","0.5","","","","","0.8","0.2","0.6","0.2","","","","","","","","","","72","H","0","img/none_selected.jpg","true","0","full_practice",""
"","text","71","542220","0.0-33.0","47720986","wem/bandit_party_2","A8KZ2Z0OXZM3W","either","5","4696","","","32","","","","","","","","","","","","","","","","","","","","","","","","","","","","","","","","","","","","",""
"","text-replacement","72","567549","0.0-34.0","47720986","wem/bandit_party_2","A8KZ2Z0OXZM3W","either","5","24314","","","32","","","","","","","","","","","","","","","","","","","","","","","","","","","","","","","","","","","","",""
"","text-replacement","73","577670","0.0-35.0","47720986","wem/bandit_party_2","A8KZ2Z0OXZM3W","either","5","10118","","","32","","","","","","","","","","","","","","","","","","","","","","","","","","","","","","","","","","","","",""
"","text-replacement","74","582964","0.0-36.0","47720986","wem/bandit_party_2","A8KZ2Z0OXZM3W","either","5","5292","","","32","","","","","","","","","","","","","","","","","","","","","","","","","","","","","","","","","","","","",""
"","text-replacement","75","589365","0.0-37.0","47720986","wem/bandit_party_2","A8KZ2Z0OXZM3W","either","5","6398","","","32","","","","","","","","","","","","","","","","","","","","","","","","","","","","","","","","","","","","",""
"","text-replacement","76","626005","0.0-38.0","47720986","wem/bandit_party_2","A8KZ2Z0OXZM3W","either","5","36637","","","32","","","","","","","","","","","","","","","","","","","","","","","","","","","","","","","","","","","","",""
"","survey-multi-choice-replacement","77","637967","0.0-39.0-0.0","47720986","wem/bandit_party_2","A8KZ2Z0OXZM3W","either","5","11952","","","","","","","","","","","","","","","","","","","","","","","","Money will be added to the pool for <span style='color:blue;'>DEMOCRATS</span>","","","","","","","attn_check","","","","","","","","","0"
"","survey-multi-choice-replacement","78","650671","0.0-40.0-0.0","47720986","wem/bandit_party_2","A8KZ2Z0OXZM3W","either","5","11688","","","","","","","","","","","","","","","","","","","","","","","","Equal amounts of money will be added to the pool for <span style='color:blue;'>DEMOCRATS</span> and subtracted from the pool for <span style='color:red;'>REPUBLICANS</span>","","","","","","","attn_check","","","","","","","","","2"
"","survey-multi-choice-replacement","79","657301","0.0-41.0-0.0","47720986","wem/bandit_party_2","A8KZ2Z0OXZM3W","either","5","5608","","","","","","","","","","","","","","","","","","","","","","","","No money will be added to either pool","","","","","","","attn_check","","","","","","","","","3"
"","bandit","80","662752","0.0-42.0-0.0","47720986","wem/bandit_party_2","A8KZ2Z0OXZM3W","either","5","2913","","","","","","","1","0","0","0.4909711759","","0.8","0.2","0.4","0.6","","","","","0.4909711759","0.6131215568","0.32692793","0.4253928501","","","","","","","","","","72","H","0","img/none_selected.jpg","","1","main_expt",""
"","bandit","81","665256","0.0-43.0-0.0","47720986","wem/bandit_party_2","A8KZ2Z0OXZM3W","either","5","969","","","","","","","0","1","0","","0.5514346198","0.8","0.2","0.4","0.6","0.5514346198","0.6783759564","0.3068321923","0.5447097682","","","","","","","","","","","","","","72","H","0","img/none_selected.jpg","","2","main_expt",""
"","bandit","82","667452","0.0-44.0-0.0","47720986","wem/bandit_party_2","A8KZ2Z0OXZM3W","either","5","673","","","","","","","0","0","1","0.5966913043","","0.8","0.2","0.4","0.6","","","","","0.5966913043","0.6535049038","0.2871808385","0.5631376832","","","","","","","","","","72","H","0","img/none_selected.jpg","","3","main_expt",""
"","bandit","83","669639","0.0-45.0-0.0","47720986","wem/bandit_party_2","A8KZ2Z0OXZM3W","either","5","660","","","","","","","1","0","0","0.6236804691","","0.8","0.2","0.4","0.6","","","","","0.6236804691","0.5433476707","0.3062311279","0.5889355808","","","","","","","","","","72","H","0","img/none_selected.jpg","","4","main_expt",""
"","bandit","84","671859","0.0-46.0-0.0","47720986","wem/bandit_party_2","A8KZ2Z0OXZM3W","either","5","701","","","","","","","1","0","0","0.5844938386","","0.8","0.2","0.4","0.6","","","","","0.5844938386","0.4256320799","0.2453374439","0.6125363118","","","","","","","","","","72","H","0","img/none_selected.jpg","","5","main_expt",""
"","bandit","85","674003","0.0-47.0-0.0","47720986","wem/bandit_party_2","A8KZ2Z0OXZM3W","either","5","606","","","","","","","1","0","0","0.4929788692","","0.8","0.2","0.4","0.6","","","","","0.4929788692","0.4097031487","0.2258644136","0.5204159956","","","","","","","","","","72","H","0","img/none_selected.jpg","","6","main_expt",""
"","bandit","86","676146","0.0-48.0-0.0","47720986","wem/bandit_party_2","A8KZ2Z0OXZM3W","either","5","620","","","","","","","1","0","0","0.3978044106","","0.8","0.2","0.4","0.6","","","","","0.3978044106","0.4614862243","0.2251512132","0.5949894572","","","","","","","","","","72","H","0","img/none_selected.jpg","","7","main_expt",""
"","bandit","87","678251","0.0-49.0-0.0","47720986","wem/bandit_party_2","A8KZ2Z0OXZM3W","either","5","581","","","","","","","0","0","1","0.5080346622","","0.8","0.2","0.4","0.6","","","","","0.5080346622","0.4305419438","0.1597376121","0.7043393759","","","","","","","","","","72","H","0","img/none_selected.jpg","","8","main_expt",""
"","bandit","88","680281","0.0-50.0-0.0","47720986","wem/bandit_party_2","A8KZ2Z0OXZM3W","either","5","519","","","","","","","0","0","1","","0.440708512","0.8","0.2","0.4","0.6","0.440708512","0.6000641755","0.1395884133","0.6866437556","","","","","","","","","","","","","","72","H","0","img/none_selected.jpg","","9","main_expt",""
"","bandit","89","682379","0.0-51.0-0.0","47720986","wem/bandit_party_2","A8KZ2Z0OXZM3W","either","5","574","","","","","","","0","0","1","0.4862198985","","0.8","0.2","0.4","0.6","","","","","0.4862198985","0.66675231","0.1529628815","0.6743415364","","","","","","","","","","72","H","0","img/none_selected.jpg","","10","main_expt",""
"","bandit","90","684380","0.0-52.0-0.0","47720986","wem/bandit_party_2","A8KZ2Z0OXZM3W","either","5","463","","","","","","","0","0","1","","0.1918890603","0.8","0.2","0.4","0.6","0.4942886423","0.538431352","0.1918890603","0.6907290289","","","","","","","","","","","","","","75","K","2","","","11","main_expt",""
"","bandit","91","686545","0.0-53.0-0.0","47720986","wem/bandit_party_2","A8KZ2Z0OXZM3W","either","5","629","","","","","","","0","0","1","","0.1412308375","0.8","0.2","0.4","0.6","0.4999864232","0.5683478731","0.1412308375","0.7254617755","","","","","","","","","","","","","","75","K","2","","","12","main_expt",""
"","bandit","92","688660","0.0-54.0-0.0","47720986","wem/bandit_party_2","A8KZ2Z0OXZM3W","either","5","592","","","","","","","0","0","1","0.1854965676","","0.8","0.2","0.4","0.6","","","","","0.3945724157","0.5870071372","0.1854965676","0.7533793381","","","","","","","","","","75","K","2","","","13","main_expt",""
"","bandit","93","691251","0.0-55.0-0.0","47720986","wem/bandit_party_2","A8KZ2Z0OXZM3W","either","5","1055","","","","","","","0","0","1","0.3389967741","","0.8","0.2","0.4","0.6","","","","","0.458684297","0.3389967741","0.2200151947","0.6909187676","","","","","","","","","","74","J","1","","","14","main_expt",""
"","bandit","94","693356","0.0-56.0-0.0","47720986","wem/bandit_party_2","A8KZ2Z0OXZM3W","either","5","582","","","","","","","0","1","0","","0.2927381815","0.8","0.2","0.4","0.6","0.5338449271","0.2927381815","0.1497743902","0.7916820586","","","","","","","","","","","","","","74","J","1","","","15","main_expt",""
"","bandit","95","695687","0.0-57.0-0.0","47720986","wem/bandit_party_2","A8KZ2Z0OXZM3W","either","5","810","","","","","","","0","1","0","","0.2268478953","0.8","0.2","0.4","0.6","0.6821016448","0.2268478953","0.1767244745","0.7991661796","","","","","","","","","","","","","","74","J","1","","","16","main_expt",""
"","bandit","96","697882","0.0-58.0-0.0","47720986","wem/bandit_party_2","A8KZ2Z0OXZM3W","either","5","672","","","","","","","0","0","1","","0.2364877179","0.8","0.2","0.4","0.6","0.6963612506","0.2364877179","0.1953364786","0.7352739439","","","","","","","","","","","","","","74","J","1","","","17","main_expt",""
"","bandit","97","700030","0.0-59.0-0.0","47720986","wem/bandit_party_2","A8KZ2Z0OXZM3W","either","5","640","","","","","","","0","1","0","","0.280777314","0.8","0.2","0.4","0.6","0.7035779666","0.280777314","0.139355503","0.6911569498","","","","","","","","","","","","","","74","J","1","","","18","main_expt",""
"","bandit","98","702253","0.0-60.0-0.0","47720986","wem/bandit_party_2","A8KZ2Z0OXZM3W","either","5","699","","","","","","","0","1","0","","0.3280428268","0.8","0.2","0.4","0.6","0.677086514","0.3280428268","0.129677489","0.6372159304","","","","","","","","","","","","","","74","J","1","","","19","main_expt",""
"","bandit","99","704552","0.0-61.0-0.0","47720986","wem/bandit_party_2","A8KZ2Z0OXZM3W","either","5","779","","","","","","","0","1","0","","0.213865824","0.8","0.2","0.4","0.6","0.5211019236","0.213865824","0.1584506979","0.5917564331","","","","","","","","","","","","","","74","J","1","","","20","main_expt",""
"","bandit","100","706767","0.0-62.0-0.0","47720986","wem/bandit_party_2","A8KZ2Z0OXZM3W","either","5","706","","","","","","","1","0","0","0.2755747612","","0.8","0.2","0.4","0.6","","","","","0.6040081297","0.2755747612","0.1934985877","0.6351733259","","","","","","","","","","74","J","1","","","21","main_expt",""
"","bandit","101","709107","0.0-63.0-0.0","47720986","wem/bandit_party_2","A8KZ2Z0OXZM3W","either","5","818","","","","","","","0","1","0","","0.3096891892","0.8","0.2","0.4","0.6","0.5276460007","0.3096891892","0.1184813826","0.57448168","","","","","","","","","","","","","","74","J","1","","","22","main_expt",""
"","bandit","102","711318","0.0-64.0-0.0","47720986","wem/bandit_party_2","A8KZ2Z0OXZM3W","either","5","689","","","","","","","0","0","1","","0.1855444332","0.8","0.2","0.4","0.6","0.4373756081","0.1855444332","0.1387482349","0.532235281","","","","","","","","","","","","","","74","J","1","","","23","main_expt",""
"","bandit","103","713596","0.0-65.0-0.0","47720986","wem/bandit_party_2","A8KZ2Z0OXZM3W","either","5","756","","","","","","","1","0","0","0.2026045625","","0.8","0.2","0.4","0.6","","","","","0.4051577966","0.2026045625","0.1275075135","0.4695599312","","","","","","","","","","74","J","1","","","24","main_expt",""
"","bandit","104","715865","0.0-66.0-0.0","47720986","wem/bandit_party_2","A8KZ2Z0OXZM3W","either","5","747","","","","","","","0","0","1","0.2610081957","","0.8","0.2","0.4","0.6","","","","","0.3583026632","0.2610081957","0.1324238285","0.3710761786","","","","","","","","","","74","J","1","","","25","main_expt",""
"","bandit","105","718249","0.0-67.0-0.0","47720986","wem/bandit_party_2","A8KZ2Z0OXZM3W","either","5","857","","","","","","","0","0","1","","0.2068764453","0.8","0.2","0.4","0.6","0.4070676783","0.2068764453","0.2222282692","0.3104834237","","","","","","","","","","","","","","74","J","1","","","26","main_expt",""
"","bandit","106","720592","0.0-68.0-0.0","47720986","wem/bandit_party_2","A8KZ2Z0OXZM3W","either","5","814","","","","","","","0","0","1","0.4250638914","","0.8","0.2","0.4","0.6","","","","","0.3962805628","0.1387354037","0.2367528544","0.4250638914","","","","","","","","","","76","L","3","","","27","main_expt",""
"","bandit","107","722717","0.0-69.0-0.0","47720986","wem/bandit_party_2","A8KZ2Z0OXZM3W","either","5","599","","","","","","","1","0","0","0.3738912408","","0.8","0.2","0.4","0.6","","","","","0.3381264529","0.2065421522","0.1581712713","0.3738912408","","","","","","","","","","76","L","3","","","28","main_expt",""
"","bandit","108","725061","0.0-70.0-0.0","47720986","wem/bandit_party_2","A8KZ2Z0OXZM3W","either","5","820","","","","","","","0","0","1","0.411092256","","0.8","0.2","0.4","0.6","","","","","0.3405446746","0.2452437498","0.2361440946","0.411092256","","","","","","","","","","76","L","3","","","29","main_expt",""
"","bandit","109","727195","0.0-71.0-0.0","47720986","wem/bandit_party_2","A8KZ2Z0OXZM3W","either","5","611","","","","","","","0","1","0","","0.306262239","0.8","0.2","0.4","0.6","0.3536414415","0.3076129501","0.3051502752","0.306262239","","","","","","","","","","","","","","76","L","3","","","30","main_expt",""
"","bandit","110","729485","0.0-72.0-0.0","47720986","wem/bandit_party_2","A8KZ2Z0OXZM3W","either","5","766","","","","","","","0","0","1","0.2846857217","","0.8","0.2","0.4","0.6","","","","","0.3201297868","0.275744379","0.3588845582","0.2846857217","","","","","","","","","","76","L","3","","","31","main_expt",""
"","bandit","111","731609","0.0-73.0-0.0","47720986","wem/bandit_party_2","A8KZ2Z0OXZM3W","either","5","611","","","","","","","0","0","1","","0.260797537","0.8","0.2","0.4","0.6","0.414050106","0.1582224348","0.3351264969","0.260797537","","","","","","","","","","","","","","76","L","3","","","32","main_expt",""
"","bandit","112","733610","0.0-74.0-0.0","47720986","wem/bandit_party_2","A8KZ2Z0OXZM3W","either","5","479","","","","","","","0","1","0","","0.3369799553","0.8","0.2","0.4","0.6","0.4846208784","0.07234251762","0.3369799553","0.3108282978","","","","","","","","","","","","","","75","K","2","","","33","main_expt",""
"","bandit","113","735891","0.0-75.0-0.0","47720986","wem/bandit_party_2","A8KZ2Z0OXZM3W","either","5","767","","","","","","","0","0","1","0.3040676539","","0.8","0.2","0.4","0.6","","","","","0.4250330595","0.07244310326","0.3040676539","0.3996464291","","","","","","","","","","75","K","2","","","34","main_expt",""
"","bandit","114","738345","0.0-76.0-0.0","47720986","wem/bandit_party_2","A8KZ2Z0OXZM3W","either","5","933","","","","","","","0","0","1","","0.2974236485","0.8","0.2","0.4","0.6","0.499329675","0.07140094546","0.2974236485","0.4368131495","","","","","","","","","","","","","","75","K","2","","","35","main_expt",""
"","bandit","115","740858","0.0-77.0-0.0","47720986","wem/bandit_party_2","A8KZ2Z0OXZM3W","either","5","1007","","","","","","","0","0","1","","0.310238309","0.8","0.2","0.4","0.6","0.3892953339","0.08624361683","0.310238309","0.3396719642","","","","","","","","","","","","","","75","K","2","","","36","main_expt",""
"","bandit","116","743910","0.0-78.0-0.0","47720986","wem/bandit_party_2","A8KZ2Z0OXZM3W","either","5","1525","","","","","","","0","0","1","0.3680424748","","0.8","0.2","0.4","0.6","","","","","0.3680424748","0.07543251018","0.2818719109","0.4409026667","","","","","","","","","","72","H","0","img/none_selected.jpg","","37","main_expt",""
"","bandit","117","746146","0.0-79.0-0.0","47720986","wem/bandit_party_2","A8KZ2Z0OXZM3W","either","5","714","","","","","","","0","0","1","0.4909804269","","0.8","0.2","0.4","0.6","","","","","0.4909804269","0.1324785543","0.2925765749","0.489392614","","","","","","","","","","72","H","0","img/none_selected.jpg","","38","main_expt",""
"","bandit","118","748891","0.0-80.0-0.0","47720986","wem/bandit_party_2","A8KZ2Z0OXZM3W","either","5","1231","","","","","","","1","0","0","0.5165168671","","0.8","0.2","0.4","0.6","","","","","0.5165168671","0.1824024676","0.3033582507","0.4403114744","","","","","","","","","","72","H","0","img/none_selected.jpg","","39","main_expt",""
"","bandit","119","751189","0.0-81.0-0.0","47720986","wem/bandit_party_2","A8KZ2Z0OXZM3W","either","5","775","","","","","","","1","0","0","0.6036007873","","0.8","0.2","0.4","0.6","","","","","0.6036007873","0.09861269436","0.2371445562","0.343221944","","","","","","","","","","72","H","0","img/none_selected.jpg","","40","main_expt",""
"","bandit","120","753463","0.0-82.0-0.0","47720986","wem/bandit_party_2","A8KZ2Z0OXZM3W","either","5","763","","","","","","","1","0","0","0.6078828369","","0.8","0.2","0.4","0.6","","","","","0.6078828369","0.1028082326","0.2072661203","0.450343793","","","","","","","","","","72","H","0","img/none_selected.jpg","","41","main_expt",""
"","bandit","121","755686","0.0-83.0-0.0","47720986","wem/bandit_party_2","A8KZ2Z0OXZM3W","either","5","697","","","","","","","0","0","1","","0.5757077757","0.8","0.2","0.4","0.6","0.5757077757","0.1326350751","0.1850700716","0.4422822993","","","","","","","","","","","","","","72","H","0","img/none_selected.jpg","","42","main_expt",""
"","bandit","122","757885","0.0-84.0-0.0","47720986","wem/bandit_party_2","A8KZ2Z0OXZM3W","either","5","675","","","","","","","1","0","0","0.504524575","","0.8","0.2","0.4","0.6","","","","","0.504524575","0.1591685393","0.1700345657","0.4755437476","","","","","","","","","","72","H","0","img/none_selected.jpg","","43","main_expt",""
"","bandit","123","760145","0.0-85.0-0.0","47720986","wem/bandit_party_2","A8KZ2Z0OXZM3W","either","5","747","","","","","","","1","0","0","0.3354744533","","0.8","0.2","0.4","0.6","","","","","0.3354744533","0.1558361793","0.150922449","0.6211160782","","","","","","","","","","72","H","0","img/none_selected.jpg","","44","main_expt",""
"","bandit","124","762358","0.0-86.0-0.0","47720986","wem/bandit_party_2","A8KZ2Z0OXZM3W","either","5","687","","","","","","","1","0","0","0.2259933845","","0.8","0.2","0.4","0.6","","","","","0.2259933845","0.08224127908","0.08792573626","0.5950963145","","","","","","","","","","72","H","0","img/none_selected.jpg","","45","main_expt",""
"","bandit","125","764690","0.0-87.0-0.0","47720986","wem/bandit_party_2","A8KZ2Z0OXZM3W","either","5","795","","","","","","","0","0","1","0.1991815266","","0.8","0.2","0.4","0.6","","","","","0.1991815266","0.05681632526","0.05210962111","0.600883672","","","","","","","","","","72","H","0","img/none_selected.jpg","","46","main_expt",""
"","bandit","126","766921","0.0-88.0-0.0","47720986","wem/bandit_party_2","A8KZ2Z0OXZM3W","either","5","719","","","","","","","0","0","1","","0.02046531905","0.8","0.2","0.4","0.6","0.1821259253","0.02046531905","0.1658512007","0.6018426621","","","","","","","","","","","","","","74","J","1","","","47","main_expt",""
"","bandit","127","768891","0.0-89.0-0.0","47720986","wem/bandit_party_2","A8KZ2Z0OXZM3W","either","5","449","","","","","","","0","0","1","0.1850219792","","0.8","0.2","0.4","0.6","","","","","0.1850219792","0.02793369594","0.2171730843","0.6719149388","","","","","","","","","","72","H","0","img/none_selected.jpg","","48","main_expt",""
"","bandit","128","770849","0.0-90.0-0.0","47720986","wem/bandit_party_2","A8KZ2Z0OXZM3W","either","5","436","","","","","","","0","0","1","","0.01520235592","0.8","0.2","0.4","0.6","0.2843491098","0.01520235592","0.2545874694","0.5824093935","","","","","","","","","","","","","","74","J","1","","","49","main_expt",""
"","bandit","129","774315","0.0-91.0-0.0","47720986","wem/bandit_party_2","A8KZ2Z0OXZM3W","either","5","1942","","","","","","","0","0","1","","0.1971443839","0.8","0.2","0.4","0.6","0.2385085868","0.008868670712","0.1971443839","0.5697547833","","","","","","","","","","","","","","75","K","2","","","50","main_expt",""
"","bandit","130","777130","0.0-92.0-0.0","47720986","wem/bandit_party_2","A8KZ2Z0OXZM3W","either","5","1293","","","","","","","0","0","1","0.1743954459","","0.8","0.2","0.4","0.6","","","","","0.2762119933","0.004668439046","0.1743954459","0.5875551098","","","","","","","","","","75","K","2","","","51","main_expt",""
"","bandit","131","779265","0.0-93.0-0.0","47720986","wem/bandit_party_2","A8KZ2Z0OXZM3W","either","5","599","","","","","","","0","0","1","0.1007451992","","0.8","0.2","0.4","0.6","","","","","0.2350807626","0.003090075005","0.1007451992","0.691822337","","","","","","","","","","75","K","2","","","52","main_expt",""
"","bandit","132","781396","0.0-94.0-0.0","47720986","wem/bandit_party_2","A8KZ2Z0OXZM3W","either","5","608","","","","","","","0","1","0","","0.7363191169","0.8","0.2","0.4","0.6","0.2301492847","0.003474758773","0.1648918076","0.7363191169","","","","","","","","","","","","","","76","L","3","","","53","main_expt",""
"","bandit","133","783562","0.0-95.0-0.0","47720986","wem/bandit_party_2","A8KZ2Z0OXZM3W","either","5","626","","","","","","","1","0","0","0.7639548597","","0.8","0.2","0.4","0.6","","","","","0.2779325162","0.003279238457","0.1761014763","0.7639548597","","","","","","","","","","76","L","3","","","54","main_expt",""
"","bandit","134","786174","0.0-96.0-0.0","47720986","wem/bandit_party_2","A8KZ2Z0OXZM3W","either","5","1085","","","","","","","1","0","0","0.7264154962","","0.8","0.2","0.4","0.6","","","","","0.2882189161","0.001847339967","0.1460392243","0.7264154962","","","","","","","","","","76","L","3","","","55","main_expt",""
"","bandit","135","788523","0.0-97.0-0.0","47720986","wem/bandit_party_2","A8KZ2Z0OXZM3W","either","5","842","","","","","","","0","0","1","0.7511403137","","0.8","0.2","0.4","0.6","","","","","0.2646822794","0.001186331615","0.1882527018","0.7511403137","","","","","","","","","","76","L","3","","","56","main_expt",""
"","bandit","136","790617","0.0-98.0-0.0","47720986","wem/bandit_party_2","A8KZ2Z0OXZM3W","either","5","572","","","","","","","1","0","0","0.6292194553","","0.8","0.2","0.4","0.6","","","","","0.3080117871","0.001917609755","0.1836596221","0.6292194553","","","","","","","","","","76","L","3","","","57","main_expt",""
"","bandit","137","792953","0.0-99.0-0.0","47720986","wem/bandit_party_2","A8KZ2Z0OXZM3W","either","5","823","","","","","","","0","1","0","","0.5622591622","0.8","0.2","0.4","0.6","0.2609020091","0.004115025419","0.2259562874","0.5622591622","","","","","","","","","","","","","","76","L","3","","","58","main_expt",""
"","bandit","138","795265","0.0-100.0-0.0","47720986","wem/bandit_party_2","A8KZ2Z0OXZM3W","either","5","799","","","","","","","1","0","0","0.6394190939","","0.8","0.2","0.4","0.6","","","","","0.3014652953","0.007083433589","0.1673227733","0.6394190939","","","","","","","","","","76","L","3","","","59","main_expt",""
"","bandit","139","797460","0.0-101.0-0.0","47720986","wem/bandit_party_2","A8KZ2Z0OXZM3W","either","5","658","","","","","","","0","0","1","0.502148976","","0.8","0.2","0.4","0.6","","","","","0.2872544729","0.0100473459","0.1404143731","0.502148976","","","","","","","","","","76","L","3","","","60","main_expt",""
"","bandit","140","799488","0.0-102.0-0.0","47720986","wem/bandit_party_2","A8KZ2Z0OXZM3W","either","5","516","","","","","","","1","0","0","0.5541662771","","0.8","0.2","0.4","0.6","","","","","0.2347068593","0.02288810402","0.1087230511","0.5541662771","","","","","","","","","","76","L","3","","","61","main_expt",""
"","bandit","141","801793","0.0-103.0-0.0","47720986","wem/bandit_party_2","A8KZ2Z0OXZM3W","either","5","784","","","","","","","0","1","0","","0.6016144889","0.8","0.2","0.4","0.6","0.1786743828","0.04890713094","0.1173770395","0.6016144889","","","","","","","","","","","","","","76","L","3","","","62","main_expt",""
"","bandit","142","803989","0.0-104.0-0.0","47720986","wem/bandit_party_2","A8KZ2Z0OXZM3W","either","5","685","","","","","","","0","1","0","","0.6306423252","0.8","0.2","0.4","0.6","0.1627017484","0.06015841579","0.1173961002","0.6306423252","","","","","","","","","","","","","","76","L","3","","","63","main_expt",""
"","bandit","143","806376","0.0-105.0-0.0","47720986","wem/bandit_party_2","A8KZ2Z0OXZM3W","either","5","857","","","","","","","0","0","1","0.5963496952","","0.8","0.2","0.4","0.6","","","","","0.2220220934","0.0697324588","0.1093057248","0.5963496952","","","","","","","","","","76","L","3","","","64","main_expt",""
"","bandit","144","808536","0.0-106.0-0.0","47720986","wem/bandit_party_2","A8KZ2Z0OXZM3W","either","5","637","","","","","","","0","1","0","","0.5835424673","0.8","0.2","0.4","0.6","0.1387290973","0.03955641554","0.1437581537","0.5835424673","","","","","","","","","","","","","","76","L","3","","","65","main_expt",""
"","bandit","145","810770","0.0-107.0-0.0","47720986","wem/bandit_party_2","A8KZ2Z0OXZM3W","either","5","712","","","","","","","1","0","0","0.5789137396","","0.8","0.2","0.4","0.6","","","","","0.1481952943","0.04104317144","0.1321246006","0.5789137396","","","","","","","","","","76","L","3","","","66","main_expt",""
"","bandit","146","813112","0.0-108.0-0.0","47720986","wem/bandit_party_2","A8KZ2Z0OXZM3W","either","5","829","","","","","","","0","0","1","0.6503196648","","0.8","0.2","0.4","0.6","","","","","0.1354395346","0.07749417123","0.1441415222","0.6503196648","","","","","","","","","","76","L","3","","","67","main_expt",""
"","bandit","147","815330","0.0-109.0-0.0","47720986","wem/bandit_party_2","A8KZ2Z0OXZM3W","either","5","696","","","","","","","1","0","0","0.7295955131","","0.8","0.2","0.4","0.6","","","","","0.09431815687","0.1606162296","0.1794787892","0.7295955131","","","","","","","","","","76","L","3","","","68","main_expt",""
"","bandit","148","817508","0.0-110.0-0.0","47720986","wem/bandit_party_2","A8KZ2Z0OXZM3W","either","5","655","","","","","","","1","0","0","0.7924649224","","0.8","0.2","0.4","0.6","","","","","0.09491494314","0.1458723802","0.2467892919","0.7924649224","","","","","","","","","","76","L","3","","","69","main_expt",""
"","bandit","149","819728","0.0-111.0-0.0","47720986","wem/bandit_party_2","A8KZ2Z0OXZM3W","either","5","700","","","","","","","0","0","1","0.7104550926","","0.8","0.2","0.4","0.6","","","","","0.144379617","0.09936082334","0.2683381141","0.7104550926","","","","","","","","","","76","L","3","","","70","main_expt",""
"","bandit","150","821969","0.0-112.0-0.0","47720986","wem/bandit_party_2","A8KZ2Z0OXZM3W","either","5","720","","","","","","","1","0","0","0.6350436987","","0.8","0.2","0.4","0.6","","","","","0.1522740794","0.08487306657","0.3513633517","0.6350436987","","","","","","","","","","76","L","3","","","71","main_expt",""
"","bandit","151","824226","0.0-113.0-0.0","47720986","wem/bandit_party_2","A8KZ2Z0OXZM3W","either","5","735","","","","","","","0","0","1","0.5987872161","","0.8","0.2","0.4","0.6","","","","","0.1668466162","0.08819471669","0.2914052368","0.5987872161","","","","","","","","","","76","L","3","","","72","main_expt",""
"","bandit","152","826379","0.0-114.0-0.0","47720986","wem/bandit_party_2","A8KZ2Z0OXZM3W","either","5","631","","","","","","","1","0","0","0.5985066563","","0.8","0.2","0.4","0.6","","","","","0.1896474075","0.1283432424","0.2877488323","0.5985066563","","","","","","","","","","76","L","3","","","73","main_expt",""
"","bandit","153","828529","0.0-115.0-0.0","47720986","wem/bandit_party_2","A8KZ2Z0OXZM3W","either","5","621","","","","","","","0","0","1","","0.6384302553","0.8","0.2","0.4","0.6","0.2374421278","0.09379917772","0.2562899571","0.6384302553","","","","","","","","","","","","","","76","L","3","","","74","main_expt",""
"","bandit","154","830907","0.0-116.0-0.0","47720986","wem/bandit_party_2","A8KZ2Z0OXZM3W","either","5","854","","","","","","","1","0","0","0.5658832615","","0.8","0.2","0.4","0.6","","","","","0.2083661751","0.09049970266","0.2733605005","0.5658832615","","","","","","","","","","76","L","3","","","75","main_expt",""
"","bandit","155","833880","0.0-117.0-0.0","47720986","wem/bandit_party_2","A8KZ2Z0OXZM3W","either","5","1462","","","","","","","1","0","0","0.6242699585","","0.8","0.2","0.4","0.6","","","","","0.2438220339","0.08721668036","0.3937912108","0.6242699585","","","","","","","","","","76","L","3","","","76","main_expt",""
"","bandit","156","836052","0.0-118.0-0.0","47720986","wem/bandit_party_2","A8KZ2Z0OXZM3W","either","5","647","","","","","","","1","0","0","0.5744400186","","0.8","0.2","0.4","0.6","","","","","0.2688374605","0.06435523183","0.2317864895","0.5744400186","","","","","","","","","","76","L","3","","","77","main_expt",""
"","bandit","157","838501","0.0-119.0-0.0","47720986","wem/bandit_party_2","A8KZ2Z0OXZM3W","either","5","939","","","","","","","1","0","0","0.5888420407","","0.8","0.2","0.4","0.6","","","","","0.354885782","0.0482567949","0.1809738678","0.5888420407","","","","","","","","","","76","L","3","","","78","main_expt",""
"","bandit","158","840582","0.0-120.0-0.0","47720986","wem/bandit_party_2","A8KZ2Z0OXZM3W","either","5","571","","","","","","","0","0","1","0.6367332082","","0.8","0.2","0.4","0.6","","","","","0.3618930149","0.0437210955","0.1139783564","0.6367332082","","","","","","","","","","76","L","3","","","79","main_expt",""
"","bandit","159","842844","0.0-121.0-0.0","47720986","wem/bandit_party_2","A8KZ2Z0OXZM3W","either","5","721","","","","","","","1","0","0","0.6870764151","","0.8","0.2","0.4","0.6","","","","","0.2656346555","0.02877808334","0.08785846653","0.6870764151","","","","","","","","","","76","L","3","","","80","main_expt",""
"","bandit","160","844985","0.0-122.0-0.0","47720986","wem/bandit_party_2","A8KZ2Z0OXZM3W","either","5","627","","","","","","","1","0","0","0.594282643","","0.8","0.2","0.4","0.6","","","","","0.4245431589","0.01921293631","0.09113866108","0.594282643","","","","","","","","","","76","L","3","","","81","main_expt",""
"","bandit","161","847221","0.0-123.0-0.0","47720986","wem/bandit_party_2","A8KZ2Z0OXZM3W","either","5","711","","","","","","","1","0","0","0.6134463007","","0.8","0.2","0.4","0.6","","","","","0.4469352605","0.04933803159","0.1055231707","0.6134463007","","","","","","","","","","76","L","3","","","82","main_expt",""
"","bandit","162","849322","0.0-124.0-0.0","47720986","wem/bandit_party_2","A8KZ2Z0OXZM3W","either","5","580","","","","","","","1","0","0","0.573719985","","0.8","0.2","0.4","0.6","","","","","0.4492602846","0.03134335394","0.09865920741","0.573719985","","","","","","","","","","76","L","3","","","83","main_expt",""
"","bandit","163","851470","0.0-125.0-0.0","47720986","wem/bandit_party_2","A8KZ2Z0OXZM3W","either","5","623","","","","","","","0","0","1","","0.5666188995","0.8","0.2","0.4","0.6","0.4800113203","0.08181594064","0.06745845416","0.5666188995","","","","","","","","","","","","","","76","L","3","","","84","main_expt",""
"","bandit","164","853622","0.0-126.0-0.0","47720986","wem/bandit_party_2","A8KZ2Z0OXZM3W","either","5","641","","","","","","","0","1","0","","0.5161506384","0.8","0.2","0.4","0.6","0.53417275","0.09326949564","0.05723787215","0.5161506384","","","","","","","","","","","","","","76","L","3","","","85","main_expt",""
"","bandit","165","855816","0.0-127.0-0.0","47720986","wem/bandit_party_2","A8KZ2Z0OXZM3W","either","5","668","","","","","","","0","0","1","0.4408304524","","0.8","0.2","0.4","0.6","","","","","0.4431594274","0.1365856799","0.04283717318","0.4408304524","","","","","","","","","","76","L","3","","","86","main_expt",""
"","bandit","166","857945","0.0-128.0-0.0","47720986","wem/bandit_party_2","A8KZ2Z0OXZM3W","either","5","608","","","","","","","1","0","0","0.4926691315","","0.8","0.2","0.4","0.6","","","","","0.4135642243","0.1845868617","0.04801612347","0.4926691315","","","","","","","","","","76","L","3","","","87","main_expt",""
"","bandit","167","860100","0.0-129.0-0.0","47720986","wem/bandit_party_2","A8KZ2Z0OXZM3W","either","5","630","","","","","","","0","1","0","","0.6047228172","0.8","0.2","0.4","0.6","0.4785462387","0.2304222619","0.1154775412","0.6047228172","","","","","","","","","","","","","","76","L","3","","","88","main_expt",""
"","bandit","168","862250","0.0-130.0-0.0","47720986","wem/bandit_party_2","A8KZ2Z0OXZM3W","either","5","629","","","","","","","1","0","0","0.5311406509","","0.8","0.2","0.4","0.6","","","","","0.6395163219","0.1408060154","0.1308375778","0.5311406509","","","","","","","","","","76","L","3","","","89","main_expt",""
"","bandit","169","864404","0.0-131.0-0.0","47720986","wem/bandit_party_2","A8KZ2Z0OXZM3W","either","5","631","","","","","","","0","0","1","","0.6262376813","0.8","0.2","0.4","0.6","0.6143207643","0.1870966622","0.07282967421","0.6262376813","","","","","","","","","","","","","","76","L","3","","","90","main_expt",""
"","bandit","170","866576","0.0-132.0-0.0","47720986","wem/bandit_party_2","A8KZ2Z0OXZM3W","either","5","644","","","","","","","1","0","0","0.690423555","","0.8","0.2","0.4","0.6","","","","","0.446485487","0.192698437","0.07599207753","0.690423555","","","","","","","","","","76","L","3","","","91","main_expt",""
"","bandit","171","868717","0.0-133.0-0.0","47720986","wem/bandit_party_2","A8KZ2Z0OXZM3W","either","5","616","","","","","","","1","0","0","0.6517149298","","0.8","0.2","0.4","0.6","","","","","0.5169677416","0.1683480261","0.04323911508","0.6517149298","","","","","","","","","","76","L","3","","","92","main_expt",""
"","bandit","172","870919","0.0-134.0-0.0","47720986","wem/bandit_party_2","A8KZ2Z0OXZM3W","either","5","690","","","","","","","1","0","0","0.5656193004","","0.8","0.2","0.4","0.6","","","","","0.4242737166","0.1330499919","0.04253576945","0.5656193004","","","","","","","","","","76","L","3","","","93","main_expt",""
"","bandit","173","873387","0.0-135.0-0.0","47720986","wem/bandit_party_2","A8KZ2Z0OXZM3W","either","5","960","","","","","","","1","0","0","0.4344563295","","0.8","0.2","0.4","0.6","","","","","0.3479993201","0.1880917327","0.04534385772","0.4344563295","","","","","","","","","","76","L","3","","","94","main_expt",""
"","bandit","174","875596","0.0-136.0-0.0","47720986","wem/bandit_party_2","A8KZ2Z0OXZM3W","either","5","685","","","","","","","1","0","0","0.5651083109","","0.8","0.2","0.4","0.6","","","","","0.3701135783","0.1867575465","0.03318992591","0.5651083109","","","","","","","","","","76","L","3","","","95","main_expt",""
"","bandit","175","877669","0.0-137.0-0.0","47720986","wem/bandit_party_2","A8KZ2Z0OXZM3W","either","5","548","","","","","","","0","0","1","","0.5348041914","0.8","0.2","0.4","0.6","0.3430407586","0.2231999883","0.03408771876","0.5348041914","","","","","","","","","","","","","","76","L","3","","","96","main_expt",""
"","bandit","176","879757","0.0-138.0-0.0","47720986","wem/bandit_party_2","A8KZ2Z0OXZM3W","either","5","578","","","","","","","1","0","0","0.5627844697","","0.8","0.2","0.4","0.6","","","","","0.2876443713","0.2149045243","0.05013144164","0.5627844697","","","","","","","","","","76","L","3","","","97","main_expt",""
"","bandit","177","881906","0.0-139.0-0.0","47720986","wem/bandit_party_2","A8KZ2Z0OXZM3W","either","5","619","","","","","","","0","0","1","0.6177525637","","0.8","0.2","0.4","0.6","","","","","0.3310412313","0.1963416079","0.03739082544","0.6177525637","","","","","","","","","","76","L","3","","","98","main_expt",""
"","bandit","178","884021","0.0-140.0-0.0","47720986","wem/bandit_party_2","A8KZ2Z0OXZM3W","either","5","591","","","","","","","0","1","0","","0.7429557604","0.8","0.2","0.4","0.6","0.3893078888","0.1659387142","0.1018336486","0.7429557604","","","","","","","","","","","","","","76","L","3","","","99","main_expt",""
"","bandit","179","886340","0.0-141.0-0.0","47720986","wem/bandit_party_2","A8KZ2Z0OXZM3W","either","5","779","","","","","","","0","1","0","","0.6717563967","0.8","0.2","0.4","0.6","0.4049224607","0.145948344","0.1398961818","0.6717563967","","","","","","","","","","","","","","76","L","3","","","100","main_expt",""
"","bandit","180","888644","0.0-142.0-0.0","47720986","wem/bandit_party_2","A8KZ2Z0OXZM3W","either","5","795","","","","","","","0","0","1","0.6929666651","","0.8","0.2","0.4","0.6","","","","","0.3259939159","0.1366695263","0.1830356504","0.6929666651","","","","","","","","","","76","L","3","","","101","main_expt",""
"","bandit","181","890860","0.0-143.0-0.0","47720986","wem/bandit_party_2","A8KZ2Z0OXZM3W","either","5","691","","","","","","","1","0","0","0.6827494989","","0.8","0.2","0.4","0.6","","","","","0.3598161211","0.1543059156","0.1396005595","0.6827494989","","","","","","","","","","76","L","3","","","102","main_expt",""
"","bandit","182","893116","0.0-144.0-0.0","47720986","wem/bandit_party_2","A8KZ2Z0OXZM3W","either","5","716","","","","","","","0","0","1","0.7315485361","","0.8","0.2","0.4","0.6","","","","","0.3385951472","0.1484193465","0.0853830874","0.7315485361","","","","","","","","","","76","L","3","","","103","main_expt",""
"","bandit","183","895178","0.0-145.0-0.0","47720986","wem/bandit_party_2","A8KZ2Z0OXZM3W","either","5","539","","","","","","","0","0","1","0.6852971926","","0.8","0.2","0.4","0.6","","","","","0.4881545817","0.1516288854","0.09317924201","0.6852971926","","","","","","","","","","76","L","3","","","104","main_expt",""
"","bandit","184","897207","0.0-146.0-0.0","47720986","wem/bandit_party_2","A8KZ2Z0OXZM3W","either","5","517","","","","","","","1","0","0","0.693594393","","0.8","0.2","0.4","0.6","","","","","0.4790883063","0.1283123627","0.08203708102","0.693594393","","","","","","","","","","76","L","3","","","105","main_expt",""
"","bandit","185","899281","0.0-147.0-0.0","47720986","wem/bandit_party_2","A8KZ2Z0OXZM3W","either","5","553","","","","","","","0","0","1","","0.6101065231","0.8","0.2","0.4","0.6","0.4354998123","0.2016068708","0.07160056992","0.6101065231","","","","","","","","","","","","","","76","L","3","","","106","main_expt",""
"","bandit","186","901266","0.0-148.0-0.0","47720986","wem/bandit_party_2","A8KZ2Z0OXZM3W","either","5","471","","","","","","","0","0","1","","0.2344181992","0.8","0.2","0.4","0.6","0.4789065637","0.2344181992","0.09799112372","0.5549317608","","","","","","","","","","","","","","74","J","1","","","107","main_expt",""
"","bandit","187","903298","0.0-149.0-0.0","47720986","wem/bandit_party_2","A8KZ2Z0OXZM3W","either","5","517","","","","","","","0","0","1","0.2234564856","","0.8","0.2","0.4","0.6","","","","","0.2921896665","0.2234564856","0.1101799882","0.5753690117","","","","","","","","","","74","J","1","","","108","main_expt",""
"","bandit","188","905514","0.0-150.0-0.0","47720986","wem/bandit_party_2","A8KZ2Z0OXZM3W","either","5","695","","","","","","","0","0","1","0.2494485671","","0.8","0.2","0.4","0.6","","","","","0.3545905428","0.2494485671","0.07189968831","0.5748544728","","","","","","","","","","74","J","1","","","109","main_expt",""
"","bandit","189","907735","0.0-151.0-0.0","47720986","wem/bandit_party_2","A8KZ2Z0OXZM3W","either","5","695","","","","","","","0","0","1","","0.06101418375","0.8","0.2","0.4","0.6","0.3110769573","0.2804015825","0.06101418375","0.6473038793","","","","","","","","","","","","","","75","K","2","","","110","main_expt",""
"","bandit","190","909815","0.0-152.0-0.0","47720986","wem/bandit_party_2","A8KZ2Z0OXZM3W","either","5","556","","","","","","","0","0","1","","0.1032726654","0.8","0.2","0.4","0.6","0.3673577619","0.254644275","0.1032726654","0.6296147118","","","","","","","","","","","","","","75","K","2","","","111","main_expt",""
"","bandit","191","911940","0.0-153.0-0.0","47720986","wem/bandit_party_2","A8KZ2Z0OXZM3W","either","5","602","","","","","","","0","0","1","0.1061240248","","0.8","0.2","0.4","0.6","","","","","0.3439961468","0.2686709136","0.1061240248","0.6174722021","","","","","","","","","","75","K","2","","","112","main_expt",""
"","bandit","192","914096","0.0-154.0-0.0","47720986","wem/bandit_party_2","A8KZ2Z0OXZM3W","either","5","634","","","","","","","0","0","1","","0.3389202036","0.8","0.2","0.4","0.6","0.3389202036","0.3211503982","0.1150632514","0.7467975424","","","","","","","","","","","","","","72","H","0","img/none_selected.jpg","","113","main_expt",""
"","bandit","193","916100","0.0-155.0-0.0","47720986","wem/bandit_party_2","A8KZ2Z0OXZM3W","either","5","465","","","","","","","0","0","1","","0.3122185675","0.8","0.2","0.4","0.6","0.3122185675","0.3067152309","0.1491479201","0.7797220863","","","","","","","","","","","","","","72","H","0","img/none_selected.jpg","","114","main_expt",""
"","bandit","194","917984","0.0-156.0-0.0","47720986","wem/bandit_party_2","A8KZ2Z0OXZM3W","either","5","354","","","","","","","1","0","0","0.2431064996","","0.8","0.2","0.4","0.6","","","","","0.2431064996","0.3274584286","0.08304421353","0.8152411921","","","","","","","","","","72","H","0","img/none_selected.jpg","","115","main_expt",""
"","bandit","195","919953","0.0-157.0-0.0","47720986","wem/bandit_party_2","A8KZ2Z0OXZM3W","either","5","455","","","","","","","0","0","1","0.2225404561","","0.8","0.2","0.4","0.6","","","","","0.2225404561","0.2491959293","0.1391191417","0.7362727539","","","","","","","","","","72","H","0","img/none_selected.jpg","","116","main_expt",""
"","bandit","196","922081","0.0-158.0-0.0","47720986","wem/bandit_party_2","A8KZ2Z0OXZM3W","either","5","606","","","","","","","0","0","1","0.2891792411","","0.8","0.2","0.4","0.6","","","","","0.2891792411","0.1425156065","0.1689833708","0.7051771602","","","","","","","","","","72","H","0","img/none_selected.jpg","","117","main_expt",""
"","bandit","197","925790","0.0-159.0-0.0","47720986","wem/bandit_party_2","A8KZ2Z0OXZM3W","either","5","2185","","","","","","","0","0","1","0.3147139712","","0.8","0.2","0.4","0.6","","","","","0.3147139712","0.1550025764","0.1341186766","0.7099604309","","","","","","","","","","72","H","0","img/none_selected.jpg","","118","main_expt",""
"","bandit","198","927834","0.0-160.0-0.0","47720986","wem/bandit_party_2","A8KZ2Z0OXZM3W","either","5","520","","","","","","","0","0","1","","0.1733664784","0.8","0.2","0.4","0.6","0.4890071061","0.1733664784","0.1211065448","0.6633752461","","","","","","","","","","","","","","74","J","1","","","119","main_expt",""
"","bandit","199","929863","0.0-161.0-0.0","47720986","wem/bandit_party_2","A8KZ2Z0OXZM3W","either","5","519","","","","","","","0","0","1","","0.2091577514","0.8","0.2","0.4","0.6","0.5238994176","0.2091577514","0.1317257861","0.6748815414","","","","","","","","","","","","","","74","J","1","","","120","main_expt",""
"","bandit","200","931813","0.0-162.0-0.0","47720986","wem/bandit_party_2","A8KZ2Z0OXZM3W","either","5","426","","","","","","","0","0","1","0.2038206067","","0.8","0.2","0.4","0.6","","","","","0.4821854017","0.2038206067","0.08851148741","0.694041989","","","","","","","","","","74","J","1","","","121","main_expt",""
"","bandit","201","933739","0.0-163.0-0.0","47720986","wem/bandit_party_2","A8KZ2Z0OXZM3W","either","5","417","","","","","","","0","0","1","","0.1313095228","0.8","0.2","0.4","0.6","0.5695824443","0.1646827865","0.1313095228","0.7808088803","","","","","","","","","","","","","","75","K","2","","","122","main_expt",""
"","bandit","202","936428","0.0-164.0-0.0","47720986","wem/bandit_party_2","A8KZ2Z0OXZM3W","either","5","1163","","","","","","","0","0","1","0.1990721176","","0.8","0.2","0.4","0.6","","","","","0.5884468641","0.08951947698","0.1990721176","0.7513243775","","","","","","","","","","75","K","2","","","123","main_expt",""
"","bandit","203","938391","0.0-165.0-0.0","47720986","wem/bandit_party_2","A8KZ2Z0OXZM3W","either","5","435","","","","","","","0","0","1","0.7095593687","","0.8","0.2","0.4","0.6","","","","","0.6578864121","0.09676311751","0.3510587203","0.7095593687","","","","","","","","","","76","L","3","","","124","main_expt",""
"","bandit","204","940518","0.0-166.0-0.0","47720986","wem/bandit_party_2","A8KZ2Z0OXZM3W","either","5","600","","","","","","","0","0","1","0.6464373278","","0.8","0.2","0.4","0.6","","","","","0.6610648035","0.08914634913","0.2829787335","0.6464373278","","","","","","","","","","76","L","3","","","125","main_expt",""
"","bandit","205","942826","0.0-167.0-0.0","47720986","wem/bandit_party_2","A8KZ2Z0OXZM3W","either","5","784","","","","","","","1","0","0","0.69855693","","0.8","0.2","0.4","0.6","","","","","0.6745370829","0.1104844084","0.3253732313","0.69855693","","","","","","","","","","76","L","3","","","126","main_expt",""
"","bandit","206","944976","0.0-168.0-0.0","47720986","wem/bandit_party_2","A8KZ2Z0OXZM3W","either","5","614","","","","","","","0","1","0","","0.6394960802","0.8","0.2","0.4","0.6","0.6357656308","0.1302598269","0.2969307539","0.6394960802","","","","","","","","","","","","","","76","L","3","","","127","main_expt",""
"","bandit","207","947100","0.0-169.0-0.0","47720986","wem/bandit_party_2","A8KZ2Z0OXZM3W","either","5","599","","","","","","","0","0","1","","0.5912569563","0.8","0.2","0.4","0.6","0.6746479632","0.1739983423","0.3862322559","0.5912569563","","","","","","","","","","","","","","76","L","3","","","128","main_expt",""
"","bandit","208","949286","0.0-170.0-0.0","47720986","wem/bandit_party_2","A8KZ2Z0OXZM3W","either","5","660","","","","","","","0","0","1","0.6408154383","","0.8","0.2","0.4","0.6","","","","","0.609360971","0.2144078185","0.3399993615","0.6408154383","","","","","","","","","","76","L","3","","","129","main_expt",""
"","bandit","209","951903","0.0-171.0-0.0","47720986","wem/bandit_party_2","A8KZ2Z0OXZM3W","either","5","1088","","","","","","","0","0","1","0.6160079471","","0.8","0.2","0.4","0.6","","","","","0.5791775941","0.2133227205","0.4343217783","0.6160079471","","","","","","","","","","76","L","3","","","130","main_expt",""
"","bandit","210","954013","0.0-172.0-0.0","47720986","wem/bandit_party_2","A8KZ2Z0OXZM3W","either","5","583","","","","","","","0","0","1","0.4116870082","","0.8","0.2","0.4","0.6","","","","","0.6039133906","0.3009586135","0.4116870082","0.6639311205","","","","","","","","","","75","K","2","","","131","main_expt",""
"","bandit","211","956047","0.0-173.0-0.0","47720986","wem/bandit_party_2","A8KZ2Z0OXZM3W","either","5","506","","","","","","","0","1","0","","0.3235444519","0.8","0.2","0.4","0.6","0.5564977279","0.3257006372","0.3235444519","0.7314418876","","","","","","","","","","","","","","75","K","2","","","132","main_expt",""
"","bandit","212","958124","0.0-174.0-0.0","47720986","wem/bandit_party_2","A8KZ2Z0OXZM3W","either","5","553","","","","","","","0","0","1","","0.4204005917","0.8","0.2","0.4","0.6","0.5453182718","0.3286432436","0.4204005917","0.7343064015","","","","","","","","","","","","","","75","K","2","","","133","main_expt",""
"","bandit","213","960297","0.0-175.0-0.0","47720986","wem/bandit_party_2","A8KZ2Z0OXZM3W","either","5","652","","","","","","","1","0","0","0.5326734174","","0.8","0.2","0.4","0.6","","","","","0.5557967555","0.3343575241","0.5326734174","0.6345074403","","","","","","","","","","75","K","2","","","134","main_expt",""
"","bandit","214","962830","0.0-176.0-0.0","47720986","wem/bandit_party_2","A8KZ2Z0OXZM3W","either","5","1007","","","","","","","0","0","1","","0.6096825818","0.8","0.2","0.4","0.6","0.5719827955","0.2917270645","0.6096825818","0.752921597","","","","","","","","","","","","","","75","K","2","","","135","main_expt",""
"","bandit","215","965011","0.0-177.0-0.0","47720986","wem/bandit_party_2","A8KZ2Z0OXZM3W","either","5","657","","","","","","","1","0","0","0.6827328332","","0.8","0.2","0.4","0.6","","","","","0.4756276611","0.3972485531","0.6827328332","0.7642539739","","","","","","","","","","75","K","2","","","136","main_expt",""
"","bandit","216","967507","0.0-178.0-0.0","47720986","wem/bandit_party_2","A8KZ2Z0OXZM3W","either","5","972","","","","","","","0","0","1","0.6604068036","","0.8","0.2","0.4","0.6","","","","","0.5078949877","0.4294090248","0.6604068036","0.7166238274","","","","","","","","","","75","K","2","","","137","main_expt",""
"","bandit","217","969783","0.0-179.0-0.0","47720986","wem/bandit_party_2","A8KZ2Z0OXZM3W","either","5","750","","","","","","","0","1","0","","0.653661868","0.8","0.2","0.4","0.6","0.4938131475","0.5009988565","0.653661868","0.713549589","","","","","","","","","","","","","","75","K","2","","","138","main_expt",""
"","bandit","218","972099","0.0-180.0-0.0","47720986","wem/bandit_party_2","A8KZ2Z0OXZM3W","either","5","807","","","","","","","0","1","0","","0.6169918179","0.8","0.2","0.4","0.6","0.654612375","0.4993746949","0.6169918179","0.6905374229","","","","","","","","","","","","","","75","K","2","","","139","main_expt",""
"","bandit","219","974295","0.0-181.0-0.0","47720986","wem/bandit_party_2","A8KZ2Z0OXZM3W","either","5","685","","","","","","","1","0","0","0.6657435074","","0.8","0.2","0.4","0.6","","","","","0.52663091","0.5448973659","0.6657435074","0.6614813372","","","","","","","","","","75","K","2","","","140","main_expt",""
"","bandit","220","976471","0.0-182.0-0.0","47720986","wem/bandit_party_2","A8KZ2Z0OXZM3W","either","5","650","","","","","","","0","1","0","","0.6349341703","0.8","0.2","0.4","0.6","0.5976356642","0.4829720837","0.6349341703","0.7024355817","","","","","","","","","","","","","","75","K","2","","","141","main_expt",""
"","bandit","221","978640","0.0-183.0-0.0","47720986","wem/bandit_party_2","A8KZ2Z0OXZM3W","either","5","654","","","","","","","1","0","0","0.6379356982","","0.8","0.2","0.4","0.6","","","","","0.5956183516","0.5402580016","0.6379356982","0.7185929435","","","","","","","","","","75","K","2","","","142","main_expt",""
"","bandit","222","980913","0.0-184.0-0.0","47720986","wem/bandit_party_2","A8KZ2Z0OXZM3W","either","5","745","","","","","","","1","0","0","0.6022688156","","0.8","0.2","0.4","0.6","","","","","0.6432894639","0.5478015274","0.6022688156","0.6240660549","","","","","","","","","","75","K","2","","","143","main_expt",""
"","bandit","223","983210","0.0-185.0-0.0","47720986","wem/bandit_party_2","A8KZ2Z0OXZM3W","either","5","772","","","","","","","0","0","1","0.5806731621","","0.8","0.2","0.4","0.6","","","","","0.6691106198","0.5189832842","0.5806731621","0.5797935966","","","","","","","","","","75","K","2","","","144","main_expt",""
"","bandit","224","985378","0.0-186.0-0.0","47720986","wem/bandit_party_2","A8KZ2Z0OXZM3W","either","5","644","","","","","","","0","0","1","","0.5512406412","0.8","0.2","0.4","0.6","0.677031803","0.4556604905","0.5512406412","0.520403766","","","","","","","","","","","","","","75","K","2","","","145","main_expt",""
"","bandit","225","987721","0.0-187.0-0.0","47720986","wem/bandit_party_2","A8KZ2Z0OXZM3W","either","5","805","","","","","","","0","0","1","","0.6055708535","0.8","0.2","0.4","0.6","0.6697886415","0.48011385","0.6055708535","0.5330345992","","","","","","","","","","","","","","75","K","2","","","146","main_expt",""
"","bandit","226","990046","0.0-188.0-0.0","47720986","wem/bandit_party_2","A8KZ2Z0OXZM3W","either","5","800","","","","","","","0","1","0","","0.5711328773","0.8","0.2","0.4","0.6","0.7101623398","0.5363471167","0.5711328773","0.5692896821","","","","","","","","","","","","","","75","K","2","","","147","main_expt",""
"","bandit","227","992244","0.0-189.0-0.0","47720986","wem/bandit_party_2","A8KZ2Z0OXZM3W","either","5","672","","","","","","","0","0","1","","0.4258462921","0.8","0.2","0.4","0.6","0.733230793","0.4929714004","0.4258462921","0.4877368026","","","","","","","","","","","","","","75","K","2","","","148","main_expt",""
"","bandit","228","994693","0.0-190.0-0.0","47720986","wem/bandit_party_2","A8KZ2Z0OXZM3W","either","5","923","","","","","","","0","0","1","","0.327967402","0.8","0.2","0.4","0.6","0.7010449773","0.4356177925","0.327967402","0.5936336812","","","","","","","","","","","","","","75","K","2","","","149","main_expt",""
"","bandit","229","997018","0.0-191.0-0.0","47720986","wem/bandit_party_2","A8KZ2Z0OXZM3W","either","5","801","","","","","","","0","0","1","","0.4054894896","0.8","0.2","0.4","0.6","0.6668672445","0.4054894896","0.4343474627","0.7027445866","","","","","","","","","","","","","","74","J","1","","","150","main_expt",""
"","bandit","230","999113","0.0-192.0-0.0","47720986","wem/bandit_party_2","A8KZ2Z0OXZM3W","either","5","583","","","","","","","0","1","0","","0.5283130311","0.8","0.2","0.4","0.6","0.5612636021","0.5283130311","0.5382828223","0.7690633033","","","","","","","","","","","","","","74","J","1","","","151","main_expt",""
"","bandit","231","1001289","0.0-193.0-0.0","47720986","wem/bandit_party_2","A8KZ2Z0OXZM3W","either","5","651","","","","","","","0","1","0","","0.6323123958","0.8","0.2","0.4","0.6","0.7032448324","0.6323123958","0.6572277468","0.5989969619","","","","","","","","","","","","","","74","J","1","","","152","main_expt",""
"","bandit","232","1003458","0.0-194.0-0.0","47720986","wem/bandit_party_2","A8KZ2Z0OXZM3W","either","5","645","","","","","","","0","0","1","","0.5847243132","0.8","0.2","0.4","0.6","0.6918543646","0.5847243132","0.668560183","0.6126787421","","","","","","","","","","","","","","74","J","1","","","153","main_expt",""
"","bandit","233","1005668","0.0-195.0-0.0","47720986","wem/bandit_party_2","A8KZ2Z0OXZM3W","either","5","686","","","","","","","0","1","0","","0.4285456013","0.8","0.2","0.4","0.6","0.647195156","0.4285456013","0.6954524596","0.5461115941","","","","","","","","","","","","","","74","J","1","","","154","main_expt",""
"","bandit","234","1007877","0.0-196.0-0.0","47720986","wem/bandit_party_2","A8KZ2Z0OXZM3W","either","5","685","","","","","","","0","1","0","","0.4772645207","0.8","0.2","0.4","0.6","0.6135998722","0.4772645207","0.5684527538","0.5456348337","","","","","","","","","","","","","","74","J","1","","","155","main_expt",""
"","bandit","235","1010108","0.0-197.0-0.0","47720986","wem/bandit_party_2","A8KZ2Z0OXZM3W","either","5","706","","","","","","","0","1","0","","0.4982711843","0.8","0.2","0.4","0.6","0.5591033916","0.4982711843","0.6034375159","0.4782917504","","","","","","","","","","","","","","74","J","1","","","156","main_expt",""
"","bandit","236","1012255","0.0-198.0-0.0","47720986","wem/bandit_party_2","A8KZ2Z0OXZM3W","either","5","621","","","","","","","0","1","0","","0.5275183668","0.8","0.2","0.4","0.6","0.5090787948","0.5275183668","0.5835723018","0.4868537485","","","","","","","","","","","","","","74","J","1","","","157","main_expt",""
"","bandit","237","1014439","0.0-199.0-0.0","47720986","wem/bandit_party_2","A8KZ2Z0OXZM3W","either","5","657","","","","","","","0","0","1","","0.4489423754","0.8","0.2","0.4","0.6","0.6087372924","0.4489423754","0.5234712835","0.5361642224","","","","","","","","","","","","","","74","J","1","","","158","main_expt",""
"","bandit","238","1016639","0.0-200.0-0.0","47720986","wem/bandit_party_2","A8KZ2Z0OXZM3W","either","5","686","","","","","","","0","0","1","","0.4933275403","0.8","0.2","0.4","0.6","0.6064578463","0.4933275403","0.5636881177","0.4947944436","","","","","","","","","","","","","","74","J","1","","","159","main_expt",""
"","bandit","239","1018899","0.0-201.0-0.0","47720986","wem/bandit_party_2","A8KZ2Z0OXZM3W","either","5","735","","","","","","","0","1","0","","0.4521998099","0.8","0.2","0.4","0.6","0.6951258233","0.4521998099","0.4785340868","0.5106889885","","","","","","","","","","","","","","74","J","1","","","160","main_expt",""
"","bandit","240","1021253","0.0-202.0-0.0","47720986","wem/bandit_party_2","A8KZ2Z0OXZM3W","either","5","843","","","","","","","0","1","0","","0.5114636712","0.8","0.2","0.4","0.6","0.7129510734","0.5114636712","0.5038962889","0.4566704777","","","","","","","","","","","","","","74","J","1","","","161","main_expt",""
"","bandit","241","1023444","0.0-203.0-0.0","47720986","wem/bandit_party_2","A8KZ2Z0OXZM3W","either","5","681","","","","","","","0","0","1","","0.5242674757","0.8","0.2","0.4","0.6","0.7028034005","0.5242674757","0.4448395692","0.3259271754","","","","","","","","","","","","","","74","J","1","","","162","main_expt",""
"","bandit","242","1025641","0.0-204.0-0.0","47720986","wem/bandit_party_2","A8KZ2Z0OXZM3W","either","5","683","","","","","","","0","1","0","","0.5687322637","0.8","0.2","0.4","0.6","0.6293758899","0.5687322637","0.471982621","0.2806734392","","","","","","","","","","","","","","74","J","1","","","163","main_expt",""
"","bandit","243","1027954","0.0-205.0-0.0","47720986","wem/bandit_party_2","A8KZ2Z0OXZM3W","either","5","797","","","","","","","0","1","0","","0.5635146256","0.8","0.2","0.4","0.6","0.6813427096","0.5635146256","0.6517066897","0.2973163189","","","","","","","","","","","","","","74","J","1","","","164","main_expt",""
"","bandit","244","1030255","0.0-206.0-0.0","47720986","wem/bandit_party_2","A8KZ2Z0OXZM3W","either","5","775","","","","","","","0","1","0","","0.6588968294","0.8","0.2","0.4","0.6","0.7231406025","0.6588968294","0.6339143586","0.2872552927","","","","","","","","","","","","","","74","J","1","","","165","main_expt",""
"","bandit","245","1032453","0.0-207.0-0.0","47720986","wem/bandit_party_2","A8KZ2Z0OXZM3W","either","5","672","","","","","","","1","0","0","0.74872254","","0.8","0.2","0.4","0.6","","","","","0.6274448994","0.74872254","0.6507743373","0.325395791","","","","","","","","","","74","J","1","","","166","main_expt",""
"","bandit","246","1034622","0.0-208.0-0.0","47720986","wem/bandit_party_2","A8KZ2Z0OXZM3W","either","5","642","","","","","","","0","0","1","","0.7741304825","0.8","0.2","0.4","0.6","0.6778384319","0.7741304825","0.6753437353","0.3307719744","","","","","","","","","","","","","","74","J","1","","","167","main_expt",""
"","bandit","247","1037044","0.0-209.0-0.0","47720986","wem/bandit_party_2","A8KZ2Z0OXZM3W","either","5","896","","","","","","","1","0","0","0.8873722237","","0.8","0.2","0.4","0.6","","","","","0.6928942004","0.8873722237","0.6308788189","0.4033689778","","","","","","","","","","74","J","1","","","168","main_expt",""
"","bandit","248","1039217","0.0-210.0-0.0","47720986","wem/bandit_party_2","A8KZ2Z0OXZM3W","either","5","644","","","","","","","0","1","0","","0.8649989169","0.8","0.2","0.4","0.6","0.6181376835","0.8649989169","0.6289357746","0.4089274666","","","","","","","","","","","","","","74","J","1","","","169","main_expt",""
"","bandit","249","1041412","0.0-211.0-0.0","47720986","wem/bandit_party_2","A8KZ2Z0OXZM3W","either","5","669","","","","","","","0","1","0","","0.8634323334","0.8","0.2","0.4","0.6","0.6539136718","0.8634323334","0.6308829817","0.4033631647","","","","","","","","","","","","","","74","J","1","","","170","main_expt",""
"","bandit","250","1043546","0.0-212.0-0.0","47720986","wem/bandit_party_2","A8KZ2Z0OXZM3W","either","5","611","","","","","","","0","0","1","0.8050812792","","0.8","0.2","0.4","0.6","","","","","0.7935188527","0.8050812792","0.6008061885","0.3743415885","","","","","","","","","","74","J","1","","","171","main_expt",""
"","bandit","251","1045753","0.0-213.0-0.0","47720986","wem/bandit_party_2","A8KZ2Z0OXZM3W","either","5","679","","","","","","","0","1","0","","0.7635000848","0.8","0.2","0.4","0.6","0.7959482017","0.7635000848","0.6498855282","0.4145867416","","","","","","","","","","","","","","74","J","1","","","172","main_expt",""
"","bandit","252","1047985","0.0-214.0-0.0","47720986","wem/bandit_party_2","A8KZ2Z0OXZM3W","either","5","706","","","","","","","0","1","0","","0.7793560846","0.8","0.2","0.4","0.6","0.7720377381","0.7793560846","0.6361658802","0.4421490518","","","","","","","","","","","","","","74","J","1","","","173","main_expt",""
"","bandit","253","1050203","0.0-215.0-0.0","47720986","wem/bandit_party_2","A8KZ2Z0OXZM3W","either","5","709","","","","","","","0","1","0","","0.7290013271","0.8","0.2","0.4","0.6","0.7751150559","0.7290013271","0.5494915933","0.373112653","","","","","","","","","","","","","","74","J","1","","","174","main_expt",""
"","bandit","254","1052543","0.0-216.0-0.0","47720986","wem/bandit_party_2","A8KZ2Z0OXZM3W","either","5","812","","","","","","","0","1","0","","0.8353873757","0.8","0.2","0.4","0.6","0.7699246652","0.8353873757","0.6292002022","0.372221374","","","","","","","","","","","","","","74","J","1","","","175","main_expt",""
"","bandit","255","1054845","0.0-217.0-0.0","47720986","wem/bandit_party_2","A8KZ2Z0OXZM3W","either","5","767","","","","","","","0","0","1","","0.8589437223","0.8","0.2","0.4","0.6","0.8092821718","0.8589437223","0.4999600136","0.3594456443","","","","","","","","","","","","","","74","J","1","","","176","main_expt",""
"","bandit","256","1057079","0.0-218.0-0.0","47720986","wem/bandit_party_2","A8KZ2Z0OXZM3W","either","5","706","","","","","","","0","1","0","","0.8824379228","0.8","0.2","0.4","0.6","0.7728258073","0.8824379228","0.4500304274","0.3705823864","","","","","","","","","","","","","","74","J","1","","","177","main_expt",""
"","bandit","257","1059283","0.0-219.0-0.0","47720986","wem/bandit_party_2","A8KZ2Z0OXZM3W","either","5","680","","","","","","","0","1","0","","0.8862787626","0.8","0.2","0.4","0.6","0.8128952128","0.8862787626","0.4626099748","0.3042584581","","","","","","","","","","","","","","74","J","1","","","178","main_expt",""
"","bandit","258","1061673","0.0-220.0-0.0","47720986","wem/bandit_party_2","A8KZ2Z0OXZM3W","either","5","878","","","","","","","0","1","0","","0.8851661012","0.8","0.2","0.4","0.6","0.7878088044","0.8851661012","0.3074659707","0.3056645996","","","","","","","","","","","","","","74","J","1","","","179","main_expt",""
"","bandit","259","1063892","0.0-221.0-0.0","47720986","wem/bandit_party_2","A8KZ2Z0OXZM3W","either","5","693","","","","","","","0","1","0","","0.8623840347","0.8","0.2","0.4","0.6","0.7626215198","0.8623840347","0.2445312817","0.3124458775","","","","","","","","","","","","","","74","J","1","","","180","main_expt",""
"","bandit","260","1066226","0.0-222.0-0.0","47720986","wem/bandit_party_2","A8KZ2Z0OXZM3W","either","5","811","","","","","","","0","1","0","","0.8815853427","0.8","0.2","0.4","0.6","0.7059637017","0.8815853427","0.2284870313","0.2597333415","","","","","","","","","","","","","","74","J","1","","","181","main_expt",""
"","bandit","261","1068476","0.0-223.0-0.0","47720986","wem/bandit_party_2","A8KZ2Z0OXZM3W","either","5","724","","","","","","","0","1","0","","0.8955826305","0.8","0.2","0.4","0.6","0.6691747745","0.8955826305","0.2195648065","0.2117009826","","","","","","","","","","","","","","74","J","1","","","182","main_expt",""
"","bandit","262","1070981","0.0-224.0-0.0","47720986","wem/bandit_party_2","A8KZ2Z0OXZM3W","either","5","979","","","","","","","0","1","0","","0.9362873759","0.8","0.2","0.4","0.6","0.5523838876","0.9362873759","0.2327716204","0.2327762041","","","","","","","","","","","","","","74","J","1","","","183","main_expt",""
"","bandit","263","1073259","0.0-225.0-0.0","47720986","wem/bandit_party_2","A8KZ2Z0OXZM3W","either","5","752","","","","","","","0","1","0","","0.9484326647","0.8","0.2","0.4","0.6","0.5451875246","0.9484326647","0.3207903029","0.2750618684","","","","","","","","","","","","","","74","J","1","","","184","main_expt",""
"","bandit","264","1075678","0.0-226.0-0.0","47720986","wem/bandit_party_2","A8KZ2Z0OXZM3W","either","5","894","","","","","","","1","0","0","0.9660783121","","0.8","0.2","0.4","0.6","","","","","0.6090771744","0.9660783121","0.3609723674","0.2305846964","","","","","","","","","","74","J","1","","","185","main_expt",""
"","bandit","265","1078410","0.0-227.0-0.0","47720986","wem/bandit_party_2","A8KZ2Z0OXZM3W","either","5","1219","","","","","","","0","1","0","","0.9665376101","0.8","0.2","0.4","0.6","0.5810996076","0.9665376101","0.4442397518","0.2597669424","","","","","","","","","","","","","","74","J","1","","","186","main_expt",""
"","bandit","266","1080767","0.0-228.0-0.0","47720986","wem/bandit_party_2","A8KZ2Z0OXZM3W","either","5","832","","","","","","","0","1","0","","0.9644184371","0.8","0.2","0.4","0.6","0.4445572548","0.9644184371","0.4478442549","0.2143742246","","","","","","","","","","","","","","74","J","1","","","187","main_expt",""
"","bandit","267","1082935","0.0-229.0-0.0","47720986","wem/bandit_party_2","A8KZ2Z0OXZM3W","either","5","656","","","","","","","0","1","0","","0.9731237162","0.8","0.2","0.4","0.6","0.4113554433","0.9731237162","0.4026396634","0.2294707647","","","","","","","","","","","","","","74","J","1","","","188","main_expt",""
"","bandit","268","1085092","0.0-230.0-0.0","47720986","wem/bandit_party_2","A8KZ2Z0OXZM3W","either","5","633","","","","","","","0","1","0","","0.9787475226","0.8","0.2","0.4","0.6","0.4053553249","0.9787475226","0.5072589837","0.2469430613","","","","","","","","","","","","","","74","J","1","","","189","main_expt",""
"","bandit","269","1087285","0.0-231.0-0.0","47720986","wem/bandit_party_2","A8KZ2Z0OXZM3W","either","5","667","","","","","","","0","0","1","0.9847816181","","0.8","0.2","0.4","0.6","","","","","0.4927633492","0.9847816181","0.5234843415","0.2437728268","","","","","","","","","","74","J","1","","","190","main_expt",""
"","bandit","270","1089385","0.0-232.0-0.0","47720986","wem/bandit_party_2","A8KZ2Z0OXZM3W","either","5","576","","","","","","","0","1","0","","0.9713064587","0.8","0.2","0.4","0.6","0.428678546","0.9713064587","0.5054414672","0.1655579887","","","","","","","","","","","","","","74","J","1","","","191","main_expt",""
"","bandit","271","1091704","0.0-233.0-0.0","47720986","wem/bandit_party_2","A8KZ2Z0OXZM3W","either","5","805","","","","","","","0","1","0","","0.9558555722","0.8","0.2","0.4","0.6","0.3358015867","0.9558555722","0.7037613703","0.1501427492","","","","","","","","","","","","","","74","J","1","","","192","main_expt",""
"","bandit","272","1093858","0.0-234.0-0.0","47720986","wem/bandit_party_2","A8KZ2Z0OXZM3W","either","5","629","","","","","","","0","1","0","","0.9443800135","0.8","0.2","0.4","0.6","0.2816430679","0.9443800135","0.5980286963","0.2062706367","","","","","","","","","","","","","","74","J","1","","","193","main_expt",""
"","bandit","273","1096047","0.0-235.0-0.0","47720986","wem/bandit_party_2","A8KZ2Z0OXZM3W","either","5","660","","","","","","","0","0","1","0.947825408","","0.8","0.2","0.4","0.6","","","","","0.2951519504","0.947825408","0.5607231578","0.2782937815","","","","","","","","","","74","J","1","","","194","main_expt",""
"","bandit","274","1098238","0.0-236.0-0.0","47720986","wem/bandit_party_2","A8KZ2Z0OXZM3W","either","5","664","","","","","","","0","1","0","","0.9531013361","0.8","0.2","0.4","0.6","0.2482291913","0.9531013361","0.6222063369","0.2393938873","","","","","","","","","","","","","","74","J","1","","","195","main_expt",""
"","bandit","275","1100397","0.0-237.0-0.0","47720986","wem/bandit_party_2","A8KZ2Z0OXZM3W","either","5","648","","","","","","","1","0","0","0.9653581558","","0.8","0.2","0.4","0.6","","","","","0.2548661126","0.9653581558","0.7092042058","0.3385483064","","","","","","","","","","74","J","1","","","196","main_expt",""
"","bandit","276","1102637","0.0-238.0-0.0","47720986","wem/bandit_party_2","A8KZ2Z0OXZM3W","either","5","712","","","","","","","0","1","0","","0.9774234012","0.8","0.2","0.4","0.6","0.2789697966","0.9774234012","0.7397780251","0.3474357388","","","","","","","","","","","","","","74","J","1","","","197","main_expt",""
"","bandit","277","1104845","0.0-239.0-0.0","47720986","wem/bandit_party_2","A8KZ2Z0OXZM3W","either","5","682","","","","","","","0","1","0","","0.9866112083","0.8","0.2","0.4","0.6","0.2893473624","0.9866112083","0.6977166648","0.4511600961","","","","","","","","","","","","","","74","J","1","","","198","main_expt",""
"","bandit","278","1107093","0.0-240.0-0.0","47720986","wem/bandit_party_2","A8KZ2Z0OXZM3W","either","5","724","","","","","","","0","1","0","","0.9889390623","0.8","0.2","0.4","0.6","0.2499124536","0.9889390623","0.591703898","0.4387406867","","","","","","","","","","","","","","74","J","1","","","199","main_expt",""
"","bandit","279","1109491","0.0-241.0-0.0","47720986","wem/bandit_party_2","A8KZ2Z0OXZM3W","either","5","872","","","","","","","0","1","0","","0.9894921125","0.8","0.2","0.4","0.6","0.2643429758","0.9894921125","0.5107967375","0.4368135332","","","","","","","","","","","","","","74","J","1","","","200","main_expt",""
"","bandit","280","1111771","0.0-242.0-0.0","47720986","wem/bandit_party_2","A8KZ2Z0OXZM3W","either","5","756","","","","","","","0","1","0","","0.989248002","0.8","0.2","0.4","0.6","0.2382870841","0.989248002","0.6528148869","0.3070084091","","","","","","","","","","","","","","74","J","1","","","201","main_expt",""
"","bandit","281","1114075","0.0-243.0-0.0","47720986","wem/bandit_party_2","A8KZ2Z0OXZM3W","either","5","778","","","","","","","1","0","0","0.9957983392","","0.8","0.2","0.4","0.6","","","","","0.1604624283","0.9957983392","0.6892998309","0.3603585946","","","","","","","","","","74","J","1","","","202","main_expt",""
"","bandit","282","1116718","0.0-244.0-0.0","47720986","wem/bandit_party_2","A8KZ2Z0OXZM3W","either","5","1116","","","","","","","1","0","0","0.9958893","","0.8","0.2","0.4","0.6","","","","","0.1407610566","0.9958893","0.6989476798","0.260320329","","","","","","","","","","74","J","1","","","203","main_expt",""
"","bandit","283","1119050","0.0-245.0-0.0","47720986","wem/bandit_party_2","A8KZ2Z0OXZM3W","either","5","793","","","","","","","0","1","0","","0.9955962674","0.8","0.2","0.4","0.6","0.1343245238","0.9955962674","0.772264117","0.2003029851","","","","","","","","","","","","","","74","J","1","","","204","main_expt",""
"","bandit","284","1121397","0.0-246.0-0.0","47720986","wem/bandit_party_2","A8KZ2Z0OXZM3W","either","5","822","","","","","","","0","1","0","","0.9943432705","0.8","0.2","0.4","0.6","0.1715400642","0.9943432705","0.7366863645","0.1922312923","","","","","","","","","","","","","","74","J","1","","","205","main_expt",""
"","bandit","285","1123688","0.0-247.0-0.0","47720986","wem/bandit_party_2","A8KZ2Z0OXZM3W","either","5","762","","","","","","","0","1","0","","0.9982320458","0.8","0.2","0.4","0.6","0.117617648","0.9982320458","0.7477287432","0.1936085521","","","","","","","","","","","","","","74","J","1","","","206","main_expt",""
"","bandit","286","1126114","0.0-248.0-0.0","47720986","wem/bandit_party_2","A8KZ2Z0OXZM3W","either","5","902","","","","","","","0","1","0","","0.9976530308","0.8","0.2","0.4","0.6","0.1182717864","0.9976530308","0.8185776196","0.1821705986","","","","","","","","","","","","","","74","J","1","","","207","main_expt",""
"","bandit","287","1128478","0.0-249.0-0.0","47720986","wem/bandit_party_2","A8KZ2Z0OXZM3W","either","5","850","","","","","","","1","0","0","0.9961811318","","0.8","0.2","0.4","0.6","","","","","0.1445047472","0.9961811318","0.8161769506","0.1145050302","","","","","","","","","","74","J","1","","","208","main_expt",""
"","bandit","288","1130861","0.0-250.0-0.0","47720986","wem/bandit_party_2","A8KZ2Z0OXZM3W","either","5","857","","","","","","","0","1","0","","0.9977639941","0.8","0.2","0.4","0.6","0.1264159314","0.9977639941","0.8224464957","0.1206637037","","","","","","","","","","","","","","74","J","1","","","209","main_expt",""
"","bandit","289","1133283","0.0-251.0-0.0","47720986","wem/bandit_party_2","A8KZ2Z0OXZM3W","either","5","897","","","","","","","0","1","0","","0.9953783407","0.8","0.2","0.4","0.6","0.1208777168","0.9953783407","0.7392866018","0.1422927172","","","","","","","","","","","","","","74","J","1","","","210","main_expt",""
"","bandit","290","1135618","0.0-252.0-0.0","47720986","wem/bandit_party_2","A8KZ2Z0OXZM3W","either","5","809","","","","","","","1","0","0","0.9976351195","","0.8","0.2","0.4","0.6","","","","","0.1733448518","0.9976351195","0.7125411919","0.1811219169","","","","","","","","","","74","J","1","","","211","main_expt",""
"","bandit","291","1137955","0.0-253.0-0.0","47720986","wem/bandit_party_2","A8KZ2Z0OXZM3W","either","5","823","","","","","","","0","1","0","","0.9983589292","0.8","0.2","0.4","0.6","0.1085262221","0.9983589292","0.7191881067","0.1982527665","","","","","","","","","","","","","","74","J","1","","","212","main_expt",""
"","bandit","292","1140390","0.0-254.0-0.0","47720986","wem/bandit_party_2","A8KZ2Z0OXZM3W","either","5","923","","","","","","","0","1","0","","0.9960427138","0.8","0.2","0.4","0.6","0.08145678985","0.9960427138","0.7523845147","0.124448309","","","","","","","","","","","","","","74","J","1","","","213","main_expt",""
"","bandit","293","1142547","0.0-255.0-0.0","47720986","wem/bandit_party_2","A8KZ2Z0OXZM3W","either","5","633","","","","","","","1","0","0","0.9924650588","","0.8","0.2","0.4","0.6","","","","","0.05725631888","0.9924650588","0.7193420906","0.1036015692","","","","","","","","","","74","J","1","","","214","main_expt",""
"","bandit","294","1144859","0.0-256.0-0.0","47720986","wem/bandit_party_2","A8KZ2Z0OXZM3W","either","5","794","","","","","","","0","0","1","","0.9858211903","0.8","0.2","0.4","0.6","0.04356988172","0.9858211903","0.6784461291","0.14458031","","","","","","","","","","","","","","74","J","1","","","215","main_expt",""
"","bandit","295","1146968","0.0-257.0-0.0","47720986","wem/bandit_party_2","A8KZ2Z0OXZM3W","either","5","596","","","","","","","0","1","0","","0.9915289077","0.8","0.2","0.4","0.6","0.04316154837","0.9915289077","0.5658185063","0.2094876981","","","","","","","","","","","","","","74","J","1","","","216","main_expt",""
"","bandit","296","1149270","0.0-258.0-0.0","47720986","wem/bandit_party_2","A8KZ2Z0OXZM3W","either","5","774","","","","","","","0","1","0","","0.9929544916","0.8","0.2","0.4","0.6","0.03453558383","0.9929544916","0.4886301847","0.24936904","","","","","","","","","","","","","","74","J","1","","","217","main_expt",""
"","bandit","297","1151783","0.0-259.0-0.0","47720986","wem/bandit_party_2","A8KZ2Z0OXZM3W","either","5","986","","","","","","","1","0","0","0.9741721496","","0.8","0.2","0.4","0.6","","","","","0.03800932399","0.9741721496","0.5674985979","0.2006789107","","","","","","","","","","74","J","1","","","218","main_expt",""
"","bandit","298","1154155","0.0-260.0-0.0","47720986","wem/bandit_party_2","A8KZ2Z0OXZM3W","either","5","847","","","","","","","0","1","0","","0.9413517393","0.8","0.2","0.4","0.6","0.07914639327","0.9413517393","0.6088772151","0.2118480588","","","","","","","","","","","","","","74","J","1","","","219","main_expt",""
"","bandit","299","1156372","0.0-261.0-0.0","47720986","wem/bandit_party_2","A8KZ2Z0OXZM3W","either","5","691","","","","","","","0","1","0","","0.9230346446","0.8","0.2","0.4","0.6","0.07044987786","0.9230346446","0.5856238885","0.2159213458","","","","","","","","","","","","","","74","J","1","","","220","main_expt",""
"","bandit","300","1158509","0.0-262.0-0.0","47720986","wem/bandit_party_2","A8KZ2Z0OXZM3W","either","5","610","","","","","","","0","0","1","","0.9216350241","0.8","0.2","0.4","0.6","0.1351506501","0.9216350241","0.6601978635","0.2097338805","","","","","","","","","","","","","","74","J","1","","","221","main_expt",""
"","bandit","301","1160640","0.0-263.0-0.0","47720986","wem/bandit_party_2","A8KZ2Z0OXZM3W","either","5","616","","","","","","","0","1","0","","0.9093406134","0.8","0.2","0.4","0.6","0.2099108548","0.9093406134","0.6540659739","0.1468233299","","","","","","","","","","","","","","74","J","1","","","222","main_expt",""
"","bandit","302","1163030","0.0-264.0-0.0","47720986","wem/bandit_party_2","A8KZ2Z0OXZM3W","either","5","877","","","","","","","0","0","1","","0.8361447498","0.8","0.2","0.4","0.6","0.2971693323","0.8361447498","0.7010542315","0.1379540926","","","","","","","","","","","","","","74","J","1","","","223","main_expt",""
"","bandit","303","1165189","0.0-265.0-0.0","47720986","wem/bandit_party_2","A8KZ2Z0OXZM3W","either","5","632","","","","","","","0","1","0","","0.8626161161","0.8","0.2","0.4","0.6","0.2754671199","0.8626161161","0.7972730751","0.1943723139","","","","","","","","","","","","","","74","J","1","","","224","main_expt",""
"","bandit","304","1167419","0.0-266.0-0.0","47720986","wem/bandit_party_2","A8KZ2Z0OXZM3W","either","5","703","","","","","","","0","1","0","","0.9176165053","0.8","0.2","0.4","0.6","0.2483133052","0.9176165053","0.8726314772","0.2949344278","","","","","","","","","","","","","","74","J","1","","","225","main_expt",""
"","bandit","305","1169577","0.0-267.0-0.0","47720986","wem/bandit_party_2","A8KZ2Z0OXZM3W","either","5","643","","","","","","","0","1","0","","0.9516545376","0.8","0.2","0.4","0.6","0.2945032007","0.9516545376","0.8569150835","0.4040967375","","","","","","","","","","","","","","74","J","1","","","226","main_expt",""
"","bandit","306","1171771","0.0-268.0-0.0","47720986","wem/bandit_party_2","A8KZ2Z0OXZM3W","either","5","679","","","","","","","1","0","0","0.9448551655","","0.8","0.2","0.4","0.6","","","","","0.2544933329","0.9448551655","0.8773762417","0.4369809926","","","","","","","","","","74","J","1","","","227","main_expt",""
"","bandit","307","1174146","0.0-269.0-0.0","47720986","wem/bandit_party_2","A8KZ2Z0OXZM3W","either","5","851","","","","","","","0","1","0","","0.9298030406","0.8","0.2","0.4","0.6","0.22227057","0.9298030406","0.8514828757","0.4228749262","","","","","","","","","","","","","","74","J","1","","","228","main_expt",""
"","bandit","308","1176357","0.0-270.0-0.0","47720986","wem/bandit_party_2","A8KZ2Z0OXZM3W","either","5","699","","","","","","","0","1","0","","0.9022116856","0.8","0.2","0.4","0.6","0.2319557967","0.9022116856","0.893786405","0.4953143479","","","","","","","","","","","","","","74","J","1","","","229","main_expt",""
"","bandit","309","1178607","0.0-271.0-0.0","47720986","wem/bandit_party_2","A8KZ2Z0OXZM3W","either","5","737","","","","","","","0","1","0","","0.8934587516","0.8","0.2","0.4","0.6","0.3107577299","0.8934587516","0.9350514117","0.4752889979","","","","","","","","","","","","","","74","J","1","","","230","main_expt",""
"","bandit","310","1180836","0.0-272.0-0.0","47720986","wem/bandit_party_2","A8KZ2Z0OXZM3W","either","5","704","","","","","","","0","1","0","","0.8403693225","0.8","0.2","0.4","0.6","0.3046703461","0.8403693225","0.9139197991","0.4887049862","","","","","","","","","","","","","","74","J","1","","","231","main_expt",""
"","bandit","311","1183177","0.0-273.0-0.0","47720986","wem/bandit_party_2","A8KZ2Z0OXZM3W","either","5","825","","","","","","","0","0","1","","0.7373772703","0.8","0.2","0.4","0.6","0.4259459217","0.7373772703","0.8753904063","0.6065944358","","","","","","","","","","","","","","74","J","1","","","232","main_expt",""
"","bandit","312","1185522","0.0-274.0-0.0","47720986","wem/bandit_party_2","A8KZ2Z0OXZM3W","either","5","806","","","","","","","0","1","0","","0.7275490615","0.8","0.2","0.4","0.6","0.3391655585","0.7275490615","0.807664976","0.5320380184","","","","","","","","","","","","","","74","J","1","","","233","main_expt",""
"","bandit","313","1187848","0.0-275.0-0.0","47720986","wem/bandit_party_2","A8KZ2Z0OXZM3W","either","5","797","","","","","","","0","1","0","","0.6910989812","0.8","0.2","0.4","0.6","0.3380141995","0.6910989812","0.817303243","0.5845689413","","","","","","","","","","","","","","74","J","1","","","234","main_expt",""
"","bandit","314","1190230","0.0-276.0-0.0","47720986","wem/bandit_party_2","A8KZ2Z0OXZM3W","either","5","853","","","","","","","0","0","1","","0.6506848601","0.8","0.2","0.4","0.6","0.2949514339","0.6506848601","0.8320050337","0.4424117598","","","","","","","","","","","","","","74","J","1","","","235","main_expt",""
"","bandit","315","1192517","0.0-277.0-0.0","47720986","wem/bandit_party_2","A8KZ2Z0OXZM3W","either","5","760","","","","","","","0","1","0","","0.589166471","0.8","0.2","0.4","0.6","0.2575094814","0.589166471","0.8539654836","0.4411324282","","","","","","","","","","","","","","74","J","1","","","236","main_expt",""
"","bandit","316","1195148","0.0-278.0-0.0","47720986","wem/bandit_party_2","A8KZ2Z0OXZM3W","either","5","1119","","","","","","","0","1","0","","0.5475273787","0.8","0.2","0.4","0.6","0.3298960346","0.5475273787","0.8151920012","0.5792865955","","","","","","","","","","","","","","74","J","1","","","237","main_expt",""
"","bandit","317","1197333","0.0-279.0-0.0","47720986","wem/bandit_party_2","A8KZ2Z0OXZM3W","either","5","656","","","","","","","0","1","0","","0.5644141111","0.8","0.2","0.4","0.6","0.3922637729","0.5644141111","0.8724257749","0.6435093149","","","","","","","","","","","","","","74","J","1","","","238","main_expt",""
