"consent","trial_type","trial_index","time_elapsed","internal_node_id","subjID","study","MID","cond","drift","rt","responses","button_pressed","key_press","like","value","connected","gems","bombs","no_reward","GemPrChosen","BombPrChosen","GainOverPainPr_0","GainOverPainPr_1","GainOverPainPr_2","GainOverPainPr_3","LosePr_0","LosePr_1","LosePr_2","LosePr_3","WinPr_0","WinPr_1","WinPr_2","WinPr_3","Q0","Q1","Q2","gender","age","ethnicity","label","expt_phase","target","respCharCode","respKey","respChoiceNum","respChoice","practice","trial_counter","trial_label","Q0_index"
"GDM/GDM_behavioral_consent_30min_online.html","consent","0","16067","0.0-0.0","48644952","wem/bandit_party_2","A18QU0YQB6Q8DF","either","3","","","","","","","","","","","","","","","","","","","","","","","","","","","","","","","","","","","","","","","","",""
"","survey-text","1","22603","0.0-1.0","48644952","wem/bandit_party_2","A18QU0YQB6Q8DF","either","3","5528","{""Q0"":""A18QU0YQB6Q8DF""}","","","","","","","","","","","","","","","","","","","","","","","","","","","","","","","","","","","","","","",""
"","button-response","2","27561","0.0-2.0","48644952","wem/bandit_party_2","A18QU0YQB6Q8DF","either","3","3953","","2","","","","","","","","","","","","","","","","","","","","","","","","","","","","","","","","","","","","","",""
"","text-replacement","3","52679","0.0-3.0","48644952","wem/bandit_party_2","A18QU0YQB6Q8DF","either","3","24113","","","32","","","","","","","","","","","","","","","","","","","","","","","","","","","","","","","","","","","","",""
"","text-replacement","4","81779","0.0-4.0","48644952","wem/bandit_party_2","A18QU0YQB6Q8DF","either","3","29097","","","32","","","","","","","","","","","","","","","","","","","","","","","","","","","","","","","","","","","","",""
"","text-replacement","5","92769","0.0-5.0-0.0","48644952","wem/bandit_party_2","A18QU0YQB6Q8DF","either","3","10988","","","32","","","","","","","","","","","","","","","","","","","","","","","","","","","","","","","","","","","","",""
"","identification","6","104722","0.0-6.0-0.0","48644952","wem/bandit_party_2","A18QU0YQB6Q8DF","either","3","11926","","","","5","5","4","","","","","","","","","","","","","","","","","","","","","","","","pre","identification_pre","the Republican Party","","","","","","","",""
"","identification","7","110889","0.0-6.0-1.0","48644952","wem/bandit_party_2","A18QU0YQB6Q8DF","either","3","5148","","","","0","0","0","","","","","","","","","","","","","","","","","","","","","","","","pre","identification_pre","the Democratic Party","","","","","","","",""
"","text-replacement","8","125545","0.0-7.0","48644952","wem/bandit_party_2","A18QU0YQB6Q8DF","either","3","13654","","","32","","","","","","","","","","","","","","","","","","","","","","","","","","","","","","","","","","","","",""
"","text-replacement","9","130913","0.0-8.0","48644952","wem/bandit_party_2","A18QU0YQB6Q8DF","either","3","5365","","","32","","","","","","","","","","","","","","","","","","","","","","","","","","","","","","","","","","","","",""
"","text-replacement","10","135783","0.0-9.0","48644952","wem/bandit_party_2","A18QU0YQB6Q8DF","either","3","4867","","","32","","","","","","","","","","","","","","","","","","","","","","","","","","","","","","","","","","","","",""
"","text-replacement","11","141798","0.0-10.0","48644952","wem/bandit_party_2","A18QU0YQB6Q8DF","either","3","6013","","","32","","","","","","","","","","","","","","","","","","","","","","","","","","","","","","","","","","","","",""
"","text-replacement","12","146864","0.0-11.0","48644952","wem/bandit_party_2","A18QU0YQB6Q8DF","either","3","5065","","","32","","","","","","","","","","","","","","","","","","","","","","","","","","","","","","","","","","","","",""
"","bandit","13","151141","0.0-12.0-0.0","48644952","wem/bandit_party_2","A18QU0YQB6Q8DF","either","3","2769","","","","","","","0","0","1","0","0","","","","","0","","","","0","","","","","","","","","","","","","74","J","0","img/none_selected_demo.jpg","true","0","",""
"","bandit","14","153900","0.0-13.0-0.0","48644952","wem/bandit_party_2","A18QU0YQB6Q8DF","either","3","1252","","","","","","","0","0","1","0","0","","","","","0","","","","0","","","","","","","","","","","","","75","K","0","img/none_selected_demo.jpg","true","0","",""
"","text-replacement","15","158567","0.0-14.0","48644952","wem/bandit_party_2","A18QU0YQB6Q8DF","either","3","4663","","","32","","","","","","","","","","","","","","","","","","","","","","","","","","","","","","","","","","","","",""
"","text-replacement","16","164253","0.0-15.0","48644952","wem/bandit_party_2","A18QU0YQB6Q8DF","either","3","5683","","","32","","","","","","","","","","","","","","","","","","","","","","","","","","","","","","","","","","","","",""
"","text-replacement","17","169053","0.0-16.0","48644952","wem/bandit_party_2","A18QU0YQB6Q8DF","either","3","4798","","","32","","","","","","","","","","","","","","","","","","","","","","","","","","","","","","","","","","","","",""
"","text-replacement","18","172971","0.0-17.0","48644952","wem/bandit_party_2","A18QU0YQB6Q8DF","either","3","3915","","","32","","","","","","","","","","","","","","","","","","","","","","","","","","","","","","","","","","","","",""
"","bandit","19","176219","0.0-18.0-0.0","48644952","wem/bandit_party_2","A18QU0YQB6Q8DF","either","3","1740","","","","","","","0","0","1","0.2","","0.5","0.5","","","","","","","0.8","0.2","","","","","","","","","","","","75","K","1","","true","0","80_20_practice",""
"","bandit","20","179491","0.0-18.0-1.0","48644952","wem/bandit_party_2","A18QU0YQB6Q8DF","either","3","1762","","","","","","","1","0","0","0.2","","0.5","0.5","","","","","","","0.8","0.2","","","","","","","","","","","","75","K","1","","true","0","80_20_practice",""
"","bandit","21","183018","0.0-18.0-2.0","48644952","wem/bandit_party_2","A18QU0YQB6Q8DF","either","3","2020","","","","","","","0","1","0","","0.2","0.5","0.5","","","0.8","0.2","","","","","","","","","","","","","","","","75","K","1","","true","0","80_20_practice",""
"","bandit","22","185998","0.0-18.0-3.0","48644952","wem/bandit_party_2","A18QU0YQB6Q8DF","either","3","1473","","","","","","","0","0","1","0.8","","0.5","0.5","","","","","","","0.8","0.2","","","","","","","","","","","","74","J","0","img/none_selected_demo.jpg","true","0","80_20_practice",""
"","bandit","23","188022","0.0-18.0-4.0","48644952","wem/bandit_party_2","A18QU0YQB6Q8DF","either","3","517","","","","","","","0","0","1","0.2","","0.5","0.5","","","","","","","0.8","0.2","","","","","","","","","","","","75","K","1","","true","0","80_20_practice",""
"","bandit","24","190158","0.0-18.0-5.0","48644952","wem/bandit_party_2","A18QU0YQB6Q8DF","either","3","630","","","","","","","1","0","0","0.2","","0.5","0.5","","","","","","","0.8","0.2","","","","","","","","","","","","75","K","1","","true","0","80_20_practice",""
"","bandit","25","192991","0.0-18.0-6.0","48644952","wem/bandit_party_2","A18QU0YQB6Q8DF","either","3","1324","","","","","","","0","0","1","","0.2","0.5","0.5","","","0.8","0.2","","","","","","","","","","","","","","","","75","K","1","","true","0","80_20_practice",""
"","bandit","26","195496","0.0-18.0-7.0","48644952","wem/bandit_party_2","A18QU0YQB6Q8DF","either","3","996","","","","","","","0","0","1","0.2","","0.5","0.5","","","","","","","0.8","0.2","","","","","","","","","","","","75","K","1","","true","0","80_20_practice",""
"","bandit","27","197679","0.0-18.0-8.0","48644952","wem/bandit_party_2","A18QU0YQB6Q8DF","either","3","674","","","","","","","1","0","0","0.2","","0.5","0.5","","","","","","","0.8","0.2","","","","","","","","","","","","75","K","1","","true","0","80_20_practice",""
"","bandit","28","200038","0.0-18.0-9.0","48644952","wem/bandit_party_2","A18QU0YQB6Q8DF","either","3","850","","","","","","","1","0","0","0.8","","0.5","0.5","","","","","","","0.8","0.2","","","","","","","","","","","","74","J","0","img/none_selected_demo.jpg","true","0","80_20_practice",""
"","bandit","29","202413","0.0-18.0-10.0","48644952","wem/bandit_party_2","A18QU0YQB6Q8DF","either","3","868","","","","","","","0","0","1","","0.8","0.5","0.5","","","0.8","0.2","","","","","","","","","","","","","","","","74","J","0","img/none_selected_demo.jpg","true","0","80_20_practice",""
"","bandit","30","205053","0.0-18.0-11.0","48644952","wem/bandit_party_2","A18QU0YQB6Q8DF","either","3","1131","","","","","","","0","1","0","","0.8","0.5","0.5","","","0.8","0.2","","","","","","","","","","","","","","","","74","J","0","img/none_selected_demo.jpg","true","0","80_20_practice",""
"","bandit","31","207799","0.0-18.0-12.0","48644952","wem/bandit_party_2","A18QU0YQB6Q8DF","either","3","1238","","","","","","","0","1","0","","0.8","0.5","0.5","","","0.8","0.2","","","","","","","","","","","","","","","","74","J","0","img/none_selected_demo.jpg","true","0","80_20_practice",""
"","bandit","32","211291","0.0-18.0-13.0","48644952","wem/bandit_party_2","A18QU0YQB6Q8DF","either","3","1986","","","","","","","1","0","0","0.8","","0.5","0.5","","","","","","","0.8","0.2","","","","","","","","","","","","74","J","0","img/none_selected_demo.jpg","true","0","80_20_practice",""
"","bandit","33","213756","0.0-18.0-14.0","48644952","wem/bandit_party_2","A18QU0YQB6Q8DF","either","3","958","","","","","","","0","1","0","","0.2","0.5","0.5","","","0.8","0.2","","","","","","","","","","","","","","","","75","K","1","","true","0","80_20_practice",""
"","bandit","34","216227","0.0-18.0-15.0","48644952","wem/bandit_party_2","A18QU0YQB6Q8DF","either","3","963","","","","","","","0","0","1","","0.2","0.5","0.5","","","0.8","0.2","","","","","","","","","","","","","","","","75","K","1","","true","0","80_20_practice",""
"","bandit","35","218461","0.0-18.0-16.0","48644952","wem/bandit_party_2","A18QU0YQB6Q8DF","either","3","725","","","","","","","0","0","1","0.2","","0.5","0.5","","","","","","","0.8","0.2","","","","","","","","","","","","75","K","1","","true","0","80_20_practice",""
"","bandit","36","220524","0.0-18.0-17.0","48644952","wem/bandit_party_2","A18QU0YQB6Q8DF","either","3","553","","","","","","","0","1","0","","0.8","0.5","0.5","","","0.8","0.2","","","","","","","","","","","","","","","","74","J","0","img/none_selected_demo.jpg","true","0","80_20_practice",""
"","bandit","37","222675","0.0-18.0-18.0","48644952","wem/bandit_party_2","A18QU0YQB6Q8DF","either","3","647","","","","","","","0","1","0","","0.8","0.5","0.5","","","0.8","0.2","","","","","","","","","","","","","","","","74","J","0","img/none_selected_demo.jpg","true","0","80_20_practice",""
"","bandit","38","225170","0.0-18.0-19.0","48644952","wem/bandit_party_2","A18QU0YQB6Q8DF","either","3","987","","","","","","","0","1","0","","0.8","0.5","0.5","","","0.8","0.2","","","","","","","","","","","","","","","","74","J","0","img/none_selected_demo.jpg","true","0","80_20_practice",""
"","text-replacement","39","232268","0.0-19.0","48644952","wem/bandit_party_2","A18QU0YQB6Q8DF","either","3","7095","","","32","","","","","","","","","","","","","","","","","","","","","","","","","","","","","","","","","","","","",""
"","bandit","40","235210","0.0-20.0-0.0","48644952","wem/bandit_party_2","A18QU0YQB6Q8DF","either","3","1433","","","","","","","0","1","0","0","1","","","","","0","1","","","1","0","","","","","","","","","","","","75","K","1","","true","0","",""
"","text-replacement","41","243050","0.0-21.0","48644952","wem/bandit_party_2","A18QU0YQB6Q8DF","either","3","7836","","","32","","","","","","","","","","","","","","","","","","","","","","","","","","","","","","","","","","","","",""
"","text-replacement","42","247520","0.0-22.0","48644952","wem/bandit_party_2","A18QU0YQB6Q8DF","either","3","4466","","","32","","","","","","","","","","","","","","","","","","","","","","","","","","","","","","","","","","","","",""
"","text-replacement","43","251951","0.0-23.0","48644952","wem/bandit_party_2","A18QU0YQB6Q8DF","either","3","4427","","","32","","","","","","","","","","","","","","","","","","","","","","","","","","","","","","","","","","","","",""
"","text-replacement","44","255976","0.0-24.0","48644952","wem/bandit_party_2","A18QU0YQB6Q8DF","either","3","4021","","","32","","","","","","","","","","","","","","","","","","","","","","","","","","","","","","","","","","","","",""
"","text-replacement","45","263414","0.0-25.0","48644952","wem/bandit_party_2","A18QU0YQB6Q8DF","either","3","7434","","","32","","","","","","","","","","","","","","","","","","","","","","","","","","","","","","","","","","","","",""
"","text-replacement","46","268959","0.0-26.0","48644952","wem/bandit_party_2","A18QU0YQB6Q8DF","either","3","5541","","","32","","","","","","","","","","","","","","","","","","","","","","","","","","","","","","","","","","","","",""
"","text-replacement","47","275812","0.0-27.0","48644952","wem/bandit_party_2","A18QU0YQB6Q8DF","either","3","6850","","","32","","","","","","","","","","","","","","","","","","","","","","","","","","","","","","","","","","","","",""
"","text-replacement","48","280021","0.0-28.0","48644952","wem/bandit_party_2","A18QU0YQB6Q8DF","either","3","4206","","","32","","","","","","","","","","","","","","","","","","","","","","","","","","","","","","","","","","","","",""
"","text-replacement","49","284395","0.0-29.0","48644952","wem/bandit_party_2","A18QU0YQB6Q8DF","either","3","4371","","","32","","","","","","","","","","","","","","","","","","","","","","","","","","","","","","","","","","","","",""
"","text-replacement","50","286995","0.0-30.0","48644952","wem/bandit_party_2","A18QU0YQB6Q8DF","either","3","2597","","","32","","","","","","","","","","","","","","","","","","","","","","","","","","","","","","","","","","","","",""
"","text-replacement","51","295467","0.0-31.0","48644952","wem/bandit_party_2","A18QU0YQB6Q8DF","either","3","8468","","","32","","","","","","","","","","","","","","","","","","","","","","","","","","","","","","","","","","","","",""
"","bandit","52","299641","0.0-32.0-0.0","48644952","wem/bandit_party_2","A18QU0YQB6Q8DF","either","3","2664","","","","","","","0","0","1","","0.2","0.5","0.5","0.5","0.5","0.8","0.2","0.6","0.2","","","","","","","","","","","","","","76","L","3","","true","0","full_practice",""
"","bandit","53","302024","0.0-32.0-1.0","48644952","wem/bandit_party_2","A18QU0YQB6Q8DF","either","3","874","","","","","","","0","0","1","","0.2","0.5","0.5","0.5","0.5","0.8","0.2","0.6","0.2","","","","","","","","","","","","","","74","J","1","","true","0","full_practice",""
"","bandit","54","304094","0.0-32.0-2.0","48644952","wem/bandit_party_2","A18QU0YQB6Q8DF","either","3","561","","","","","","","1","0","0","0.6","","0.5","0.5","0.5","0.5","","","","","0.8","0.2","0.6","0.2","","","","","","","","","","75","K","2","","true","0","full_practice",""
"","bandit","55","306671","0.0-32.0-3.0","48644952","wem/bandit_party_2","A18QU0YQB6Q8DF","either","3","1067","","","","","","","1","0","0","0.6","","0.5","0.5","0.5","0.5","","","","","0.8","0.2","0.6","0.2","","","","","","","","","","75","K","2","","true","0","full_practice",""
"","bandit","56","309495","0.0-32.0-4.0","48644952","wem/bandit_party_2","A18QU0YQB6Q8DF","either","3","1316","","","","","","","1","0","0","0.6","","0.5","0.5","0.5","0.5","","","","","0.8","0.2","0.6","0.2","","","","","","","","","","75","K","2","","true","0","full_practice",""
"","bandit","57","312540","0.0-32.0-5.0","48644952","wem/bandit_party_2","A18QU0YQB6Q8DF","either","3","1537","","","","","","","0","1","0","","0.6","0.5","0.5","0.5","0.5","0.8","0.2","0.6","0.2","","","","","","","","","","","","","","75","K","2","","true","0","full_practice",""
"","bandit","58","315478","0.0-32.0-6.0","48644952","wem/bandit_party_2","A18QU0YQB6Q8DF","either","3","1430","","","","","","","0","1","0","","0.8","0.5","0.5","0.5","0.5","0.8","0.2","0.6","0.2","","","","","","","","","","","","","","72","H","0","img/none_selected.jpg","true","0","full_practice",""
"","bandit","59","317860","0.0-32.0-7.0","48644952","wem/bandit_party_2","A18QU0YQB6Q8DF","either","3","872","","","","","","","0","1","0","","0.2","0.5","0.5","0.5","0.5","0.8","0.2","0.6","0.2","","","","","","","","","","","","","","74","J","1","","true","0","full_practice",""
"","bandit","60","321036","0.0-32.0-8.0","48644952","wem/bandit_party_2","A18QU0YQB6Q8DF","either","3","1670","","","","","","","1","0","0","0.2","","0.5","0.5","0.5","0.5","","","","","0.8","0.2","0.6","0.2","","","","","","","","","","76","L","3","","true","0","full_practice",""
"","bandit","61","323612","0.0-32.0-9.0","48644952","wem/bandit_party_2","A18QU0YQB6Q8DF","either","3","1067","","","","","","","0","0","1","0.2","","0.5","0.5","0.5","0.5","","","","","0.8","0.2","0.6","0.2","","","","","","","","","","76","L","3","","true","0","full_practice",""
"","bandit","62","325754","0.0-32.0-10.0","48644952","wem/bandit_party_2","A18QU0YQB6Q8DF","either","3","635","","","","","","","0","0","1","","0.2","0.5","0.5","0.5","0.5","0.8","0.2","0.6","0.2","","","","","","","","","","","","","","76","L","3","","true","0","full_practice",""
"","bandit","63","327810","0.0-32.0-11.0","48644952","wem/bandit_party_2","A18QU0YQB6Q8DF","either","3","544","","","","","","","1","0","0","0.8","","0.5","0.5","0.5","0.5","","","","","0.8","0.2","0.6","0.2","","","","","","","","","","72","H","0","img/none_selected.jpg","true","0","full_practice",""
"","bandit","64","330172","0.0-32.0-12.0","48644952","wem/bandit_party_2","A18QU0YQB6Q8DF","either","3","855","","","","","","","1","0","0","0.8","","0.5","0.5","0.5","0.5","","","","","0.8","0.2","0.6","0.2","","","","","","","","","","72","H","0","img/none_selected.jpg","true","0","full_practice",""
"","bandit","65","332743","0.0-32.0-13.0","48644952","wem/bandit_party_2","A18QU0YQB6Q8DF","either","3","1059","","","","","","","0","0","1","0.2","","0.5","0.5","0.5","0.5","","","","","0.8","0.2","0.6","0.2","","","","","","","","","","74","J","1","","true","0","full_practice",""
"","bandit","66","335043","0.0-32.0-14.0","48644952","wem/bandit_party_2","A18QU0YQB6Q8DF","either","3","790","","","","","","","0","0","1","","0.2","0.5","0.5","0.5","0.5","0.8","0.2","0.6","0.2","","","","","","","","","","","","","","74","J","1","","true","0","full_practice",""
"","bandit","67","337474","0.0-32.0-15.0","48644952","wem/bandit_party_2","A18QU0YQB6Q8DF","either","3","920","","","","","","","0","0","1","","0.2","0.5","0.5","0.5","0.5","0.8","0.2","0.6","0.2","","","","","","","","","","","","","","74","J","1","","true","0","full_practice",""
"","bandit","68","339681","0.0-32.0-16.0","48644952","wem/bandit_party_2","A18QU0YQB6Q8DF","either","3","699","","","","","","","0","0","1","","0.2","0.5","0.5","0.5","0.5","0.8","0.2","0.6","0.2","","","","","","","","","","","","","","74","J","1","","true","0","full_practice",""
"","bandit","69","341855","0.0-32.0-17.0","48644952","wem/bandit_party_2","A18QU0YQB6Q8DF","either","3","666","","","","","","","0","1","0","","0.2","0.5","0.5","0.5","0.5","0.8","0.2","0.6","0.2","","","","","","","","","","","","","","74","J","1","","true","0","full_practice",""
"","bandit","70","344138","0.0-32.0-18.0","48644952","wem/bandit_party_2","A18QU0YQB6Q8DF","either","3","773","","","","","","","0","0","1","0.6","","0.5","0.5","0.5","0.5","","","","","0.8","0.2","0.6","0.2","","","","","","","","","","75","K","2","","true","0","full_practice",""
"","bandit","71","346073","0.0-32.0-19.0","48644952","wem/bandit_party_2","A18QU0YQB6Q8DF","either","3","417","","","","","","","0","0","1","0.2","","0.5","0.5","0.5","0.5","","","","","0.8","0.2","0.6","0.2","","","","","","","","","","76","L","3","","true","0","full_practice",""
"","text","72","350649","0.0-33.0","48644952","wem/bandit_party_2","A18QU0YQB6Q8DF","either","3","4563","","","32","","","","","","","","","","","","","","","","","","","","","","","","","","","","","","","","","","","","",""
"","text-replacement","73","361351","0.0-34.0","48644952","wem/bandit_party_2","A18QU0YQB6Q8DF","either","3","9693","","","32","","","","","","","","","","","","","","","","","","","","","","","","","","","","","","","","","","","","",""
"","text-replacement","74","371582","0.0-35.0","48644952","wem/bandit_party_2","A18QU0YQB6Q8DF","either","3","10229","","","32","","","","","","","","","","","","","","","","","","","","","","","","","","","","","","","","","","","","",""
"","text-replacement","75","376181","0.0-36.0","48644952","wem/bandit_party_2","A18QU0YQB6Q8DF","either","3","4595","","","32","","","","","","","","","","","","","","","","","","","","","","","","","","","","","","","","","","","","",""
"","text-replacement","76","380916","0.0-37.0","48644952","wem/bandit_party_2","A18QU0YQB6Q8DF","either","3","4731","","","32","","","","","","","","","","","","","","","","","","","","","","","","","","","","","","","","","","","","",""
"","text-replacement","77","386603","0.0-38.0","48644952","wem/bandit_party_2","A18QU0YQB6Q8DF","either","3","5681","","","32","","","","","","","","","","","","","","","","","","","","","","","","","","","","","","","","","","","","",""
"","survey-multi-choice-replacement","78","396501","0.0-39.0-0.0","48644952","wem/bandit_party_2","A18QU0YQB6Q8DF","either","3","9890","","","","","","","","","","","","","","","","","","","","","","","","Money will be added to the pool for <span style='color:red;'>REPUBLICANS</span>","","","","","","","attn_check","","","","","","","","","0"
"","survey-multi-choice-replacement","79","406500","0.0-40.0-0.0","48644952","wem/bandit_party_2","A18QU0YQB6Q8DF","either","3","8984","","","","","","","","","","","","","","","","","","","","","","","","Equal amounts of money will be added to the pool for <span style='color:red;'>REPUBLICANS</span> and subtracted from the pool for <span style='color:blue;'>DEMOCRATS</span>","","","","","","","attn_check","","","","","","","","","2"
"","survey-multi-choice-replacement","80","411740","0.0-41.0-0.0","48644952","wem/bandit_party_2","A18QU0YQB6Q8DF","either","3","4228","","","","","","","","","","","","","","","","","","","","","","","","No money will be added to either pool","","","","","","","attn_check","","","","","","","","","3"
"","bandit","81","417847","0.0-42.0-0.0","48644952","wem/bandit_party_2","A18QU0YQB6Q8DF","either","3","3594","","","","","","","0","0","1","","0.6494041588","0.2","0.6","0.8","0.4","0.6494041588","0.4261870849","0.6473934842","0.1387034319","","","","","","","","","","","","","","72","H","0","img/none_selected.jpg","","1","main_expt",""
"","bandit","82","420686","0.0-43.0-0.0","48644952","wem/bandit_party_2","A18QU0YQB6Q8DF","either","3","1329","","","","","","","0","1","0","","0.3223101542","0.2","0.6","0.8","0.4","0.7608835745","0.3223101542","0.5221866694","0.2166337036","","","","","","","","","","","","","","74","J","1","","","2","main_expt",""
"","bandit","83","423454","0.0-44.0-0.0","48644952","wem/bandit_party_2","A18QU0YQB6Q8DF","either","3","1255","","","","","","","0","0","1","","0.3253899216","0.2","0.6","0.8","0.4","0.7745567172","0.2541217019","0.5356292978","0.3253899216","","","","","","","","","","","","","","76","L","3","","","3","main_expt",""
"","bandit","84","425519","0.0-45.0-0.0","48644952","wem/bandit_party_2","A18QU0YQB6Q8DF","either","3","553","","","","","","","1","0","0","0.5154592071","","0.2","0.6","0.8","0.4","","","","","0.8315703218","0.2272043942","0.5154592071","0.3003293127","","","","","","","","","","75","K","2","","","4","main_expt",""
"","bandit","85","427918","0.0-46.0-0.0","48644952","wem/bandit_party_2","A18QU0YQB6Q8DF","either","3","886","","","","","","","1","0","0","0.4578896037","","0.2","0.6","0.8","0.4","","","","","0.8380789219","0.2967729676","0.4578896037","0.3839660868","","","","","","","","","","75","K","2","","","5","main_expt",""
"","bandit","86","430295","0.0-47.0-0.0","48644952","wem/bandit_party_2","A18QU0YQB6Q8DF","either","3","862","","","","","","","0","0","1","0.4825789634","","0.2","0.6","0.8","0.4","","","","","0.8233568153","0.3211998527","0.4825789634","0.3833463511","","","","","","","","","","75","K","2","","","6","main_expt",""
"","bandit","87","432780","0.0-48.0-0.0","48644952","wem/bandit_party_2","A18QU0YQB6Q8DF","either","3","976","","","","","","","0","0","1","0.4013658759","","0.2","0.6","0.8","0.4","","","","","0.8672840292","0.4190649117","0.4013658759","0.3173395401","","","","","","","","","","75","K","2","","","7","main_expt",""
"","bandit","88","434965","0.0-49.0-0.0","48644952","wem/bandit_party_2","A18QU0YQB6Q8DF","either","3","674","","","","","","","0","0","1","0.3265190876","","0.2","0.6","0.8","0.4","","","","","0.7921451217","0.5253498774","0.3721769634","0.3265190876","","","","","","","","","","76","L","3","","","8","main_expt",""
"","bandit","89","437013","0.0-50.0-0.0","48644952","wem/bandit_party_2","A18QU0YQB6Q8DF","either","3","530","","","","","","","0","0","1","","0.4229840653","0.2","0.6","0.8","0.4","0.7826569337","0.5552176016","0.3934089605","0.4229840653","","","","","","","","","","","","","","76","L","3","","","9","main_expt",""
"","bandit","90","439331","0.0-51.0-0.0","48644952","wem/bandit_party_2","A18QU0YQB6Q8DF","either","3","809","","","","","","","0","0","1","0.654745146","","0.2","0.6","0.8","0.4","","","","","0.7150392401","0.654745146","0.3360942297","0.5107168356","","","","","","","","","","74","J","1","","","10","main_expt",""
"","bandit","91","441171","0.0-52.0-0.0","48644952","wem/bandit_party_2","A18QU0YQB6Q8DF","either","3","330","","","","","","","0","1","0","","0.6089063278","0.2","0.6","0.8","0.4","0.6906605055","0.6089063278","0.4969537907","0.4383577931","","","","","","","","","","","","","","74","J","1","","","11","main_expt",""
"","bandit","92","443563","0.0-53.0-0.0","48644952","wem/bandit_party_2","A18QU0YQB6Q8DF","either","3","880","","","","","","","0","0","1","0.559155858","","0.2","0.6","0.8","0.4","","","","","0.6725575113","0.559155858","0.4760264401","0.5487148549","","","","","","","","","","74","J","1","","","12","main_expt",""
"","bandit","93","445632","0.0-54.0-0.0","48644952","wem/bandit_party_2","A18QU0YQB6Q8DF","either","3","560","","","","","","","0","0","1","","0.7404599176","0.2","0.6","0.8","0.4","0.7404599176","0.6464491645","0.4008761295","0.7407599438","","","","","","","","","","","","","","72","H","0","img/none_selected.jpg","","13","main_expt",""
"","bandit","94","447598","0.0-55.0-0.0","48644952","wem/bandit_party_2","A18QU0YQB6Q8DF","either","3","462","","","","","","","1","0","0","0.6751607758","","0.2","0.6","0.8","0.4","","","","","0.6751607758","0.6936958995","0.358486362","0.8307131687","","","","","","","","","","72","H","0","img/none_selected.jpg","","14","main_expt",""
"","bandit","95","450509","0.0-56.0-0.0","48644952","wem/bandit_party_2","A18QU0YQB6Q8DF","either","3","1402","","","","","","","1","0","0","0.6115440925","","0.2","0.6","0.8","0.4","","","","","0.6115440925","0.731471075","0.395258373","0.8114394421","","","","","","","","","","72","H","0","img/none_selected.jpg","","15","main_expt",""
"","bandit","96","452986","0.0-57.0-0.0","48644952","wem/bandit_party_2","A18QU0YQB6Q8DF","either","3","965","","","","","","","0","0","1","","0.7019001419","0.2","0.6","0.8","0.4","0.7019001419","0.6487541525","0.4197334966","0.8242397169","","","","","","","","","","","","","","72","H","0","img/none_selected.jpg","","16","main_expt",""
"","bandit","97","455423","0.0-58.0-0.0","48644952","wem/bandit_party_2","A18QU0YQB6Q8DF","either","3","930","","","","","","","0","1","0","","0.7017998","0.2","0.6","0.8","0.4","0.7017998","0.7654634758","0.2160816064","0.8317633157","","","","","","","","","","","","","","72","H","0","img/none_selected.jpg","","17","main_expt",""
"","bandit","98","457756","0.0-59.0-0.0","48644952","wem/bandit_party_2","A18QU0YQB6Q8DF","either","3","819","","","","","","","1","0","0","0.2058632209","","0.2","0.6","0.8","0.4","","","","","0.7672473748","0.7160830043","0.2058632209","0.8158638682","","","","","","","","","","75","K","2","","","18","main_expt",""
"","bandit","99","460273","0.0-60.0-0.0","48644952","wem/bandit_party_2","A18QU0YQB6Q8DF","either","3","1005","","","","","","","0","0","1","0.2314559036","","0.2","0.6","0.8","0.4","","","","","0.7950219121","0.6856656502","0.2314559036","0.8291878069","","","","","","","","","","75","K","2","","","19","main_expt",""
"","bandit","100","462514","0.0-61.0-0.0","48644952","wem/bandit_party_2","A18QU0YQB6Q8DF","either","3","730","","","","","","","0","0","1","0.1762066147","","0.2","0.6","0.8","0.4","","","","","0.8460513568","0.6829400921","0.1762066147","0.8665153398","","","","","","","","","","75","K","2","","","20","main_expt",""
"","bandit","101","465144","0.0-62.0-0.0","48644952","wem/bandit_party_2","A18QU0YQB6Q8DF","either","3","1117","","","","","","","1","0","0","0.150477598","","0.2","0.6","0.8","0.4","","","","","0.8571228725","0.6849203215","0.150477598","0.8181415858","","","","","","","","","","75","K","2","","","21","main_expt",""
"","bandit","102","467738","0.0-63.0-0.0","48644952","wem/bandit_party_2","A18QU0YQB6Q8DF","either","3","1081","","","","","","","0","0","1","0.1957635407","","0.2","0.6","0.8","0.4","","","","","0.8498483749","0.6832197831","0.1957635407","0.7731960963","","","","","","","","","","75","K","2","","","22","main_expt",""
"","bandit","103","470384","0.0-64.0-0.0","48644952","wem/bandit_party_2","A18QU0YQB6Q8DF","either","3","1132","","","","","","","1","0","0","0.6103957523","","0.2","0.6","0.8","0.4","","","","","0.887495535","0.6103957523","0.2193187944","0.8004626553","","","","","","","","","","74","J","1","","","23","main_expt",""
"","bandit","104","473042","0.0-65.0-0.0","48644952","wem/bandit_party_2","A18QU0YQB6Q8DF","either","3","1144","","","","","","","1","0","0","0.5485819736","","0.2","0.6","0.8","0.4","","","","","0.918231735","0.5485819736","0.1836328706","0.7941911222","","","","","","","","","","74","J","1","","","24","main_expt",""
"","bandit","105","475358","0.0-66.0-0.0","48644952","wem/bandit_party_2","A18QU0YQB6Q8DF","either","3","805","","","","","","","0","0","1","0.5852935809","","0.2","0.6","0.8","0.4","","","","","0.9111146318","0.5852935809","0.1410441375","0.7100633829","","","","","","","","","","74","J","1","","","25","main_expt",""
"","bandit","106","477982","0.0-67.0-0.0","48644952","wem/bandit_party_2","A18QU0YQB6Q8DF","either","3","1112","","","","","","","0","1","0","","0.6097892937","0.2","0.6","0.8","0.4","0.9190640316","0.6097892937","0.1082593399","0.6872129375","","","","","","","","","","","","","","74","J","1","","","26","main_expt",""
"","bandit","107","480917","0.0-68.0-0.0","48644952","wem/bandit_party_2","A18QU0YQB6Q8DF","either","3","1425","","","","","","","0","1","0","","0.6653335402","0.2","0.6","0.8","0.4","0.9372614837","0.6653335402","0.1042047793","0.6798864795","","","","","","","","","","","","","","74","J","1","","","27","main_expt",""
"","bandit","108","483733","0.0-69.0-0.0","48644952","wem/bandit_party_2","A18QU0YQB6Q8DF","either","3","1307","","","","","","","1","0","0","0.6850825106","","0.2","0.6","0.8","0.4","","","","","0.9269484959","0.6850825106","0.1153509117","0.6812343762","","","","","","","","","","74","J","1","","","28","main_expt",""
"","bandit","109","486501","0.0-70.0-0.0","48644952","wem/bandit_party_2","A18QU0YQB6Q8DF","either","3","1260","","","","","","","0","0","1","","0.7309016742","0.2","0.6","0.8","0.4","0.9376772981","0.7309016742","0.1601566248","0.5305157647","","","","","","","","","","","","","","74","J","1","","","29","main_expt",""
"","bandit","110","489005","0.0-71.0-0.0","48644952","wem/bandit_party_2","A18QU0YQB6Q8DF","either","3","992","","","","","","","0","1","0","","0.8141980113","0.2","0.6","0.8","0.4","0.8795505253","0.8141980113","0.09548927903","0.4713174284","","","","","","","","","","","","","","74","J","1","","","30","main_expt",""
"","bandit","111","491750","0.0-72.0-0.0","48644952","wem/bandit_party_2","A18QU0YQB6Q8DF","either","3","1231","","","","","","","0","1","0","","0.8926711601","0.2","0.6","0.8","0.4","0.8605863748","0.8926711601","0.09272353297","0.2938490869","","","","","","","","","","","","","","74","J","1","","","31","main_expt",""
"","bandit","112","494245","0.0-73.0-0.0","48644952","wem/bandit_party_2","A18QU0YQB6Q8DF","either","3","984","","","","","","","0","1","0","","0.8397563013","0.2","0.6","0.8","0.4","0.757600507","0.8397563013","0.09547929832","0.3005160425","","","","","","","","","","","","","","74","J","1","","","32","main_expt",""
"","bandit","113","496979","0.0-74.0-0.0","48644952","wem/bandit_party_2","A18QU0YQB6Q8DF","either","3","1221","","","","","","","1","0","0","0.8251988787","","0.2","0.6","0.8","0.4","","","","","0.7257103923","0.8251988787","0.08683876107","0.3661211491","","","","","","","","","","74","J","1","","","33","main_expt",""
"","bandit","114","499858","0.0-75.0-0.0","48644952","wem/bandit_party_2","A18QU0YQB6Q8DF","either","3","1359","","","","","","","0","0","1","","0.7303528712","0.2","0.6","0.8","0.4","0.5786815464","0.7303528712","0.08117088791","0.4614725573","","","","","","","","","","","","","","74","J","1","","","34","main_expt",""
"","bandit","115","502288","0.0-76.0-0.0","48644952","wem/bandit_party_2","A18QU0YQB6Q8DF","either","3","920","","","","","","","0","1","0","","0.8093673003","0.2","0.6","0.8","0.4","0.4812266686","0.8093673003","0.09593582107","0.4597324626","","","","","","","","","","","","","","74","J","1","","","35","main_expt",""
"","bandit","116","505134","0.0-77.0-0.0","48644952","wem/bandit_party_2","A18QU0YQB6Q8DF","either","3","1328","","","","","","","1","0","0","0.79718131","","0.2","0.6","0.8","0.4","","","","","0.4459447539","0.79718131","0.1392988708","0.4294742096","","","","","","","","","","74","J","1","","","36","main_expt",""
"","bandit","117","507698","0.0-78.0-0.0","48644952","wem/bandit_party_2","A18QU0YQB6Q8DF","either","3","1050","","","","","","","1","0","0","0.8157762275","","0.2","0.6","0.8","0.4","","","","","0.5737218407","0.8157762275","0.07673209605","0.5301274199","","","","","","","","","","74","J","1","","","37","main_expt",""
"","bandit","118","510277","0.0-79.0-0.0","48644952","wem/bandit_party_2","A18QU0YQB6Q8DF","either","3","1063","","","","","","","1","0","0","0.7941499978","","0.2","0.6","0.8","0.4","","","","","0.6008421093","0.7941499978","0.1078843958","0.5746889943","","","","","","","","","","74","J","1","","","38","main_expt",""
"","bandit","119","512978","0.0-80.0-0.0","48644952","wem/bandit_party_2","A18QU0YQB6Q8DF","either","3","1188","","","","","","","1","0","0","0.7352357368","","0.2","0.6","0.8","0.4","","","","","0.6076920036","0.7352357368","0.09731722171","0.6621100331","","","","","","","","","","74","J","1","","","39","main_expt",""
"","bandit","120","515780","0.0-81.0-0.0","48644952","wem/bandit_party_2","A18QU0YQB6Q8DF","either","3","1288","","","","","","","0","0","1","0.7920886563","","0.2","0.6","0.8","0.4","","","","","0.6616622706","0.7920886563","0.2123509389","0.6794361822","","","","","","","","","","74","J","1","","","40","main_expt",""
"","bandit","121","518319","0.0-82.0-0.0","48644952","wem/bandit_party_2","A18QU0YQB6Q8DF","either","3","1027","","","","","","","0","1","0","","0.8780543775","0.2","0.6","0.8","0.4","0.6945341382","0.8780543775","0.1265365425","0.7140523024","","","","","","","","","","","","","","74","J","1","","","41","main_expt",""
"","bandit","122","520456","0.0-83.0-0.0","48644952","wem/bandit_party_2","A18QU0YQB6Q8DF","either","3","623","","","","","","","0","0","1","0.6669732994","","0.2","0.6","0.8","0.4","","","","","0.6833149102","0.9167256642","0.166138795","0.6669732994","","","","","","","","","","76","L","3","","","42","main_expt",""
"","bandit","123","522847","0.0-84.0-0.0","48644952","wem/bandit_party_2","A18QU0YQB6Q8DF","either","3","880","","","","","","","0","0","1","","0.5435093165","0.2","0.6","0.8","0.4","0.7094953576","0.9407985187","0.1782339186","0.5435093165","","","","","","","","","","","","","","76","L","3","","","43","main_expt",""
"","bandit","124","525135","0.0-85.0-0.0","48644952","wem/bandit_party_2","A18QU0YQB6Q8DF","either","3","780","","","","","","","1","0","0","0.6002661395","","0.2","0.6","0.8","0.4","","","","","0.7519468023","0.9000978766","0.1342945815","0.6002661395","","","","","","","","","","76","L","3","","","44","main_expt",""
"","bandit","125","527633","0.0-86.0-0.0","48644952","wem/bandit_party_2","A18QU0YQB6Q8DF","either","3","985","","","","","","","1","0","0","0.5948203474","","0.2","0.6","0.8","0.4","","","","","0.7673203249","0.9190036262","0.09086288848","0.5948203474","","","","","","","","","","76","L","3","","","45","main_expt",""
"","bandit","126","529895","0.0-87.0-0.0","48644952","wem/bandit_party_2","A18QU0YQB6Q8DF","either","3","749","","","","","","","0","1","0","","0.6230250108","0.2","0.6","0.8","0.4","0.722836051","0.8865788656","0.06420934006","0.6230250108","","","","","","","","","","","","","","76","L","3","","","46","main_expt",""
"","bandit","127","532021","0.0-88.0-0.0","48644952","wem/bandit_party_2","A18QU0YQB6Q8DF","either","3","615","","","","","","","0","1","0","","0.7239235909","0.2","0.6","0.8","0.4","0.7392487755","0.8207935484","0.02332738683","0.7239235909","","","","","","","","","","","","","","76","L","3","","","47","main_expt",""
"","bandit","128","534491","0.0-89.0-0.0","48644952","wem/bandit_party_2","A18QU0YQB6Q8DF","either","3","959","","","","","","","1","0","0","0.7715310514","","0.2","0.6","0.8","0.4","","","","","0.7551111279","0.8170742187","0.03517565614","0.7715310514","","","","","","","","","","76","L","3","","","48","main_expt",""
"","bandit","129","537022","0.0-90.0-0.0","48644952","wem/bandit_party_2","A18QU0YQB6Q8DF","either","3","1024","","","","","","","0","1","0","","0.822179592","0.2","0.6","0.8","0.4","0.6917772817","0.7874830355","0.04466115719","0.822179592","","","","","","","","","","","","","","76","L","3","","","49","main_expt",""
"","bandit","130","539550","0.0-91.0-0.0","48644952","wem/bandit_party_2","A18QU0YQB6Q8DF","either","3","1016","","","","","","","0","0","1","","0.8108951243","0.2","0.6","0.8","0.4","0.6689959301","0.8279472521","0.05053383529","0.8108951243","","","","","","","","","","","","","","76","L","3","","","50","main_expt",""
"","bandit","131","541750","0.0-92.0-0.0","48644952","wem/bandit_party_2","A18QU0YQB6Q8DF","either","3","690","","","","","","","0","0","1","0.04681033125","","0.2","0.6","0.8","0.4","","","","","0.6020608281","0.8426817256","0.04681033125","0.7649170446","","","","","","","","","","75","K","2","","","51","main_expt",""
"","bandit","132","544179","0.0-93.0-0.0","48644952","wem/bandit_party_2","A18QU0YQB6Q8DF","either","3","913","","","","","","","0","0","1","0.09308222201","","0.2","0.6","0.8","0.4","","","","","0.6583182673","0.8377647656","0.09308222201","0.8169848275","","","","","","","","","","75","K","2","","","52","main_expt",""
"","bandit","133","546603","0.0-94.0-0.0","48644952","wem/bandit_party_2","A18QU0YQB6Q8DF","either","3","912","","","","","","","0","0","1","","0.1397702629","0.2","0.6","0.8","0.4","0.5419436754","0.8241398149","0.1397702629","0.8843577791","","","","","","","","","","","","","","75","K","2","","","53","main_expt",""
"","bandit","134","548938","0.0-95.0-0.0","48644952","wem/bandit_party_2","A18QU0YQB6Q8DF","either","3","823","","","","","","","0","0","1","","0.110287685","0.2","0.6","0.8","0.4","0.5717614462","0.7289352116","0.110287685","0.8854515068","","","","","","","","","","","","","","75","K","2","","","54","main_expt",""
"","bandit","135","550892","0.0-96.0-0.0","48644952","wem/bandit_party_2","A18QU0YQB6Q8DF","either","3","442","","","","","","","1","0","0","0.5895019519","","0.2","0.6","0.8","0.4","","","","","0.5497935615","0.5895019519","0.1843384007","0.8884574585","","","","","","","","","","74","J","1","","","55","main_expt",""
"","bandit","136","553107","0.0-97.0-0.0","48644952","wem/bandit_party_2","A18QU0YQB6Q8DF","either","3","701","","","","","","","0","0","1","","0.4622464331","0.2","0.6","0.8","0.4","0.4902645195","0.4622464331","0.2056752237","0.8840911236","","","","","","","","","","","","","","74","J","1","","","56","main_expt",""
"","bandit","137","555234","0.0-98.0-0.0","48644952","wem/bandit_party_2","A18QU0YQB6Q8DF","either","3","613","","","","","","","0","1","0","","0.490024734","0.2","0.6","0.8","0.4","0.5258365243","0.490024734","0.3410726922","0.864283103","","","","","","","","","","","","","","74","J","1","","","57","main_expt",""
"","bandit","138","557515","0.0-99.0-0.0","48644952","wem/bandit_party_2","A18QU0YQB6Q8DF","either","3","767","","","","","","","0","0","1","0.6182628796","","0.2","0.6","0.8","0.4","","","","","0.6097664349","0.6182628796","0.3873695161","0.7377821737","","","","","","","","","","74","J","1","","","58","main_expt",""
"","bandit","139","559768","0.0-100.0-0.0","48644952","wem/bandit_party_2","A18QU0YQB6Q8DF","either","3","740","","","","","","","0","1","0","","0.6976829826","0.2","0.6","0.8","0.4","0.6016711108","0.6976829826","0.3281321534","0.7469541206","","","","","","","","","","","","","","74","J","1","","","59","main_expt",""
"","bandit","140","562100","0.0-101.0-0.0","48644952","wem/bandit_party_2","A18QU0YQB6Q8DF","either","3","818","","","","","","","0","0","1","0.675433977","","0.2","0.6","0.8","0.4","","","","","0.5544917648","0.675433977","0.2380439254","0.8019510571","","","","","","","","","","74","J","1","","","60","main_expt",""
"","bandit","141","564457","0.0-102.0-0.0","48644952","wem/bandit_party_2","A18QU0YQB6Q8DF","either","3","843","","","","","","","1","0","0","0.7206550838","","0.2","0.6","0.8","0.4","","","","","0.6842720067","0.7206550838","0.2228222105","0.8943887388","","","","","","","","","","74","J","1","","","61","main_expt",""
"","bandit","142","567152","0.0-103.0-0.0","48644952","wem/bandit_party_2","A18QU0YQB6Q8DF","either","3","1186","","","","","","","0","0","1","","0.7184677658","0.2","0.6","0.8","0.4","0.6824345281","0.7184677658","0.2489253665","0.8942973556","","","","","","","","","","","","","","74","J","1","","","62","main_expt",""
"","bandit","143","569552","0.0-104.0-0.0","48644952","wem/bandit_party_2","A18QU0YQB6Q8DF","either","3","885","","","","","","","0","1","0","","0.7321168219","0.2","0.6","0.8","0.4","0.7321168219","0.6785259816","0.2298237489","0.8829609874","","","","","","","","","","","","","","72","H","0","img/none_selected.jpg","","63","main_expt",""
"","bandit","144","571832","0.0-105.0-0.0","48644952","wem/bandit_party_2","A18QU0YQB6Q8DF","either","3","768","","","","","","","0","1","0","","0.8123013145","0.2","0.6","0.8","0.4","0.8123013145","0.6349383059","0.1849055857","0.8175344892","","","","","","","","","","","","","","72","H","0","img/none_selected.jpg","","64","main_expt",""
"","bandit","145","574035","0.0-106.0-0.0","48644952","wem/bandit_party_2","A18QU0YQB6Q8DF","either","3","686","","","","","","","0","1","0","","0.8236121316","0.2","0.6","0.8","0.4","0.8236121316","0.629769122","0.2285715909","0.7812905168","","","","","","","","","","","","","","72","H","0","img/none_selected.jpg","","65","main_expt",""
"","bandit","146","576199","0.0-107.0-0.0","48644952","wem/bandit_party_2","A18QU0YQB6Q8DF","either","3","651","","","","","","","0","1","0","","0.8270077233","0.2","0.6","0.8","0.4","0.8270077233","0.7158950816","0.2477643906","0.7848445355","","","","","","","","","","","","","","72","H","0","img/none_selected.jpg","","66","main_expt",""
"","bandit","147","578352","0.0-108.0-0.0","48644952","wem/bandit_party_2","A18QU0YQB6Q8DF","either","3","638","","","","","","","0","1","0","","0.7601471472","0.2","0.6","0.8","0.4","0.7601471472","0.6309271871","0.1801078726","0.763143195","","","","","","","","","","","","","","72","H","0","img/none_selected.jpg","","67","main_expt",""
"","bandit","148","580695","0.0-109.0-0.0","48644952","wem/bandit_party_2","A18QU0YQB6Q8DF","either","3","829","","","","","","","1","0","0","0.7567750057","","0.2","0.6","0.8","0.4","","","","","0.7567750057","0.617221228","0.08479184886","0.7966751536","","","","","","","","","","72","H","0","img/none_selected.jpg","","68","main_expt",""
"","bandit","149","583333","0.0-110.0-0.0","48644952","wem/bandit_party_2","A18QU0YQB6Q8DF","either","3","1126","","","","","","","0","1","0","","0.6871277649","0.2","0.6","0.8","0.4","0.6871277649","0.6235929763","0.06982522498","0.8534335227","","","","","","","","","","","","","","72","H","0","img/none_selected.jpg","","69","main_expt",""
"","bandit","150","585775","0.0-111.0-0.0","48644952","wem/bandit_party_2","A18QU0YQB6Q8DF","either","3","929","","","","","","","0","1","0","","0.773099018","0.2","0.6","0.8","0.4","0.773099018","0.5543620559","0.05029268469","0.8915498471","","","","","","","","","","","","","","72","H","0","img/none_selected.jpg","","70","main_expt",""
"","bandit","151","587997","0.0-112.0-0.0","48644952","wem/bandit_party_2","A18QU0YQB6Q8DF","either","3","712","","","","","","","0","1","0","","0.7412476729","0.2","0.6","0.8","0.4","0.7412476729","0.5333999135","0.06413839938","0.8736989015","","","","","","","","","","","","","","72","H","0","img/none_selected.jpg","","71","main_expt",""
"","bandit","152","590429","0.0-113.0-0.0","48644952","wem/bandit_party_2","A18QU0YQB6Q8DF","either","3","916","","","","","","","0","1","0","","0.8080704968","0.2","0.6","0.8","0.4","0.8080704968","0.5905126671","0.05155778705","0.8837551658","","","","","","","","","","","","","","72","H","0","img/none_selected.jpg","","72","main_expt",""
"","bandit","153","593076","0.0-114.0-0.0","48644952","wem/bandit_party_2","A18QU0YQB6Q8DF","either","3","1132","","","","","","","0","1","0","","0.8270016227","0.2","0.6","0.8","0.4","0.8270016227","0.6925119087","0.0232747386","0.8495494246","","","","","","","","","","","","","","72","H","0","img/none_selected.jpg","","73","main_expt",""
"","bandit","154","595444","0.0-115.0-0.0","48644952","wem/bandit_party_2","A18QU0YQB6Q8DF","either","3","854","","","","","","","0","1","0","","0.7872017979","0.2","0.6","0.8","0.4","0.7872017979","0.7134745341","0.04751547773","0.9127472651","","","","","","","","","","","","","","72","H","0","img/none_selected.jpg","","74","main_expt",""
"","bandit","155","597574","0.0-116.0-0.0","48644952","wem/bandit_party_2","A18QU0YQB6Q8DF","either","3","621","","","","","","","0","0","1","","0.6167225576","0.2","0.6","0.8","0.4","0.6167225576","0.8065440948","0.05282531612","0.9199060817","","","","","","","","","","","","","","72","H","0","img/none_selected.jpg","","75","main_expt",""
"","bandit","156","600141","0.0-117.0-0.0","48644952","wem/bandit_party_2","A18QU0YQB6Q8DF","either","3","1052","","","","","","","1","0","0","0.7849172319","","0.2","0.6","0.8","0.4","","","","","0.637182095","0.7849172319","0.08738729654","0.8691294168","","","","","","","","","","74","J","1","","","76","main_expt",""
"","bandit","157","602732","0.0-118.0-0.0","48644952","wem/bandit_party_2","A18QU0YQB6Q8DF","either","3","1078","","","","","","","0","1","0","","0.7818962729","0.2","0.6","0.8","0.4","0.7169911294","0.7818962729","0.08851312664","0.9111329321","","","","","","","","","","","","","","74","J","1","","","77","main_expt",""
"","bandit","158","605410","0.0-119.0-0.0","48644952","wem/bandit_party_2","A18QU0YQB6Q8DF","either","3","1156","","","","","","","0","0","1","0.7002933386","","0.2","0.6","0.8","0.4","","","","","0.7446448061","0.7002933386","0.145228539","0.9286966754","","","","","","","","","","74","J","1","","","78","main_expt",""
"","bandit","159","608196","0.0-120.0-0.0","48644952","wem/bandit_party_2","A18QU0YQB6Q8DF","either","3","1269","","","","","","","0","1","0","","0.6510109529","0.2","0.6","0.8","0.4","0.8152221547","0.6510109529","0.1669860915","0.9616021792","","","","","","","","","","","","","","74","J","1","","","79","main_expt",""
"","bandit","160","610687","0.0-121.0-0.0","48644952","wem/bandit_party_2","A18QU0YQB6Q8DF","either","3","979","","","","","","","1","0","0","0.6765614865","","0.2","0.6","0.8","0.4","","","","","0.810351938","0.6765614865","0.1922913003","0.950571795","","","","","","","","","","74","J","1","","","80","main_expt",""
"","bandit","161","613257","0.0-122.0-0.0","48644952","wem/bandit_party_2","A18QU0YQB6Q8DF","either","3","1057","","","","","","","1","0","0","0.5908869344","","0.2","0.6","0.8","0.4","","","","","0.8895110989","0.5908869344","0.2407870914","0.9331160128","","","","","","","","","","74","J","1","","","81","main_expt",""
"","bandit","162","615617","0.0-123.0-0.0","48644952","wem/bandit_party_2","A18QU0YQB6Q8DF","either","3","845","","","","","","","0","1","0","","0.5267531711","0.2","0.6","0.8","0.4","0.9046816681","0.5267531711","0.3077898034","0.9465986336","","","","","","","","","","","","","","74","J","1","","","82","main_expt",""
"","bandit","163","618066","0.0-124.0-0.0","48644952","wem/bandit_party_2","A18QU0YQB6Q8DF","either","3","933","","","","","","","0","0","1","0.6168373964","","0.2","0.6","0.8","0.4","","","","","0.8465278631","0.6168373964","0.2337579628","0.9371159138","","","","","","","","","","74","J","1","","","83","main_expt",""
"","bandit","164","620586","0.0-125.0-0.0","48644952","wem/bandit_party_2","A18QU0YQB6Q8DF","either","3","1006","","","","","","","0","1","0","","0.5733990252","0.2","0.6","0.8","0.4","0.7584930438","0.5733990252","0.2781329454","0.8998840018","","","","","","","","","","","","","","74","J","1","","","84","main_expt",""
"","bandit","165","623118","0.0-126.0-0.0","48644952","wem/bandit_party_2","A18QU0YQB6Q8DF","either","3","1019","","","","","","","0","0","1","0.3013149798","","0.2","0.6","0.8","0.4","","","","","0.7727946294","0.4719695616","0.3013149798","0.9102188985","","","","","","","","","","75","K","2","","","85","main_expt",""
"","bandit","166","625622","0.0-127.0-0.0","48644952","wem/bandit_party_2","A18QU0YQB6Q8DF","either","3","992","","","","","","","0","1","0","","0.9000055418","0.2","0.6","0.8","0.4","0.8216594778","0.6941651786","0.3231836659","0.9000055418","","","","","","","","","","","","","","76","L","3","","","86","main_expt",""
"","bandit","167","627967","0.0-128.0-0.0","48644952","wem/bandit_party_2","A18QU0YQB6Q8DF","either","3","837","","","","","","","0","1","0","","0.8563468124","0.2","0.6","0.8","0.4","0.7833884788","0.5408952125","0.3986379136","0.8563468124","","","","","","","","","","","","","","76","L","3","","","87","main_expt",""
"","bandit","168","630616","0.0-129.0-0.0","48644952","wem/bandit_party_2","A18QU0YQB6Q8DF","either","3","1135","","","","","","","1","0","0","0.7349543302","","0.2","0.6","0.8","0.4","","","","","0.7804426693","0.5438891422","0.4230151841","0.7349543302","","","","","","","","","","76","L","3","","","88","main_expt",""
"","bandit","169","633143","0.0-130.0-0.0","48644952","wem/bandit_party_2","A18QU0YQB6Q8DF","either","3","1014","","","","","","","0","0","1","","0.7907967515","0.2","0.6","0.8","0.4","0.7930928848","0.4294971294","0.3761858397","0.7907967515","","","","","","","","","","","","","","76","L","3","","","89","main_expt",""
"","bandit","170","635566","0.0-131.0-0.0","48644952","wem/bandit_party_2","A18QU0YQB6Q8DF","either","3","910","","","","","","","0","1","0","","0.7883246469","0.2","0.6","0.8","0.4","0.7683039237","0.4928337868","0.4799086841","0.7883246469","","","","","","","","","","","","","","76","L","3","","","90","main_expt",""
"","bandit","171","637778","0.0-132.0-0.0","48644952","wem/bandit_party_2","A18QU0YQB6Q8DF","either","3","701","","","","","","","0","0","1","","0.8389096604","0.2","0.6","0.8","0.4","0.8072091422","0.5655090935","0.4558425901","0.8389096604","","","","","","","","","","","","","","76","L","3","","","91","main_expt",""
"","bandit","172","640038","0.0-133.0-0.0","48644952","wem/bandit_party_2","A18QU0YQB6Q8DF","either","3","745","","","","","","","0","0","1","","0.8064187158","0.2","0.6","0.8","0.4","0.7791444337","0.6154818033","0.3781515597","0.8064187158","","","","","","","","","","","","","","76","L","3","","","92","main_expt",""
"","bandit","173","642022","0.0-134.0-0.0","48644952","wem/bandit_party_2","A18QU0YQB6Q8DF","either","3","470","","","","","","","0","0","1","","0.2858753042","0.2","0.6","0.8","0.4","0.8498372391","0.7381217307","0.2858753042","0.7542368763","","","","","","","","","","","","","","75","K","2","","","93","main_expt",""
"","bandit","174","644253","0.0-135.0-0.0","48644952","wem/bandit_party_2","A18QU0YQB6Q8DF","either","3","710","","","","","","","0","0","1","0.3914428564","","0.2","0.6","0.8","0.4","","","","","0.8440610374","0.7776388333","0.3914428564","0.6932487021","","","","","","","","","","75","K","2","","","94","main_expt",""
"","bandit","175","646637","0.0-136.0-0.0","48644952","wem/bandit_party_2","A18QU0YQB6Q8DF","either","3","869","","","","","","","1","0","0","0.3800018616","","0.2","0.6","0.8","0.4","","","","","0.8092418145","0.8299152283","0.3800018616","0.6706070003","","","","","","","","","","75","K","2","","","95","main_expt",""
"","bandit","176","649038","0.0-137.0-0.0","48644952","wem/bandit_party_2","A18QU0YQB6Q8DF","either","3","886","","","","","","","0","0","1","","0.3078584031","0.2","0.6","0.8","0.4","0.8655172998","0.7697811485","0.3078584031","0.6670251336","","","","","","","","","","","","","","75","K","2","","","96","main_expt",""
"","bandit","177","651317","0.0-138.0-0.0","48644952","wem/bandit_party_2","A18QU0YQB6Q8DF","either","3","763","","","","","","","0","0","1","","0.7487724405","0.2","0.6","0.8","0.4","0.8735151232","0.7487724405","0.218486712","0.7023758817","","","","","","","","","","","","","","74","J","1","","","97","main_expt",""
"","bandit","178","653592","0.0-139.0-0.0","48644952","wem/bandit_party_2","A18QU0YQB6Q8DF","either","3","759","","","","","","","0","0","1","0.2037628256","","0.2","0.6","0.8","0.4","","","","","0.84409386","0.7450583294","0.2037628256","0.7036518389","","","","","","","","","","75","K","2","","","98","main_expt",""
"","bandit","179","655785","0.0-140.0-0.0","48644952","wem/bandit_party_2","A18QU0YQB6Q8DF","either","3","679","","","","","","","1","0","0","0.7227120129","","0.2","0.6","0.8","0.4","","","","","0.8089648913","0.7227120129","0.2400196326","0.8401346726","","","","","","","","","","74","J","1","","","99","main_expt",""
"","bandit","180","658259","0.0-141.0-0.0","48644952","wem/bandit_party_2","A18QU0YQB6Q8DF","either","3","960","","","","","","","0","0","1","0.5872141049","","0.2","0.6","0.8","0.4","","","","","0.7259557377","0.5872141049","0.3298222115","0.8640782416","","","","","","","","","","74","J","1","","","100","main_expt",""
"","bandit","181","660658","0.0-142.0-0.0","48644952","wem/bandit_party_2","A18QU0YQB6Q8DF","either","3","881","","","","","","","0","0","1","0.6432213136","","0.2","0.6","0.8","0.4","","","","","0.6332869741","0.6432213136","0.3108047587","0.8232172207","","","","","","","","","","74","J","1","","","101","main_expt",""
"","bandit","182","663073","0.0-143.0-0.0","48644952","wem/bandit_party_2","A18QU0YQB6Q8DF","either","3","908","","","","","","","1","0","0","0.6009476408","","0.2","0.6","0.8","0.4","","","","","0.659443461","0.6009476408","0.2869381514","0.8451901448","","","","","","","","","","74","J","1","","","102","main_expt",""
"","bandit","183","665484","0.0-144.0-0.0","48644952","wem/bandit_party_2","A18QU0YQB6Q8DF","either","3","895","","","","","","","1","0","0","0.6120105745","","0.2","0.6","0.8","0.4","","","","","0.5959971703","0.6120105745","0.246485708","0.8792283932","","","","","","","","","","74","J","1","","","103","main_expt",""
"","bandit","184","668113","0.0-145.0-0.0","48644952","wem/bandit_party_2","A18QU0YQB6Q8DF","either","3","1116","","","","","","","0","0","1","0.6821098495","","0.2","0.6","0.8","0.4","","","","","0.5643630141","0.6821098495","0.2175667678","0.8887181638","","","","","","","","","","74","J","1","","","104","main_expt",""
"","bandit","185","670250","0.0-146.0-0.0","48644952","wem/bandit_party_2","A18QU0YQB6Q8DF","either","3","621","","","","","","","1","0","0","0.5489079514","","0.2","0.6","0.8","0.4","","","","","0.5489079514","0.7228510016","0.2645808036","0.8013578166","","","","","","","","","","72","H","0","img/none_selected.jpg","","105","main_expt",""
"","bandit","186","672753","0.0-147.0-0.0","48644952","wem/bandit_party_2","A18QU0YQB6Q8DF","either","3","987","","","","","","","0","0","1","","0.4336033326","0.2","0.6","0.8","0.4","0.4336033326","0.6639212405","0.2652424516","0.7307006529","","","","","","","","","","","","","","72","H","0","img/none_selected.jpg","","106","main_expt",""
"","bandit","187","675177","0.0-148.0-0.0","48644952","wem/bandit_party_2","A18QU0YQB6Q8DF","either","3","906","","","","","","","0","0","1","","0.4779201531","0.2","0.6","0.8","0.4","0.4779201531","0.6237034742","0.2481661544","0.7519500851","","","","","","","","","","","","","","72","H","0","img/none_selected.jpg","","107","main_expt",""
"","bandit","188","677713","0.0-149.0-0.0","48644952","wem/bandit_party_2","A18QU0YQB6Q8DF","either","3","1022","","","","","","","0","1","0","","0.5075294874","0.2","0.6","0.8","0.4","0.5075294874","0.5847293191","0.2361720859","0.7457577851","","","","","","","","","","","","","","72","H","0","img/none_selected.jpg","","108","main_expt",""
"","bandit","189","680200","0.0-150.0-0.0","48644952","wem/bandit_party_2","A18QU0YQB6Q8DF","either","3","970","","","","","","","0","1","0","","0.522842385","0.2","0.6","0.8","0.4","0.522842385","0.6260859175","0.2799679389","0.77583868","","","","","","","","","","","","","","72","H","0","img/none_selected.jpg","","109","main_expt",""
"","bandit","190","682799","0.0-151.0-0.0","48644952","wem/bandit_party_2","A18QU0YQB6Q8DF","either","3","1083","","","","","","","1","0","0","0.419893696","","0.2","0.6","0.8","0.4","","","","","0.419893696","0.4788227383","0.3333098602","0.7520827962","","","","","","","","","","72","H","0","img/none_selected.jpg","","110","main_expt",""
"","bandit","191","684791","0.0-152.0-0.0","48644952","wem/bandit_party_2","A18QU0YQB6Q8DF","either","3","478","","","","","","","0","0","1","","0.431092028","0.2","0.6","0.8","0.4","0.431092028","0.6019778282","0.3669732535","0.6512809768","","","","","","","","","","","","","","72","H","0","img/none_selected.jpg","","111","main_expt",""
"","bandit","192","687038","0.0-153.0-0.0","48644952","wem/bandit_party_2","A18QU0YQB6Q8DF","either","3","730","","","","","","","0","0","1","","0.3590071368","0.2","0.6","0.8","0.4","0.3590071368","0.546445977","0.389765336","0.5891937939","","","","","","","","","","","","","","72","H","0","img/none_selected.jpg","","112","main_expt",""
"","bandit","193","689337","0.0-154.0-0.0","48644952","wem/bandit_party_2","A18QU0YQB6Q8DF","either","3","783","","","","","","","0","1","0","","0.4498419114","0.2","0.6","0.8","0.4","0.4498419114","0.6256092846","0.3191506652","0.6490525038","","","","","","","","","","","","","","72","H","0","img/none_selected.jpg","","113","main_expt",""
"","bandit","194","691749","0.0-155.0-0.0","48644952","wem/bandit_party_2","A18QU0YQB6Q8DF","either","3","897","","","","","","","1","0","0","0.4829831469","","0.2","0.6","0.8","0.4","","","","","0.4829831469","0.6577617598","0.2090321438","0.6283680234","","","","","","","","","","72","H","0","img/none_selected.jpg","","114","main_expt",""
"","bandit","195","693957","0.0-156.0-0.0","48644952","wem/bandit_party_2","A18QU0YQB6Q8DF","either","3","693","","","","","","","0","0","1","0.4846695964","","0.2","0.6","0.8","0.4","","","","","0.4846695964","0.7140476354","0.2094439124","0.6064224059","","","","","","","","","","72","H","0","img/none_selected.jpg","","115","main_expt",""
"","bandit","196","696308","0.0-157.0-0.0","48644952","wem/bandit_party_2","A18QU0YQB6Q8DF","either","3","837","","","","","","","0","1","0","","0.5396909338","0.2","0.6","0.8","0.4","0.5396909338","0.6589976567","0.2695181069","0.545813367","","","","","","","","","","","","","","72","H","0","img/none_selected.jpg","","116","main_expt",""
"","bandit","197","698693","0.0-158.0-0.0","48644952","wem/bandit_party_2","A18QU0YQB6Q8DF","either","3","870","","","","","","","0","1","0","","0.5378282835","0.2","0.6","0.8","0.4","0.5378282835","0.6937703341","0.3402036285","0.5179373022","","","","","","","","","","","","","","72","H","0","img/none_selected.jpg","","117","main_expt",""
"","bandit","198","701422","0.0-159.0-0.0","48644952","wem/bandit_party_2","A18QU0YQB6Q8DF","either","3","1213","","","","","","","0","1","0","","0.5729988564","0.2","0.6","0.8","0.4","0.5729988564","0.77114399","0.3101634078","0.4014157923","","","","","","","","","","","","","","72","H","0","img/none_selected.jpg","","118","main_expt",""
"","bandit","199","704124","0.0-160.0-0.0","48644952","wem/bandit_party_2","A18QU0YQB6Q8DF","either","3","1187","","","","","","","1","0","0","0.3242193616","","0.2","0.6","0.8","0.4","","","","","0.5630251564","0.710000291","0.3242193616","0.4360264599","","","","","","","","","","75","K","2","","","119","main_expt",""
"","bandit","200","706605","0.0-161.0-0.0","48644952","wem/bandit_party_2","A18QU0YQB6Q8DF","either","3","961","","","","","","","1","0","0","0.3334277272","","0.2","0.6","0.8","0.4","","","","","0.6482115929","0.6767982245","0.3334277272","0.3297853269","","","","","","","","","","75","K","2","","","120","main_expt",""
"","bandit","201","709228","0.0-162.0-0.0","48644952","wem/bandit_party_2","A18QU0YQB6Q8DF","either","3","1108","","","","","","","0","0","1","0.4066521311","","0.2","0.6","0.8","0.4","","","","","0.5688505083","0.7360115258","0.4066521311","0.3767442019","","","","","","","","","","75","K","2","","","121","main_expt",""
"","bandit","202","712044","0.0-163.0-0.0","48644952","wem/bandit_party_2","A18QU0YQB6Q8DF","either","3","1299","","","","","","","1","0","0","0.5193034213","","0.2","0.6","0.8","0.4","","","","","0.5349597204","0.7258716992","0.5193034213","0.3589515546","","","","","","","","","","75","K","2","","","122","main_expt",""
"","bandit","203","714730","0.0-164.0-0.0","48644952","wem/bandit_party_2","A18QU0YQB6Q8DF","either","3","1172","","","","","","","1","0","0","0.5594962391","","0.2","0.6","0.8","0.4","","","","","0.412887176","0.7848203729","0.5594962391","0.3461890545","","","","","","","","","","75","K","2","","","123","main_expt",""
"","bandit","204","717378","0.0-165.0-0.0","48644952","wem/bandit_party_2","A18QU0YQB6Q8DF","either","3","1132","","","","","","","0","0","1","0.6876014299","","0.2","0.6","0.8","0.4","","","","","0.4137060999","0.7673004895","0.6876014299","0.2287340519","","","","","","","","","","75","K","2","","","124","main_expt",""
"","bandit","205","719777","0.0-166.0-0.0","48644952","wem/bandit_party_2","A18QU0YQB6Q8DF","either","3","884","","","","","","","0","1","0","","0.8020703208","0.2","0.6","0.8","0.4","0.3226696341","0.8020703208","0.7354493796","0.2900718705","","","","","","","","","","","","","","74","J","1","","","125","main_expt",""
"","bandit","206","722178","0.0-167.0-0.0","48644952","wem/bandit_party_2","A18QU0YQB6Q8DF","either","3","886","","","","","","","1","0","0","0.8196031782","","0.2","0.6","0.8","0.4","","","","","0.3904211026","0.8196031782","0.76840964","0.2880997441","","","","","","","","","","74","J","1","","","126","main_expt",""
"","bandit","207","725008","0.0-168.0-0.0","48644952","wem/bandit_party_2","A18QU0YQB6Q8DF","either","3","1314","","","","","","","0","0","1","0.7095492128","","0.2","0.6","0.8","0.4","","","","","0.4227014292","0.7095492128","0.7310750685","0.3451069126","","","","","","","","","","74","J","1","","","127","main_expt",""
"","bandit","208","727674","0.0-169.0-0.0","48644952","wem/bandit_party_2","A18QU0YQB6Q8DF","either","3","1149","","","","","","","0","1","0","","0.711577854","0.2","0.6","0.8","0.4","0.543317668","0.711577854","0.6582635175","0.3129298861","","","","","","","","","","","","","","74","J","1","","","128","main_expt",""
"","bandit","209","777521","0.0-170.0-0.0","48644952","wem/bandit_party_2","A18QU0YQB6Q8DF","either","3","48333","","","","","","","1","0","0","0.5906282681","","0.2","0.6","0.8","0.4","","","","","0.5906282681","0.7022761705","0.7529887683","0.3507055597","","","","","","","","","","72","H","0","img/none_selected.jpg","","129","main_expt",""
"","bandit","210","779487","0.0-171.0-0.0","48644952","wem/bandit_party_2","A18QU0YQB6Q8DF","either","3","457","","","","","","","1","0","0","0.6636268631","","0.2","0.6","0.8","0.4","","","","","0.6636268631","0.7309419319","0.7929301986","0.3753424236","","","","","","","","","","72","H","0","img/none_selected.jpg","","130","main_expt",""
"","bandit","211","781842","0.0-172.0-0.0","48644952","wem/bandit_party_2","A18QU0YQB6Q8DF","either","3","839","","","","","","","0","1","0","","0.5686699027","0.2","0.6","0.8","0.4","0.5686699027","0.6904825683","0.8149544693","0.3473486375","","","","","","","","","","","","","","72","H","0","img/none_selected.jpg","","131","main_expt",""
"","bandit","212","784513","0.0-173.0-0.0","48644952","wem/bandit_party_2","A18QU0YQB6Q8DF","either","3","1154","","","","","","","0","1","0","","0.6564012045","0.2","0.6","0.8","0.4","0.6564012045","0.7153166113","0.7626544417","0.303679922","","","","","","","","","","","","","","72","H","0","img/none_selected.jpg","","132","main_expt",""
"","bandit","213","787378","0.0-174.0-0.0","48644952","wem/bandit_party_2","A18QU0YQB6Q8DF","either","3","1350","","","","","","","0","1","0","","0.5876654864","0.2","0.6","0.8","0.4","0.5876654864","0.8135501627","0.7584501248","0.3385565331","","","","","","","","","","","","","","72","H","0","img/none_selected.jpg","","133","main_expt",""
"","bandit","214","789676","0.0-175.0-0.0","48644952","wem/bandit_party_2","A18QU0YQB6Q8DF","either","3","784","","","","","","","0","0","1","","0.5299368298","0.2","0.6","0.8","0.4","0.5299368298","0.7707892239","0.7905015291","0.3686406913","","","","","","","","","","","","","","72","H","0","img/none_selected.jpg","","134","main_expt",""
"","bandit","215","791806","0.0-176.0-0.0","48644952","wem/bandit_party_2","A18QU0YQB6Q8DF","either","3","621","","","","","","","0","1","0","","0.7689088841","0.2","0.6","0.8","0.4","0.4547966061","0.7689088841","0.7515189777","0.3672202126","","","","","","","","","","","","","","74","J","1","","","135","main_expt",""
"","bandit","216","794365","0.0-177.0-0.0","48644952","wem/bandit_party_2","A18QU0YQB6Q8DF","either","3","1048","","","","","","","0","1","0","","0.6641324257","0.2","0.6","0.8","0.4","0.5290841583","0.6641324257","0.7293518859","0.4064769993","","","","","","","","","","","","","","74","J","1","","","136","main_expt",""
"","bandit","217","796854","0.0-178.0-0.0","48644952","wem/bandit_party_2","A18QU0YQB6Q8DF","either","3","972","","","","","","","0","0","1","","0.635388201","0.2","0.6","0.8","0.4","0.419904672","0.635388201","0.7286216209","0.3492503667","","","","","","","","","","","","","","74","J","1","","","137","main_expt",""
"","bandit","218","799958","0.0-179.0-0.0","48644952","wem/bandit_party_2","A18QU0YQB6Q8DF","either","3","1587","","","","","","","0","0","1","0.7425921641","","0.2","0.6","0.8","0.4","","","","","0.4532768315","0.6889508363","0.7425921641","0.3315752647","","","","","","","","","","75","K","2","","","138","main_expt",""
"","bandit","219","802788","0.0-180.0-0.0","48644952","wem/bandit_party_2","A18QU0YQB6Q8DF","either","3","1315","","","","","","","1","0","0","0.7356638012","","0.2","0.6","0.8","0.4","","","","","0.4194835996","0.6481427694","0.7356638012","0.3080831972","","","","","","","","","","75","K","2","","","139","main_expt",""
"","bandit","220","805236","0.0-181.0-0.0","48644952","wem/bandit_party_2","A18QU0YQB6Q8DF","either","3","932","","","","","","","1","0","0","0.7334346803","","0.2","0.6","0.8","0.4","","","","","0.420008375","0.6497449761","0.7334346803","0.3254670704","","","","","","","","","","75","K","2","","","140","main_expt",""
"","bandit","221","807515","0.0-182.0-0.0","48644952","wem/bandit_party_2","A18QU0YQB6Q8DF","either","3","764","","","","","","","1","0","0","0.7737071977","","0.2","0.6","0.8","0.4","","","","","0.3908595681","0.7328205829","0.7737071977","0.3452870884","","","","","","","","","","75","K","2","","","141","main_expt",""
"","bandit","222","810077","0.0-183.0-0.0","48644952","wem/bandit_party_2","A18QU0YQB6Q8DF","either","3","1049","","","","","","","1","0","0","0.7912630164","","0.2","0.6","0.8","0.4","","","","","0.3994278682","0.6396752577","0.7912630164","0.2659846132","","","","","","","","","","75","K","2","","","142","main_expt",""
"","bandit","223","812666","0.0-184.0-0.0","48644952","wem/bandit_party_2","A18QU0YQB6Q8DF","either","3","1074","","","","","","","0","1","0","","0.7709923268","0.2","0.6","0.8","0.4","0.3137486051","0.5974809775","0.7709923268","0.2549781044","","","","","","","","","","","","","","75","K","2","","","143","main_expt",""
"","bandit","224","815091","0.0-185.0-0.0","48644952","wem/bandit_party_2","A18QU0YQB6Q8DF","either","3","907","","","","","","","1","0","0","0.7492848764","","0.2","0.6","0.8","0.4","","","","","0.3961992406","0.5953980303","0.7492848764","0.3603981418","","","","","","","","","","75","K","2","","","144","main_expt",""
"","bandit","225","817219","0.0-186.0-0.0","48644952","wem/bandit_party_2","A18QU0YQB6Q8DF","either","3","613","","","","","","","1","0","0","0.7343485297","","0.2","0.6","0.8","0.4","","","","","0.3186856111","0.6215671736","0.7343485297","0.3682949958","","","","","","","","","","75","K","2","","","145","main_expt",""
"","bandit","226","819291","0.0-187.0-0.0","48644952","wem/bandit_party_2","A18QU0YQB6Q8DF","either","3","554","","","","","","","1","0","0","0.7701032705","","0.2","0.6","0.8","0.4","","","","","0.2724247948","0.5766937592","0.7701032705","0.5028772858","","","","","","","","","","75","K","2","","","146","main_expt",""
"","bandit","227","821373","0.0-188.0-0.0","48644952","wem/bandit_party_2","A18QU0YQB6Q8DF","either","3","566","","","","","","","1","0","0","0.7521601774","","0.2","0.6","0.8","0.4","","","","","0.2844288079","0.4600492943","0.7521601774","0.4186890645","","","","","","","","","","75","K","2","","","147","main_expt",""
"","bandit","228","823655","0.0-189.0-0.0","48644952","wem/bandit_party_2","A18QU0YQB6Q8DF","either","3","767","","","","","","","1","0","0","0.7762143641","","0.2","0.6","0.8","0.4","","","","","0.3095389551","0.4575448178","0.7762143641","0.3928328601","","","","","","","","","","75","K","2","","","148","main_expt",""
"","bandit","229","826307","0.0-190.0-0.0","48644952","wem/bandit_party_2","A18QU0YQB6Q8DF","either","3","1135","","","","","","","0","0","1","0.716016993","","0.2","0.6","0.8","0.4","","","","","0.2464654743","0.3840278576","0.716016993","0.4220063763","","","","","","","","","","75","K","2","","","149","main_expt",""
"","bandit","230","828346","0.0-191.0-0.0","48644952","wem/bandit_party_2","A18QU0YQB6Q8DF","either","3","518","","","","","","","0","0","1","","0.3206822378","0.2","0.6","0.8","0.4","0.2088091358","0.3004406684","0.7182774931","0.3206822378","","","","","","","","","","","","","","76","L","3","","","150","main_expt",""
"","bandit","231","830353","0.0-192.0-0.0","48644952","wem/bandit_party_2","A18QU0YQB6Q8DF","either","3","489","","","","","","","0","1","0","","0.3380172956","0.2","0.6","0.8","0.4","0.2670014618","0.2769981479","0.8028216805","0.3380172956","","","","","","","","","","","","","","76","L","3","","","151","main_expt",""
"","bandit","232","832617","0.0-193.0-0.0","48644952","wem/bandit_party_2","A18QU0YQB6Q8DF","either","3","747","","","","","","","0","0","1","","0.2461440624","0.2","0.6","0.8","0.4","0.3100930243","0.40565407","0.8634692279","0.2461440624","","","","","","","","","","","","","","76","L","3","","","152","main_expt",""
"","bandit","233","834865","0.0-194.0-0.0","48644952","wem/bandit_party_2","A18QU0YQB6Q8DF","either","3","732","","","","","","","1","0","0","0.1852716423","","0.2","0.6","0.8","0.4","","","","","0.3796096158","0.3829351634","0.7719190238","0.1852716423","","","","","","","","","","76","L","3","","","153","main_expt",""
"","bandit","234","837224","0.0-195.0-0.0","48644952","wem/bandit_party_2","A18QU0YQB6Q8DF","either","3","842","","","","","","","0","0","1","","0.1660439368","0.2","0.6","0.8","0.4","0.2265028128","0.4912137185","0.8343429945","0.1660439368","","","","","","","","","","","","","","76","L","3","","","154","main_expt",""
"","bandit","235","839584","0.0-196.0-0.0","48644952","wem/bandit_party_2","A18QU0YQB6Q8DF","either","3","843","","","","","","","0","0","1","","0.2241607793","0.2","0.6","0.8","0.4","0.2135741777","0.5312535156","0.7908731232","0.2241607793","","","","","","","","","","","","","","76","L","3","","","155","main_expt",""
"","bandit","236","841790","0.0-197.0-0.0","48644952","wem/bandit_party_2","A18QU0YQB6Q8DF","either","3","690","","","","","","","0","0","1","0.7848911391","","0.2","0.6","0.8","0.4","","","","","0.1338357519","0.5747898199","0.7848911391","0.1566338899","","","","","","","","","","75","K","2","","","156","main_expt",""
"","bandit","237","843888","0.0-198.0-0.0","48644952","wem/bandit_party_2","A18QU0YQB6Q8DF","either","3","582","","","","","","","1","0","0","0.5948125822","","0.2","0.6","0.8","0.4","","","","","0.1344370697","0.5948125822","0.7467155263","0.1839373886","","","","","","","","","","74","J","1","","","157","main_expt",""
"","bandit","238","846438","0.0-199.0-0.0","48644952","wem/bandit_party_2","A18QU0YQB6Q8DF","either","3","1032","","","","","","","0","0","1","0.6533804049","","0.2","0.6","0.8","0.4","","","","","0.1217930933","0.6533804049","0.7413618202","0.155802242","","","","","","","","","","74","J","1","","","158","main_expt",""
"","bandit","239","848569","0.0-200.0-0.0","48644952","wem/bandit_party_2","A18QU0YQB6Q8DF","either","3","613","","","","","","","0","0","1","","0.08524485746","0.2","0.6","0.8","0.4","0.08524485746","0.5777198579","0.6882043704","0.2304237345","","","","","","","","","","","","","","72","H","0","img/none_selected.jpg","","159","main_expt",""
"","bandit","240","850950","0.0-201.0-0.0","48644952","wem/bandit_party_2","A18QU0YQB6Q8DF","either","3","863","","","","","","","0","0","1","0.07332219892","","0.2","0.6","0.8","0.4","","","","","0.07332219892","0.6777741118","0.7253096401","0.2242026456","","","","","","","","","","72","H","0","img/none_selected.jpg","","160","main_expt",""
"","bandit","241","853134","0.0-202.0-0.0","48644952","wem/bandit_party_2","A18QU0YQB6Q8DF","either","3","666","","","","","","","1","0","0","0.6249074267","","0.2","0.6","0.8","0.4","","","","","0.1063489691","0.6249074267","0.6989182833","0.2708915048","","","","","","","","","","74","J","1","","","161","main_expt",""
"","bandit","242","855462","0.0-203.0-0.0","48644952","wem/bandit_party_2","A18QU0YQB6Q8DF","either","3","807","","","","","","","0","1","0","","0.6755041601","0.2","0.6","0.8","0.4","0.09670310095","0.6755041601","0.7679575172","0.2921592604","","","","","","","","","","","","","","74","J","1","","","162","main_expt",""
"","bandit","243","857805","0.0-204.0-0.0","48644952","wem/bandit_party_2","A18QU0YQB6Q8DF","either","3","826","","","","","","","1","0","0","0.6461818487","","0.2","0.6","0.8","0.4","","","","","0.1266359811","0.6461818487","0.6877390752","0.2050535257","","","","","","","","","","74","J","1","","","163","main_expt",""
"","bandit","244","860348","0.0-205.0-0.0","48644952","wem/bandit_party_2","A18QU0YQB6Q8DF","either","3","1025","","","","","","","0","0","1","0.76368027","","0.2","0.6","0.8","0.4","","","","","0.1212611996","0.76368027","0.6957575266","0.1998759094","","","","","","","","","","74","J","1","","","164","main_expt",""
"","bandit","245","862596","0.0-206.0-0.0","48644952","wem/bandit_party_2","A18QU0YQB6Q8DF","either","3","731","","","","","","","1","0","0","0.6760148625","","0.2","0.6","0.8","0.4","","","","","0.1917887173","0.8400099296","0.6760148625","0.1821974317","","","","","","","","","","75","K","2","","","165","main_expt",""
"","bandit","246","865325","0.0-207.0-0.0","48644952","wem/bandit_party_2","A18QU0YQB6Q8DF","either","3","1206","","","","","","","0","0","1","0.6463317238","","0.2","0.6","0.8","0.4","","","","","0.1560613016","0.8573275969","0.6463317238","0.2916844583","","","","","","","","","","75","K","2","","","166","main_expt",""
"","bandit","247","867332","0.0-208.0-0.0","48644952","wem/bandit_party_2","A18QU0YQB6Q8DF","either","3","490","","","","","","","0","0","1","0.3087465624","","0.2","0.6","0.8","0.4","","","","","0.2214887095","0.7735369509","0.5613055562","0.3087465624","","","","","","","","","","76","L","3","","","167","main_expt",""
"","bandit","248","869491","0.0-209.0-0.0","48644952","wem/bandit_party_2","A18QU0YQB6Q8DF","either","3","650","","","","","","","0","1","0","","0.3896626528","0.2","0.6","0.8","0.4","0.3463453368","0.8091314607","0.5586162784","0.3896626528","","","","","","","","","","","","","","76","L","3","","","168","main_expt",""
"","bandit","249","871674","0.0-210.0-0.0","48644952","wem/bandit_party_2","A18QU0YQB6Q8DF","either","3","673","","","","","","","0","0","1","","0.4458805252","0.2","0.6","0.8","0.4","0.3222551453","0.8364166478","0.597448185","0.4458805252","","","","","","","","","","","","","","76","L","3","","","169","main_expt",""
"","bandit","250","874098","0.0-211.0-0.0","48644952","wem/bandit_party_2","A18QU0YQB6Q8DF","either","3","907","","","","","","","1","0","0","0.4844269655","","0.2","0.6","0.8","0.4","","","","","0.2556410415","0.7867883415","0.5351242352","0.4844269655","","","","","","","","","","76","L","3","","","170","main_expt",""
"","bandit","251","876307","0.0-212.0-0.0","48644952","wem/bandit_party_2","A18QU0YQB6Q8DF","either","3","692","","","","","","","0","0","1","0.4819966971","","0.2","0.6","0.8","0.4","","","","","0.2248109201","0.8728822524","0.4819966971","0.4858642724","","","","","","","","","","75","K","2","","","171","main_expt",""
"","bandit","252","878332","0.0-213.0-0.0","48644952","wem/bandit_party_2","A18QU0YQB6Q8DF","either","3","507","","","","","","","0","0","1","0.5060245996","","0.2","0.6","0.8","0.4","","","","","0.3468742366","0.7804912391","0.4038669266","0.5060245996","","","","","","","","","","76","L","3","","","172","main_expt",""
"","bandit","253","880308","0.0-214.0-0.0","48644952","wem/bandit_party_2","A18QU0YQB6Q8DF","either","3","456","","","","","","","1","0","0","0.7728490534","","0.2","0.6","0.8","0.4","","","","","0.234408543","0.7728490534","0.3102533384","0.5413528159","","","","","","","","","","74","J","1","","","173","main_expt",""
"","bandit","254","882489","0.0-215.0-0.0","48644952","wem/bandit_party_2","A18QU0YQB6Q8DF","either","3","664","","","","","","","1","0","0","0.814185781","","0.2","0.6","0.8","0.4","","","","","0.1404050277","0.814185781","0.3818943333","0.6505326818","","","","","","","","","","74","J","1","","","174","main_expt",""
"","bandit","255","884618","0.0-216.0-0.0","48644952","wem/bandit_party_2","A18QU0YQB6Q8DF","either","3","609","","","","","","","1","0","0","0.8010682597","","0.2","0.6","0.8","0.4","","","","","0.1081611795","0.8010682597","0.2893198216","0.6470977149","","","","","","","","","","74","J","1","","","175","main_expt",""
"","bandit","256","887233","0.0-217.0-0.0","48644952","wem/bandit_party_2","A18QU0YQB6Q8DF","either","3","1098","","","","","","","0","1","0","","0.7083228223","0.2","0.6","0.8","0.4","0.0730283124","0.7083228223","0.226416223","0.6844229635","","","","","","","","","","","","","","74","J","1","","","176","main_expt",""
"","bandit","257","890131","0.0-218.0-0.0","48644952","wem/bandit_party_2","A18QU0YQB6Q8DF","either","3","1376","","","","","","","0","1","0","","0.7408938443","0.2","0.6","0.8","0.4","0.07044941978","0.7408938443","0.2786676386","0.6883244284","","","","","","","","","","","","","","74","J","1","","","177","main_expt",""
"","bandit","258","892560","0.0-219.0-0.0","48644952","wem/bandit_party_2","A18QU0YQB6Q8DF","either","3","910","","","","","","","0","0","1","","0.6621187214","0.2","0.6","0.8","0.4","0.06886985111","0.6621187214","0.2279078815","0.6098590842","","","","","","","","","","","","","","74","J","1","","","178","main_expt",""
"","bandit","259","894880","0.0-220.0-0.0","48644952","wem/bandit_party_2","A18QU0YQB6Q8DF","either","3","810","","","","","","","0","0","1","0.6765487854","","0.2","0.6","0.8","0.4","","","","","0.07254371148","0.6765487854","0.1690126781","0.5924449164","","","","","","","","","","74","J","1","","","179","main_expt",""
"","bandit","260","897192","0.0-221.0-0.0","48644952","wem/bandit_party_2","A18QU0YQB6Q8DF","either","3","792","","","","","","","0","0","1","0.7276027883","","0.2","0.6","0.8","0.4","","","","","0.055057054","0.7276027883","0.1356066944","0.4915111467","","","","","","","","","","74","J","1","","","180","main_expt",""
"","bandit","261","899279","0.0-222.0-0.0","48644952","wem/bandit_party_2","A18QU0YQB6Q8DF","either","3","574","","","","","","","0","0","1","0.1187845962","","0.2","0.6","0.8","0.4","","","","","0.1187845962","0.7083410305","0.1889441784","0.4713933083","","","","","","","","","","72","H","0","img/none_selected.jpg","","181","main_expt",""
"","bandit","262","901691","0.0-223.0-0.0","48644952","wem/bandit_party_2","A18QU0YQB6Q8DF","either","3","889","","","","","","","0","0","1","0.1304227184","","0.2","0.6","0.8","0.4","","","","","0.1304227184","0.6489729838","0.2163976064","0.500114893","","","","","","","","","","72","H","0","img/none_selected.jpg","","182","main_expt",""
"","bandit","263","903937","0.0-224.0-0.0","48644952","wem/bandit_party_2","A18QU0YQB6Q8DF","either","3","726","","","","","","","0","0","1","","0.1374638341","0.2","0.6","0.8","0.4","0.1374638341","0.6956751073","0.1902524086","0.4949273894","","","","","","","","","","","","","","72","H","0","img/none_selected.jpg","","183","main_expt",""
"","bandit","264","905918","0.0-225.0-0.0","48644952","wem/bandit_party_2","A18QU0YQB6Q8DF","either","3","460","","","","","","","0","1","0","","0.6066537109","0.2","0.6","0.8","0.4","0.1914365344","0.6066537109","0.2265805791","0.4271361476","","","","","","","","","","","","","","74","J","1","","","184","main_expt",""
"","bandit","265","908454","0.0-226.0-0.0","48644952","wem/bandit_party_2","A18QU0YQB6Q8DF","either","3","1016","","","","","","","0","1","0","","0.6337362372","0.2","0.6","0.8","0.4","0.1939872458","0.6337362372","0.1843452782","0.4558255176","","","","","","","","","","","","","","74","J","1","","","185","main_expt",""
"","bandit","266","911133","0.0-227.0-0.0","48644952","wem/bandit_party_2","A18QU0YQB6Q8DF","either","3","1159","","","","","","","0","1","0","","0.5908962551","0.2","0.6","0.8","0.4","0.2219937035","0.5908962551","0.1898387663","0.4031301461","","","","","","","","","","","","","","74","J","1","","","186","main_expt",""
"","bandit","267","913439","0.0-228.0-0.0","48644952","wem/bandit_party_2","A18QU0YQB6Q8DF","either","3","785","","","","","","","0","1","0","","0.7651761031","0.2","0.6","0.8","0.4","0.2024523472","0.7651761031","0.210498268","0.3993697366","","","","","","","","","","","","","","74","J","1","","","187","main_expt",""
"","bandit","268","916036","0.0-229.0-0.0","48644952","wem/bandit_party_2","A18QU0YQB6Q8DF","either","3","1077","","","","","","","0","1","0","","0.7928336054","0.2","0.6","0.8","0.4","0.1930401344","0.7928336054","0.2368649008","0.4478687375","","","","","","","","","","","","","","74","J","1","","","188","main_expt",""
"","bandit","269","918642","0.0-230.0-0.0","48644952","wem/bandit_party_2","A18QU0YQB6Q8DF","either","3","1088","","","","","","","0","1","0","","0.8917358491","0.2","0.6","0.8","0.4","0.3255404916","0.8917358491","0.291591963","0.3699601256","","","","","","","","","","","","","","74","J","1","","","189","main_expt",""
"","bandit","270","921412","0.0-231.0-0.0","48644952","wem/bandit_party_2","A18QU0YQB6Q8DF","either","3","1251","","","","","","","1","0","0","0.898448025","","0.2","0.6","0.8","0.4","","","","","0.2364063212","0.898448025","0.4411779124","0.3723251068","","","","","","","","","","74","J","1","","","190","main_expt",""
"","bandit","271","923729","0.0-232.0-0.0","48644952","wem/bandit_party_2","A18QU0YQB6Q8DF","either","3","792","","","","","","","1","0","0","0.9186708851","","0.2","0.6","0.8","0.4","","","","","0.2662767285","0.9186708851","0.3968704403","0.3309849287","","","","","","","","","","74","J","1","","","191","main_expt",""
"","bandit","272","926283","0.0-233.0-0.0","48644952","wem/bandit_party_2","A18QU0YQB6Q8DF","either","3","1035","","","","","","","0","0","1","0.9314477517","","0.2","0.6","0.8","0.4","","","","","0.2815174114","0.9314477517","0.4512817608","0.2865625263","","","","","","","","","","74","J","1","","","192","main_expt",""
"","bandit","273","928425","0.0-234.0-0.0","48644952","wem/bandit_party_2","A18QU0YQB6Q8DF","either","3","622","","","","","","","0","1","0","","0.9090465067","0.2","0.6","0.8","0.4","0.3461293965","0.9090465067","0.4788006455","0.2862811746","","","","","","","","","","","","","","74","J","1","","","193","main_expt",""
"","bandit","274","930525","0.0-235.0-0.0","48644952","wem/bandit_party_2","A18QU0YQB6Q8DF","either","3","576","","","","","","","0","1","0","","0.8762249788","0.2","0.6","0.8","0.4","0.3303735913","0.8762249788","0.4651889587","0.2785288642","","","","","","","","","","","","","","74","J","1","","","194","main_expt",""
"","bandit","275","932770","0.0-236.0-0.0","48644952","wem/bandit_party_2","A18QU0YQB6Q8DF","either","3","728","","","","","","","0","1","0","","0.8623185747","0.2","0.6","0.8","0.4","0.3194565039","0.8623185747","0.4718629942","0.2283941808","","","","","","","","","","","","","","74","J","1","","","195","main_expt",""
"","bandit","276","934996","0.0-237.0-0.0","48644952","wem/bandit_party_2","A18QU0YQB6Q8DF","either","3","705","","","","","","","0","1","0","","0.7745977574","0.2","0.6","0.8","0.4","0.4103944464","0.7745977574","0.3825708332","0.214282227","","","","","","","","","","","","","","74","J","1","","","196","main_expt",""
"","bandit","277","937591","0.0-238.0-0.0","48644952","wem/bandit_party_2","A18QU0YQB6Q8DF","either","3","1077","","","","","","","1","0","0","0.7723069829","","0.2","0.6","0.8","0.4","","","","","0.4445726534","0.7723069829","0.4530864699","0.1422959513","","","","","","","","","","74","J","1","","","197","main_expt",""
"","bandit","278","940039","0.0-239.0-0.0","48644952","wem/bandit_party_2","A18QU0YQB6Q8DF","either","3","929","","","","","","","1","0","0","0.7084082875","","0.2","0.6","0.8","0.4","","","","","0.4351718099","0.7084082875","0.4337652667","0.1126324943","","","","","","","","","","74","J","1","","","198","main_expt",""
"","bandit","279","942376","0.0-240.0-0.0","48644952","wem/bandit_party_2","A18QU0YQB6Q8DF","either","3","816","","","","","","","0","1","0","","0.7016883558","0.2","0.6","0.8","0.4","0.4641294157","0.7016883558","0.4138332966","0.1144166609","","","","","","","","","","","","","","74","J","1","","","199","main_expt",""
"","bandit","280","944807","0.0-241.0-0.0","48644952","wem/bandit_party_2","A18QU0YQB6Q8DF","either","3","911","","","","","","","0","1","0","","0.6504384346","0.2","0.6","0.8","0.4","0.4468687069","0.6504384346","0.5005175686","0.1518003708","","","","","","","","","","","","","","74","J","1","","","200","main_expt",""
"","bandit","281","947369","0.0-242.0-0.0","48644952","wem/bandit_party_2","A18QU0YQB6Q8DF","either","3","1051","","","","","","","0","0","1","0.7904945102","","0.2","0.6","0.8","0.4","","","","","0.5087435212","0.7904945102","0.5122642399","0.1974433607","","","","","","","","","","74","J","1","","","201","main_expt",""
"","bandit","282","949864","0.0-243.0-0.0","48644952","wem/bandit_party_2","A18QU0YQB6Q8DF","either","3","972","","","","","","","1","0","0","0.7039472437","","0.2","0.6","0.8","0.4","","","","","0.4992132835","0.7039472437","0.5414597976","0.2000842809","","","","","","","","","","74","J","1","","","202","main_expt",""
"","bandit","283","952104","0.0-244.0-0.0","48644952","wem/bandit_party_2","A18QU0YQB6Q8DF","either","3","729","","","","","","","1","0","0","0.7478807213","","0.2","0.6","0.8","0.4","","","","","0.4859842053","0.7478807213","0.4993649945","0.1715580826","","","","","","","","","","74","J","1","","","203","main_expt",""
"","bandit","284","954621","0.0-245.0-0.0","48644952","wem/bandit_party_2","A18QU0YQB6Q8DF","either","3","998","","","","","","","0","1","0","","0.7346150791","0.2","0.6","0.8","0.4","0.6162755314","0.7346150791","0.4056752737","0.3028604286","","","","","","","","","","","","","","74","J","1","","","204","main_expt",""
"","bandit","285","957166","0.0-246.0-0.0","48644952","wem/bandit_party_2","A18QU0YQB6Q8DF","either","3","1035","","","","","","","1","0","0","0.7240623961","","0.2","0.6","0.8","0.4","","","","","0.6204906845","0.7240623961","0.4174768156","0.3714949669","","","","","","","","","","74","J","1","","","205","main_expt",""
"","bandit","286","959641","0.0-247.0-0.0","48644952","wem/bandit_party_2","A18QU0YQB6Q8DF","either","3","952","","","","","","","0","0","1","","0.733657826","0.2","0.6","0.8","0.4","0.6390595606","0.733657826","0.4364097613","0.3034865557","","","","","","","","","","","","","","74","J","1","","","206","main_expt",""
"","bandit","287","961670","0.0-248.0-0.0","48644952","wem/bandit_party_2","A18QU0YQB6Q8DF","either","3","509","","","","","","","0","0","1","0.4666062126","","0.2","0.6","0.8","0.4","","","","","0.6022157482","0.6797091947","0.4666062126","0.2688105372","","","","","","","","","","75","K","2","","","207","main_expt",""
"","bandit","288","963839","0.0-249.0-0.0","48644952","wem/bandit_party_2","A18QU0YQB6Q8DF","either","3","646","","","","","","","0","0","1","0.4594719295","","0.2","0.6","0.8","0.4","","","","","0.6598502583","0.472157919","0.4594719295","0.2240001326","","","","","","","","","","75","K","2","","","208","main_expt",""
"","bandit","289","965864","0.0-250.0-0.0","48644952","wem/bandit_party_2","A18QU0YQB6Q8DF","either","3","512","","","","","","","0","0","1","0.3284172364","","0.2","0.6","0.8","0.4","","","","","0.6329069529","0.4993955773","0.5415101973","0.3284172364","","","","","","","","","","76","L","3","","","209","main_expt",""
"","bandit","290","968012","0.0-251.0-0.0","48644952","wem/bandit_party_2","A18QU0YQB6Q8DF","either","3","629","","","","","","","1","0","0","0.3178667136","","0.2","0.6","0.8","0.4","","","","","0.5418549626","0.3923888982","0.5627952802","0.3178667136","","","","","","","","","","76","L","3","","","210","main_expt",""
"","bandit","291","970069","0.0-252.0-0.0","48644952","wem/bandit_party_2","A18QU0YQB6Q8DF","either","3","537","","","","","","","0","0","1","","0.278360526","0.2","0.6","0.8","0.4","0.7265410197","0.4183885941","0.5779033475","0.278360526","","","","","","","","","","","","","","76","L","3","","","211","main_expt",""
"","bandit","292","972117","0.0-253.0-0.0","48644952","wem/bandit_party_2","A18QU0YQB6Q8DF","either","3","528","","","","","","","1","0","0","0.2720231684","","0.2","0.6","0.8","0.4","","","","","0.6550819281","0.5367383083","0.6169713091","0.2720231684","","","","","","","","","","76","L","3","","","212","main_expt",""
"","bandit","293","974333","0.0-254.0-0.0","48644952","wem/bandit_party_2","A18QU0YQB6Q8DF","either","3","694","","","","","","","0","0","1","0.3445332441","","0.2","0.6","0.8","0.4","","","","","0.5812500281","0.5779451767","0.5688165975","0.3445332441","","","","","","","","","","76","L","3","","","213","main_expt",""
"","bandit","294","976519","0.0-255.0-0.0","48644952","wem/bandit_party_2","A18QU0YQB6Q8DF","either","3","662","","","","","","","0","0","1","","0.5354690829","0.2","0.6","0.8","0.4","0.6912727382","0.5615700258","0.5354690829","0.331154659","","","","","","","","","","","","","","75","K","2","","","214","main_expt",""
"","bandit","295","978692","0.0-256.0-0.0","48644952","wem/bandit_party_2","A18QU0YQB6Q8DF","either","3","652","","","","","","","1","0","0","0.4395706401","","0.2","0.6","0.8","0.4","","","","","0.695573978","0.5361399643","0.4395706401","0.3168016653","","","","","","","","","","75","K","2","","","215","main_expt",""
"","bandit","296","980748","0.0-257.0-0.0","48644952","wem/bandit_party_2","A18QU0YQB6Q8DF","either","3","533","","","","","","","0","0","1","0.4522294324","","0.2","0.6","0.8","0.4","","","","","0.6531454011","0.620750855","0.4522294324","0.2870858596","","","","","","","","","","75","K","2","","","216","main_expt",""
"","bandit","297","982770","0.0-258.0-0.0","48644952","wem/bandit_party_2","A18QU0YQB6Q8DF","either","3","511","","","","","","","0","0","1","0.4812239037","","0.2","0.6","0.8","0.4","","","","","0.6459690495","0.4812239037","0.4141575353","0.2877345098","","","","","","","","","","74","J","1","","","217","main_expt",""
"","bandit","298","984779","0.0-259.0-0.0","48644952","wem/bandit_party_2","A18QU0YQB6Q8DF","either","3","488","","","","","","","0","0","1","0.4028497994","","0.2","0.6","0.8","0.4","","","","","0.6679944541","0.4028497994","0.3009722504","0.3608492067","","","","","","","","","","74","J","1","","","218","main_expt",""
"","bandit","299","986641","0.0-260.0-0.0","48644952","wem/bandit_party_2","A18QU0YQB6Q8DF","either","3","352","","","","","","","0","0","1","","0.4441021312","0.2","0.6","0.8","0.4","0.7159195147","0.4441021312","0.2706893249","0.4380407461","","","","","","","","","","","","","","74","J","1","","","219","main_expt",""
"","bandit","300","988626","0.0-261.0-0.0","48644952","wem/bandit_party_2","A18QU0YQB6Q8DF","either","3","474","","","","","","","0","1","0","","0.4867825248","0.2","0.6","0.8","0.4","0.6874484601","0.4867825248","0.3821277721","0.4769938592","","","","","","","","","","","","","","74","J","1","","","220","main_expt",""
"","bandit","301","990642","0.0-262.0-0.0","48644952","wem/bandit_party_2","A18QU0YQB6Q8DF","either","3","495","","","","","","","1","0","0","0.5428062785","","0.2","0.6","0.8","0.4","","","","","0.6528128226","0.5428062785","0.4534214389","0.4612627877","","","","","","","","","","74","J","1","","","221","main_expt",""
"","bandit","302","992607","0.0-263.0-0.0","48644952","wem/bandit_party_2","A18QU0YQB6Q8DF","either","3","447","","","","","","","1","0","0","0.5993321864","","0.2","0.6","0.8","0.4","","","","","0.6836467719","0.5993321864","0.6049712458","0.4192901336","","","","","","","","","","74","J","1","","","222","main_expt",""
"","bandit","303","994736","0.0-264.0-0.0","48644952","wem/bandit_party_2","A18QU0YQB6Q8DF","either","3","619","","","","","","","1","0","0","0.4920604154","","0.2","0.6","0.8","0.4","","","","","0.7820879334","0.4920604154","0.6389506418","0.5559965486","","","","","","","","","","74","J","1","","","223","main_expt",""
"","bandit","304","996817","0.0-265.0-0.0","48644952","wem/bandit_party_2","A18QU0YQB6Q8DF","either","3","559","","","","","","","0","0","1","0.5344282052","","0.2","0.6","0.8","0.4","","","","","0.763226653","0.5344282052","0.6677375732","0.6687933923","","","","","","","","","","74","J","1","","","224","main_expt",""
"","bandit","305","998833","0.0-266.0-0.0","48644952","wem/bandit_party_2","A18QU0YQB6Q8DF","either","3","494","","","","","","","0","1","0","","0.6931961842","0.2","0.6","0.8","0.4","0.6931961842","0.5583452501","0.7706853934","0.5954484576","","","","","","","","","","","","","","72","H","0","img/none_selected.jpg","","225","main_expt",""
"","bandit","306","1000792","0.0-267.0-0.0","48644952","wem/bandit_party_2","A18QU0YQB6Q8DF","either","3","439","","","","","","","0","1","0","","0.6633974694","0.2","0.6","0.8","0.4","0.6633974694","0.5126042404","0.7624197083","0.6152447968","","","","","","","","","","","","","","72","H","0","img/none_selected.jpg","","226","main_expt",""
"","bandit","307","1003122","0.0-268.0-0.0","48644952","wem/bandit_party_2","A18QU0YQB6Q8DF","either","3","808","","","","","","","1","0","0","0.6567175756","","0.2","0.6","0.8","0.4","","","","","0.6567175756","0.5720595628","0.7287840805","0.6597553912","","","","","","","","","","72","H","0","img/none_selected.jpg","","227","main_expt",""
"","bandit","308","1005416","0.0-269.0-0.0","48644952","wem/bandit_party_2","A18QU0YQB6Q8DF","either","3","772","","","","","","","0","1","0","","0.6052730858","0.2","0.6","0.8","0.4","0.6052730858","0.6134710885","0.7993891034","0.594895186","","","","","","","","","","","","","","72","H","0","img/none_selected.jpg","","228","main_expt",""
"","bandit","309","1007824","0.0-270.0-0.0","48644952","wem/bandit_party_2","A18QU0YQB6Q8DF","either","3","885","","","","","","","0","0","1","","0.5548990383","0.2","0.6","0.8","0.4","0.5548990383","0.5669106804","0.8374027748","0.5722559027","","","","","","","","","","","","","","72","H","0","img/none_selected.jpg","","229","main_expt",""
"","bandit","310","1009809","0.0-271.0-0.0","48644952","wem/bandit_party_2","A18QU0YQB6Q8DF","either","3","463","","","","","","","0","0","1","","0.6017114108","0.2","0.6","0.8","0.4","0.6017114108","0.6286782819","0.8414873787","0.5409090622","","","","","","","","","","","","","","72","H","0","img/none_selected.jpg","","230","main_expt",""
"","bandit","311","1011775","0.0-272.0-0.0","48644952","wem/bandit_party_2","A18QU0YQB6Q8DF","either","3","444","","","","","","","0","1","0","","0.5594948871","0.2","0.6","0.8","0.4","0.5525336349","0.5594948871","0.8531648874","0.518727512","","","","","","","","","","","","","","74","J","1","","","231","main_expt",""
"","bandit","312","1014137","0.0-273.0-0.0","48644952","wem/bandit_party_2","A18QU0YQB6Q8DF","either","3","839","","","","","","","0","0","1","","0.5817998964","0.2","0.6","0.8","0.4","0.4493361955","0.5817998964","0.8813812612","0.5200298571","","","","","","","","","","","","","","74","J","1","","","232","main_expt",""
"","bandit","313","1016287","0.0-274.0-0.0","48644952","wem/bandit_party_2","A18QU0YQB6Q8DF","either","3","628","","","","","","","0","1","0","","0.8916766345","0.2","0.6","0.8","0.4","0.5280832246","0.5971875981","0.8916766345","0.4564343731","","","","","","","","","","","","","","75","K","2","","","233","main_expt",""
"","bandit","314","1018752","0.0-275.0-0.0","48644952","wem/bandit_party_2","A18QU0YQB6Q8DF","either","3","941","","","","","","","1","0","0","0.842820862","","0.2","0.6","0.8","0.4","","","","","0.6814540918","0.5227237997","0.842820862","0.4168065644","","","","","","","","","","75","K","2","","","234","main_expt",""
"","bandit","315","1021124","0.0-276.0-0.0","48644952","wem/bandit_party_2","A18QU0YQB6Q8DF","either","3","852","","","","","","","1","0","0","0.6231997156","","0.2","0.6","0.8","0.4","","","","","0.5518959403","0.6231997156","0.7856269381","0.4340770274","","","","","","","","","","74","J","1","","","235","main_expt",""
"","bandit","316","1023549","0.0-277.0-0.0","48644952","wem/bandit_party_2","A18QU0YQB6Q8DF","either","3","901","","","","","","","0","0","1","0.558272317","","0.2","0.6","0.8","0.4","","","","","0.4965619817","0.558272317","0.8092971262","0.4489205242","","","","","","","","","","74","J","1","","","236","main_expt",""
"","bandit","317","1025503","0.0-278.0-0.0","48644952","wem/bandit_party_2","A18QU0YQB6Q8DF","either","3","438","","","","","","","1","0","0","0.8125536838","","0.2","0.6","0.8","0.4","","","","","0.4762879104","0.6118965497","0.8125536838","0.4838648791","","","","","","","","","","75","K","2","","","237","main_expt",""
