"consent","trial_type","trial_index","time_elapsed","internal_node_id","subjID","study","MID","cond","drift","rt","responses","button_pressed","key_press","like","value","connected","gems","bombs","no_reward","GemPrChosen","BombPrChosen","GainOverPainPr_0","GainOverPainPr_1","GainOverPainPr_2","GainOverPainPr_3","LosePr_0","LosePr_1","LosePr_2","LosePr_3","WinPr_0","WinPr_1","WinPr_2","WinPr_3","Q0","Q1","Q2","gender","age","ethnicity","label","expt_phase","target","respCharCode","respKey","respChoiceNum","respChoice","practice","trial_counter","trial_label","Q0_index"
"GDM/GDM_behavioral_consent_30min_online.html","consent","0","16472","0.0-0.0","51661565","wem/bandit_party_2","A1A2X0T1XE8K89","either","1","","","","","","","","","","","","","","","","","","","","","","","","","","","","","","","","","","","","","","","","",""
"","survey-text","1","144196","0.0-1.0","51661565","wem/bandit_party_2","A1A2X0T1XE8K89","either","1","126721","{""Q0"":""A1A2X0T1XE8K89""}","","","","","","","","","","","","","","","","","","","","","","","","","","","","","","","","","","","","","","",""
"","button-response","2","147439","0.0-2.0","51661565","wem/bandit_party_2","A1A2X0T1XE8K89","either","1","2240","","0","","","","","","","","","","","","","","","","","","","","","","","","","","","","","","","","","","","","","",""
"","text-replacement","3","208353","0.0-3.0","51661565","wem/bandit_party_2","A1A2X0T1XE8K89","either","1","59910","","","32","","","","","","","","","","","","","","","","","","","","","","","","","","","","","","","","","","","","",""
"","text-replacement","4","218538","0.0-4.0","51661565","wem/bandit_party_2","A1A2X0T1XE8K89","either","1","10184","","","32","","","","","","","","","","","","","","","","","","","","","","","","","","","","","","","","","","","","",""
"","identification","5","223610","0.0-6.0-0.0","51661565","wem/bandit_party_2","A1A2X0T1XE8K89","either","1","5067","","","","0","2","0","","","","","","","","","","","","","","","","","","","","","","","","pre","identification_pre","the Democratic Party","","","","","","","",""
"","identification","6","229995","0.0-6.0-1.0","51661565","wem/bandit_party_2","A1A2X0T1XE8K89","either","1","5379","","","","3","4","4","","","","","","","","","","","","","","","","","","","","","","","","pre","identification_pre","the Republican Party","","","","","","","",""
"","text-replacement","7","233713","0.0-7.0","51661565","wem/bandit_party_2","A1A2X0T1XE8K89","either","1","2716","","","32","","","","","","","","","","","","","","","","","","","","","","","","","","","","","","","","","","","","",""
"","text-replacement","8","237401","0.0-8.0","51661565","wem/bandit_party_2","A1A2X0T1XE8K89","either","1","3687","","","32","","","","","","","","","","","","","","","","","","","","","","","","","","","","","","","","","","","","",""
"","text-replacement","9","243707","0.0-9.0","51661565","wem/bandit_party_2","A1A2X0T1XE8K89","either","1","6305","","","32","","","","","","","","","","","","","","","","","","","","","","","","","","","","","","","","","","","","",""
"","text-replacement","10","245633","0.0-10.0","51661565","wem/bandit_party_2","A1A2X0T1XE8K89","either","1","1926","","","32","","","","","","","","","","","","","","","","","","","","","","","","","","","","","","","","","","","","",""
"","text-replacement","11","247562","0.0-11.0","51661565","wem/bandit_party_2","A1A2X0T1XE8K89","either","1","1929","","","32","","","","","","","","","","","","","","","","","","","","","","","","","","","","","","","","","","","","",""
"","bandit","12","250912","0.0-12.0-0.0","51661565","wem/bandit_party_2","A1A2X0T1XE8K89","either","1","1845","","","","","","","0","0","1","0","0","","","","","0","","","","0","","","","","","","","","","","","","74","J","0","img/none_selected_demo.jpg","true","0","",""
"","bandit","13","253015","0.0-13.0-0.0","51661565","wem/bandit_party_2","A1A2X0T1XE8K89","either","1","600","","","","","","","0","0","1","0","0","","","","","0","","","","0","","","","","","","","","","","","","75","K","0","img/none_selected_demo.jpg","true","0","",""
"","text-replacement","14","301641","0.0-14.0","51661565","wem/bandit_party_2","A1A2X0T1XE8K89","either","1","48625","","","32","","","","","","","","","","","","","","","","","","","","","","","","","","","","","","","","","","","","",""
"","text-replacement","15","304498","0.0-15.0","51661565","wem/bandit_party_2","A1A2X0T1XE8K89","either","1","2856","","","32","","","","","","","","","","","","","","","","","","","","","","","","","","","","","","","","","","","","",""
"","text-replacement","16","308545","0.0-16.0","51661565","wem/bandit_party_2","A1A2X0T1XE8K89","either","1","4046","","","32","","","","","","","","","","","","","","","","","","","","","","","","","","","","","","","","","","","","",""
"","text-replacement","17","310931","0.0-17.0","51661565","wem/bandit_party_2","A1A2X0T1XE8K89","either","1","2385","","","32","","","","","","","","","","","","","","","","","","","","","","","","","","","","","","","","","","","","",""
"","bandit","18","313103","0.0-18.0-0.0","51661565","wem/bandit_party_2","A1A2X0T1XE8K89","either","1","668","","","","","","","1","0","0","0.8","","0.5","0.5","","","","","","","0.8","0.2","","","","","","","","","","","","74","J","0","img/none_selected_demo.jpg","true","0","80_20_practice",""
"","bandit","19","315047","0.0-18.0-1.0","51661565","wem/bandit_party_2","A1A2X0T1XE8K89","either","1","440","","","","","","","1","0","0","0.8","","0.5","0.5","","","","","","","0.8","0.2","","","","","","","","","","","","74","J","0","img/none_selected_demo.jpg","true","0","80_20_practice",""
"","bandit","20","316918","0.0-18.0-2.0","51661565","wem/bandit_party_2","A1A2X0T1XE8K89","either","1","368","","","","","","","1","0","0","0.8","","0.5","0.5","","","","","","","0.8","0.2","","","","","","","","","","","","74","J","0","img/none_selected_demo.jpg","true","0","80_20_practice",""
"","bandit","21","318753","0.0-18.0-3.0","51661565","wem/bandit_party_2","A1A2X0T1XE8K89","either","1","329","","","","","","","0","1","0","","0.8","0.5","0.5","","","0.8","0.2","","","","","","","","","","","","","","","","74","J","0","img/none_selected_demo.jpg","true","0","80_20_practice",""
"","bandit","22","320593","0.0-18.0-4.0","51661565","wem/bandit_party_2","A1A2X0T1XE8K89","either","1","333","","","","","","","0","1","0","","0.8","0.5","0.5","","","0.8","0.2","","","","","","","","","","","","","","","","74","J","0","img/none_selected_demo.jpg","true","0","80_20_practice",""
"","bandit","23","322417","0.0-18.0-5.0","51661565","wem/bandit_party_2","A1A2X0T1XE8K89","either","1","319","","","","","","","0","0","1","","0.8","0.5","0.5","","","0.8","0.2","","","","","","","","","","","","","","","","74","J","0","img/none_selected_demo.jpg","true","0","80_20_practice",""
"","bandit","24","324265","0.0-18.0-6.0","51661565","wem/bandit_party_2","A1A2X0T1XE8K89","either","1","344","","","","","","","0","1","0","","0.8","0.5","0.5","","","0.8","0.2","","","","","","","","","","","","","","","","74","J","0","img/none_selected_demo.jpg","true","0","80_20_practice",""
"","bandit","25","325936","0.0-18.0-7.0","51661565","wem/bandit_party_2","A1A2X0T1XE8K89","either","1","166","","","","","","","1","0","0","0.8","","0.5","0.5","","","","","","","0.8","0.2","","","","","","","","","","","","74","J","0","img/none_selected_demo.jpg","true","0","80_20_practice",""
"","bandit","26","327671","0.0-18.0-8.0","51661565","wem/bandit_party_2","A1A2X0T1XE8K89","either","1","232","","","","","","","0","0","1","","0.8","0.5","0.5","","","0.8","0.2","","","","","","","","","","","","","","","","74","J","0","img/none_selected_demo.jpg","true","0","80_20_practice",""
"","bandit","27","329280","0.0-18.0-9.0","51661565","wem/bandit_party_2","A1A2X0T1XE8K89","either","1","104","","","","","","","1","0","0","0.8","","0.5","0.5","","","","","","","0.8","0.2","","","","","","","","","","","","74","J","0","img/none_selected_demo.jpg","true","0","80_20_practice",""
"","bandit","28","330846","0.0-18.0-10.0","51661565","wem/bandit_party_2","A1A2X0T1XE8K89","either","1","63","","","","","","","0","1","0","","0.8","0.5","0.5","","","0.8","0.2","","","","","","","","","","","","","","","","74","J","0","img/none_selected_demo.jpg","true","0","80_20_practice",""
"","bandit","29","332385","0.0-18.0-11.0","51661565","wem/bandit_party_2","A1A2X0T1XE8K89","either","1","33","","","","","","","0","0","1","0.8","","0.5","0.5","","","","","","","0.8","0.2","","","","","","","","","","","","74","J","0","img/none_selected_demo.jpg","true","0","80_20_practice",""
"","bandit","30","334199","0.0-18.0-12.0","51661565","wem/bandit_party_2","A1A2X0T1XE8K89","either","1","311","","","","","","","0","1","0","","0.8","0.5","0.5","","","0.8","0.2","","","","","","","","","","","","","","","","74","J","0","img/none_selected_demo.jpg","true","0","80_20_practice",""
"","bandit","31","335911","0.0-18.0-13.0","51661565","wem/bandit_party_2","A1A2X0T1XE8K89","either","1","209","","","","","","","0","0","1","0.2","","0.5","0.5","","","","","","","0.8","0.2","","","","","","","","","","","","75","K","1","","true","0","80_20_practice",""
"","bandit","32","337447","0.0-18.0-14.0","51661565","wem/bandit_party_2","A1A2X0T1XE8K89","either","1","33","","","","","","","0","0","1","","0.2","0.5","0.5","","","0.8","0.2","","","","","","","","","","","","","","","","75","K","1","","true","0","80_20_practice",""
"","bandit","33","338968","0.0-18.0-15.0","51661565","wem/bandit_party_2","A1A2X0T1XE8K89","either","1","16","","","","","","","0","0","1","","0.2","0.5","0.5","","","0.8","0.2","","","","","","","","","","","","","","","","75","K","1","","true","0","80_20_practice",""
"","bandit","34","340559","0.0-18.0-16.0","51661565","wem/bandit_party_2","A1A2X0T1XE8K89","either","1","87","","","","","","","1","0","0","0.8","","0.5","0.5","","","","","","","0.8","0.2","","","","","","","","","","","","74","J","0","img/none_selected_demo.jpg","true","0","80_20_practice",""
"","bandit","35","342359","0.0-18.0-17.0","51661565","wem/bandit_party_2","A1A2X0T1XE8K89","either","1","296","","","","","","","0","0","1","0.2","","0.5","0.5","","","","","","","0.8","0.2","","","","","","","","","","","","75","K","1","","true","0","80_20_practice",""
"","bandit","36","343887","0.0-18.0-18.0","51661565","wem/bandit_party_2","A1A2X0T1XE8K89","either","1","24","","","","","","","0","0","1","","0.2","0.5","0.5","","","0.8","0.2","","","","","","","","","","","","","","","","75","K","1","","true","0","80_20_practice",""
"","bandit","37","345480","0.0-18.0-19.0","51661565","wem/bandit_party_2","A1A2X0T1XE8K89","either","1","88","","","","","","","1","0","0","0.8","","0.5","0.5","","","","","","","0.8","0.2","","","","","","","","","","","","74","J","0","img/none_selected_demo.jpg","true","0","80_20_practice",""
"","text-replacement","38","347065","0.0-19.0","51661565","wem/bandit_party_2","A1A2X0T1XE8K89","either","1","1583","","","32","","","","","","","","","","","","","","","","","","","","","","","","","","","","","","","","","","","","",""
"","bandit","39","348968","0.0-20.0-0.0","51661565","wem/bandit_party_2","A1A2X0T1XE8K89","either","1","399","","","","","","","1","0","0","1","0","","","","","0","1","","","1","0","","","","","","","","","","","","74","J","0","img/none_selected_demo.jpg","true","0","",""
"","text-replacement","40","350281","0.0-21.0","51661565","wem/bandit_party_2","A1A2X0T1XE8K89","either","1","1312","","","32","","","","","","","","","","","","","","","","","","","","","","","","","","","","","","","","","","","","",""
"","text-replacement","41","351402","0.0-22.0","51661565","wem/bandit_party_2","A1A2X0T1XE8K89","either","1","1118","","","32","","","","","","","","","","","","","","","","","","","","","","","","","","","","","","","","","","","","",""
"","text-replacement","42","352569","0.0-23.0","51661565","wem/bandit_party_2","A1A2X0T1XE8K89","either","1","1167","","","32","","","","","","","","","","","","","","","","","","","","","","","","","","","","","","","","","","","","",""
"","text-replacement","43","354306","0.0-24.0","51661565","wem/bandit_party_2","A1A2X0T1XE8K89","either","1","1735","","","32","","","","","","","","","","","","","","","","","","","","","","","","","","","","","","","","","","","","",""
"","text-replacement","44","356385","0.0-25.0","51661565","wem/bandit_party_2","A1A2X0T1XE8K89","either","1","2079","","","32","","","","","","","","","","","","","","","","","","","","","","","","","","","","","","","","","","","","",""
"","text-replacement","45","357617","0.0-26.0","51661565","wem/bandit_party_2","A1A2X0T1XE8K89","either","1","1231","","","32","","","","","","","","","","","","","","","","","","","","","","","","","","","","","","","","","","","","",""
"","text-replacement","46","360345","0.0-27.0","51661565","wem/bandit_party_2","A1A2X0T1XE8K89","either","1","2727","","","32","","","","","","","","","","","","","","","","","","","","","","","","","","","","","","","","","","","","",""
"","text-replacement","47","361897","0.0-28.0","51661565","wem/bandit_party_2","A1A2X0T1XE8K89","either","1","1551","","","32","","","","","","","","","","","","","","","","","","","","","","","","","","","","","","","","","","","","",""
"","text-replacement","48","364089","0.0-29.0","51661565","wem/bandit_party_2","A1A2X0T1XE8K89","either","1","2191","","","32","","","","","","","","","","","","","","","","","","","","","","","","","","","","","","","","","","","","",""
"","text-replacement","49","365217","0.0-30.0","51661565","wem/bandit_party_2","A1A2X0T1XE8K89","either","1","1127","","","32","","","","","","","","","","","","","","","","","","","","","","","","","","","","","","","","","","","","",""
"","text-replacement","50","367113","0.0-31.0","51661565","wem/bandit_party_2","A1A2X0T1XE8K89","either","1","1895","","","32","","","","","","","","","","","","","","","","","","","","","","","","","","","","","","","","","","","","",""
"","bandit","51","369047","0.0-32.0-0.0","51661565","wem/bandit_party_2","A1A2X0T1XE8K89","either","1","430","","","","","","","0","1","0","","0.8","0.5","0.5","0.5","0.5","0.8","0.2","0.6","0.2","","","","","","","","","","","","","","72","H","0","img/none_selected.jpg","true","0","full_practice",""
"","bandit","52","370697","0.0-32.0-1.0","51661565","wem/bandit_party_2","A1A2X0T1XE8K89","either","1","143","","","","","","","1","0","0","0.2","","0.5","0.5","0.5","0.5","","","","","0.8","0.2","0.6","0.2","","","","","","","","","","74","J","1","","true","0","full_practice",""
"","bandit","53","372288","0.0-32.0-2.0","51661565","wem/bandit_party_2","A1A2X0T1XE8K89","either","1","86","","","","","","","1","0","0","0.6","","0.5","0.5","0.5","0.5","","","","","0.8","0.2","0.6","0.2","","","","","","","","","","75","K","2","","true","0","full_practice",""
"","bandit","54","373921","0.0-32.0-3.0","51661565","wem/bandit_party_2","A1A2X0T1XE8K89","either","1","128","","","","","","","0","0","1","0.2","","0.5","0.5","0.5","0.5","","","","","0.8","0.2","0.6","0.2","","","","","","","","","","76","L","3","","true","0","full_practice",""
"","bandit","55","375590","0.0-32.0-4.0","51661565","wem/bandit_party_2","A1A2X0T1XE8K89","either","1","165","","","","","","","1","0","0","0.2","","0.5","0.5","0.5","0.5","","","","","0.8","0.2","0.6","0.2","","","","","","","","","","76","L","3","","true","0","full_practice",""
"","bandit","56","377153","0.0-32.0-5.0","51661565","wem/bandit_party_2","A1A2X0T1XE8K89","either","1","58","","","","","","","1","0","0","0.2","","0.5","0.5","0.5","0.5","","","","","0.8","0.2","0.6","0.2","","","","","","","","","","76","L","3","","true","0","full_practice",""
"","bandit","57","378766","0.0-32.0-6.0","51661565","wem/bandit_party_2","A1A2X0T1XE8K89","either","1","110","","","","","","","0","1","0","","0.2","0.5","0.5","0.5","0.5","0.8","0.2","0.6","0.2","","","","","","","","","","","","","","76","L","3","","true","0","full_practice",""
"","bandit","58","380390","0.0-32.0-7.0","51661565","wem/bandit_party_2","A1A2X0T1XE8K89","either","1","121","","","","","","","0","0","1","","0.2","0.5","0.5","0.5","0.5","0.8","0.2","0.6","0.2","","","","","","","","","","","","","","76","L","3","","true","0","full_practice",""
"","bandit","59","381920","0.0-32.0-8.0","51661565","wem/bandit_party_2","A1A2X0T1XE8K89","either","1","25","","","","","","","0","1","0","","0.6","0.5","0.5","0.5","0.5","0.8","0.2","0.6","0.2","","","","","","","","","","","","","","75","K","2","","true","0","full_practice",""
"","bandit","60","383488","0.0-32.0-9.0","51661565","wem/bandit_party_2","A1A2X0T1XE8K89","either","1","63","","","","","","","0","1","0","","0.6","0.5","0.5","0.5","0.5","0.8","0.2","0.6","0.2","","","","","","","","","","","","","","75","K","2","","true","0","full_practice",""
"","bandit","61","385120","0.0-32.0-10.0","51661565","wem/bandit_party_2","A1A2X0T1XE8K89","either","1","128","","","","","","","0","1","0","","0.6","0.5","0.5","0.5","0.5","0.8","0.2","0.6","0.2","","","","","","","","","","","","","","75","K","2","","true","0","full_practice",""
"","bandit","62","386831","0.0-32.0-11.0","51661565","wem/bandit_party_2","A1A2X0T1XE8K89","either","1","208","","","","","","","1","0","0","0.6","","0.5","0.5","0.5","0.5","","","","","0.8","0.2","0.6","0.2","","","","","","","","","","75","K","2","","true","0","full_practice",""
"","bandit","63","388352","0.0-32.0-12.0","51661565","wem/bandit_party_2","A1A2X0T1XE8K89","either","1","18","","","","","","","1","0","0","0.6","","0.5","0.5","0.5","0.5","","","","","0.8","0.2","0.6","0.2","","","","","","","","","","75","K","2","","true","0","full_practice",""
"","bandit","64","389959","0.0-32.0-13.0","51661565","wem/bandit_party_2","A1A2X0T1XE8K89","either","1","103","","","","","","","0","0","1","0.2","","0.5","0.5","0.5","0.5","","","","","0.8","0.2","0.6","0.2","","","","","","","","","","74","J","1","","true","0","full_practice",""
"","bandit","65","391528","0.0-32.0-14.0","51661565","wem/bandit_party_2","A1A2X0T1XE8K89","either","1","64","","","","","","","0","0","1","0.2","","0.5","0.5","0.5","0.5","","","","","0.8","0.2","0.6","0.2","","","","","","","","","","74","J","1","","true","0","full_practice",""
"","bandit","66","393110","0.0-32.0-15.0","51661565","wem/bandit_party_2","A1A2X0T1XE8K89","either","1","78","","","","","","","1","0","0","0.8","","0.5","0.5","0.5","0.5","","","","","0.8","0.2","0.6","0.2","","","","","","","","","","72","H","0","img/none_selected.jpg","true","0","full_practice",""
"","bandit","67","394720","0.0-32.0-16.0","51661565","wem/bandit_party_2","A1A2X0T1XE8K89","either","1","104","","","","","","","0","0","1","","0.8","0.5","0.5","0.5","0.5","0.8","0.2","0.6","0.2","","","","","","","","","","","","","","72","H","0","img/none_selected.jpg","true","0","full_practice",""
"","bandit","68","396391","0.0-32.0-17.0","51661565","wem/bandit_party_2","A1A2X0T1XE8K89","either","1","166","","","","","","","0","0","1","0.2","","0.5","0.5","0.5","0.5","","","","","0.8","0.2","0.6","0.2","","","","","","","","","","76","L","3","","true","0","full_practice",""
"","bandit","69","397951","0.0-32.0-18.0","51661565","wem/bandit_party_2","A1A2X0T1XE8K89","either","1","56","","","","","","","0","0","1","","0.2","0.5","0.5","0.5","0.5","0.8","0.2","0.6","0.2","","","","","","","","","","","","","","76","L","3","","true","0","full_practice",""
"","bandit","70","399560","0.0-32.0-19.0","51661565","wem/bandit_party_2","A1A2X0T1XE8K89","either","1","103","","","","","","","1","0","0","0.8","","0.5","0.5","0.5","0.5","","","","","0.8","0.2","0.6","0.2","","","","","","","","","","72","H","0","img/none_selected.jpg","true","0","full_practice",""
"","text","71","401466","0.0-33.0","51661565","wem/bandit_party_2","A1A2X0T1XE8K89","either","1","1900","","","32","","","","","","","","","","","","","","","","","","","","","","","","","","","","","","","","","","","","",""
"","text-replacement","72","408778","0.0-34.0","51661565","wem/bandit_party_2","A1A2X0T1XE8K89","either","1","6309","","","32","","","","","","","","","","","","","","","","","","","","","","","","","","","","","","","","","","","","",""
"","text-replacement","73","412257","0.0-35.0","51661565","wem/bandit_party_2","A1A2X0T1XE8K89","either","1","3477","","","32","","","","","","","","","","","","","","","","","","","","","","","","","","","","","","","","","","","","",""
"","text-replacement","74","416841","0.0-36.0","51661565","wem/bandit_party_2","A1A2X0T1XE8K89","either","1","4582","","","32","","","","","","","","","","","","","","","","","","","","","","","","","","","","","","","","","","","","",""
"","text-replacement","75","420970","0.0-37.0","51661565","wem/bandit_party_2","A1A2X0T1XE8K89","either","1","4128","","","32","","","","","","","","","","","","","","","","","","","","","","","","","","","","","","","","","","","","",""
"","text-replacement","76","424138","0.0-38.0","51661565","wem/bandit_party_2","A1A2X0T1XE8K89","either","1","3165","","","32","","","","","","","","","","","","","","","","","","","","","","","","","","","","","","","","","","","","",""
"","survey-multi-choice-replacement","77","428230","0.0-39.0-0.0","51661565","wem/bandit_party_2","A1A2X0T1XE8K89","either","1","4087","","","","","","","","","","","","","","","","","","","","","","","","Money will be added to the pool for <span style='color:red;'>REPUBLICANS</span>","","","","","","","attn_check","","","","","","","","","0"
"","survey-multi-choice-replacement","78","431587","0.0-40.0-0.0","51661565","wem/bandit_party_2","A1A2X0T1XE8K89","either","1","2347","","","","","","","","","","","","","","","","","","","","","","","","Equal amounts of money will be added to the pool for <span style='color:red;'>REPUBLICANS</span> and subtracted from the pool for <span style='color:blue;'>DEMOCRATS</span>","","","","","","","attn_check","","","","","","","","","2"
"","survey-multi-choice-replacement","79","435472","0.0-41.0-0.0","51661565","wem/bandit_party_2","A1A2X0T1XE8K89","either","1","2878","","","","","","","","","","","","","","","","","","","","","","","","No money will be added to either pool","","","","","","","attn_check","","","","","","","","","3"
"","bandit","80","439416","0.0-42.0-0.0","51661565","wem/bandit_party_2","A1A2X0T1XE8K89","either","1","1438","","","","","","","0","0","1","","0.5202783506","0.6","0.8","0.4","0.2","0.5202783506","0.4995060561","0.8101107889","0.7674833066","","","","","","","","","","","","","","72","H","0","img/none_selected.jpg","","1","main_expt",""
"","bandit","81","441272","0.0-43.0-0.0","51661565","wem/bandit_party_2","A1A2X0T1XE8K89","either","1","353","","","","","","","1","0","0","0.4559554218","","0.6","0.8","0.4","0.2","","","","","0.4559554218","0.4452888422","0.8827976921","0.7786696111","","","","","","","","","","72","H","0","img/none_selected.jpg","","2","main_expt",""
"","bandit","82","442842","0.0-44.0-0.0","51661565","wem/bandit_party_2","A1A2X0T1XE8K89","either","1","62","","","","","","","1","0","0","0.3791335739","","0.6","0.8","0.4","0.2","","","","","0.3791335739","0.4956599627","0.918633781","0.7883912796","","","","","","","","","","72","H","0","img/none_selected.jpg","","3","main_expt",""
"","bandit","83","444473","0.0-45.0-0.0","51661565","wem/bandit_party_2","A1A2X0T1XE8K89","either","1","126","","","","","","","0","0","1","0.362446662","","0.6","0.8","0.4","0.2","","","","","0.362446662","0.3939226057","0.8961075186","0.8311681014","","","","","","","","","","72","H","0","img/none_selected.jpg","","4","main_expt",""
"","bandit","84","446111","0.0-46.0-0.0","51661565","wem/bandit_party_2","A1A2X0T1XE8K89","either","1","134","","","","","","","0","0","1","0.4737796053","","0.6","0.8","0.4","0.2","","","","","0.4337427147","0.4737796053","0.9065038385","0.706748425","","","","","","","","","","74","J","1","","","5","main_expt",""
"","bandit","85","447760","0.0-47.0-0.0","51661565","wem/bandit_party_2","A1A2X0T1XE8K89","either","1","145","","","","","","","0","0","1","0.5798080576","","0.6","0.8","0.4","0.2","","","","","0.4260566605","0.5798080576","0.9628954729","0.7246132019","","","","","","","","","","74","J","1","","","6","main_expt",""
"","bandit","86","449289","0.0-48.0-0.0","51661565","wem/bandit_party_2","A1A2X0T1XE8K89","either","1","23","","","","","","","1","0","0","0.9244273404","","0.6","0.8","0.4","0.2","","","","","0.5595739282","0.6184433593","0.9244273404","0.822103072","","","","","","","","","","75","K","2","","","7","main_expt",""
"","bandit","87","450895","0.0-49.0-0.0","51661565","wem/bandit_party_2","A1A2X0T1XE8K89","either","1","103","","","","","","","0","1","0","","0.9214665689","0.6","0.8","0.4","0.2","0.5757792393","0.5380809204","0.9214665689","0.8176183596","","","","","","","","","","","","","","75","K","2","","","8","main_expt",""
"","bandit","88","452432","0.0-50.0-0.0","51661565","wem/bandit_party_2","A1A2X0T1XE8K89","either","1","33","","","","","","","1","0","0","0.9604963414","","0.6","0.8","0.4","0.2","","","","","0.5508288143","0.4884558296","0.9604963414","0.7421782695","","","","","","","","","","75","K","2","","","9","main_expt",""
"","bandit","89","453945","0.0-51.0-0.0","51661565","wem/bandit_party_2","A1A2X0T1XE8K89","either","1","8","","","","","","","1","0","0","0.973544224","","0.6","0.8","0.4","0.2","","","","","0.4615344473","0.6062827564","0.973544224","0.7112185725","","","","","","","","","","75","K","2","","","10","main_expt",""
"","bandit","90","455633","0.0-52.0-0.0","51661565","wem/bandit_party_2","A1A2X0T1XE8K89","either","1","182","","","","","","","0","1","0","","0.9756729976","0.6","0.8","0.4","0.2","0.4731032433","0.6618996933","0.9756729976","0.6656122322","","","","","","","","","","","","","","75","K","2","","","11","main_expt",""
"","bandit","91","457184","0.0-53.0-0.0","51661565","wem/bandit_party_2","A1A2X0T1XE8K89","either","1","47","","","","","","","0","1","0","","0.9824084628","0.6","0.8","0.4","0.2","0.5028989732","0.6589688621","0.9824084628","0.632951522","","","","","","","","","","","","","","75","K","2","","","12","main_expt",""
"","bandit","92","458743","0.0-54.0-0.0","51661565","wem/bandit_party_2","A1A2X0T1XE8K89","either","1","56","","","","","","","1","0","0","0.9852841122","","0.6","0.8","0.4","0.2","","","","","0.5252386458","0.7483501345","0.9852841122","0.6428643634","","","","","","","","","","75","K","2","","","13","main_expt",""
"","bandit","93","460384","0.0-55.0-0.0","51661565","wem/bandit_party_2","A1A2X0T1XE8K89","either","1","138","","","","","","","0","1","0","","0.9844185579","0.6","0.8","0.4","0.2","0.4883642101","0.7642220585","0.9844185579","0.5693663763","","","","","","","","","","","","","","75","K","2","","","14","main_expt",""
"","bandit","94","464731","0.0-56.0-0.0","51661565","wem/bandit_party_2","A1A2X0T1XE8K89","either","1","2842","","","","","","","0","1","0","","0.9716790186","0.6","0.8","0.4","0.2","0.5125695872","0.8255663415","0.9716790186","0.6354763258","","","","","","","","","","","","","","75","K","2","","","15","main_expt",""
"","bandit","95","466416","0.0-57.0-0.0","51661565","wem/bandit_party_2","A1A2X0T1XE8K89","either","1","180","","","","","","","1","0","0","0.9724226268","","0.6","0.8","0.4","0.2","","","","","0.483313844","0.8262734196","0.9724226268","0.6074668868","","","","","","","","","","75","K","2","","","16","main_expt",""
"","bandit","96","468065","0.0-58.0-0.0","51661565","wem/bandit_party_2","A1A2X0T1XE8K89","either","1","143","","","","","","","1","0","0","0.969397438","","0.6","0.8","0.4","0.2","","","","","0.4764119597","0.8957105494","0.969397438","0.634379517","","","","","","","","","","75","K","2","","","17","main_expt",""
"","bandit","97","469720","0.0-59.0-0.0","51661565","wem/bandit_party_2","A1A2X0T1XE8K89","either","1","150","","","","","","","0","1","0","","0.9487821198","0.6","0.8","0.4","0.2","0.4742144938","0.8243017832","0.9487821198","0.7399013172","","","","","","","","","","","","","","75","K","2","","","18","main_expt",""
"","bandit","98","471456","0.0-60.0-0.0","51661565","wem/bandit_party_2","A1A2X0T1XE8K89","either","1","232","","","","","","","0","1","0","","0.8822386923","0.6","0.8","0.4","0.2","0.5445729057","0.8174393347","0.8822386923","0.6892422428","","","","","","","","","","","","","","75","K","2","","","19","main_expt",""
"","bandit","99","473167","0.0-61.0-0.0","51661565","wem/bandit_party_2","A1A2X0T1XE8K89","either","1","208","","","","","","","0","1","0","","0.8658452863","0.6","0.8","0.4","0.2","0.5114357523","0.8457625901","0.8658452863","0.5544472153","","","","","","","","","","","","","","75","K","2","","","20","main_expt",""
"","bandit","100","475032","0.0-62.0-0.0","51661565","wem/bandit_party_2","A1A2X0T1XE8K89","either","1","360","","","","","","","1","0","0","0.8597265301","","0.6","0.8","0.4","0.2","","","","","0.4948626968","0.8565453533","0.8597265301","0.4705077418","","","","","","","","","","75","K","2","","","21","main_expt",""
"","bandit","101","476689","0.0-63.0-0.0","51661565","wem/bandit_party_2","A1A2X0T1XE8K89","either","1","152","","","","","","","1","0","0","0.929530396","","0.6","0.8","0.4","0.2","","","","","0.3750889156","0.8821281293","0.929530396","0.5364913494","","","","","","","","","","75","K","2","","","22","main_expt",""
"","bandit","102","478793","0.0-64.0-0.0","51661565","wem/bandit_party_2","A1A2X0T1XE8K89","either","1","598","","","","","","","1","0","0","0.9149061772","","0.6","0.8","0.4","0.2","","","","","0.3874093852","0.8253896901","0.9149061772","0.5450887529","","","","","","","","","","75","K","2","","","23","main_expt",""
"","bandit","103","480304","0.0-65.0-0.0","51661565","wem/bandit_party_2","A1A2X0T1XE8K89","either","1","6","","","","","","","0","1","0","","0.9389899916","0.6","0.8","0.4","0.2","0.4126546177","0.8682133559","0.9389899916","0.6013055931","","","","","","","","","","","","","","75","K","2","","","24","main_expt",""
"","bandit","104","481976","0.0-66.0-0.0","51661565","wem/bandit_party_2","A1A2X0T1XE8K89","either","1","168","","","","","","","1","0","0","0.9583062328","","0.6","0.8","0.4","0.2","","","","","0.3871809826","0.8186134727","0.9583062328","0.7116226269","","","","","","","","","","75","K","2","","","25","main_expt",""
"","bandit","105","483640","0.0-67.0-0.0","51661565","wem/bandit_party_2","A1A2X0T1XE8K89","either","1","159","","","","","","","0","1","0","","0.9349434311","0.6","0.8","0.4","0.2","0.4162773602","0.841170918","0.9349434311","0.7284905038","","","","","","","","","","","","","","75","K","2","","","26","main_expt",""
"","bandit","106","485216","0.0-68.0-0.0","51661565","wem/bandit_party_2","A1A2X0T1XE8K89","either","1","70","","","","","","","0","1","0","","0.9147743466","0.6","0.8","0.4","0.2","0.4153433109","0.8332298301","0.9147743466","0.7007901837","","","","","","","","","","","","","","75","K","2","","","27","main_expt",""
"","bandit","107","486784","0.0-69.0-0.0","51661565","wem/bandit_party_2","A1A2X0T1XE8K89","either","1","61","","","","","","","1","0","0","0.8913744663","","0.6","0.8","0.4","0.2","","","","","0.3083156359","0.8340804883","0.8913744663","0.7197690037","","","","","","","","","","75","K","2","","","28","main_expt",""
"","bandit","108","488374","0.0-70.0-0.0","51661565","wem/bandit_party_2","A1A2X0T1XE8K89","either","1","87","","","","","","","0","1","0","","0.9004815278","0.6","0.8","0.4","0.2","0.4048150761","0.8800986549","0.9004815278","0.7569205749","","","","","","","","","","","","","","75","K","2","","","29","main_expt",""
"","bandit","109","490072","0.0-71.0-0.0","51661565","wem/bandit_party_2","A1A2X0T1XE8K89","either","1","192","","","","","","","1","0","0","0.8335499875","","0.6","0.8","0.4","0.2","","","","","0.5604470694","0.800988266","0.8335499875","0.7007062976","","","","","","","","","","75","K","2","","","30","main_expt",""
"","bandit","110","492135","0.0-72.0-0.0","51661565","wem/bandit_party_2","A1A2X0T1XE8K89","either","1","557","","","","","","","0","1","0","","0.7904098286","0.6","0.8","0.4","0.2","0.5114456598","0.8092707987","0.7904098286","0.6218809145","","","","","","","","","","","","","","75","K","2","","","31","main_expt",""
"","bandit","111","493766","0.0-73.0-0.0","51661565","wem/bandit_party_2","A1A2X0T1XE8K89","either","1","127","","","","","","","0","1","0","","0.8156470634","0.6","0.8","0.4","0.2","0.5195843055","0.7600689364","0.8156470634","0.5448888872","","","","","","","","","","","","","","75","K","2","","","32","main_expt",""
"","bandit","112","495497","0.0-74.0-0.0","51661565","wem/bandit_party_2","A1A2X0T1XE8K89","either","1","224","","","","","","","0","1","0","","0.7458483223","0.6","0.8","0.4","0.2","0.4278216128","0.7268405739","0.7458483223","0.4396040002","","","","","","","","","","","","","","75","K","2","","","33","main_expt",""
"","bandit","113","497143","0.0-75.0-0.0","51661565","wem/bandit_party_2","A1A2X0T1XE8K89","either","1","142","","","","","","","0","1","0","","0.8745519215","0.6","0.8","0.4","0.2","0.4581725564","0.7867385379","0.8745519215","0.3418027302","","","","","","","","","","","","","","75","K","2","","","34","main_expt",""
"","bandit","114","499015","0.0-76.0-0.0","51661565","wem/bandit_party_2","A1A2X0T1XE8K89","either","1","365","","","","","","","0","1","0","","0.8761773117","0.6","0.8","0.4","0.2","0.5170179058","0.7776722478","0.8761773117","0.3770378826","","","","","","","","","","","","","","75","K","2","","","35","main_expt",""
"","bandit","115","500992","0.0-77.0-0.0","51661565","wem/bandit_party_2","A1A2X0T1XE8K89","either","1","471","","","","","","","0","0","1","0.8898579413","","0.6","0.8","0.4","0.2","","","","","0.5761285305","0.8110731924","0.8898579413","0.3264650107","","","","","","","","","","75","K","2","","","36","main_expt",""
"","bandit","116","502551","0.0-78.0-0.0","51661565","wem/bandit_party_2","A1A2X0T1XE8K89","either","1","53","","","","","","","0","0","1","0.1696248696","","0.6","0.8","0.4","0.2","","","","","0.5824592389","0.8371501114","0.9189960073","0.1696248696","","","","","","","","","","76","L","3","","","37","main_expt",""
"","bandit","117","504119","0.0-79.0-0.0","51661565","wem/bandit_party_2","A1A2X0T1XE8K89","either","1","62","","","","","","","0","1","0","","0.3008725236","0.6","0.8","0.4","0.2","0.5039158184","0.801984358","0.9429067042","0.3008725236","","","","","","","","","","","","","","76","L","3","","","38","main_expt",""
"","bandit","118","505705","0.0-80.0-0.0","51661565","wem/bandit_party_2","A1A2X0T1XE8K89","either","1","80","","","","","","","0","0","1","0.3612597963","","0.6","0.8","0.4","0.2","","","","","0.4906961915","0.836760671","0.8860185862","0.3612597963","","","","","","","","","","76","L","3","","","39","main_expt",""
"","bandit","119","507312","0.0-81.0-0.0","51661565","wem/bandit_party_2","A1A2X0T1XE8K89","either","1","103","","","","","","","0","1","0","","0.8958725565","0.6","0.8","0.4","0.2","0.5118773476","0.7930168878","0.8958725565","0.3316001813","","","","","","","","","","","","","","75","K","2","","","40","main_expt",""
"","bandit","120","508888","0.0-82.0-0.0","51661565","wem/bandit_party_2","A1A2X0T1XE8K89","either","1","70","","","","","","","1","0","0","0.8369757826","","0.6","0.8","0.4","0.2","","","","","0.5207000815","0.6758505439","0.8369757826","0.251761063","","","","","","","","","","75","K","2","","","41","main_expt",""
"","bandit","121","510431","0.0-83.0-0.0","51661565","wem/bandit_party_2","A1A2X0T1XE8K89","either","1","39","","","","","","","0","0","1","","0.8724413244","0.6","0.8","0.4","0.2","0.6208632684","0.669091732","0.8724413244","0.3764367217","","","","","","","","","","","","","","75","K","2","","","42","main_expt",""
"","bandit","122","511943","0.0-84.0-0.0","51661565","wem/bandit_party_2","A1A2X0T1XE8K89","either","1","6","","","","","","","0","0","1","0.5774386383","","0.6","0.8","0.4","0.2","","","","","0.6736877605","0.5774386383","0.8721156492","0.4280411123","","","","","","","","","","74","J","1","","","43","main_expt",""
"","bandit","123","513495","0.0-85.0-0.0","51661565","wem/bandit_party_2","A1A2X0T1XE8K89","either","1","46","","","","","","","0","0","1","0.5402750746","","0.6","0.8","0.4","0.2","","","","","0.6770598463","0.5402750746","0.874486911","0.4250007774","","","","","","","","","","74","J","1","","","44","main_expt",""
"","bandit","124","515135","0.0-86.0-0.0","51661565","wem/bandit_party_2","A1A2X0T1XE8K89","either","1","134","","","","","","","1","0","0","0.6811336834","","0.6","0.8","0.4","0.2","","","","","0.6811336834","0.4769525635","0.7653026016","0.3964774122","","","","","","","","","","72","H","0","img/none_selected.jpg","","45","main_expt",""
"","bandit","125","516680","0.0-87.0-0.0","51661565","wem/bandit_party_2","A1A2X0T1XE8K89","either","1","41","","","","","","","0","0","1","","0.7409040253","0.6","0.8","0.4","0.2","0.7409040253","0.460739512","0.6884850605","0.3755541509","","","","","","","","","","","","","","72","H","0","img/none_selected.jpg","","46","main_expt",""
"","bandit","126","518367","0.0-88.0-0.0","51661565","wem/bandit_party_2","A1A2X0T1XE8K89","either","1","181","","","","","","","0","1","0","","0.8602274841","0.6","0.8","0.4","0.2","0.8602274841","0.3953603582","0.6869729855","0.3698766084","","","","","","","","","","","","","","72","H","0","img/none_selected.jpg","","47","main_expt",""
"","bandit","127","520095","0.0-89.0-0.0","51661565","wem/bandit_party_2","A1A2X0T1XE8K89","either","1","224","","","","","","","1","0","0","0.8947369126","","0.6","0.8","0.4","0.2","","","","","0.8947369126","0.5194217752","0.624749708","0.2924141828","","","","","","","","","","72","H","0","img/none_selected.jpg","","48","main_expt",""
"","bandit","128","521639","0.0-90.0-0.0","51661565","wem/bandit_party_2","A1A2X0T1XE8K89","either","1","40","","","","","","","1","0","0","0.9071052574","","0.6","0.8","0.4","0.2","","","","","0.9071052574","0.5015721984","0.6269608649","0.2506794134","","","","","","","","","","72","H","0","img/none_selected.jpg","","49","main_expt",""
"","bandit","129","523176","0.0-91.0-0.0","51661565","wem/bandit_party_2","A1A2X0T1XE8K89","either","1","31","","","","","","","0","0","1","","0.8569531155","0.6","0.8","0.4","0.2","0.8569531155","0.4427204185","0.5394470416","0.2200095001","","","","","","","","","","","","","","72","H","0","img/none_selected.jpg","","50","main_expt",""
"","bandit","130","524808","0.0-92.0-0.0","51661565","wem/bandit_party_2","A1A2X0T1XE8K89","either","1","126","","","","","","","1","0","0","0.5194544998","","0.6","0.8","0.4","0.2","","","","","0.8728609703","0.5194544998","0.4991806479","0.2703780474","","","","","","","","","","74","J","1","","","51","main_expt",""
"","bandit","131","526359","0.0-93.0-0.0","51661565","wem/bandit_party_2","A1A2X0T1XE8K89","either","1","46","","","","","","","0","0","1","0.4420680866","","0.6","0.8","0.4","0.2","","","","","0.902184381","0.4420680866","0.5431464126","0.3215640211","","","","","","","","","","74","J","1","","","52","main_expt",""
"","bandit","132","528008","0.0-94.0-0.0","51661565","wem/bandit_party_2","A1A2X0T1XE8K89","either","1","143","","","","","","","0","1","0","","0.2918797996","0.6","0.8","0.4","0.2","0.8975054296","0.5541791803","0.4799783957","0.2918797996","","","","","","","","","","","","","","76","L","3","","","53","main_expt",""
"","bandit","133","529639","0.0-95.0-0.0","51661565","wem/bandit_party_2","A1A2X0T1XE8K89","either","1","125","","","","","","","0","0","1","","0.2432815539","0.6","0.8","0.4","0.2","0.9436546011","0.6187664305","0.3946877269","0.2432815539","","","","","","","","","","","","","","76","L","3","","","54","main_expt",""
"","bandit","134","531367","0.0-96.0-0.0","51661565","wem/bandit_party_2","A1A2X0T1XE8K89","either","1","221","","","","","","","0","0","1","0.1993500609","","0.6","0.8","0.4","0.2","","","","","0.9411334538","0.538030076","0.3892466866","0.1993500609","","","","","","","","","","76","L","3","","","55","main_expt",""
"","bandit","135","532992","0.0-97.0-0.0","51661565","wem/bandit_party_2","A1A2X0T1XE8K89","either","1","119","","","","","","","1","0","0","0.5137881872","","0.6","0.8","0.4","0.2","","","","","0.862285227","0.5137881872","0.347268188","0.1832364248","","","","","","","","","","74","J","1","","","56","main_expt",""
"","bandit","136","534665","0.0-98.0-0.0","51661565","wem/bandit_party_2","A1A2X0T1XE8K89","either","1","166","","","","","","","1","0","0","0.6274604021","","0.6","0.8","0.4","0.2","","","","","0.9034803314","0.6274604021","0.3462231845","0.1703919496","","","","","","","","","","74","J","1","","","57","main_expt",""
"","bandit","137","536215","0.0-99.0-0.0","51661565","wem/bandit_party_2","A1A2X0T1XE8K89","either","1","46","","","","","","","0","1","0","","0.5636132077","0.6","0.8","0.4","0.2","0.9062052911","0.5636132077","0.3707442777","0.2146973212","","","","","","","","","","","","","","74","J","1","","","58","main_expt",""
"","bandit","138","537767","0.0-100.0-0.0","51661565","wem/bandit_party_2","A1A2X0T1XE8K89","either","1","45","","","","","","","1","0","0","0.6555757088","","0.6","0.8","0.4","0.2","","","","","0.9169546289","0.6555757088","0.4530366532","0.2118107272","","","","","","","","","","74","J","1","","","59","main_expt",""
"","bandit","139","539407","0.0-101.0-0.0","51661565","wem/bandit_party_2","A1A2X0T1XE8K89","either","1","134","","","","","","","0","0","1","","0.6555481193","0.6","0.8","0.4","0.2","0.9048679239","0.6555481193","0.4335409142","0.2096036334","","","","","","","","","","","","","","74","J","1","","","60","main_expt",""
"","bandit","140","541055","0.0-102.0-0.0","51661565","wem/bandit_party_2","A1A2X0T1XE8K89","either","1","143","","","","","","","1","0","0","0.3601573371","","0.6","0.8","0.4","0.2","","","","","0.9346572725","0.6988977931","0.3601573371","0.1985607356","","","","","","","","","","75","K","2","","","61","main_expt",""
"","bandit","141","542566","0.0-103.0-0.0","51661565","wem/bandit_party_2","A1A2X0T1XE8K89","either","1","6","","","","","","","0","1","0","","0.3187004912","0.6","0.8","0.4","0.2","0.9332729597","0.6124712875","0.3187004912","0.2352246004","","","","","","","","","","","","","","75","K","2","","","62","main_expt",""
"","bandit","142","544224","0.0-104.0-0.0","51661565","wem/bandit_party_2","A1A2X0T1XE8K89","either","1","151","","","","","","","0","0","1","0.331276396","","0.6","0.8","0.4","0.2","","","","","0.9300142507","0.4881994696","0.331276396","0.1989126294","","","","","","","","","","75","K","2","","","63","main_expt",""
"","bandit","143","545856","0.0-105.0-0.0","51661565","wem/bandit_party_2","A1A2X0T1XE8K89","either","1","126","","","","","","","0","0","1","","0.3984677","0.6","0.8","0.4","0.2","0.8992917639","0.5007509184","0.3984677","0.2231035509","","","","","","","","","","","","","","75","K","2","","","64","main_expt",""
"","bandit","144","547544","0.0-106.0-0.0","51661565","wem/bandit_party_2","A1A2X0T1XE8K89","either","1","181","","","","","","","1","0","0","0.7939475476","","0.6","0.8","0.4","0.2","","","","","0.7939475476","0.6077525222","0.3012021372","0.174077904","","","","","","","","","","72","H","0","img/none_selected.jpg","","65","main_expt",""
"","bandit","145","549128","0.0-107.0-0.0","51661565","wem/bandit_party_2","A1A2X0T1XE8K89","either","1","76","","","","","","","0","0","1","","0.7848839068","0.6","0.8","0.4","0.2","0.7848839068","0.4876759876","0.2848395029","0.1505104035","","","","","","","","","","","","","","72","H","0","img/none_selected.jpg","","66","main_expt",""
"","bandit","146","550648","0.0-108.0-0.0","51661565","wem/bandit_party_2","A1A2X0T1XE8K89","either","1","16","","","","","","","1","0","0","0.7712869283","","0.6","0.8","0.4","0.2","","","","","0.7712869283","0.4705728971","0.2908363747","0.1706094741","","","","","","","","","","72","H","0","img/none_selected.jpg","","67","main_expt",""
"","bandit","147","552312","0.0-109.0-0.0","51661565","wem/bandit_party_2","A1A2X0T1XE8K89","either","1","159","","","","","","","1","0","0","0.7426915226","","0.6","0.8","0.4","0.2","","","","","0.7426915226","0.5822594153","0.3226378352","0.193375558","","","","","","","","","","72","H","0","img/none_selected.jpg","","68","main_expt",""
"","bandit","148","554008","0.0-110.0-0.0","51661565","wem/bandit_party_2","A1A2X0T1XE8K89","either","1","190","","","","","","","1","0","0","0.592712881","","0.6","0.8","0.4","0.2","","","","","0.592712881","0.6189715015","0.4490581071","0.226811003","","","","","","","","","","72","H","0","img/none_selected.jpg","","69","main_expt",""
"","bandit","149","555552","0.0-111.0-0.0","51661565","wem/bandit_party_2","A1A2X0T1XE8K89","either","1","38","","","","","","","0","0","1","","0.6587085967","0.6","0.8","0.4","0.2","0.6587085967","0.5307799745","0.42365523","0.191142909","","","","","","","","","","","","","","72","H","0","img/none_selected.jpg","","70","main_expt",""
"","bandit","150","557201","0.0-112.0-0.0","51661565","wem/bandit_party_2","A1A2X0T1XE8K89","either","1","143","","","","","","","1","0","0","0.5205551237","","0.6","0.8","0.4","0.2","","","","","0.7562029562","0.5205551237","0.427101634","0.2371486809","","","","","","","","","","74","J","1","","","71","main_expt",""
"","bandit","151","558825","0.0-113.0-0.0","51661565","wem/bandit_party_2","A1A2X0T1XE8K89","either","1","119","","","","","","","1","0","0","0.5913901284","","0.6","0.8","0.4","0.2","","","","","0.670676276","0.5913901284","0.5387899421","0.2602117984","","","","","","","","","","74","J","1","","","72","main_expt",""
"","bandit","152","560432","0.0-114.0-0.0","51661565","wem/bandit_party_2","A1A2X0T1XE8K89","either","1","101","","","","","","","1","0","0","0.7127465592","","0.6","0.8","0.4","0.2","","","","","0.6870219419","0.7127465592","0.4931252492","0.1837165363","","","","","","","","","","74","J","1","","","73","main_expt",""
"","bandit","153","562073","0.0-115.0-0.0","51661565","wem/bandit_party_2","A1A2X0T1XE8K89","either","1","133","","","","","","","0","1","0","","0.7804212289","0.6","0.8","0.4","0.2","0.582898469","0.7804212289","0.3888626504","0.2032334464","","","","","","","","","","","","","","74","J","1","","","74","main_expt",""
"","bandit","154","563585","0.0-116.0-0.0","51661565","wem/bandit_party_2","A1A2X0T1XE8K89","either","1","5","","","","","","","1","0","0","0.7966502287","","0.6","0.8","0.4","0.2","","","","","0.6452442043","0.7966502287","0.3866429177","0.2782751631","","","","","","","","","","74","J","1","","","75","main_expt",""
"","bandit","155","565273","0.0-117.0-0.0","51661565","wem/bandit_party_2","A1A2X0T1XE8K89","either","1","182","","","","","","","1","0","0","0.7775959854","","0.6","0.8","0.4","0.2","","","","","0.7031137023","0.7775959854","0.3948468247","0.3318782676","","","","","","","","","","74","J","1","","","76","main_expt",""
"","bandit","156","566993","0.0-118.0-0.0","51661565","wem/bandit_party_2","A1A2X0T1XE8K89","either","1","211","","","","","","","0","1","0","","0.8523583745","0.6","0.8","0.4","0.2","0.6096498107","0.8523583745","0.4853082722","0.312607664","","","","","","","","","","","","","","74","J","1","","","77","main_expt",""
"","bandit","157","568504","0.0-119.0-0.0","51661565","wem/bandit_party_2","A1A2X0T1XE8K89","either","1","6","","","","","","","0","0","1","0.7707034136","","0.6","0.8","0.4","0.2","","","","","0.532302087","0.7707034136","0.4971609959","0.3250695504","","","","","","","","","","74","J","1","","","78","main_expt",""
"","bandit","158","570128","0.0-120.0-0.0","51661565","wem/bandit_party_2","A1A2X0T1XE8K89","either","1","119","","","","","","","1","0","0","0.277144637","","0.6","0.8","0.4","0.2","","","","","0.4448734945","0.7919080975","0.5349041547","0.277144637","","","","","","","","","","76","L","3","","","79","main_expt",""
"","bandit","159","571657","0.0-121.0-0.0","51661565","wem/bandit_party_2","A1A2X0T1XE8K89","either","1","23","","","","","","","0","1","0","","0.293018971","0.6","0.8","0.4","0.2","0.34513516","0.8107458935","0.4713204996","0.293018971","","","","","","","","","","","","","","76","L","3","","","80","main_expt",""
"","bandit","160","573280","0.0-122.0-0.0","51661565","wem/bandit_party_2","A1A2X0T1XE8K89","either","1","118","","","","","","","0","0","1","","0.2730851157","0.6","0.8","0.4","0.2","0.406584365","0.7851591746","0.4132476049","0.2730851157","","","","","","","","","","","","","","76","L","3","","","81","main_expt",""
"","bandit","161","574896","0.0-123.0-0.0","51661565","wem/bandit_party_2","A1A2X0T1XE8K89","either","1","111","","","","","","","0","1","0","","0.2436011542","0.6","0.8","0.4","0.2","0.5068312928","0.8067558171","0.4640808921","0.2436011542","","","","","","","","","","","","","","76","L","3","","","82","main_expt",""
"","bandit","162","576450","0.0-124.0-0.0","51661565","wem/bandit_party_2","A1A2X0T1XE8K89","either","1","47","","","","","","","0","0","1","","0.2009218657","0.6","0.8","0.4","0.2","0.5209063211","0.7777816444","0.442115463","0.2009218657","","","","","","","","","","","","","","76","L","3","","","83","main_expt",""
"","bandit","163","578007","0.0-125.0-0.0","51661565","wem/bandit_party_2","A1A2X0T1XE8K89","either","1","52","","","","","","","0","1","0","","0.5117806844","0.6","0.8","0.4","0.2","0.6221591745","0.7801041195","0.5117806844","0.1550904625","","","","","","","","","","","","","","75","K","2","","","84","main_expt",""
"","bandit","164","579560","0.0-126.0-0.0","51661565","wem/bandit_party_2","A1A2X0T1XE8K89","either","1","47","","","","","","","0","1","0","","0.5309627618","0.6","0.8","0.4","0.2","0.6939346182","0.7593249252","0.5309627618","0.1193398435","","","","","","","","","","","","","","75","K","2","","","85","main_expt",""
"","bandit","165","581068","0.0-127.0-0.0","51661565","wem/bandit_party_2","A1A2X0T1XE8K89","either","1","0","","","","","","","0","0","1","","0.5482659382","0.6","0.8","0.4","0.2","0.7533471596","0.7911667705","0.5482659382","0.1398572341","","","","","","","","","","","","","","75","K","2","","","86","main_expt",""
"","bandit","166","582609","0.0-128.0-0.0","51661565","wem/bandit_party_2","A1A2X0T1XE8K89","either","1","33","","","","","","","1","0","0","0.8040573679","","0.6","0.8","0.4","0.2","","","","","0.8040573679","0.8480662183","0.4772076429","0.1941505275","","","","","","","","","","72","H","0","img/none_selected.jpg","","87","main_expt",""
"","bandit","167","584136","0.0-129.0-0.0","51661565","wem/bandit_party_2","A1A2X0T1XE8K89","either","1","20","","","","","","","1","0","0","0.7800800897","","0.6","0.8","0.4","0.2","","","","","0.7800800897","0.8110462569","0.5202977678","0.09645570925","","","","","","","","","","72","H","0","img/none_selected.jpg","","88","main_expt",""
"","bandit","168","585759","0.0-130.0-0.0","51661565","wem/bandit_party_2","A1A2X0T1XE8K89","either","1","118","","","","","","","1","0","0","0.7329239748","","0.6","0.8","0.4","0.2","","","","","0.7329239748","0.7924414871","0.4970482359","0.1304326216","","","","","","","","","","72","H","0","img/none_selected.jpg","","89","main_expt",""
"","bandit","169","587409","0.0-131.0-0.0","51661565","wem/bandit_party_2","A1A2X0T1XE8K89","either","1","142","","","","","","","1","0","0","0.7202813078","","0.6","0.8","0.4","0.2","","","","","0.7202813078","0.8190855249","0.4671205494","0.1410434261","","","","","","","","","","72","H","0","img/none_selected.jpg","","90","main_expt",""
"","bandit","170","589397","0.0-132.0-0.0","51661565","wem/bandit_party_2","A1A2X0T1XE8K89","either","1","482","","","","","","","1","0","0","0.698586111","","0.6","0.8","0.4","0.2","","","","","0.698586111","0.858270253","0.5518401665","0.1277095213","","","","","","","","","","72","H","0","img/none_selected.jpg","","91","main_expt",""
"","bandit","171","591129","0.0-133.0-0.0","51661565","wem/bandit_party_2","A1A2X0T1XE8K89","either","1","224","","","","","","","0","0","1","0.6054304462","","0.6","0.8","0.4","0.2","","","","","0.6054304462","0.8583259383","0.620788192","0.08596821216","","","","","","","","","","72","H","0","img/none_selected.jpg","","92","main_expt",""
"","bandit","172","592721","0.0-134.0-0.0","51661565","wem/bandit_party_2","A1A2X0T1XE8K89","either","1","87","","","","","","","0","0","1","0.8335107661","","0.6","0.8","0.4","0.2","","","","","0.6829204303","0.8335107661","0.679669404","0.05652587691","","","","","","","","","","74","J","1","","","93","main_expt",""
"","bandit","173","594229","0.0-135.0-0.0","51661565","wem/bandit_party_2","A1A2X0T1XE8K89","either","1","0","","","","","","","0","0","1","","0.6084783934","0.6","0.8","0.4","0.2","0.6084783934","0.8849423118","0.6726581754","0.07490457358","","","","","","","","","","","","","","72","H","0","img/none_selected.jpg","","94","main_expt",""
"","bandit","174","595872","0.0-136.0-0.0","51661565","wem/bandit_party_2","A1A2X0T1XE8K89","either","1","137","","","","","","","0","0","1","","0.51962455","0.6","0.8","0.4","0.2","0.51962455","0.9175662658","0.5983950962","0.05201682933","","","","","","","","","","","","","","72","H","0","img/none_selected.jpg","","95","main_expt",""
"","bandit","175","597416","0.0-137.0-0.0","51661565","wem/bandit_party_2","A1A2X0T1XE8K89","either","1","39","","","","","","","0","0","1","0.6316158747","","0.6","0.8","0.4","0.2","","","","","0.453067158","0.8726153548","0.6316158747","0.0353667714","","","","","","","","","","75","K","2","","","96","main_expt",""
"","bandit","176","599072","0.0-138.0-0.0","51661565","wem/bandit_party_2","A1A2X0T1XE8K89","either","1","149","","","","","","","1","0","0","0.6660601513","","0.6","0.8","0.4","0.2","","","","","0.4090095009","0.7260562137","0.6660601513","0.04301306848","","","","","","","","","","75","K","2","","","97","main_expt",""
"","bandit","177","600690","0.0-139.0-0.0","51661565","wem/bandit_party_2","A1A2X0T1XE8K89","either","1","111","","","","","","","0","0","1","0.6185462561","","0.6","0.8","0.4","0.2","","","","","0.360727585","0.6506148609","0.6185462561","0.03950067624","","","","","","","","","","75","K","2","","","98","main_expt",""
"","bandit","178","602312","0.0-140.0-0.0","51661565","wem/bandit_party_2","A1A2X0T1XE8K89","either","1","117","","","","","","","0","0","1","0.03156699585","","0.6","0.8","0.4","0.2","","","","","0.3351327477","0.5816342488","0.581128502","0.03156699585","","","","","","","","","","76","L","3","","","99","main_expt",""
"","bandit","179","604896","0.0-141.0-0.0","51661565","wem/bandit_party_2","A1A2X0T1XE8K89","either","1","1079","","","","","","","0","0","1","0.0248161238","","0.6","0.8","0.4","0.2","","","","","0.3491912274","0.5521464449","0.479775063","0.0248161238","","","","","","","","","","76","L","3","","","100","main_expt",""
"","bandit","180","606527","0.0-142.0-0.0","51661565","wem/bandit_party_2","A1A2X0T1XE8K89","either","1","125","","","","","","","0","0","1","","0.02218075004","0.6","0.8","0.4","0.2","0.4105375765","0.6063232436","0.5114647241","0.02218075004","","","","","","","","","","","","","","76","L","3","","","101","main_expt",""
"","bandit","181","608383","0.0-143.0-0.0","51661565","wem/bandit_party_2","A1A2X0T1XE8K89","either","1","349","","","","","","","0","0","1","","0.01802152149","0.6","0.8","0.4","0.2","0.438632671","0.5636213764","0.4718740674","0.01802152149","","","","","","","","","","","","","","76","L","3","","","102","main_expt",""
"","bandit","182","609891","0.0-144.0-0.0","51661565","wem/bandit_party_2","A1A2X0T1XE8K89","either","1","1","","","","","","","0","0","1","0.5370473259","","0.6","0.8","0.4","0.2","","","","","0.372838406","0.5370473259","0.5245129891","0.01877214671","","","","","","","","","","74","J","1","","","103","main_expt",""
"","bandit","183","611415","0.0-145.0-0.0","51661565","wem/bandit_party_2","A1A2X0T1XE8K89","either","1","18","","","","","","","1","0","0","0.549647281","","0.6","0.8","0.4","0.2","","","","","0.3057692375","0.549647281","0.5170751474","0.01556743346","","","","","","","","","","74","J","1","","","104","main_expt",""
"","bandit","184","612927","0.0-146.0-0.0","51661565","wem/bandit_party_2","A1A2X0T1XE8K89","either","1","7","","","","","","","0","0","1","0.4225976111","","0.6","0.8","0.4","0.2","","","","","0.37369274","0.4225976111","0.472330124","0.03717147126","","","","","","","","","","74","J","1","","","105","main_expt",""
"","bandit","185","614543","0.0-147.0-0.0","51661565","wem/bandit_party_2","A1A2X0T1XE8K89","either","1","110","","","","","","","0","0","1","0.568133852","","0.6","0.8","0.4","0.2","","","","","0.3179799449","0.5005163425","0.568133852","0.07687033395","","","","","","","","","","75","K","2","","","106","main_expt",""
"","bandit","186","616103","0.0-148.0-0.0","51661565","wem/bandit_party_2","A1A2X0T1XE8K89","either","1","55","","","","","","","0","0","1","","0.536018559","0.6","0.8","0.4","0.2","0.3053765494","0.3995396385","0.536018559","0.07659049968","","","","","","","","","","","","","","75","K","2","","","107","main_expt",""
"","bandit","187","617711","0.0-149.0-0.0","51661565","wem/bandit_party_2","A1A2X0T1XE8K89","either","1","101","","","","","","","0","0","1","0.2732860947","","0.6","0.8","0.4","0.2","","","","","0.2732860947","0.3855926336","0.3880888981","0.07827602418","","","","","","","","","","72","H","0","img/none_selected.jpg","","108","main_expt",""
"","bandit","188","619321","0.0-150.0-0.0","51661565","wem/bandit_party_2","A1A2X0T1XE8K89","either","1","102","","","","","","","0","0","1","","0.2624197952","0.6","0.8","0.4","0.2","0.2624197952","0.3059937163","0.3675045314","0.1352418701","","","","","","","","","","","","","","72","H","0","img/none_selected.jpg","","109","main_expt",""
"","bandit","189","620936","0.0-151.0-0.0","51661565","wem/bandit_party_2","A1A2X0T1XE8K89","either","1","109","","","","","","","0","0","1","","0.1705666919","0.6","0.8","0.4","0.2","0.3303210632","0.2752892785","0.4560700489","0.1705666919","","","","","","","","","","","","","","76","L","3","","","110","main_expt",""
"","bandit","190","622488","0.0-152.0-0.0","51661565","wem/bandit_party_2","A1A2X0T1XE8K89","either","1","48","","","","","","","0","0","1","","0.2202970635","0.6","0.8","0.4","0.2","0.3541452024","0.3038626008","0.5366389876","0.2202970635","","","","","","","","","","","","","","76","L","3","","","111","main_expt",""
"","bandit","191","624158","0.0-153.0-0.0","51661565","wem/bandit_party_2","A1A2X0T1XE8K89","either","1","164","","","","","","","1","0","0","0.2308866464","","0.6","0.8","0.4","0.2","","","","","0.4468573219","0.2308866464","0.5742054707","0.2368742277","","","","","","","","","","74","J","1","","","112","main_expt",""
"","bandit","192","625855","0.0-154.0-0.0","51661565","wem/bandit_party_2","A1A2X0T1XE8K89","either","1","191","","","","","","","0","0","1","0.2420052043","","0.6","0.8","0.4","0.2","","","","","0.5163231944","0.2420052043","0.6014260319","0.2487241586","","","","","","","","","","74","J","1","","","113","main_expt",""
"","bandit","193","627432","0.0-155.0-0.0","51661565","wem/bandit_party_2","A1A2X0T1XE8K89","either","1","72","","","","","","","0","0","1","0.3277817495","","0.6","0.8","0.4","0.2","","","","","0.4064640458","0.3277817495","0.5398035654","0.238824581","","","","","","","","","","74","J","1","","","114","main_expt",""
"","bandit","194","629055","0.0-156.0-0.0","51661565","wem/bandit_party_2","A1A2X0T1XE8K89","either","1","117","","","","","","","0","0","1","","0.5008208772","0.6","0.8","0.4","0.2","0.4085425191","0.3280884562","0.5008208772","0.1480638281","","","","","","","","","","","","","","75","K","2","","","115","main_expt",""
"","bandit","195","630568","0.0-157.0-0.0","51661565","wem/bandit_party_2","A1A2X0T1XE8K89","either","1","5","","","","","","","1","0","0","0.4200837231","","0.6","0.8","0.4","0.2","","","","","0.4412864427","0.4137256642","0.4200837231","0.1246447603","","","","","","","","","","75","K","2","","","116","main_expt",""
"","bandit","196","632223","0.0-158.0-0.0","51661565","wem/bandit_party_2","A1A2X0T1XE8K89","either","1","149","","","","","","","0","0","1","0.4094987027","","0.6","0.8","0.4","0.2","","","","","0.5188885271","0.372751341","0.4094987027","0.1308085784","","","","","","","","","","75","K","2","","","117","main_expt",""
"","bandit","197","633895","0.0-159.0-0.0","51661565","wem/bandit_party_2","A1A2X0T1XE8K89","either","1","166","","","","","","","0","0","1","0.5728151575","","0.6","0.8","0.4","0.2","","","","","0.5728151575","0.4225631273","0.3862907493","0.09076242324","","","","","","","","","","72","H","0","img/none_selected.jpg","","118","main_expt",""
"","bandit","198","635456","0.0-160.0-0.0","51661565","wem/bandit_party_2","A1A2X0T1XE8K89","either","1","53","","","","","","","0","0","1","0.5065624602","","0.6","0.8","0.4","0.2","","","","","0.5065624602","0.4188482812","0.4437318585","0.09057925276","","","","","","","","","","72","H","0","img/none_selected.jpg","","119","main_expt",""
"","bandit","199","637118","0.0-161.0-0.0","51661565","wem/bandit_party_2","A1A2X0T1XE8K89","either","1","158","","","","","","","0","0","1","0.1288926122","","0.6","0.8","0.4","0.2","","","","","0.4064427813","0.3729077829","0.293469011","0.1288926122","","","","","","","","","","76","L","3","","","120","main_expt",""
"","bandit","200","638720","0.0-162.0-0.0","51661565","wem/bandit_party_2","A1A2X0T1XE8K89","either","1","95","","","","","","","0","0","1","","0.1479701512","0.6","0.8","0.4","0.2","0.3948988447","0.3817262037","0.2141601759","0.1479701512","","","","","","","","","","","","","","76","L","3","","","121","main_expt",""
"","bandit","201","640225","0.0-163.0-0.0","51661565","wem/bandit_party_2","A1A2X0T1XE8K89","either","1","0","","","","","","","0","0","1","","0.2594293103","0.6","0.8","0.4","0.2","0.316823658","0.3537210734","0.2594293103","0.1663524813","","","","","","","","","","","","","","75","K","2","","","122","main_expt",""
"","bandit","202","641863","0.0-164.0-0.0","51661565","wem/bandit_party_2","A1A2X0T1XE8K89","either","1","133","","","","","","","0","0","1","0.1519240937","","0.6","0.8","0.4","0.2","","","","","0.3045978244","0.3633727708","0.1519240937","0.1993917655","","","","","","","","","","75","K","2","","","123","main_expt",""
"","bandit","203","643368","0.0-165.0-0.0","51661565","wem/bandit_party_2","A1A2X0T1XE8K89","either","1","1","","","","","","","0","0","1","","0.4139908316","0.6","0.8","0.4","0.2","0.2389028675","0.4139908316","0.2311656533","0.2948689786","","","","","","","","","","","","","","74","J","1","","","124","main_expt",""
"","bandit","204","644936","0.0-166.0-0.0","51661565","wem/bandit_party_2","A1A2X0T1XE8K89","either","1","60","","","","","","","0","0","1","","0.3619800754","0.6","0.8","0.4","0.2","0.2166803268","0.3619800754","0.1956748967","0.4054398129","","","","","","","","","","","","","","74","J","1","","","125","main_expt",""
"","bandit","205","646447","0.0-167.0-0.0","51661565","wem/bandit_party_2","A1A2X0T1XE8K89","either","1","6","","","","","","","0","0","1","0.1613674106","","0.6","0.8","0.4","0.2","","","","","0.1613674106","0.353362548","0.1419383156","0.5337661481","","","","","","","","","","72","H","0","img/none_selected.jpg","","126","main_expt",""
"","bandit","206","648103","0.0-168.0-0.0","51661565","wem/bandit_party_2","A1A2X0T1XE8K89","either","1","149","","","","","","","0","0","1","","0.1682412955","0.6","0.8","0.4","0.2","0.1682412955","0.2888217425","0.1768105291","0.5510518781","","","","","","","","","","","","","","72","H","0","img/none_selected.jpg","","127","main_expt",""
"","bandit","207","649689","0.0-169.0-0.0","51661565","wem/bandit_party_2","A1A2X0T1XE8K89","either","1","78","","","","","","","0","1","0","","0.4746642732","0.6","0.8","0.4","0.2","0.1655910943","0.3131893798","0.1187699492","0.4746642732","","","","","","","","","","","","","","76","L","3","","","128","main_expt",""
"","bandit","208","651375","0.0-170.0-0.0","51661565","wem/bandit_party_2","A1A2X0T1XE8K89","either","1","179","","","","","","","0","1","0","","0.5345142674","0.6","0.8","0.4","0.2","0.1845506081","0.2826861836","0.1860330609","0.5345142674","","","","","","","","","","","","","","76","L","3","","","129","main_expt",""
"","bandit","209","652945","0.0-171.0-0.0","51661565","wem/bandit_party_2","A1A2X0T1XE8K89","either","1","62","","","","","","","0","0","1","","0.6617219445","0.6","0.8","0.4","0.2","0.1548240476","0.3434973012","0.09722607165","0.6617219445","","","","","","","","","","","","","","76","L","3","","","130","main_expt",""
"","bandit","210","654480","0.0-172.0-0.0","51661565","wem/bandit_party_2","A1A2X0T1XE8K89","either","1","27","","","","","","","0","0","1","","0.6183560712","0.6","0.8","0.4","0.2","0.1503989","0.3848082556","0.05626421391","0.6183560712","","","","","","","","","","","","","","76","L","3","","","131","main_expt",""
"","bandit","211","656038","0.0-173.0-0.0","51661565","wem/bandit_party_2","A1A2X0T1XE8K89","either","1","54","","","","","","","0","0","1","","0.7009512511","0.6","0.8","0.4","0.2","0.1199593994","0.4140069858","0.1149854728","0.7009512511","","","","","","","","","","","","","","76","L","3","","","132","main_expt",""
"","bandit","212","657719","0.0-174.0-0.0","51661565","wem/bandit_party_2","A1A2X0T1XE8K89","either","1","174","","","","","","","0","0","1","","0.1698175541","0.6","0.8","0.4","0.2","0.1518383839","0.3745017877","0.1698175541","0.5838974895","","","","","","","","","","","","","","75","K","2","","","133","main_expt",""
"","bandit","213","659294","0.0-175.0-0.0","51661565","wem/bandit_party_2","A1A2X0T1XE8K89","either","1","71","","","","","","","0","0","1","0.1925371395","","0.6","0.8","0.4","0.2","","","","","0.1855528241","0.3918835711","0.1925371395","0.6628563986","","","","","","","","","","75","K","2","","","134","main_expt",""
"","bandit","214","660991","0.0-176.0-0.0","51661565","wem/bandit_party_2","A1A2X0T1XE8K89","either","1","192","","","","","","","0","0","1","","0.3405764209","0.6","0.8","0.4","0.2","0.2187769305","0.3405764209","0.246136332","0.5610912218","","","","","","","","","","","","","","74","J","1","","","135","main_expt",""
"","bandit","215","662574","0.0-177.0-0.0","51661565","wem/bandit_party_2","A1A2X0T1XE8K89","either","1","79","","","","","","","0","0","1","0.4155430462","","0.6","0.8","0.4","0.2","","","","","0.2001534018","0.4155430462","0.2277518718","0.4834649218","","","","","","","","","","74","J","1","","","136","main_expt",""
"","bandit","216","664263","0.0-178.0-0.0","51661565","wem/bandit_party_2","A1A2X0T1XE8K89","either","1","183","","","","","","","0","1","0","","0.176995917","0.6","0.8","0.4","0.2","0.176995917","0.3389252929","0.252962458","0.513072369","","","","","","","","","","","","","","72","H","0","img/none_selected.jpg","","137","main_expt",""
"","bandit","217","665768","0.0-179.0-0.0","51661565","wem/bandit_party_2","A1A2X0T1XE8K89","either","1","0","","","","","","","0","0","1","","0.1460019238","0.6","0.8","0.4","0.2","0.1460019238","0.2698753193","0.3018696236","0.5502636267","","","","","","","","","","","","","","72","H","0","img/none_selected.jpg","","138","main_expt",""
"","bandit","218","667423","0.0-180.0-0.0","51661565","wem/bandit_party_2","A1A2X0T1XE8K89","either","1","149","","","","","","","0","0","1","0.06707115951","","0.6","0.8","0.4","0.2","","","","","0.06707115951","0.2821570394","0.347353107","0.4564922144","","","","","","","","","","72","H","0","img/none_selected.jpg","","139","main_expt",""
"","bandit","219","668959","0.0-181.0-0.0","51661565","wem/bandit_party_2","A1A2X0T1XE8K89","either","1","30","","","","","","","0","0","1","0.4116013625","","0.6","0.8","0.4","0.2","","","","","0.1071331831","0.3577533322","0.2477375586","0.4116013625","","","","","","","","","","76","L","3","","","140","main_expt",""
"","bandit","220","670519","0.0-182.0-0.0","51661565","wem/bandit_party_2","A1A2X0T1XE8K89","either","1","54","","","","","","","0","0","1","0.4498847811","","0.6","0.8","0.4","0.2","","","","","0.1224459691","0.4250900652","0.2880826197","0.4498847811","","","","","","","","","","76","L","3","","","141","main_expt",""
"","bandit","221","672079","0.0-183.0-0.0","51661565","wem/bandit_party_2","A1A2X0T1XE8K89","either","1","54","","","","","","","0","1","0","","0.4822150968","0.6","0.8","0.4","0.2","0.1127900777","0.3451055681","0.2287108423","0.4822150968","","","","","","","","","","","","","","76","L","3","","","142","main_expt",""
"","bandit","222","673645","0.0-184.0-0.0","51661565","wem/bandit_party_2","A1A2X0T1XE8K89","either","1","63","","","","","","","0","1","0","","0.513506041","0.6","0.8","0.4","0.2","0.1736101882","0.4661026996","0.2096850542","0.513506041","","","","","","","","","","","","","","76","L","3","","","143","main_expt",""
"","bandit","223","675295","0.0-185.0-0.0","51661565","wem/bandit_party_2","A1A2X0T1XE8K89","either","1","144","","","","","","","0","1","0","","0.556822441","0.6","0.8","0.4","0.2","0.1231714597","0.4683168179","0.2214165798","0.556822441","","","","","","","","","","","","","","76","L","3","","","144","main_expt",""
"","bandit","224","676942","0.0-186.0-0.0","51661565","wem/bandit_party_2","A1A2X0T1XE8K89","either","1","141","","","","","","","0","1","0","","0.5633269006","0.6","0.8","0.4","0.2","0.10514291","0.448697065","0.2412424024","0.5633269006","","","","","","","","","","","","","","76","L","3","","","145","main_expt",""
"","bandit","225","678552","0.0-187.0-0.0","51661565","wem/bandit_party_2","A1A2X0T1XE8K89","either","1","103","","","","","","","0","0","1","","0.6482805244","0.6","0.8","0.4","0.2","0.0972381369","0.4560677512","0.1841611904","0.6482805244","","","","","","","","","","","","","","76","L","3","","","146","main_expt",""
"","bandit","226","680231","0.0-188.0-0.0","51661565","wem/bandit_party_2","A1A2X0T1XE8K89","either","1","173","","","","","","","0","1","0","","0.1577922033","0.6","0.8","0.4","0.2","0.1897119627","0.513472809","0.1577922033","0.6036290043","","","","","","","","","","","","","","75","K","2","","","147","main_expt",""
"","bandit","227","681791","0.0-189.0-0.0","51661565","wem/bandit_party_2","A1A2X0T1XE8K89","either","1","55","","","","","","","0","0","1","","0.1663963597","0.6","0.8","0.4","0.2","0.1759094881","0.3820674583","0.1663963597","0.6110248825","","","","","","","","","","","","","","75","K","2","","","148","main_expt",""
"","bandit","228","683503","0.0-190.0-0.0","51661565","wem/bandit_party_2","A1A2X0T1XE8K89","either","1","206","","","","","","","0","0","1","","0.319747154","0.6","0.8","0.4","0.2","0.2204336569","0.3116557105","0.319747154","0.6453676348","","","","","","","","","","","","","","75","K","2","","","149","main_expt",""
"","bandit","229","685190","0.0-191.0-0.0","51661565","wem/bandit_party_2","A1A2X0T1XE8K89","either","1","182","","","","","","","0","1","0","","0.66235511","0.6","0.8","0.4","0.2","0.2328853871","0.3039338698","0.5410110608","0.66235511","","","","","","","","","","","","","","76","L","3","","","150","main_expt",""
"","bandit","230","686855","0.0-192.0-0.0","51661565","wem/bandit_party_2","A1A2X0T1XE8K89","either","1","157","","","","","","","0","0","1","","0.5547575852","0.6","0.8","0.4","0.2","0.2652525627","0.3092958796","0.5584745132","0.5547575852","","","","","","","","","","","","","","76","L","3","","","151","main_expt",""
"","bandit","231","688495","0.0-193.0-0.0","51661565","wem/bandit_party_2","A1A2X0T1XE8K89","either","1","134","","","","","","","1","0","0","0.3097370874","","0.6","0.8","0.4","0.2","","","","","0.2654363334","0.3097370874","0.5709378499","0.5223098228","","","","","","","","","","74","J","1","","","152","main_expt",""
"","bandit","232","690192","0.0-194.0-0.0","51661565","wem/bandit_party_2","A1A2X0T1XE8K89","either","1","189","","","","","","","0","0","1","0.2955649657","","0.6","0.8","0.4","0.2","","","","","0.3505589273","0.2955649657","0.6314515046","0.5137303037","","","","","","","","","","74","J","1","","","153","main_expt",""
"","bandit","233","691704","0.0-195.0-0.0","51661565","wem/bandit_party_2","A1A2X0T1XE8K89","either","1","4","","","","","","","1","0","0","0.221553637","","0.6","0.8","0.4","0.2","","","","","0.39889796","0.221553637","0.6734276465","0.5193194566","","","","","","","","","","74","J","1","","","154","main_expt",""
"","bandit","234","693342","0.0-196.0-0.0","51661565","wem/bandit_party_2","A1A2X0T1XE8K89","either","1","131","","","","","","","0","0","1","0.2231547498","","0.6","0.8","0.4","0.2","","","","","0.4202606707","0.2231547498","0.7019144477","0.4736812385","","","","","","","","","","74","J","1","","","155","main_expt",""
"","bandit","235","695135","0.0-197.0-0.0","51661565","wem/bandit_party_2","A1A2X0T1XE8K89","either","1","287","","","","","","","0","0","1","","0.4814159609","0.6","0.8","0.4","0.2","0.4814159609","0.2750957943","0.6695455193","0.4616442501","","","","","","","","","","","","","","72","H","0","img/none_selected.jpg","","156","main_expt",""
"","bandit","236","696776","0.0-198.0-0.0","51661565","wem/bandit_party_2","A1A2X0T1XE8K89","either","1","134","","","","","","","1","0","0","0.5316807058","","0.6","0.8","0.4","0.2","","","","","0.5316807058","0.2005793054","0.6179864128","0.5025740222","","","","","","","","","","72","H","0","img/none_selected.jpg","","157","main_expt",""
"","bandit","237","698472","0.0-199.0-0.0","51661565","wem/bandit_party_2","A1A2X0T1XE8K89","either","1","189","","","","","","","0","1","0","","0.5429668589","0.6","0.8","0.4","0.2","0.5429668589","0.2502080146","0.7380689997","0.4548105643","","","","","","","","","","","","","","72","H","0","img/none_selected.jpg","","158","main_expt",""
"","bandit","238","700168","0.0-200.0-0.0","51661565","wem/bandit_party_2","A1A2X0T1XE8K89","either","1","189","","","","","","","1","0","0","0.5991419929","","0.6","0.8","0.4","0.2","","","","","0.5991419929","0.2729805177","0.7632184112","0.4622667215","","","","","","","","","","72","H","0","img/none_selected.jpg","","159","main_expt",""
"","bandit","239","701734","0.0-201.0-0.0","51661565","wem/bandit_party_2","A1A2X0T1XE8K89","either","1","60","","","","","","","1","0","0","0.6480894682","","0.6","0.8","0.4","0.2","","","","","0.6480894682","0.2801697818","0.6917664031","0.4600517474","","","","","","","","","","72","H","0","img/none_selected.jpg","","160","main_expt",""
"","bandit","240","703431","0.0-202.0-0.0","51661565","wem/bandit_party_2","A1A2X0T1XE8K89","either","1","189","","","","","","","1","0","0","0.6776161973","","0.6","0.8","0.4","0.2","","","","","0.6776161973","0.2437938608","0.7106531984","0.481388234","","","","","","","","","","72","H","0","img/none_selected.jpg","","161","main_expt",""
"","bandit","241","705007","0.0-203.0-0.0","51661565","wem/bandit_party_2","A1A2X0T1XE8K89","either","1","71","","","","","","","0","1","0","","0.7134031715","0.6","0.8","0.4","0.2","0.7134031715","0.2687553501","0.809310282","0.3850106192","","","","","","","","","","","","","","72","H","0","img/none_selected.jpg","","162","main_expt",""
"","bandit","242","706727","0.0-204.0-0.0","51661565","wem/bandit_party_2","A1A2X0T1XE8K89","either","1","213","","","","","","","1","0","0","0.6215635068","","0.6","0.8","0.4","0.2","","","","","0.6215635068","0.245991677","0.7492875705","0.3498723973","","","","","","","","","","72","H","0","img/none_selected.jpg","","163","main_expt",""
"","bandit","243","708472","0.0-205.0-0.0","51661565","wem/bandit_party_2","A1A2X0T1XE8K89","either","1","238","","","","","","","0","0","1","0.5219240024","","0.6","0.8","0.4","0.2","","","","","0.5219240024","0.270385563","0.7561394707","0.4287417444","","","","","","","","","","72","H","0","img/none_selected.jpg","","164","main_expt",""
"","bandit","244","710103","0.0-206.0-0.0","51661565","wem/bandit_party_2","A1A2X0T1XE8K89","either","1","125","","","","","","","1","0","0","0.8111415702","","0.6","0.8","0.4","0.2","","","","","0.4727302842","0.3037855967","0.8111415702","0.3150145745","","","","","","","","","","75","K","2","","","165","main_expt",""
"","bandit","245","711687","0.0-207.0-0.0","51661565","wem/bandit_party_2","A1A2X0T1XE8K89","either","1","76","","","","","","","0","1","0","","0.7759938205","0.6","0.8","0.4","0.2","0.5181018645","0.3395577104","0.7759938205","0.2927018344","","","","","","","","","","","","","","75","K","2","","","166","main_expt",""
"","bandit","246","713279","0.0-208.0-0.0","51661565","wem/bandit_party_2","A1A2X0T1XE8K89","either","1","86","","","","","","","1","0","0","0.8267633335","","0.6","0.8","0.4","0.2","","","","","0.5280433419","0.3443901906","0.8267633335","0.3610256338","","","","","","","","","","75","K","2","","","167","main_expt",""
"","bandit","247","715119","0.0-209.0-0.0","51661565","wem/bandit_party_2","A1A2X0T1XE8K89","either","1","333","","","","","","","0","1","0","","0.8136073627","0.6","0.8","0.4","0.2","0.5470010145","0.2552323567","0.8136073627","0.3137127159","","","","","","","","","","","","","","75","K","2","","","168","main_expt",""
"","bandit","248","716704","0.0-210.0-0.0","51661565","wem/bandit_party_2","A1A2X0T1XE8K89","either","1","79","","","","","","","0","1","0","","0.7308533614","0.6","0.8","0.4","0.2","0.5558845962","0.289352286","0.7308533614","0.2292796242","","","","","","","","","","","","","","75","K","2","","","169","main_expt",""
"","bandit","249","718359","0.0-211.0-0.0","51661565","wem/bandit_party_2","A1A2X0T1XE8K89","either","1","149","","","","","","","0","1","0","","0.7090730391","0.6","0.8","0.4","0.2","0.5799309324","0.2262743404","0.7090730391","0.221948569","","","","","","","","","","","","","","75","K","2","","","170","main_expt",""
"","bandit","250","719998","0.0-212.0-0.0","51661565","wem/bandit_party_2","A1A2X0T1XE8K89","either","1","134","","","","","","","0","1","0","","0.7229684446","0.6","0.8","0.4","0.2","0.6643953266","0.2644351609","0.7229684446","0.159615594","","","","","","","","","","","","","","75","K","2","","","171","main_expt",""
"","bandit","251","721703","0.0-213.0-0.0","51661565","wem/bandit_party_2","A1A2X0T1XE8K89","either","1","199","","","","","","","0","0","1","0.6612043244","","0.6","0.8","0.4","0.2","","","","","0.7610666705","0.4136296373","0.6612043244","0.1303854457","","","","","","","","","","75","K","2","","","172","main_expt",""
"","bandit","252","723345","0.0-214.0-0.0","51661565","wem/bandit_party_2","A1A2X0T1XE8K89","either","1","135","","","","","","","1","0","0","0.7669021743","","0.6","0.8","0.4","0.2","","","","","0.8006149786","0.491318492","0.7669021743","0.07729024622","","","","","","","","","","75","K","2","","","173","main_expt",""
"","bandit","253","724926","0.0-215.0-0.0","51661565","wem/bandit_party_2","A1A2X0T1XE8K89","either","1","76","","","","","","","0","0","1","0.8111867287","","0.6","0.8","0.4","0.2","","","","","0.791095403","0.4966763124","0.8111867287","0.1227026474","","","","","","","","","","75","K","2","","","174","main_expt",""
"","bandit","254","726478","0.0-216.0-0.0","51661565","wem/bandit_party_2","A1A2X0T1XE8K89","either","1","47","","","","","","","0","1","0","","0.8192498968","0.6","0.8","0.4","0.2","0.8572088762","0.5109350621","0.8192498968","0.09483306355","","","","","","","","","","","","","","75","K","2","","","175","main_expt",""
"","bandit","255","728150","0.0-217.0-0.0","51661565","wem/bandit_party_2","A1A2X0T1XE8K89","either","1","166","","","","","","","0","1","0","","0.8371283275","0.6","0.8","0.4","0.2","0.8576080684","0.6321295754","0.8371283275","0.143069758","","","","","","","","","","","","","","75","K","2","","","176","main_expt",""
"","bandit","256","729976","0.0-218.0-0.0","51661565","wem/bandit_party_2","A1A2X0T1XE8K89","either","1","321","","","","","","","0","1","0","","0.8545140947","0.6","0.8","0.4","0.2","0.8678158231","0.5515755996","0.8545140947","0.1741656422","","","","","","","","","","","","","","75","K","2","","","177","main_expt",""
"","bandit","257","731640","0.0-219.0-0.0","51661565","wem/bandit_party_2","A1A2X0T1XE8K89","either","1","158","","","","","","","0","1","0","","0.8794893657","0.6","0.8","0.4","0.2","0.8820542777","0.5086275016","0.8794893657","0.1904086474","","","","","","","","","","","","","","75","K","2","","","178","main_expt",""
"","bandit","258","733360","0.0-220.0-0.0","51661565","wem/bandit_party_2","A1A2X0T1XE8K89","either","1","213","","","","","","","0","1","0","","0.8939587296","0.6","0.8","0.4","0.2","0.8907334788","0.5215192908","0.8939587296","0.1778905233","","","","","","","","","","","","","","75","K","2","","","179","main_expt",""
"","bandit","259","734990","0.0-221.0-0.0","51661565","wem/bandit_party_2","A1A2X0T1XE8K89","either","1","125","","","","","","","1","0","0","0.868077767","","0.6","0.8","0.4","0.2","","","","","0.9161653667","0.5193414217","0.868077767","0.2112817454","","","","","","","","","","75","K","2","","","180","main_expt",""
"","bandit","260","736598","0.0-222.0-0.0","51661565","wem/bandit_party_2","A1A2X0T1XE8K89","either","1","103","","","","","","","0","0","1","0.9295405476","","0.6","0.8","0.4","0.2","","","","","0.9327112184","0.4613460131","0.9295405476","0.2236312472","","","","","","","","","","75","K","2","","","181","main_expt",""
"","bandit","261","738198","0.0-223.0-0.0","51661565","wem/bandit_party_2","A1A2X0T1XE8K89","either","1","94","","","","","","","0","1","0","","0.9213574857","0.6","0.8","0.4","0.2","0.9284398706","0.4468633868","0.9213574857","0.264467441","","","","","","","","","","","","","","75","K","2","","","182","main_expt",""
"","bandit","262","739871","0.0-224.0-0.0","51661565","wem/bandit_party_2","A1A2X0T1XE8K89","either","1","166","","","","","","","0","0","1","0.9374560388","","0.6","0.8","0.4","0.2","","","","","0.89591471","0.4985091709","0.9374560388","0.2240632979","","","","","","","","","","75","K","2","","","183","main_expt",""
"","bandit","263","741439","0.0-225.0-0.0","51661565","wem/bandit_party_2","A1A2X0T1XE8K89","either","1","62","","","","","","","0","0","1","0.1671404848","","0.6","0.8","0.4","0.2","","","","","0.9146434193","0.6057575335","0.9120054929","0.1671404848","","","","","","","","","","76","L","3","","","184","main_expt",""
"","bandit","264","743095","0.0-226.0-0.0","51661565","wem/bandit_party_2","A1A2X0T1XE8K89","either","1","148","","","","","","","0","1","0","","0.8428471033","0.6","0.8","0.4","0.2","0.8575823977","0.4915456485","0.8428471033","0.1932257563","","","","","","","","","","","","","","75","K","2","","","185","main_expt",""
"","bandit","265","744622","0.0-227.0-0.0","51661565","wem/bandit_party_2","A1A2X0T1XE8K89","either","1","22","","","","","","","0","1","0","","0.7734335662","0.6","0.8","0.4","0.2","0.8487952361","0.5976273718","0.7734335662","0.155472597","","","","","","","","","","","","","","75","K","2","","","186","main_expt",""
"","bandit","266","746223","0.0-228.0-0.0","51661565","wem/bandit_party_2","A1A2X0T1XE8K89","either","1","94","","","","","","","0","1","0","","0.7667319261","0.6","0.8","0.4","0.2","0.8603972339","0.5743595779","0.7667319261","0.1895871356","","","","","","","","","","","","","","75","K","2","","","187","main_expt",""
"","bandit","267","747927","0.0-229.0-0.0","51661565","wem/bandit_party_2","A1A2X0T1XE8K89","either","1","196","","","","","","","0","0","1","0.5945875292","","0.6","0.8","0.4","0.2","","","","","0.8834510925","0.6833173747","0.5945875292","0.2119556673","","","","","","","","","","75","K","2","","","188","main_expt",""
"","bandit","268","749550","0.0-230.0-0.0","51661565","wem/bandit_party_2","A1A2X0T1XE8K89","either","1","117","","","","","","","1","0","0","0.7406569186","","0.6","0.8","0.4","0.2","","","","","0.8973947779","0.651089354","0.7406569186","0.2255007403","","","","","","","","","","75","K","2","","","189","main_expt",""
"","bandit","269","751127","0.0-231.0-0.0","51661565","wem/bandit_party_2","A1A2X0T1XE8K89","either","1","68","","","","","","","0","1","0","","0.7371931777","0.6","0.8","0.4","0.2","0.8824587855","0.6599652607","0.7371931777","0.1754842532","","","","","","","","","","","","","","75","K","2","","","190","main_expt",""
"","bandit","270","752744","0.0-232.0-0.0","51661565","wem/bandit_party_2","A1A2X0T1XE8K89","either","1","109","","","","","","","0","0","1","0.7019705866","","0.6","0.8","0.4","0.2","","","","","0.9076431997","0.6960236584","0.7019705866","0.1936311571","","","","","","","","","","75","K","2","","","191","main_expt",""
"","bandit","271","754263","0.0-233.0-0.0","51661565","wem/bandit_party_2","A1A2X0T1XE8K89","either","1","12","","","","","","","1","0","0","0.6713911156","","0.6","0.8","0.4","0.2","","","","","0.8673165995","0.6713911156","0.6198122665","0.215612591","","","","","","","","","","74","J","1","","","192","main_expt",""
"","bandit","272","755839","0.0-234.0-0.0","51661565","wem/bandit_party_2","A1A2X0T1XE8K89","either","1","72","","","","","","","1","0","0","0.7244072205","","0.6","0.8","0.4","0.2","","","","","0.8264401474","0.7244072205","0.6100930929","0.2818734505","","","","","","","","","","74","J","1","","","193","main_expt",""
"","bandit","273","757496","0.0-235.0-0.0","51661565","wem/bandit_party_2","A1A2X0T1XE8K89","either","1","148","","","","","","","1","0","0","0.7397798508","","0.6","0.8","0.4","0.2","","","","","0.8546086414","0.7397798508","0.6332739585","0.3616108755","","","","","","","","","","74","J","1","","","194","main_expt",""
"","bandit","274","759175","0.0-236.0-0.0","51661565","wem/bandit_party_2","A1A2X0T1XE8K89","either","1","172","","","","","","","1","0","0","0.7602069811","","0.6","0.8","0.4","0.2","","","","","0.7914914872","0.7602069811","0.609207161","0.3979961615","","","","","","","","","","74","J","1","","","195","main_expt",""
"","bandit","275","760684","0.0-237.0-0.0","51661565","wem/bandit_party_2","A1A2X0T1XE8K89","either","1","1","","","","","","","1","0","0","0.7114092524","","0.6","0.8","0.4","0.2","","","","","0.7608346536","0.7114092524","0.6560649547","0.4366641927","","","","","","","","","","74","J","1","","","196","main_expt",""
"","bandit","276","762383","0.0-238.0-0.0","51661565","wem/bandit_party_2","A1A2X0T1XE8K89","either","1","190","","","","","","","1","0","0","0.6917424169","","0.6","0.8","0.4","0.2","","","","","0.7003784325","0.6917424169","0.6656533059","0.560782874","","","","","","","","","","74","J","1","","","197","main_expt",""
"","bandit","277","764039","0.0-239.0-0.0","51661565","wem/bandit_party_2","A1A2X0T1XE8K89","either","1","146","","","","","","","0","1","0","","0.6561069913","0.6","0.8","0.4","0.2","0.6036075577","0.6561069913","0.6841747727","0.5649388288","","","","","","","","","","","","","","74","J","1","","","198","main_expt",""
"","bandit","278","770959","0.0-240.0-0.0","51661565","wem/bandit_party_2","A1A2X0T1XE8K89","either","1","5414","","","","","","","1","0","0","0.6948346643","","0.6","0.8","0.4","0.2","","","","","0.5843314555","0.6948346643","0.7105065455","0.5375892324","","","","","","","","","","74","J","1","","","199","main_expt",""
"","bandit","279","772518","0.0-241.0-0.0","51661565","wem/bandit_party_2","A1A2X0T1XE8K89","either","1","53","","","","","","","0","0","1","0.7369743936","","0.6","0.8","0.4","0.2","","","","","0.539414212","0.7369743936","0.7380433654","0.5625167851","","","","","","","","","","74","J","1","","","200","main_expt",""
"","bandit","280","774742","0.0-242.0-0.0","51661565","wem/bandit_party_2","A1A2X0T1XE8K89","either","1","720","","","","","","","1","0","0","0.6432951689","","0.6","0.8","0.4","0.2","","","","","0.3774065742","0.8347268415","0.6432951689","0.6266810217","","","","","","","","","","75","K","2","","","201","main_expt",""
"","bandit","281","776287","0.0-243.0-0.0","51661565","wem/bandit_party_2","A1A2X0T1XE8K89","either","1","37","","","","","","","0","1","0","","0.4995879772","0.6","0.8","0.4","0.2","0.2824615609","0.7612264534","0.4995879772","0.6661075828","","","","","","","","","","","","","","75","K","2","","","202","main_expt",""
"","bandit","282","777982","0.0-244.0-0.0","51661565","wem/bandit_party_2","A1A2X0T1XE8K89","either","1","190","","","","","","","0","0","1","","0.4767352753","0.6","0.8","0.4","0.2","0.210170224","0.6904596671","0.4767352753","0.7534099026","","","","","","","","","","","","","","75","K","2","","","203","main_expt",""
"","bandit","283","779654","0.0-245.0-0.0","51661565","wem/bandit_party_2","A1A2X0T1XE8K89","either","1","167","","","","","","","0","0","1","","0.3680612217","0.6","0.8","0.4","0.2","0.2708138581","0.6855485072","0.3680612217","0.7033522103","","","","","","","","","","","","","","75","K","2","","","204","main_expt",""
"","bandit","284","781270","0.0-246.0-0.0","51661565","wem/bandit_party_2","A1A2X0T1XE8K89","either","1","110","","","","","","","0","1","0","","0.6105989365","0.6","0.8","0.4","0.2","0.3319820794","0.7006332368","0.3404512965","0.6105989365","","","","","","","","","","","","","","76","L","3","","","205","main_expt",""
"","bandit","285","783615","0.0-247.0-0.0","51661565","wem/bandit_party_2","A1A2X0T1XE8K89","either","1","838","","","","","","","0","0","1","","0.725137222","0.6","0.8","0.4","0.2","0.3517339603","0.7533130943","0.2774568564","0.725137222","","","","","","","","","","","","","","76","L","3","","","206","main_expt",""
"","bandit","286","787569","0.0-248.0-0.0","51661565","wem/bandit_party_2","A1A2X0T1XE8K89","either","1","2445","","","","","","","0","0","1","0.2228883469","","0.6","0.8","0.4","0.2","","","","","0.2871079035","0.7191760557","0.2228883469","0.5888984072","","","","","","","","","","75","K","2","","","207","main_expt",""
"","bandit","287","789167","0.0-249.0-0.0","51661565","wem/bandit_party_2","A1A2X0T1XE8K89","either","1","93","","","","","","","0","0","1","0.2642306377","","0.6","0.8","0.4","0.2","","","","","0.2642306377","0.6264293856","0.2829247412","0.4650323514","","","","","","","","","","72","H","0","img/none_selected.jpg","","208","main_expt",""
"","bandit","288","790856","0.0-250.0-0.0","51661565","wem/bandit_party_2","A1A2X0T1XE8K89","either","1","182","","","","","","","0","0","1","0.3587725811","","0.6","0.8","0.4","0.2","","","","","0.3587725811","0.6500478562","0.3169104167","0.4100719568","","","","","","","","","","72","H","0","img/none_selected.jpg","","209","main_expt",""
"","bandit","289","792384","0.0-251.0-0.0","51661565","wem/bandit_party_2","A1A2X0T1XE8K89","either","1","22","","","","","","","0","0","1","0.3103342645","","0.6","0.8","0.4","0.2","","","","","0.3103342645","0.6498865343","0.2090062306","0.5177296744","","","","","","","","","","72","H","0","img/none_selected.jpg","","210","main_expt",""
"","bandit","290","793992","0.0-252.0-0.0","51661565","wem/bandit_party_2","A1A2X0T1XE8K89","either","1","101","","","","","","","0","1","0","","0.5950812693","0.6","0.8","0.4","0.2","0.3760595068","0.6056301442","0.1481662818","0.5950812693","","","","","","","","","","","","","","76","L","3","","","211","main_expt",""
"","bandit","291","795503","0.0-253.0-0.0","51661565","wem/bandit_party_2","A1A2X0T1XE8K89","either","1","6","","","","","","","0","0","1","","0.7169745983","0.6","0.8","0.4","0.2","0.447023013","0.5524844402","0.2114888193","0.7169745983","","","","","","","","","","","","","","76","L","3","","","212","main_expt",""
"","bandit","292","797118","0.0-254.0-0.0","51661565","wem/bandit_party_2","A1A2X0T1XE8K89","either","1","111","","","","","","","0","1","0","","0.6766124197","0.6","0.8","0.4","0.2","0.4529182837","0.6984249358","0.2234642754","0.6766124197","","","","","","","","","","","","","","76","L","3","","","213","main_expt",""
"","bandit","293","798727","0.0-255.0-0.0","51661565","wem/bandit_party_2","A1A2X0T1XE8K89","either","1","103","","","","","","","0","0","1","","0.8005648136","0.6","0.8","0.4","0.2","0.4306534983","0.5996975418","0.2315139555","0.8005648136","","","","","","","","","","","","","","76","L","3","","","214","main_expt",""
"","bandit","294","800279","0.0-256.0-0.0","51661565","wem/bandit_party_2","A1A2X0T1XE8K89","either","1","46","","","","","","","0","1","0","","0.8487964291","0.6","0.8","0.4","0.2","0.4314469479","0.6067129047","0.1949488974","0.8487964291","","","","","","","","","","","","","","76","L","3","","","215","main_expt",""
"","bandit","295","801952","0.0-257.0-0.0","51661565","wem/bandit_party_2","A1A2X0T1XE8K89","either","1","165","","","","","","","0","1","0","","0.8674123454","0.6","0.8","0.4","0.2","0.45439575","0.6297976658","0.2333303883","0.8674123454","","","","","","","","","","","","","","76","L","3","","","216","main_expt",""
"","bandit","296","803608","0.0-258.0-0.0","51661565","wem/bandit_party_2","A1A2X0T1XE8K89","either","1","149","","","","","","","0","1","0","","0.8774404243","0.6","0.8","0.4","0.2","0.5228861726","0.6095272491","0.2027763819","0.8774404243","","","","","","","","","","","","","","76","L","3","","","217","main_expt",""
"","bandit","297","805128","0.0-259.0-0.0","51661565","wem/bandit_party_2","A1A2X0T1XE8K89","either","1","13","","","","","","","0","1","0","","0.8836448068","0.6","0.8","0.4","0.2","0.463703458","0.7058099393","0.1895874514","0.8836448068","","","","","","","","","","","","","","76","L","3","","","218","main_expt",""
"","bandit","298","806727","0.0-260.0-0.0","51661565","wem/bandit_party_2","A1A2X0T1XE8K89","either","1","94","","","","","","","0","1","0","","0.880498508","0.6","0.8","0.4","0.2","0.4522864467","0.7396246451","0.1537120117","0.880498508","","","","","","","","","","","","","","76","L","3","","","219","main_expt",""
"","bandit","299","808296","0.0-261.0-0.0","51661565","wem/bandit_party_2","A1A2X0T1XE8K89","either","1","61","","","","","","","0","1","0","","0.8740874997","0.6","0.8","0.4","0.2","0.4561576612","0.7091968036","0.2022747423","0.8740874997","","","","","","","","","","","","","","76","L","3","","","220","main_expt",""
"","bandit","300","810616","0.0-262.0-0.0","51661565","wem/bandit_party_2","A1A2X0T1XE8K89","either","1","812","","","","","","","0","1","0","","0.8527830905","0.6","0.8","0.4","0.2","0.4264657168","0.7116308873","0.3174413427","0.8527830905","","","","","","","","","","","","","","76","L","3","","","221","main_expt",""
"","bandit","301","812904","0.0-263.0-0.0","51661565","wem/bandit_party_2","A1A2X0T1XE8K89","either","1","781","","","","","","","0","1","0","","0.7717907476","0.6","0.8","0.4","0.2","0.3055141729","0.769465391","0.2315667073","0.7717907476","","","","","","","","","","","","","","76","L","3","","","222","main_expt",""
"","bandit","302","814583","0.0-264.0-0.0","51661565","wem/bandit_party_2","A1A2X0T1XE8K89","either","1","173","","","","","","","0","1","0","","0.8359700354","0.6","0.8","0.4","0.2","0.2868954791","0.7509006974","0.2261006122","0.8359700354","","","","","","","","","","","","","","76","L","3","","","223","main_expt",""
"","bandit","303","816232","0.0-265.0-0.0","51661565","wem/bandit_party_2","A1A2X0T1XE8K89","either","1","144","","","","","","","0","1","0","","0.819670806","0.6","0.8","0.4","0.2","0.2698185242","0.7007688409","0.2662378096","0.819670806","","","","","","","","","","","","","","76","L","3","","","224","main_expt",""
"","bandit","304","817847","0.0-266.0-0.0","51661565","wem/bandit_party_2","A1A2X0T1XE8K89","either","1","108","","","","","","","0","1","0","","0.8512382749","0.6","0.8","0.4","0.2","0.213842325","0.7409020096","0.2163280173","0.8512382749","","","","","","","","","","","","","","76","L","3","","","225","main_expt",""
"","bandit","305","819551","0.0-267.0-0.0","51661565","wem/bandit_party_2","A1A2X0T1XE8K89","either","1","197","","","","","","","0","1","0","","0.8342861847","0.6","0.8","0.4","0.2","0.1616408491","0.7052945704","0.2809353625","0.8342861847","","","","","","","","","","","","","","76","L","3","","","226","main_expt",""
"","bandit","306","821216","0.0-268.0-0.0","51661565","wem/bandit_party_2","A1A2X0T1XE8K89","either","1","159","","","","","","","0","1","0","","0.7736041865","0.6","0.8","0.4","0.2","0.1777599287","0.606091252","0.2396571279","0.7736041865","","","","","","","","","","","","","","76","L","3","","","227","main_expt",""
"","bandit","307","822752","0.0-269.0-0.0","51661565","wem/bandit_party_2","A1A2X0T1XE8K89","either","1","25","","","","","","","0","0","1","","0.8094350608","0.6","0.8","0.4","0.2","0.2866543064","0.5834203199","0.3430446928","0.8094350608","","","","","","","","","","","","","","76","L","3","","","228","main_expt",""
"","bandit","308","824336","0.0-270.0-0.0","51661565","wem/bandit_party_2","A1A2X0T1XE8K89","either","1","77","","","","","","","0","1","0","","0.8078722129","0.6","0.8","0.4","0.2","0.3948293382","0.5466214007","0.2886233194","0.8078722129","","","","","","","","","","","","","","76","L","3","","","229","main_expt",""
"","bandit","309","826063","0.0-271.0-0.0","51661565","wem/bandit_party_2","A1A2X0T1XE8K89","either","1","221","","","","","","","0","1","0","","0.7719043616","0.6","0.8","0.4","0.2","0.3291786684","0.5519014059","0.3213731463","0.7719043616","","","","","","","","","","","","","","76","L","3","","","230","main_expt",""
"","bandit","310","827591","0.0-272.0-0.0","51661565","wem/bandit_party_2","A1A2X0T1XE8K89","either","1","19","","","","","","","0","1","0","","0.8049264475","0.6","0.8","0.4","0.2","0.2378236032","0.4527164215","0.2771614906","0.8049264475","","","","","","","","","","","","","","76","L","3","","","231","main_expt",""
"","bandit","311","829240","0.0-273.0-0.0","51661565","wem/bandit_party_2","A1A2X0T1XE8K89","either","1","142","","","","","","","1","0","0","0.8850589997","","0.6","0.8","0.4","0.2","","","","","0.246393804","0.5135082398","0.2249105956","0.8850589997","","","","","","","","","","76","L","3","","","232","main_expt",""
"","bandit","312","830768","0.0-274.0-0.0","51661565","wem/bandit_party_2","A1A2X0T1XE8K89","either","1","21","","","","","","","0","1","0","","0.9183615156","0.6","0.8","0.4","0.2","0.2141634692","0.5502454751","0.2447973041","0.9183615156","","","","","","","","","","","","","","76","L","3","","","233","main_expt",""
"","bandit","313","832287","0.0-275.0-0.0","51661565","wem/bandit_party_2","A1A2X0T1XE8K89","either","1","12","","","","","","","0","1","0","","0.9639410842","0.6","0.8","0.4","0.2","0.2876436191","0.3783923662","0.24601643","0.9639410842","","","","","","","","","","","","","","76","L","3","","","234","main_expt",""
"","bandit","314","833968","0.0-276.0-0.0","51661565","wem/bandit_party_2","A1A2X0T1XE8K89","either","1","174","","","","","","","0","1","0","","0.9697187448","0.6","0.8","0.4","0.2","0.2769077257","0.2814299379","0.1629844561","0.9697187448","","","","","","","","","","","","","","76","L","3","","","235","main_expt",""
"","bandit","315","835591","0.0-277.0-0.0","51661565","wem/bandit_party_2","A1A2X0T1XE8K89","either","1","116","","","","","","","0","1","0","","0.9571573523","0.6","0.8","0.4","0.2","0.136865198","0.3106100538","0.1929455839","0.9571573523","","","","","","","","","","","","","","76","L","3","","","236","main_expt",""
"","bandit","316","837098","0.0-278.0-0.0","51661565","wem/bandit_party_2","A1A2X0T1XE8K89","either","1","0","","","","","","","1","0","0","0.9170696074","","0.6","0.8","0.4","0.2","","","","","0.1123790732","0.3152445528","0.1497712966","0.9170696074","","","","","","","","","","76","L","3","","","237","main_expt",""
"","bandit","317","838705","0.0-279.0-0.0","51661565","wem/bandit_party_2","A1A2X0T1XE8K89","either","1","98","","","","","","","1","0","0","0.9207491077","","0.6","0.8","0.4","0.2","","","","","0.09027024906","0.2637175197","0.1526491196","0.9207491077","","","","","","","","","","76","L","3","","","238","main_expt",""
"","bandit","318","840375","0.0-280.0-0.0","51661565","wem/bandit_party_2","A1A2X0T1XE8K89","either","1","164","","","","","","","0","1","0","","0.9211301165","0.6","0.8","0.4","0.2","0.08323179304","0.1889878372","0.1745924244","0.9211301165","","","","","","","","","","","","","","76","L","3","","","239","main_expt",""
