"consent","trial_type","trial_index","time_elapsed","internal_node_id","subjID","study","MID","cond","drift","rt","responses","button_pressed","key_press","like","value","connected","gems","bombs","no_reward","GemPrChosen","BombPrChosen","GainOverPainPr_0","GainOverPainPr_1","GainOverPainPr_2","GainOverPainPr_3","LosePr_0","LosePr_1","LosePr_2","LosePr_3","WinPr_0","WinPr_1","WinPr_2","WinPr_3","Q0","Q1","Q2","gender","age","ethnicity","label","expt_phase","target","respCharCode","respKey","respChoiceNum","respChoice","practice","trial_counter","trial_label","Q0_index","view_history"
"GDM/GDM_behavioral_consent_30min_online.html","consent","0","14454","0.0-0.0","52250379","wem/bandit_party_2","A3Q4T34SDWIHU9","either","8","","","","","","","","","","","","","","","","","","","","","","","","","","","","","","","","","","","","","","","","","",""
"","survey-text","1","23420","0.0-1.0","52250379","wem/bandit_party_2","A3Q4T34SDWIHU9","either","8","7937","{""Q0"":""A3Q4T34SDWIHU9""}","","","","","","","","","","","","","","","","","","","","","","","","","","","","","","","","","","","","","","","",""
"","button-response","2","26610","0.0-2.0","52250379","wem/bandit_party_2","A3Q4T34SDWIHU9","either","8","2172","","1","","","","","","","","","","","","","","","","","","","","","","","","","","","","","","","","","","","","","","",""
"","text-replacement","3","34949","0.0-3.0","52250379","wem/bandit_party_2","A3Q4T34SDWIHU9","either","8","7326","","","32","","","","","","","","","","","","","","","","","","","","","","","","","","","","","","","","","","","","","",""
"","text-replacement","4","59907","0.0-4.0","52250379","wem/bandit_party_2","A3Q4T34SDWIHU9","either","8","24953","","","32","","","","","","","","","","","","","","","","","","","","","","","","","","","","","","","","","","","","","",""
"","identification","5","69560","0.0-6.0-0.0","52250379","wem/bandit_party_2","A3Q4T34SDWIHU9","either","8","9614","","","","1","1","1","","","","","","","","","","","","","","","","","","","","","","","","pre","identification_pre","the Republican Party","","","","","","","","",""
"","identification","6","77813","0.0-6.0-1.0","52250379","wem/bandit_party_2","A3Q4T34SDWIHU9","either","8","7198","","","","5","5","5","","","","","","","","","","","","","","","","","","","","","","","","pre","identification_pre","the Democratic Party","","","","","","","","",""
"","text-replacement","7","86986","0.0-7.0","52250379","wem/bandit_party_2","A3Q4T34SDWIHU9","either","8","8155","","","32","","","","","","","","","","","","","","","","","","","","","","","","","","","","","","","","","","","","","",""
"","text-replacement","8","93122","0.0-8.0","52250379","wem/bandit_party_2","A3Q4T34SDWIHU9","either","8","6122","","","32","","","","","","","","","","","","","","","","","","","","","","","","","","","","","","","","","","","","","",""
"","text-replacement","9","110746","0.0-9.0","52250379","wem/bandit_party_2","A3Q4T34SDWIHU9","either","8","17603","","","32","","","","","","","","","","","","","","","","","","","","","","","","","","","","","","","","","","","","","",""
"","text-replacement","10","118818","0.0-10.0","52250379","wem/bandit_party_2","A3Q4T34SDWIHU9","either","8","8058","","","32","","","","","","","","","","","","","","","","","","","","","","","","","","","","","","","","","","","","","",""
"","text-replacement","11","124225","0.0-11.0","52250379","wem/bandit_party_2","A3Q4T34SDWIHU9","either","8","5401","","","32","","","","","","","","","","","","","","","","","","","","","","","","","","","","","","","","","","","","","",""
"","bandit","12","129734","0.0-12.0-0.0","52250379","wem/bandit_party_2","A3Q4T34SDWIHU9","either","8","3961","","","","","","","0","0","1","0","0","","","","","0","","","","0","","","","","","","","","","","","","74","J","0","img/none_selected_demo.jpg","true","0","","",""
"","bandit","13","133652","0.0-13.0-0.0","52250379","wem/bandit_party_2","A3Q4T34SDWIHU9","either","8","2384","","","","","","","0","0","1","0","0","","","","","0","","","","0","","","","","","","","","","","","","75","K","0","img/none_selected_demo.jpg","true","0","","",""
"","text-replacement","14","140009","0.0-14.0","52250379","wem/bandit_party_2","A3Q4T34SDWIHU9","either","8","6351","","","32","","","","","","","","","","","","","","","","","","","","","","","","","","","","","","","","","","","","","",""
"","text-replacement","15","148874","0.0-15.0","52250379","wem/bandit_party_2","A3Q4T34SDWIHU9","either","8","8858","","","32","","","","","","","","","","","","","","","","","","","","","","","","","","","","","","","","","","","","","",""
"","text-replacement","16","154465","0.0-16.0","52250379","wem/bandit_party_2","A3Q4T34SDWIHU9","either","8","5584","","","32","","","","","","","","","","","","","","","","","","","","","","","","","","","","","","","","","","","","","",""
"","text-replacement","17","161329","0.0-17.0","52250379","wem/bandit_party_2","A3Q4T34SDWIHU9","either","8","6858","","","32","","","","","","","","","","","","","","","","","","","","","","","","","","","","","","","","","","","","","",""
"","bandit","18","164984","0.0-18.0-0.0","52250379","wem/bandit_party_2","A3Q4T34SDWIHU9","either","8","2108","","","","","","","0","0","1","","0.2","0.5","0.5","","","0.8","0.2","","","","","","","","","","","","","","","","75","K","1","","true","0","80_20_practice","",""
"","bandit","19","167465","0.0-18.0-1.0","52250379","wem/bandit_party_2","A3Q4T34SDWIHU9","either","8","942","","","","","","","0","0","1","0.2","","0.5","0.5","","","","","","","0.8","0.2","","","","","","","","","","","","75","K","1","","true","0","80_20_practice","",""
"","bandit","20","170733","0.0-18.0-2.0","52250379","wem/bandit_party_2","A3Q4T34SDWIHU9","either","8","1725","","","","","","","0","0","1","0.8","","0.5","0.5","","","","","","","0.8","0.2","","","","","","","","","","","","74","J","0","img/none_selected_demo.jpg","true","0","80_20_practice","",""
"","bandit","21","173358","0.0-18.0-3.0","52250379","wem/bandit_party_2","A3Q4T34SDWIHU9","either","8","1099","","","","","","","1","0","0","0.8","","0.5","0.5","","","","","","","0.8","0.2","","","","","","","","","","","","74","J","0","img/none_selected_demo.jpg","true","0","80_20_practice","",""
"","bandit","22","175526","0.0-18.0-4.0","52250379","wem/bandit_party_2","A3Q4T34SDWIHU9","either","8","639","","","","","","","0","0","1","0.8","","0.5","0.5","","","","","","","0.8","0.2","","","","","","","","","","","","74","J","0","img/none_selected_demo.jpg","true","0","80_20_practice","",""
"","bandit","23","177225","0.0-18.0-5.0","52250379","wem/bandit_party_2","A3Q4T34SDWIHU9","either","8","160","","","","","","","0","1","0","","0.8","0.5","0.5","","","0.8","0.2","","","","","","","","","","","","","","","","74","J","0","img/none_selected_demo.jpg","true","0","80_20_practice","",""
"","bandit","24","179337","0.0-18.0-6.0","52250379","wem/bandit_party_2","A3Q4T34SDWIHU9","either","8","574","","","","","","","1","0","0","0.8","","0.5","0.5","","","","","","","0.8","0.2","","","","","","","","","","","","74","J","0","img/none_selected_demo.jpg","true","0","80_20_practice","",""
"","bandit","25","181652","0.0-18.0-7.0","52250379","wem/bandit_party_2","A3Q4T34SDWIHU9","either","8","782","","","","","","","0","0","1","","0.8","0.5","0.5","","","0.8","0.2","","","","","","","","","","","","","","","","74","J","0","img/none_selected_demo.jpg","true","0","80_20_practice","",""
"","bandit","26","183907","0.0-18.0-8.0","52250379","wem/bandit_party_2","A3Q4T34SDWIHU9","either","8","695","","","","","","","1","0","0","0.8","","0.5","0.5","","","","","","","0.8","0.2","","","","","","","","","","","","74","J","0","img/none_selected_demo.jpg","true","0","80_20_practice","",""
"","bandit","27","186168","0.0-18.0-9.0","52250379","wem/bandit_party_2","A3Q4T34SDWIHU9","either","8","734","","","","","","","0","0","1","0.8","","0.5","0.5","","","","","","","0.8","0.2","","","","","","","","","","","","74","J","0","img/none_selected_demo.jpg","true","0","80_20_practice","",""
"","bandit","28","188964","0.0-18.0-10.0","52250379","wem/bandit_party_2","A3Q4T34SDWIHU9","either","8","1269","","","","","","","0","0","1","0.2","","0.5","0.5","","","","","","","0.8","0.2","","","","","","","","","","","","75","K","1","","true","0","80_20_practice","",""
"","bandit","29","190955","0.0-18.0-11.0","52250379","wem/bandit_party_2","A3Q4T34SDWIHU9","either","8","467","","","","","","","0","1","0","","0.2","0.5","0.5","","","0.8","0.2","","","","","","","","","","","","","","","","75","K","1","","true","0","80_20_practice","",""
"","bandit","30","192571","0.0-18.0-12.0","52250379","wem/bandit_party_2","A3Q4T34SDWIHU9","either","8","84","","","","","","","0","0","1","","0.2","0.5","0.5","","","0.8","0.2","","","","","","","","","","","","","","","","75","K","1","","true","0","80_20_practice","",""
"","bandit","31","195516","0.0-18.0-13.0","52250379","wem/bandit_party_2","A3Q4T34SDWIHU9","either","8","1419","","","","","","","0","0","1","0.2","","0.5","0.5","","","","","","","0.8","0.2","","","","","","","","","","","","75","K","1","","true","0","80_20_practice","",""
"","bandit","32","197597","0.0-18.0-14.0","52250379","wem/bandit_party_2","A3Q4T34SDWIHU9","either","8","538","","","","","","","0","0","1","0.2","","0.5","0.5","","","","","","","0.8","0.2","","","","","","","","","","","","75","K","1","","true","0","80_20_practice","",""
"","bandit","33","199604","0.0-18.0-15.0","52250379","wem/bandit_party_2","A3Q4T34SDWIHU9","either","8","482","","","","","","","0","0","1","","0.2","0.5","0.5","","","0.8","0.2","","","","","","","","","","","","","","","","75","K","1","","true","0","80_20_practice","",""
"","bandit","34","201820","0.0-18.0-16.0","52250379","wem/bandit_party_2","A3Q4T34SDWIHU9","either","8","674","","","","","","","0","0","1","0.2","","0.5","0.5","","","","","","","0.8","0.2","","","","","","","","","","","","75","K","1","","true","0","80_20_practice","",""
"","bandit","35","207068","0.0-18.0-17.0","52250379","wem/bandit_party_2","A3Q4T34SDWIHU9","either","8","3715","","","","","","","0","0","1","0.2","","0.5","0.5","","","","","","","0.8","0.2","","","","","","","","","","","","75","K","1","","true","0","80_20_practice","",""
"","bandit","36","211232","0.0-18.0-18.0","52250379","wem/bandit_party_2","A3Q4T34SDWIHU9","either","8","2628","","","","","","","1","0","0","0.8","","0.5","0.5","","","","","","","0.8","0.2","","","","","","","","","","","","74","J","0","img/none_selected_demo.jpg","true","0","80_20_practice","",""
"","bandit","37","213422","0.0-18.0-19.0","52250379","wem/bandit_party_2","A3Q4T34SDWIHU9","either","8","655","","","","","","","1","0","0","0.8","","0.5","0.5","","","","","","","0.8","0.2","","","","","","","","","","","","74","J","0","img/none_selected_demo.jpg","true","0","80_20_practice","",""
"","text-replacement","38","217929","0.0-19.0","52250379","wem/bandit_party_2","A3Q4T34SDWIHU9","either","8","4502","","","32","","","","","","","","","","","","","","","","","","","","","","","","","","","","","","","","","","","","","",""
"","bandit","39","221546","0.0-20.0-0.0","52250379","wem/bandit_party_2","A3Q4T34SDWIHU9","either","8","2086","","","","","","","1","0","0","1","0","","","","","0","1","","","1","0","","","","","","","","","","","","74","J","0","img/none_selected_demo.jpg","true","0","","",""
"","text-replacement","40","226481","0.0-21.0","52250379","wem/bandit_party_2","A3Q4T34SDWIHU9","either","8","4929","","","74","","","","","","","","","","","","","","","","","","","","","","","","","","","","","","","","","","","","","",""
"","text-replacement","41","234105","0.0-22.0","52250379","wem/bandit_party_2","A3Q4T34SDWIHU9","either","8","7617","","","32","","","","","","","","","","","","","","","","","","","","","","","","","","","","","","","","","","","","","",""
"","text-replacement","42","237465","0.0-23.0","52250379","wem/bandit_party_2","A3Q4T34SDWIHU9","either","8","3353","","","32","","","","","","","","","","","","","","","","","","","","","","","","","","","","","","","","","","","","","",""
"","text-replacement","43","241441","0.0-24.0","52250379","wem/bandit_party_2","A3Q4T34SDWIHU9","either","8","3969","","","32","","","","","","","","","","","","","","","","","","","","","","","","","","","","","","","","","","","","","",""
"","text-replacement","44","253146","0.0-25.0","52250379","wem/bandit_party_2","A3Q4T34SDWIHU9","either","8","11698","","","32","","","","","","","","","","","","","","","","","","","","","","","","","","","","","","","","","","","","","",""
"","text-replacement","45","256800","0.0-26.0","52250379","wem/bandit_party_2","A3Q4T34SDWIHU9","either","8","3648","","","32","","","","","","","","","","","","","","","","","","","","","","","","","","","","","","","","","","","","","",""
"","text-replacement","46","260225","0.0-27.0","52250379","wem/bandit_party_2","A3Q4T34SDWIHU9","either","8","3418","","","32","","","","","","","","","","","","","","","","","","","","","","","","","","","","","","","","","","","","","",""
"","text-replacement","47","263184","0.0-28.0","52250379","wem/bandit_party_2","A3Q4T34SDWIHU9","either","8","2953","","","32","","","","","","","","","","","","","","","","","","","","","","","","","","","","","","","","","","","","","",""
"","text-replacement","48","267057","0.0-29.0","52250379","wem/bandit_party_2","A3Q4T34SDWIHU9","either","8","3866","","","32","","","","","","","","","","","","","","","","","","","","","","","","","","","","","","","","","","","","","",""
"","text-replacement","49","268912","0.0-30.0","52250379","wem/bandit_party_2","A3Q4T34SDWIHU9","either","8","1850","","","32","","","","","","","","","","","","","","","","","","","","","","","","","","","","","","","","","","","","","",""
"","text-replacement","50","277761","0.0-31.0","52250379","wem/bandit_party_2","A3Q4T34SDWIHU9","either","8","8842","","","32","","","","","","","","","","","","","","","","","","","","","","","","","","","","","","","","","","","","","",""
"","bandit","51","281453","0.0-32.0-0.0","52250379","wem/bandit_party_2","A3Q4T34SDWIHU9","either","8","2150","","","","","","","0","0","1","","0.8","0.5","0.5","0.5","0.5","0.8","0.2","0.6","0.2","","","","","","","","","","","","","","72","H","0","img/none_selected.jpg","true","0","full_practice","",""
"","bandit","52","283541","0.0-32.0-1.0","52250379","wem/bandit_party_2","A3Q4T34SDWIHU9","either","8","545","","","","","","","1","0","0","0.8","","0.5","0.5","0.5","0.5","","","","","0.8","0.2","0.6","0.2","","","","","","","","","","72","H","0","img/none_selected.jpg","true","0","full_practice","",""
"","bandit","53","285635","0.0-32.0-2.0","52250379","wem/bandit_party_2","A3Q4T34SDWIHU9","either","8","569","","","","","","","1","0","0","0.8","","0.5","0.5","0.5","0.5","","","","","0.8","0.2","0.6","0.2","","","","","","","","","","72","H","0","img/none_selected.jpg","true","0","full_practice","",""
"","bandit","54","287660","0.0-32.0-3.0","52250379","wem/bandit_party_2","A3Q4T34SDWIHU9","either","8","491","","","","","","","0","1","0","","0.8","0.5","0.5","0.5","0.5","0.8","0.2","0.6","0.2","","","","","","","","","","","","","","72","H","0","img/none_selected.jpg","true","0","full_practice","",""
"","bandit","55","289939","0.0-32.0-4.0","52250379","wem/bandit_party_2","A3Q4T34SDWIHU9","either","8","738","","","","","","","0","1","0","","0.8","0.5","0.5","0.5","0.5","0.8","0.2","0.6","0.2","","","","","","","","","","","","","","72","H","0","img/none_selected.jpg","true","0","full_practice","",""
"","bandit","56","292779","0.0-32.0-5.0","52250379","wem/bandit_party_2","A3Q4T34SDWIHU9","either","8","1284","","","","","","","0","0","1","0.2","","0.5","0.5","0.5","0.5","","","","","0.8","0.2","0.6","0.2","","","","","","","","","","74","J","1","","true","0","full_practice","",""
"","bandit","57","294632","0.0-32.0-6.0","52250379","wem/bandit_party_2","A3Q4T34SDWIHU9","either","8","315","","","","","","","0","0","1","","0.2","0.5","0.5","0.5","0.5","0.8","0.2","0.6","0.2","","","","","","","","","","","","","","74","J","1","","true","0","full_practice","",""
"","bandit","58","296465","0.0-32.0-7.0","52250379","wem/bandit_party_2","A3Q4T34SDWIHU9","either","8","283","","","","","","","0","1","0","","0.2","0.5","0.5","0.5","0.5","0.8","0.2","0.6","0.2","","","","","","","","","","","","","","74","J","1","","true","0","full_practice","",""
"","bandit","59","299572","0.0-32.0-8.0","52250379","wem/bandit_party_2","A3Q4T34SDWIHU9","either","8","1580","","","","","","","0","0","1","0.2","","0.5","0.5","0.5","0.5","","","","","0.8","0.2","0.6","0.2","","","","","","","","","","74","J","1","","true","0","full_practice","",""
"","bandit","60","302603","0.0-32.0-9.0","52250379","wem/bandit_party_2","A3Q4T34SDWIHU9","either","8","1490","","","","","","","0","0","1","","0.2","0.5","0.5","0.5","0.5","0.8","0.2","0.6","0.2","","","","","","","","","","","","","","74","J","1","","true","0","full_practice","",""
"","bandit","61","305163","0.0-32.0-10.0","52250379","wem/bandit_party_2","A3Q4T34SDWIHU9","either","8","1029","","","","","","","0","1","0","","0.6","0.5","0.5","0.5","0.5","0.8","0.2","0.6","0.2","","","","","","","","","","","","","","75","K","2","","true","0","full_practice","",""
"","bandit","62","307169","0.0-32.0-11.0","52250379","wem/bandit_party_2","A3Q4T34SDWIHU9","either","8","462","","","","","","","0","1","0","","0.6","0.5","0.5","0.5","0.5","0.8","0.2","0.6","0.2","","","","","","","","","","","","","","75","K","2","","true","0","full_practice","",""
"","bandit","63","309319","0.0-32.0-12.0","52250379","wem/bandit_party_2","A3Q4T34SDWIHU9","either","8","613","","","","","","","0","1","0","","0.6","0.5","0.5","0.5","0.5","0.8","0.2","0.6","0.2","","","","","","","","","","","","","","75","K","2","","true","0","full_practice","",""
"","bandit","64","311279","0.0-32.0-13.0","52250379","wem/bandit_party_2","A3Q4T34SDWIHU9","either","8","422","","","","","","","0","1","0","","0.6","0.5","0.5","0.5","0.5","0.8","0.2","0.6","0.2","","","","","","","","","","","","","","75","K","2","","true","0","full_practice","",""
"","bandit","65","313380","0.0-32.0-14.0","52250379","wem/bandit_party_2","A3Q4T34SDWIHU9","either","8","565","","","","","","","0","1","0","","0.6","0.5","0.5","0.5","0.5","0.8","0.2","0.6","0.2","","","","","","","","","","","","","","75","K","2","","true","0","full_practice","",""
"","bandit","66","316201","0.0-32.0-15.0","52250379","wem/bandit_party_2","A3Q4T34SDWIHU9","either","8","1252","","","","","","","0","0","1","","0.2","0.5","0.5","0.5","0.5","0.8","0.2","0.6","0.2","","","","","","","","","","","","","","76","L","3","","true","0","full_practice","",""
"","bandit","67","318308","0.0-32.0-16.0","52250379","wem/bandit_party_2","A3Q4T34SDWIHU9","either","8","572","","","","","","","0","0","1","","0.2","0.5","0.5","0.5","0.5","0.8","0.2","0.6","0.2","","","","","","","","","","","","","","76","L","3","","true","0","full_practice","",""
"","bandit","68","320522","0.0-32.0-17.0","52250379","wem/bandit_party_2","A3Q4T34SDWIHU9","either","8","671","","","","","","","0","0","1","","0.2","0.5","0.5","0.5","0.5","0.8","0.2","0.6","0.2","","","","","","","","","","","","","","76","L","3","","true","0","full_practice","",""
"","bandit","69","322595","0.0-32.0-18.0","52250379","wem/bandit_party_2","A3Q4T34SDWIHU9","either","8","529","","","","","","","0","0","1","","0.2","0.5","0.5","0.5","0.5","0.8","0.2","0.6","0.2","","","","","","","","","","","","","","76","L","3","","true","0","full_practice","",""
"","bandit","70","324573","0.0-32.0-19.0","52250379","wem/bandit_party_2","A3Q4T34SDWIHU9","either","8","426","","","","","","","0","0","1","0.2","","0.5","0.5","0.5","0.5","","","","","0.8","0.2","0.6","0.2","","","","","","","","","","76","L","3","","true","0","full_practice","",""
"","text","71","329264","0.0-33.0","52250379","wem/bandit_party_2","A3Q4T34SDWIHU9","either","8","4676","","","32","","","","","","","","","","","","","","","","","","","","","","","","","","","","","","","","","","","","","",""
"","text-replacement","72","342120","0.0-34.0","52250379","wem/bandit_party_2","A3Q4T34SDWIHU9","either","8","11847","","","32","","","","","","","","","","","","","","","","","","","","","","","","","","","","","","","","","","","","","",""
"","text-replacement","73","349833","0.0-35.0","52250379","wem/bandit_party_2","A3Q4T34SDWIHU9","either","8","7703","","","32","","","","","","","","","","","","","","","","","","","","","","","","","","","","","","","","","","","","","",""
"","text-replacement","74","354184","0.0-36.0","52250379","wem/bandit_party_2","A3Q4T34SDWIHU9","either","8","4341","","","32","","","","","","","","","","","","","","","","","","","","","","","","","","","","","","","","","","","","","",""
"","text-replacement","75","358976","0.0-37.0","52250379","wem/bandit_party_2","A3Q4T34SDWIHU9","either","8","4783","","","32","","","","","","","","","","","","","","","","","","","","","","","","","","","","","","","","","","","","","",""
"","text-replacement","76","363736","0.0-38.0","52250379","wem/bandit_party_2","A3Q4T34SDWIHU9","either","8","4751","","","32","","","","","","","","","","","","","","","","","","","","","","","","","","","","","","","","","","","","","",""
"","survey-multi-choice-replacement","77","378684","0.0-39.0-0.0","52250379","wem/bandit_party_2","A3Q4T34SDWIHU9","either","8","14923","","","","","","","","","","","","","","","","","","","","","","","","Equal amounts of money will be added to the pool for <span style='color:blue;'>DEMOCRATS</span> and subtracted from the pool for <span style='color:red;'>REPUBLICANS</span>","","","","","","","attn_check","","","","","","","","","2",""
"","instructions","78","384000","0.0-39.0-1.0-0.0","52250379","wem/bandit_party_2","A3Q4T34SDWIHU9","either","8","4304","","","","","","","","","","","","","","","","","","","","","","","","","","","","","","","","","","","","","","","","","[{""page_index"":0,""viewing_time"":4304}]"
"","survey-multi-choice-replacement","79","388099","0.0-39.1-0.1","52250379","wem/bandit_party_2","A3Q4T34SDWIHU9","either","8","3070","","","","","","","","","","","","","","","","","","","","","","","","Money will be added to the pool for <span style='color:blue;'>DEMOCRATS</span>","","","","","","","attn_check","","","","","","","","","0",""
"","survey-multi-choice-replacement","80","392922","0.0-40.0-0.0","52250379","wem/bandit_party_2","A3Q4T34SDWIHU9","either","8","3808","","","","","","","","","","","","","","","","","","","","","","","","Money will be subtracted from the pool for <span style='color:red;'>REPUBLICANS</span>","","","","","","","attn_check","","","","","","","","","1",""
"","instructions","81","395264","0.0-40.0-1.0-0.0","52250379","wem/bandit_party_2","A3Q4T34SDWIHU9","either","8","1331","","","","","","","","","","","","","","","","","","","","","","","","","","","","","","","","","","","","","","","","","[{""page_index"":0,""viewing_time"":1331}]"
"","survey-multi-choice-replacement","82","400771","0.0-40.1-0.1","52250379","wem/bandit_party_2","A3Q4T34SDWIHU9","either","8","4494","","","","","","","","","","","","","","","","","","","","","","","","Equal amounts of money will be added to the pool for <span style='color:blue;'>DEMOCRATS</span> and subtracted from the pool for <span style='color:red;'>REPUBLICANS</span>","","","","","","","attn_check","","","","","","","","","2",""
"","survey-multi-choice-replacement","83","405379","0.0-41.0-0.0","52250379","wem/bandit_party_2","A3Q4T34SDWIHU9","either","8","3581","","","","","","","","","","","","","","","","","","","","","","","","No money will be added to either pool","","","","","","","attn_check","","","","","","","","","3",""
"","bandit","84","411759","0.0-42.0-0.0","52250379","wem/bandit_party_2","A3Q4T34SDWIHU9","either","8","3820","","","","","","","0","0","1","","0.3040937467","0.4","0.8","0.6","0.2","0.4468950172","0.2428949588","0.3040937467","0.6337563202","","","","","","","","","","","","","","75","K","2","","","1","main_expt","",""
"","bandit","85","413963","0.0-43.0-0.0","52250379","wem/bandit_party_2","A3Q4T34SDWIHU9","either","8","676","","","","","","","1","0","0","0.2687625136","","0.4","0.8","0.6","0.2","","","","","0.3846124694","0.248961424","0.2687625136","0.7380673114","","","","","","","","","","75","K","2","","","2","main_expt","",""
"","bandit","86","416004","0.0-44.0-0.0","52250379","wem/bandit_party_2","A3Q4T34SDWIHU9","either","8","513","","","","","","","0","0","1","0.3017919557","","0.4","0.8","0.6","0.2","","","","","0.3885967974","0.1878604038","0.3017919557","0.7715549737","","","","","","","","","","75","K","2","","","3","main_expt","",""
"","bandit","87","418094","0.0-45.0-0.0","52250379","wem/bandit_party_2","A3Q4T34SDWIHU9","either","8","552","","","","","","","0","1","0","","0.3388517529","0.4","0.8","0.6","0.2","0.2891644394","0.1194049449","0.3388517529","0.8257013646","","","","","","","","","","","","","","75","K","2","","","4","main_expt","",""
"","bandit","88","420233","0.0-46.0-0.0","52250379","wem/bandit_party_2","A3Q4T34SDWIHU9","either","8","597","","","","","","","0","0","1","","0.389096829","0.4","0.8","0.6","0.2","0.2654579937","0.197046458","0.389096829","0.8617886559","","","","","","","","","","","","","","75","K","2","","","5","main_expt","",""
"","bandit","89","422277","0.0-47.0-0.0","52250379","wem/bandit_party_2","A3Q4T34SDWIHU9","either","8","507","","","","","","","1","0","0","0.4799636182","","0.4","0.8","0.6","0.2","","","","","0.355160999","0.2312720201","0.4799636182","0.8452125903","","","","","","","","","","75","K","2","","","6","main_expt","",""
"","bandit","90","424434","0.0-48.0-0.0","52250379","wem/bandit_party_2","A3Q4T34SDWIHU9","either","8","631","","","","","","","1","0","0","0.5316557606","","0.4","0.8","0.6","0.2","","","","","0.4733904832","0.3255591742","0.5316557606","0.8765288384","","","","","","","","","","75","K","2","","","7","main_expt","",""
"","bandit","91","426640","0.0-49.0-0.0","52250379","wem/bandit_party_2","A3Q4T34SDWIHU9","either","8","665","","","","","","","0","0","1","","0.4935712437","0.4","0.8","0.6","0.2","0.4900136729","0.163151729","0.4935712437","0.8625068071","","","","","","","","","","","","","","75","K","2","","","8","main_expt","",""
"","bandit","92","428727","0.0-50.0-0.0","52250379","wem/bandit_party_2","A3Q4T34SDWIHU9","either","8","555","","","","","","","0","1","0","","0.5400450001","0.4","0.8","0.6","0.2","0.4543552171","0.1671639775","0.5400450001","0.8385781597","","","","","","","","","","","","","","75","K","2","","","9","main_expt","",""
"","bandit","93","430875","0.0-51.0-0.0","52250379","wem/bandit_party_2","A3Q4T34SDWIHU9","either","8","612","","","","","","","0","1","0","","0.6510952772","0.4","0.8","0.6","0.2","0.4523920981","0.1315225434","0.6510952772","0.833356221","","","","","","","","","","","","","","75","K","2","","","10","main_expt","",""
"","bandit","94","433089","0.0-52.0-0.0","52250379","wem/bandit_party_2","A3Q4T34SDWIHU9","either","8","680","","","","","","","1","0","0","0.6117649901","","0.4","0.8","0.6","0.2","","","","","0.4053083118","0.1287002637","0.6117649901","0.9030756702","","","","","","","","","","75","K","2","","","11","main_expt","",""
"","bandit","95","435181","0.0-53.0-0.0","52250379","wem/bandit_party_2","A3Q4T34SDWIHU9","either","8","564","","","","","","","1","0","0","0.6360746298","","0.4","0.8","0.6","0.2","","","","","0.4059907931","0.1026596936","0.6360746298","0.9129290363","","","","","","","","","","75","K","2","","","12","main_expt","",""
"","bandit","96","437393","0.0-54.0-0.0","52250379","wem/bandit_party_2","A3Q4T34SDWIHU9","either","8","670","","","","","","","1","0","0","0.5673960652","","0.4","0.8","0.6","0.2","","","","","0.2934167972","0.1287514256","0.5673960652","0.8638417716","","","","","","","","","","75","K","2","","","13","main_expt","",""
"","bandit","97","439562","0.0-55.0-0.0","52250379","wem/bandit_party_2","A3Q4T34SDWIHU9","either","8","624","","","","","","","0","1","0","","0.6747725803","0.4","0.8","0.6","0.2","0.3260927596","0.1786171179","0.6747725803","0.787806988","","","","","","","","","","","","","","75","K","2","","","14","main_expt","",""
"","bandit","98","441587","0.0-56.0-0.0","52250379","wem/bandit_party_2","A3Q4T34SDWIHU9","either","8","487","","","","","","","0","0","1","0.6277188345","","0.4","0.8","0.6","0.2","","","","","0.3355382734","0.1459410532","0.6277188345","0.7254212376","","","","","","","","","","75","K","2","","","15","main_expt","",""
"","bandit","99","443715","0.0-57.0-0.0","52250379","wem/bandit_party_2","A3Q4T34SDWIHU9","either","8","592","","","","","","","0","0","1","","0.5435568235","0.4","0.8","0.6","0.2","0.3040928121","0.2255600906","0.5435568235","0.7238415528","","","","","","","","","","","","","","75","K","2","","","16","main_expt","",""
"","bandit","100","446994","0.0-58.0-0.0","52250379","wem/bandit_party_2","A3Q4T34SDWIHU9","either","8","1728","","","","","","","0","0","1","0.2730366263","","0.4","0.8","0.6","0.2","","","","","0.2730366263","0.2052013943","0.4180161478","0.7796243455","","","","","","","","","","72","H","0","img/none_selected.jpg","","17","main_expt","",""
"","bandit","101","449200","0.0-59.0-0.0","52250379","wem/bandit_party_2","A3Q4T34SDWIHU9","either","8","676","","","","","","","0","0","1","","0.4105298721","0.4","0.8","0.6","0.2","0.4105298721","0.1780354615","0.4961111773","0.6928902724","","","","","","","","","","","","","","72","H","0","img/none_selected.jpg","","18","main_expt","",""
"","bandit","102","451438","0.0-60.0-0.0","52250379","wem/bandit_party_2","A3Q4T34SDWIHU9","either","8","707","","","","","","","0","1","0","","0.3586923344","0.4","0.8","0.6","0.2","0.3586923344","0.1576496117","0.445530788","0.7658630901","","","","","","","","","","","","","","72","H","0","img/none_selected.jpg","","19","main_expt","",""
"","bandit","103","453529","0.0-61.0-0.0","52250379","wem/bandit_party_2","A3Q4T34SDWIHU9","either","8","549","","","","","","","0","0","1","","0.3220075653","0.4","0.8","0.6","0.2","0.3220075653","0.1618752313","0.3443163705","0.7584200513","","","","","","","","","","","","","","72","H","0","img/none_selected.jpg","","20","main_expt","",""
"","bandit","104","455883","0.0-62.0-0.0","52250379","wem/bandit_party_2","A3Q4T34SDWIHU9","either","8","826","","","","","","","0","0","1","","0.2729660799","0.4","0.8","0.6","0.2","0.2729660799","0.2152187387","0.3012808647","0.7727038765","","","","","","","","","","","","","","72","H","0","img/none_selected.jpg","","21","main_expt","",""
"","bandit","105","458730","0.0-63.0-0.0","52250379","wem/bandit_party_2","A3Q4T34SDWIHU9","either","8","1312","","","","","","","0","0","1","","0.2882062485","0.4","0.8","0.6","0.2","0.2712352107","0.3547982299","0.2882062485","0.8152565923","","","","","","","","","","","","","","75","K","2","","","22","main_expt","",""
"","bandit","106","460875","0.0-64.0-0.0","52250379","wem/bandit_party_2","A3Q4T34SDWIHU9","either","8","600","","","","","","","0","0","1","","0.2113421372","0.4","0.8","0.6","0.2","0.3390855774","0.323805638","0.2113421372","0.7537075358","","","","","","","","","","","","","","75","K","2","","","23","main_expt","",""
"","bandit","107","463041","0.0-65.0-0.0","52250379","wem/bandit_party_2","A3Q4T34SDWIHU9","either","8","623","","","","","","","0","0","1","0.2201805416","","0.4","0.8","0.6","0.2","","","","","0.3483259141","0.3588909826","0.2201805416","0.7108822858","","","","","","","","","","75","K","2","","","24","main_expt","",""
"","bandit","108","466203","0.0-66.0-0.0","52250379","wem/bandit_party_2","A3Q4T34SDWIHU9","either","8","1617","","","","","","","0","1","0","","0.6930515954","0.4","0.8","0.6","0.2","0.3416976173","0.3885553436","0.2580956466","0.6930515954","","","","","","","","","","","","","","76","L","3","","","25","main_expt","",""
"","bandit","109","468229","0.0-67.0-0.0","52250379","wem/bandit_party_2","A3Q4T34SDWIHU9","either","8","480","","","","","","","0","0","1","0.6905393417","","0.4","0.8","0.6","0.2","","","","","0.4243476322","0.4871556374","0.2153432854","0.6905393417","","","","","","","","","","76","L","3","","","26","main_expt","",""
"","bandit","110","470299","0.0-68.0-0.0","52250379","wem/bandit_party_2","A3Q4T34SDWIHU9","either","8","534","","","","","","","0","0","1","","0.7531652131","0.4","0.8","0.6","0.2","0.5257754898","0.4934119911","0.1727955236","0.7531652131","","","","","","","","","","","","","","76","L","3","","","27","main_expt","",""
"","bandit","111","472838","0.0-69.0-0.0","52250379","wem/bandit_party_2","A3Q4T34SDWIHU9","either","8","999","","","","","","","0","1","0","","0.8001777041","0.4","0.8","0.6","0.2","0.5246232361","0.4322092846","0.1894296703","0.8001777041","","","","","","","","","","","","","","76","L","3","","","28","main_expt","",""
"","bandit","112","475184","0.0-70.0-0.0","52250379","wem/bandit_party_2","A3Q4T34SDWIHU9","either","8","813","","","","","","","0","1","0","","0.8118404327","0.4","0.8","0.6","0.2","0.375994784","0.3459113699","0.2128919211","0.8118404327","","","","","","","","","","","","","","76","L","3","","","29","main_expt","",""
"","bandit","113","477460","0.0-71.0-0.0","52250379","wem/bandit_party_2","A3Q4T34SDWIHU9","either","8","739","","","","","","","0","1","0","","0.7839534503","0.4","0.8","0.6","0.2","0.2936890161","0.280789843","0.206056468","0.7839534503","","","","","","","","","","","","","","76","L","3","","","30","main_expt","",""
"","bandit","114","479524","0.0-72.0-0.0","52250379","wem/bandit_party_2","A3Q4T34SDWIHU9","either","8","525","","","","","","","0","1","0","","0.8066372971","0.4","0.8","0.6","0.2","0.2878812258","0.2613810438","0.1725623241","0.8066372971","","","","","","","","","","","","","","76","L","3","","","31","main_expt","",""
"","bandit","115","482054","0.0-73.0-0.0","52250379","wem/bandit_party_2","A3Q4T34SDWIHU9","either","8","989","","","","","","","0","1","0","","0.8049259064","0.4","0.8","0.6","0.2","0.2451492808","0.3821585683","0.1629883914","0.8049259064","","","","","","","","","","","","","","76","L","3","","","32","main_expt","",""
"","bandit","116","484562","0.0-74.0-0.0","52250379","wem/bandit_party_2","A3Q4T34SDWIHU9","either","8","955","","","","","","","0","0","1","","0.7891664673","0.4","0.8","0.6","0.2","0.2802113289","0.2714925976","0.2107911223","0.7891664673","","","","","","","","","","","","","","76","L","3","","","33","main_expt","",""
"","bandit","117","486906","0.0-75.0-0.0","52250379","wem/bandit_party_2","A3Q4T34SDWIHU9","either","8","800","","","","","","","1","0","0","0.7854278051","","0.4","0.8","0.6","0.2","","","","","0.2892342718","0.2755575364","0.1025901997","0.7854278051","","","","","","","","","","76","L","3","","","34","main_expt","",""
"","bandit","118","489435","0.0-76.0-0.0","52250379","wem/bandit_party_2","A3Q4T34SDWIHU9","either","8","992","","","","","","","0","1","0","","0.7260182018","0.4","0.8","0.6","0.2","0.2486893666","0.2697856654","0.1289879153","0.7260182018","","","","","","","","","","","","","","76","L","3","","","35","main_expt","",""
"","bandit","119","491630","0.0-77.0-0.0","52250379","wem/bandit_party_2","A3Q4T34SDWIHU9","either","8","656","","","","","","","0","0","1","0.7910957192","","0.4","0.8","0.6","0.2","","","","","0.3536408983","0.2483646443","0.1645491317","0.7910957192","","","","","","","","","","76","L","3","","","36","main_expt","",""
"","bandit","120","493755","0.0-78.0-0.0","52250379","wem/bandit_party_2","A3Q4T34SDWIHU9","either","8","597","","","","","","","0","0","1","","0.7996551039","0.4","0.8","0.6","0.2","0.2493566902","0.2103950957","0.1698046746","0.7996551039","","","","","","","","","","","","","","76","L","3","","","37","main_expt","",""
"","bandit","121","497157","0.0-79.0-0.0","52250379","wem/bandit_party_2","A3Q4T34SDWIHU9","either","8","1847","","","","","","","1","0","0","0.2128944509","","0.4","0.8","0.6","0.2","","","","","0.2948354516","0.2128944509","0.2281502886","0.6717479894","","","","","","","","","","74","J","1","","","38","main_expt","",""
"","bandit","122","499178","0.0-80.0-0.0","52250379","wem/bandit_party_2","A3Q4T34SDWIHU9","either","8","469","","","","","","","0","0","1","0.2965153327","","0.4","0.8","0.6","0.2","","","","","0.3373274679","0.2965153327","0.1561271762","0.7121128808","","","","","","","","","","74","J","1","","","39","main_expt","",""
"","bandit","123","501147","0.0-81.0-0.0","52250379","wem/bandit_party_2","A3Q4T34SDWIHU9","either","8","432","","","","","","","0","0","1","","0.4447532253","0.4","0.8","0.6","0.2","0.4138768052","0.4447532253","0.1543620621","0.7157410044","","","","","","","","","","","","","","74","J","1","","","40","main_expt","",""
"","bandit","124","503134","0.0-82.0-0.0","52250379","wem/bandit_party_2","A3Q4T34SDWIHU9","either","8","455","","","","","","","0","1","0","","0.5330008696","0.4","0.8","0.6","0.2","0.438096834","0.5330008696","0.2271499981","0.681196038","","","","","","","","","","","","","","74","J","1","","","41","main_expt","",""
"","bandit","125","505262","0.0-83.0-0.0","52250379","wem/bandit_party_2","A3Q4T34SDWIHU9","either","8","588","","","","","","","0","0","1","0.573861049","","0.4","0.8","0.6","0.2","","","","","0.4185173612","0.573861049","0.2882452936","0.6504320647","","","","","","","","","","74","J","1","","","42","main_expt","",""
"","bandit","126","507349","0.0-84.0-0.0","52250379","wem/bandit_party_2","A3Q4T34SDWIHU9","either","8","532","","","","","","","0","0","1","0.6654349765","","0.4","0.8","0.6","0.2","","","","","0.3796335567","0.6654349765","0.298522686","0.7369830744","","","","","","","","","","74","J","1","","","43","main_expt","",""
"","bandit","127","510623","0.0-85.0-0.0","52250379","wem/bandit_party_2","A3Q4T34SDWIHU9","either","8","1741","","","","","","","0","1","0","","0.3188886026","0.4","0.8","0.6","0.2","0.31766129","0.691198465","0.3188886026","0.6797935378","","","","","","","","","","","","","","75","K","2","","","44","main_expt","",""
"","bandit","128","512707","0.0-86.0-0.0","52250379","wem/bandit_party_2","A3Q4T34SDWIHU9","either","8","538","","","","","","","0","0","1","","0.2705760174","0.4","0.8","0.6","0.2","0.4047397141","0.7652674903","0.2705760174","0.6507473666","","","","","","","","","","","","","","75","K","2","","","45","main_expt","",""
"","bandit","129","514973","0.0-87.0-0.0","52250379","wem/bandit_party_2","A3Q4T34SDWIHU9","either","8","725","","","","","","","0","0","1","0.2506880939","","0.4","0.8","0.6","0.2","","","","","0.4961613307","0.8065230058","0.2506880939","0.6334510787","","","","","","","","","","75","K","2","","","46","main_expt","",""
"","bandit","130","517043","0.0-88.0-0.0","52250379","wem/bandit_party_2","A3Q4T34SDWIHU9","either","8","532","","","","","","","0","0","1","0.2491585872","","0.4","0.8","0.6","0.2","","","","","0.4624468315","0.7774474893","0.2491585872","0.6143175143","","","","","","","","","","75","K","2","","","47","main_expt","",""
"","bandit","131","519729","0.0-89.0-0.0","52250379","wem/bandit_party_2","A3Q4T34SDWIHU9","either","8","1143","","","","","","","0","1","0","","0.4886537242","0.4","0.8","0.6","0.2","0.4886537242","0.7693176975","0.1997021219","0.6404512611","","","","","","","","","","","","","","72","H","0","img/none_selected.jpg","","48","main_expt","",""
"","bandit","132","521845","0.0-90.0-0.0","52250379","wem/bandit_party_2","A3Q4T34SDWIHU9","either","8","568","","","","","","","0","0","1","","0.4270302022","0.4","0.8","0.6","0.2","0.4270302022","0.807419373","0.2119577724","0.6758621215","","","","","","","","","","","","","","72","H","0","img/none_selected.jpg","","49","main_expt","",""
"","bandit","133","524018","0.0-91.0-0.0","52250379","wem/bandit_party_2","A3Q4T34SDWIHU9","either","8","605","","","","","","","0","0","1","0.5151345658","","0.4","0.8","0.6","0.2","","","","","0.5151345658","0.8562769227","0.2615271711","0.6873234502","","","","","","","","","","72","H","0","img/none_selected.jpg","","50","main_expt","",""
"","bandit","134","526197","0.0-92.0-0.0","52250379","wem/bandit_party_2","A3Q4T34SDWIHU9","either","8","650","","","","","","","1","0","0","0.5134524181","","0.4","0.8","0.6","0.2","","","","","0.5134524181","0.8705114925","0.2764427577","0.7776044395","","","","","","","","","","72","H","0","img/none_selected.jpg","","51","main_expt","",""
"","bandit","135","528349","0.0-93.0-0.0","52250379","wem/bandit_party_2","A3Q4T34SDWIHU9","either","8","612","","","","","","","0","0","1","0.4842684999","","0.4","0.8","0.6","0.2","","","","","0.4842684999","0.9310361031","0.3833776697","0.8403410939","","","","","","","","","","72","H","0","img/none_selected.jpg","","52","main_expt","",""
"","bandit","136","530412","0.0-94.0-0.0","52250379","wem/bandit_party_2","A3Q4T34SDWIHU9","either","8","515","","","","","","","0","0","1","","0.4412850773","0.4","0.8","0.6","0.2","0.4412850773","0.905794742","0.4356502318","0.8151983534","","","","","","","","","","","","","","72","H","0","img/none_selected.jpg","","53","main_expt","",""
"","bandit","137","532676","0.0-95.0-0.0","52250379","wem/bandit_party_2","A3Q4T34SDWIHU9","either","8","725","","","","","","","0","0","1","0.4120588364","","0.4","0.8","0.6","0.2","","","","","0.4397693946","0.9391541593","0.4120588364","0.8081222638","","","","","","","","","","75","K","2","","","54","main_expt","",""
"","bandit","138","535238","0.0-96.0-0.0","52250379","wem/bandit_party_2","A3Q4T34SDWIHU9","either","8","1021","","","","","","","1","0","0","0.742009976","","0.4","0.8","0.6","0.2","","","","","0.3928202278","0.9596285882","0.2714296105","0.742009976","","","","","","","","","","76","L","3","","","55","main_expt","",""
"","bandit","139","537298","0.0-97.0-0.0","52250379","wem/bandit_party_2","A3Q4T34SDWIHU9","either","8","523","","","","","","","1","0","0","0.7065076074","","0.4","0.8","0.6","0.2","","","","","0.4593665993","0.9565658233","0.2122311877","0.7065076074","","","","","","","","","","76","L","3","","","56","main_expt","",""
"","bandit","140","539520","0.0-98.0-0.0","52250379","wem/bandit_party_2","A3Q4T34SDWIHU9","either","8","686","","","","","","","0","1","0","","0.6860695476","0.4","0.8","0.6","0.2","0.4006145211","0.9681540372","0.2282278588","0.6860695476","","","","","","","","","","","","","","76","L","3","","","57","main_expt","",""
"","bandit","141","541629","0.0-99.0-0.0","52250379","wem/bandit_party_2","A3Q4T34SDWIHU9","either","8","577","","","","","","","0","0","1","0.742301155","","0.4","0.8","0.6","0.2","","","","","0.4597890412","0.9207083952","0.1392076118","0.742301155","","","","","","","","","","76","L","3","","","58","main_expt","",""
"","bandit","142","543875","0.0-100.0-0.0","52250379","wem/bandit_party_2","A3Q4T34SDWIHU9","either","8","715","","","","","","","0","0","1","","0.5291004622","0.4","0.8","0.6","0.2","0.4232266093","0.9178227258","0.1706239206","0.5291004622","","","","","","","","","","","","","","76","L","3","","","59","main_expt","",""
"","bandit","143","546756","0.0-101.0-0.0","52250379","wem/bandit_party_2","A3Q4T34SDWIHU9","either","8","1336","","","","","","","1","0","0","0.8951285427","","0.4","0.8","0.6","0.2","","","","","0.3565880291","0.8951285427","0.1674269281","0.6348838793","","","","","","","","","","74","J","1","","","60","main_expt","",""
"","bandit","144","549112","0.0-102.0-0.0","52250379","wem/bandit_party_2","A3Q4T34SDWIHU9","either","8","813","","","","","","","1","0","0","0.8506814954","","0.4","0.8","0.6","0.2","","","","","0.3663276413","0.8506814954","0.2182313474","0.6796423313","","","","","","","","","","74","J","1","","","61","main_expt","",""
"","bandit","145","551315","0.0-103.0-0.0","52250379","wem/bandit_party_2","A3Q4T34SDWIHU9","either","8","671","","","","","","","1","0","0","0.8513854559","","0.4","0.8","0.6","0.2","","","","","0.3193005293","0.8513854559","0.2949218256","0.6928172916","","","","","","","","","","74","J","1","","","62","main_expt","",""
"","bandit","146","553472","0.0-104.0-0.0","52250379","wem/bandit_party_2","A3Q4T34SDWIHU9","either","8","620","","","","","","","0","1","0","","0.8927579502","0.4","0.8","0.6","0.2","0.1562068481","0.8927579502","0.3170222383","0.6996506825","","","","","","","","","","","","","","74","J","1","","","63","main_expt","",""
"","bandit","147","555761","0.0-105.0-0.0","52250379","wem/bandit_party_2","A3Q4T34SDWIHU9","either","8","762","","","","","","","1","0","0","0.9217936765","","0.4","0.8","0.6","0.2","","","","","0.2300477965","0.9217936765","0.3033511374","0.7294442249","","","","","","","","","","74","J","1","","","64","main_expt","",""
"","bandit","148","558355","0.0-106.0-0.0","52250379","wem/bandit_party_2","A3Q4T34SDWIHU9","either","8","1055","","","","","","","1","0","0","0.9357047413","","0.4","0.8","0.6","0.2","","","","","0.2869838185","0.9357047413","0.3973690147","0.6605354899","","","","","","","","","","74","J","1","","","65","main_expt","",""
"","bandit","149","560781","0.0-107.0-0.0","52250379","wem/bandit_party_2","A3Q4T34SDWIHU9","either","8","885","","","","","","","1","0","0","0.910343843","","0.4","0.8","0.6","0.2","","","","","0.3287476356","0.910343843","0.4320294497","0.6959621059","","","","","","","","","","74","J","1","","","66","main_expt","",""
"","bandit","150","563063","0.0-108.0-0.0","52250379","wem/bandit_party_2","A3Q4T34SDWIHU9","either","8","747","","","","","","","1","0","0","0.9022080512","","0.4","0.8","0.6","0.2","","","","","0.3018365728","0.9022080512","0.3208465419","0.653899752","","","","","","","","","","74","J","1","","","67","main_expt","",""
"","bandit","151","565247","0.0-109.0-0.0","52250379","wem/bandit_party_2","A3Q4T34SDWIHU9","either","8","650","","","","","","","1","0","0","0.8492414063","","0.4","0.8","0.6","0.2","","","","","0.3208616414","0.8492414063","0.3570730799","0.6517851336","","","","","","","","","","74","J","1","","","68","main_expt","",""
"","bandit","152","567304","0.0-110.0-0.0","52250379","wem/bandit_party_2","A3Q4T34SDWIHU9","either","8","498","","","","","","","0","0","1","0.768219052","","0.4","0.8","0.6","0.2","","","","","0.386863802","0.768219052","0.3451514791","0.7011615004","","","","","","","","","","74","J","1","","","69","main_expt","",""
"","bandit","153","569522","0.0-111.0-0.0","52250379","wem/bandit_party_2","A3Q4T34SDWIHU9","either","8","672","","","","","","","1","0","0","0.7996218848","","0.4","0.8","0.6","0.2","","","","","0.3628244161","0.7996218848","0.3127714871","0.6278947594","","","","","","","","","","74","J","1","","","70","main_expt","",""
"","bandit","154","571924","0.0-112.0-0.0","52250379","wem/bandit_party_2","A3Q4T34SDWIHU9","either","8","863","","","","","","","1","0","0","0.9130189757","","0.4","0.8","0.6","0.2","","","","","0.2969295023","0.9130189757","0.3855297895","0.688517509","","","","","","","","","","74","J","1","","","71","main_expt","",""
"","bandit","155","574196","0.0-113.0-0.0","52250379","wem/bandit_party_2","A3Q4T34SDWIHU9","either","8","724","","","","","","","1","0","0","0.9016843832","","0.4","0.8","0.6","0.2","","","","","0.3512325323","0.9016843832","0.3555010044","0.6125440106","","","","","","","","","","74","J","1","","","72","main_expt","",""
"","bandit","156","576555","0.0-114.0-0.0","52250379","wem/bandit_party_2","A3Q4T34SDWIHU9","either","8","828","","","","","","","0","1","0","","0.9166584401","0.4","0.8","0.6","0.2","0.3845321254","0.9166584401","0.3278360739","0.4884410468","","","","","","","","","","","","","","74","J","1","","","73","main_expt","",""
"","bandit","157","579313","0.0-115.0-0.0","52250379","wem/bandit_party_2","A3Q4T34SDWIHU9","either","8","1213","","","","","","","0","1","0","","0.8699410266","0.4","0.8","0.6","0.2","0.3760614253","0.8699410266","0.3275161349","0.5800760741","","","","","","","","","","","","","","74","J","1","","","74","main_expt","",""
"","bandit","158","581700","0.0-116.0-0.0","52250379","wem/bandit_party_2","A3Q4T34SDWIHU9","either","8","840","","","","","","","0","0","1","0.8192171788","","0.4","0.8","0.6","0.2","","","","","0.370831352","0.8192171788","0.3454333807","0.6614390465","","","","","","","","","","74","J","1","","","75","main_expt","",""
"","bandit","159","583945","0.0-117.0-0.0","52250379","wem/bandit_party_2","A3Q4T34SDWIHU9","either","8","708","","","","","","","1","0","0","0.8990587115","","0.4","0.8","0.6","0.2","","","","","0.4008199491","0.8990587115","0.4213924804","0.6861570843","","","","","","","","","","74","J","1","","","76","main_expt","",""
"","bandit","160","586150","0.0-118.0-0.0","52250379","wem/bandit_party_2","A3Q4T34SDWIHU9","either","8","655","","","","","","","1","0","0","0.9062137116","","0.4","0.8","0.6","0.2","","","","","0.3928984844","0.9062137116","0.439510692","0.5980737028","","","","","","","","","","74","J","1","","","77","main_expt","",""
"","bandit","161","588352","0.0-119.0-0.0","52250379","wem/bandit_party_2","A3Q4T34SDWIHU9","either","8","666","","","","","","","0","1","0","","0.9215914722","0.4","0.8","0.6","0.2","0.4709058574","0.9215914722","0.4419424199","0.6754083514","","","","","","","","","","","","","","74","J","1","","","78","main_expt","",""
"","bandit","162","590493","0.0-120.0-0.0","52250379","wem/bandit_party_2","A3Q4T34SDWIHU9","either","8","607","","","","","","","1","0","0","0.895443078","","0.4","0.8","0.6","0.2","","","","","0.4971614577","0.895443078","0.5056762283","0.7012934339","","","","","","","","","","74","J","1","","","79","main_expt","",""
"","bandit","163","592735","0.0-121.0-0.0","52250379","wem/bandit_party_2","A3Q4T34SDWIHU9","either","8","700","","","","","","","1","0","0","0.7789772955","","0.4","0.8","0.6","0.2","","","","","0.4828267768","0.7789772955","0.4558190996","0.7067798052","","","","","","","","","","74","J","1","","","80","main_expt","",""
"","bandit","164","594844","0.0-122.0-0.0","52250379","wem/bandit_party_2","A3Q4T34SDWIHU9","either","8","568","","","","","","","1","0","0","0.755426824","","0.4","0.8","0.6","0.2","","","","","0.4280570329","0.755426824","0.4774921548","0.7259433061","","","","","","","","","","74","J","1","","","81","main_expt","",""
"","bandit","165","597038","0.0-123.0-0.0","52250379","wem/bandit_party_2","A3Q4T34SDWIHU9","either","8","659","","","","","","","1","0","0","0.8356426425","","0.4","0.8","0.6","0.2","","","","","0.486136241","0.8356426425","0.3611036613","0.7022130872","","","","","","","","","","74","J","1","","","82","main_expt","",""
"","bandit","166","599030","0.0-124.0-0.0","52250379","wem/bandit_party_2","A3Q4T34SDWIHU9","either","8","442","","","","","","","0","0","1","0.8783145762","","0.4","0.8","0.6","0.2","","","","","0.3539143083","0.8783145762","0.3341354767","0.75927227","","","","","","","","","","74","J","1","","","83","main_expt","",""
"","bandit","167","601046","0.0-125.0-0.0","52250379","wem/bandit_party_2","A3Q4T34SDWIHU9","either","8","474","","","","","","","1","0","0","0.9087743635","","0.4","0.8","0.6","0.2","","","","","0.374811954","0.9087743635","0.288479151","0.8556046088","","","","","","","","","","74","J","1","","","84","main_expt","",""
"","bandit","168","603082","0.0-126.0-0.0","52250379","wem/bandit_party_2","A3Q4T34SDWIHU9","either","8","498","","","","","","","0","0","1","0.8632011641","","0.4","0.8","0.6","0.2","","","","","0.4518264681","0.8632011641","0.3061923995","0.7835234447","","","","","","","","","","74","J","1","","","85","main_expt","",""
"","bandit","169","605179","0.0-127.0-0.0","52250379","wem/bandit_party_2","A3Q4T34SDWIHU9","either","8","558","","","","","","","0","0","1","0.8341253046","","0.4","0.8","0.6","0.2","","","","","0.461936863","0.8341253046","0.3370204437","0.7037548709","","","","","","","","","","74","J","1","","","86","main_expt","",""
"","bandit","170","607239","0.0-128.0-0.0","52250379","wem/bandit_party_2","A3Q4T34SDWIHU9","either","8","516","","","","","","","0","1","0","","0.8728746981","0.4","0.8","0.6","0.2","0.3681660755","0.8728746981","0.3900809043","0.6903674631","","","","","","","","","","","","","","74","J","1","","","87","main_expt","",""
"","bandit","171","609524","0.0-129.0-0.0","52250379","wem/bandit_party_2","A3Q4T34SDWIHU9","either","8","736","","","","","","","1","0","0","0.8408980459","","0.4","0.8","0.6","0.2","","","","","0.3788462328","0.8408980459","0.4296615172","0.5883284312","","","","","","","","","","74","J","1","","","88","main_expt","",""
"","bandit","172","611678","0.0-130.0-0.0","52250379","wem/bandit_party_2","A3Q4T34SDWIHU9","either","8","603","","","","","","","0","1","0","","0.8585781628","0.4","0.8","0.6","0.2","0.3316952272","0.8585781628","0.4636560077","0.5258490985","","","","","","","","","","","","","","74","J","1","","","89","main_expt","",""
"","bandit","173","613697","0.0-131.0-0.0","52250379","wem/bandit_party_2","A3Q4T34SDWIHU9","either","8","489","","","","","","","1","0","0","0.925840658","","0.4","0.8","0.6","0.2","","","","","0.438068917","0.925840658","0.4463585346","0.6395041767","","","","","","","","","","74","J","1","","","90","main_expt","",""
"","bandit","174","615736","0.0-132.0-0.0","52250379","wem/bandit_party_2","A3Q4T34SDWIHU9","either","8","502","","","","","","","1","0","0","0.9201841885","","0.4","0.8","0.6","0.2","","","","","0.5158843935","0.9201841885","0.4734463503","0.6931091445","","","","","","","","","","74","J","1","","","91","main_expt","",""
"","bandit","175","617936","0.0-133.0-0.0","52250379","wem/bandit_party_2","A3Q4T34SDWIHU9","either","8","663","","","","","","","0","0","1","0.8508076908","","0.4","0.8","0.6","0.2","","","","","0.5182757575","0.8508076908","0.5248255385","0.6725373887","","","","","","","","","","74","J","1","","","92","main_expt","",""
"","bandit","176","619972","0.0-134.0-0.0","52250379","wem/bandit_party_2","A3Q4T34SDWIHU9","either","8","502","","","","","","","0","1","0","","0.8106711147","0.4","0.8","0.6","0.2","0.5498130742","0.8106711147","0.3386726181","0.7388835399","","","","","","","","","","","","","","74","J","1","","","93","main_expt","",""
"","bandit","177","622128","0.0-135.0-0.0","52250379","wem/bandit_party_2","A3Q4T34SDWIHU9","either","8","619","","","","","","","1","0","0","0.8543263914","","0.4","0.8","0.6","0.2","","","","","0.6049407638","0.8543263914","0.3718894848","0.697373586","","","","","","","","","","74","J","1","","","94","main_expt","",""
"","bandit","178","624133","0.0-136.0-0.0","52250379","wem/bandit_party_2","A3Q4T34SDWIHU9","either","8","463","","","","","","","1","0","0","0.8387782901","","0.4","0.8","0.6","0.2","","","","","0.6604115927","0.8387782901","0.4005278521","0.7550322224","","","","","","","","","","74","J","1","","","95","main_expt","",""
"","bandit","179","626235","0.0-137.0-0.0","52250379","wem/bandit_party_2","A3Q4T34SDWIHU9","either","8","554","","","","","","","1","0","0","0.8208071174","","0.4","0.8","0.6","0.2","","","","","0.7003847986","0.8208071174","0.3694595514","0.6576962358","","","","","","","","","","74","J","1","","","96","main_expt","",""
"","bandit","180","628362","0.0-138.0-0.0","52250379","wem/bandit_party_2","A3Q4T34SDWIHU9","either","8","580","","","","","","","1","0","0","0.765358829","","0.4","0.8","0.6","0.2","","","","","0.6793148949","0.765358829","0.3186037095","0.6802484638","","","","","","","","","","74","J","1","","","97","main_expt","",""
"","bandit","181","630359","0.0-139.0-0.0","52250379","wem/bandit_party_2","A3Q4T34SDWIHU9","either","8","460","","","","","","","0","0","1","","0.7823463211","0.4","0.8","0.6","0.2","0.6204607354","0.7823463211","0.2786717818","0.7042077447","","","","","","","","","","","","","","74","J","1","","","98","main_expt","",""
"","bandit","182","632265","0.0-140.0-0.0","52250379","wem/bandit_party_2","A3Q4T34SDWIHU9","either","8","376","","","","","","","1","0","0","0.7523003034","","0.4","0.8","0.6","0.2","","","","","0.6166262367","0.7523003034","0.32929866","0.7355617892","","","","","","","","","","74","J","1","","","99","main_expt","",""
"","bandit","183","634429","0.0-141.0-0.0","52250379","wem/bandit_party_2","A3Q4T34SDWIHU9","either","8","629","","","","","","","0","1","0","","0.7174790615","0.4","0.8","0.6","0.2","0.5347115766","0.7174790615","0.3115323478","0.7117411671","","","","","","","","","","","","","","74","J","1","","","100","main_expt","",""
"","bandit","184","636504","0.0-142.0-0.0","52250379","wem/bandit_party_2","A3Q4T34SDWIHU9","either","8","537","","","","","","","0","1","0","","0.7660578318","0.4","0.8","0.6","0.2","0.3418016043","0.7660578318","0.4221749579","0.7263903312","","","","","","","","","","","","","","74","J","1","","","101","main_expt","",""
"","bandit","185","638650","0.0-143.0-0.0","52250379","wem/bandit_party_2","A3Q4T34SDWIHU9","either","8","606","","","","","","","1","0","0","0.7201180075","","0.4","0.8","0.6","0.2","","","","","0.2550922237","0.7201180075","0.2718078598","0.7357346189","","","","","","","","","","74","J","1","","","102","main_expt","",""
"","bandit","186","640672","0.0-144.0-0.0","52250379","wem/bandit_party_2","A3Q4T34SDWIHU9","either","8","476","","","","","","","1","0","0","0.8452780714","","0.4","0.8","0.6","0.2","","","","","0.3181696353","0.8452780714","0.3011307106","0.7026134783","","","","","","","","","","74","J","1","","","103","main_expt","",""
"","bandit","187","642857","0.0-145.0-0.0","52250379","wem/bandit_party_2","A3Q4T34SDWIHU9","either","8","654","","","","","","","0","0","1","0.7236924273","","0.4","0.8","0.6","0.2","","","","","0.3383579412","0.7236924273","0.3659291838","0.8073666152","","","","","","","","","","74","J","1","","","104","main_expt","",""
"","bandit","188","644913","0.0-146.0-0.0","52250379","wem/bandit_party_2","A3Q4T34SDWIHU9","either","8","510","","","","","","","0","0","1","0.743719778","","0.4","0.8","0.6","0.2","","","","","0.2354673658","0.743719778","0.3499435223","0.824483439","","","","","","","","","","74","J","1","","","105","main_expt","",""
"","bandit","189","647117","0.0-147.0-0.0","52250379","wem/bandit_party_2","A3Q4T34SDWIHU9","either","8","673","","","","","","","1","0","0","0.7985687284","","0.4","0.8","0.6","0.2","","","","","0.159398249","0.7985687284","0.3602262465","0.9208810438","","","","","","","","","","74","J","1","","","106","main_expt","",""
"","bandit","190","649223","0.0-148.0-0.0","52250379","wem/bandit_party_2","A3Q4T34SDWIHU9","either","8","565","","","","","","","1","0","0","0.799345197","","0.4","0.8","0.6","0.2","","","","","0.1295169146","0.799345197","0.3252215163","0.8911910097","","","","","","","","","","74","J","1","","","107","main_expt","",""
"","bandit","191","651192","0.0-149.0-0.0","52250379","wem/bandit_party_2","A3Q4T34SDWIHU9","either","8","427","","","","","","","0","1","0","","0.8681690713","0.4","0.8","0.6","0.2","0.07754053308","0.8681690713","0.2812406992","0.8450149587","","","","","","","","","","","","","","74","J","1","","","108","main_expt","",""
"","bandit","192","653483","0.0-150.0-0.0","52250379","wem/bandit_party_2","A3Q4T34SDWIHU9","either","8","741","","","","","","","1","0","0","0.8556732204","","0.4","0.8","0.6","0.2","","","","","0.06591215473","0.8556732204","0.2559497519","0.868327257","","","","","","","","","","74","J","1","","","109","main_expt","",""
"","bandit","193","655849","0.0-151.0-0.0","52250379","wem/bandit_party_2","A3Q4T34SDWIHU9","either","8","827","","","","","","","1","0","0","0.8669893864","","0.4","0.8","0.6","0.2","","","","","0.1189546392","0.8669893864","0.2817400418","0.8868335222","","","","","","","","","","74","J","1","","","110","main_expt","",""
"","bandit","194","657921","0.0-152.0-0.0","52250379","wem/bandit_party_2","A3Q4T34SDWIHU9","either","8","525","","","","","","","1","0","0","0.799383849","","0.4","0.8","0.6","0.2","","","","","0.09523351692","0.799383849","0.2773620367","0.8770728171","","","","","","","","","","74","J","1","","","111","main_expt","",""
"","bandit","195","660014","0.0-153.0-0.0","52250379","wem/bandit_party_2","A3Q4T34SDWIHU9","either","8","557","","","","","","","0","1","0","","0.859799476","0.4","0.8","0.6","0.2","0.107489667","0.859799476","0.2833316415","0.8481710002","","","","","","","","","","","","","","74","J","1","","","112","main_expt","",""
"","bandit","196","662169","0.0-154.0-0.0","52250379","wem/bandit_party_2","A3Q4T34SDWIHU9","either","8","615","","","","","","","1","0","0","0.7932436089","","0.4","0.8","0.6","0.2","","","","","0.1026187258","0.7932436089","0.3433702059","0.8573528835","","","","","","","","","","74","J","1","","","113","main_expt","",""
"","bandit","197","664246","0.0-155.0-0.0","52250379","wem/bandit_party_2","A3Q4T34SDWIHU9","either","8","531","","","","","","","0","1","0","","0.849407262","0.4","0.8","0.6","0.2","0.1044839951","0.849407262","0.4828882278","0.8291807482","","","","","","","","","","","","","","74","J","1","","","114","main_expt","",""
"","bandit","198","666585","0.0-156.0-0.0","52250379","wem/bandit_party_2","A3Q4T34SDWIHU9","either","8","787","","","","","","","0","0","1","0.8882716547","","0.4","0.8","0.6","0.2","","","","","0.1213931844","0.8882716547","0.54932579","0.761972944","","","","","","","","","","74","J","1","","","115","main_expt","",""
"","bandit","199","668686","0.0-157.0-0.0","52250379","wem/bandit_party_2","A3Q4T34SDWIHU9","either","8","555","","","","","","","1","0","0","0.8741354715","","0.4","0.8","0.6","0.2","","","","","0.1184144227","0.8741354715","0.6971345968","0.786197192","","","","","","","","","","74","J","1","","","116","main_expt","",""
"","bandit","200","670798","0.0-158.0-0.0","52250379","wem/bandit_party_2","A3Q4T34SDWIHU9","either","8","575","","","","","","","0","0","1","0.8083823922","","0.4","0.8","0.6","0.2","","","","","0.1983931569","0.8083823922","0.5396272374","0.7834453561","","","","","","","","","","74","J","1","","","117","main_expt","",""
"","bandit","201","672837","0.0-159.0-0.0","52250379","wem/bandit_party_2","A3Q4T34SDWIHU9","either","8","504","","","","","","","1","0","0","0.868525306","","0.4","0.8","0.6","0.2","","","","","0.2840039584","0.868525306","0.5544567993","0.6742380839","","","","","","","","","","74","J","1","","","118","main_expt","",""
"","bandit","202","674946","0.0-160.0-0.0","52250379","wem/bandit_party_2","A3Q4T34SDWIHU9","either","8","569","","","","","","","0","1","0","","0.8386471998","0.4","0.8","0.6","0.2","0.3563325119","0.8386471998","0.5504896642","0.7350700153","","","","","","","","","","","","","","74","J","1","","","119","main_expt","",""
"","bandit","203","677055","0.0-161.0-0.0","52250379","wem/bandit_party_2","A3Q4T34SDWIHU9","either","8","570","","","","","","","1","0","0","0.8103559508","","0.4","0.8","0.6","0.2","","","","","0.5682387565","0.8103559508","0.5812137135","0.70601835","","","","","","","","","","74","J","1","","","120","main_expt","",""
"","bandit","204","679074","0.0-162.0-0.0","52250379","wem/bandit_party_2","A3Q4T34SDWIHU9","either","8","485","","","","","","","0","1","0","","0.8193015173","0.4","0.8","0.6","0.2","0.5189107771","0.8193015173","0.6033058466","0.7347719752","","","","","","","","","","","","","","74","J","1","","","121","main_expt","",""
"","bandit","205","681114","0.0-163.0-0.0","52250379","wem/bandit_party_2","A3Q4T34SDWIHU9","either","8","491","","","","","","","1","0","0","0.8025146027","","0.4","0.8","0.6","0.2","","","","","0.4428493372","0.8025146027","0.6102220397","0.8270923978","","","","","","","","","","74","J","1","","","122","main_expt","",""
"","bandit","206","683170","0.0-164.0-0.0","52250379","wem/bandit_party_2","A3Q4T34SDWIHU9","either","8","507","","","","","","","1","0","0","0.8121847492","","0.4","0.8","0.6","0.2","","","","","0.472724465","0.8121847492","0.6108151959","0.7980631313","","","","","","","","","","74","J","1","","","123","main_expt","",""
"","bandit","207","685372","0.0-165.0-0.0","52250379","wem/bandit_party_2","A3Q4T34SDWIHU9","either","8","660","","","","","","","1","0","0","0.8299418439","","0.4","0.8","0.6","0.2","","","","","0.4799585558","0.8299418439","0.7117385939","0.7369852887","","","","","","","","","","74","J","1","","","124","main_expt","",""
"","bandit","208","687540","0.0-166.0-0.0","52250379","wem/bandit_party_2","A3Q4T34SDWIHU9","either","8","634","","","","","","","0","0","1","","0.825688343","0.4","0.8","0.6","0.2","0.5080184993","0.825688343","0.7554186078","0.7465944313","","","","","","","","","","","","","","74","J","1","","","125","main_expt","",""
"","bandit","209","689580","0.0-167.0-0.0","52250379","wem/bandit_party_2","A3Q4T34SDWIHU9","either","8","499","","","","","","","1","0","0","0.8372054396","","0.4","0.8","0.6","0.2","","","","","0.4555098289","0.8372054396","0.8855751833","0.7596834852","","","","","","","","","","74","J","1","","","126","main_expt","",""
"","bandit","210","691612","0.0-168.0-0.0","52250379","wem/bandit_party_2","A3Q4T34SDWIHU9","either","8","490","","","","","","","1","0","0","0.7906689898","","0.4","0.8","0.6","0.2","","","","","0.5475411796","0.7906689898","0.8003015049","0.7398299979","","","","","","","","","","74","J","1","","","127","main_expt","",""
"","bandit","211","693648","0.0-169.0-0.0","52250379","wem/bandit_party_2","A3Q4T34SDWIHU9","either","8","489","","","","","","","1","0","0","0.8008571507","","0.4","0.8","0.6","0.2","","","","","0.612647382","0.8008571507","0.8403113951","0.7764866849","","","","","","","","","","74","J","1","","","128","main_expt","",""
"","bandit","212","695583","0.0-170.0-0.0","52250379","wem/bandit_party_2","A3Q4T34SDWIHU9","either","8","397","","","","","","","1","0","0","0.7829297973","","0.4","0.8","0.6","0.2","","","","","0.7128970287","0.7829297973","0.8826872071","0.6435675963","","","","","","","","","","74","J","1","","","129","main_expt","",""
"","bandit","213","697808","0.0-171.0-0.0","52250379","wem/bandit_party_2","A3Q4T34SDWIHU9","either","8","681","","","","","","","0","0","1","0.6898445721","","0.4","0.8","0.6","0.2","","","","","0.7309911721","0.6898445721","0.8641000085","0.7030252038","","","","","","","","","","74","J","1","","","130","main_expt","",""
"","bandit","214","699890","0.0-172.0-0.0","52250379","wem/bandit_party_2","A3Q4T34SDWIHU9","either","8","548","","","","","","","1","0","0","0.5864867529","","0.4","0.8","0.6","0.2","","","","","0.73180147","0.5864867529","0.8752037592","0.6829232191","","","","","","","","","","74","J","1","","","131","main_expt","",""
"","bandit","215","702018","0.0-173.0-0.0","52250379","wem/bandit_party_2","A3Q4T34SDWIHU9","either","8","594","","","","","","","1","0","0","0.560122833","","0.4","0.8","0.6","0.2","","","","","0.8467134838","0.560122833","0.8279556795","0.7406452387","","","","","","","","","","74","J","1","","","132","main_expt","",""
"","bandit","216","704052","0.0-174.0-0.0","52250379","wem/bandit_party_2","A3Q4T34SDWIHU9","either","8","498","","","","","","","0","1","0","","0.48439517","0.4","0.8","0.6","0.2","0.8481264083","0.48439517","0.8194722428","0.6666234363","","","","","","","","","","","","","","74","J","1","","","133","main_expt","",""
"","bandit","217","706022","0.0-175.0-0.0","52250379","wem/bandit_party_2","A3Q4T34SDWIHU9","either","8","415","","","","","","","0","0","1","0.3919863126","","0.4","0.8","0.6","0.2","","","","","0.8771050955","0.3919863126","0.8037084922","0.680542061","","","","","","","","","","74","J","1","","","134","main_expt","",""
"","bandit","218","708080","0.0-176.0-0.0","52250379","wem/bandit_party_2","A3Q4T34SDWIHU9","either","8","528","","","","","","","1","0","0","0.5174750093","","0.4","0.8","0.6","0.2","","","","","0.9103241533","0.5174750093","0.8155916457","0.7006187635","","","","","","","","","","74","J","1","","","135","main_expt","",""
"","bandit","219","710137","0.0-177.0-0.0","52250379","wem/bandit_party_2","A3Q4T34SDWIHU9","either","8","507","","","","","","","0","0","1","0.4264762493","","0.4","0.8","0.6","0.2","","","","","0.9126032517","0.4264762493","0.8281957705","0.6936815578","","","","","","","","","","74","J","1","","","136","main_expt","",""
"","bandit","220","712201","0.0-178.0-0.0","52250379","wem/bandit_party_2","A3Q4T34SDWIHU9","either","8","506","","","","","","","0","1","0","","0.5351999402","0.4","0.8","0.6","0.2","0.8983360858","0.5351999402","0.7055403129","0.6531428085","","","","","","","","","","","","","","74","J","1","","","137","main_expt","",""
"","bandit","221","714217","0.0-179.0-0.0","52250379","wem/bandit_party_2","A3Q4T34SDWIHU9","either","8","436","","","","","","","0","0","1","0.4758748922","","0.4","0.8","0.6","0.2","","","","","0.8851370462","0.4758748922","0.6884351598","0.6769758131","","","","","","","","","","74","J","1","","","138","main_expt","",""
"","bandit","222","716249","0.0-180.0-0.0","52250379","wem/bandit_party_2","A3Q4T34SDWIHU9","either","8","496","","","","","","","1","0","0","0.4039793023","","0.4","0.8","0.6","0.2","","","","","0.8662270416","0.4039793023","0.6090423031","0.7649589049","","","","","","","","","","74","J","1","","","139","main_expt","",""
"","bandit","223","718268","0.0-181.0-0.0","52250379","wem/bandit_party_2","A3Q4T34SDWIHU9","either","8","476","","","","","","","0","0","1","","0.384774136","0.4","0.8","0.6","0.2","0.8345767194","0.384774136","0.7000077187","0.7674202191","","","","","","","","","","","","","","74","J","1","","","140","main_expt","",""
"","bandit","224","720504","0.0-182.0-0.0","52250379","wem/bandit_party_2","A3Q4T34SDWIHU9","either","8","695","","","","","","","0","0","1","0.327254859","","0.4","0.8","0.6","0.2","","","","","0.8783670964","0.327254859","0.6643185619","0.8575114448","","","","","","","","","","74","J","1","","","141","main_expt","",""
"","bandit","225","722630","0.0-183.0-0.0","52250379","wem/bandit_party_2","A3Q4T34SDWIHU9","either","8","578","","","","","","","0","0","1","0.4536641492","","0.4","0.8","0.6","0.2","","","","","0.8895828315","0.4536641492","0.7079845674","0.8134430427","","","","","","","","","","74","J","1","","","142","main_expt","",""
"","bandit","226","724814","0.0-184.0-0.0","52250379","wem/bandit_party_2","A3Q4T34SDWIHU9","either","8","645","","","","","","","1","0","0","0.4348486293","","0.4","0.8","0.6","0.2","","","","","0.9053928798","0.4348486293","0.6624187643","0.8345505038","","","","","","","","","","74","J","1","","","143","main_expt","",""
"","bandit","227","726870","0.0-185.0-0.0","52250379","wem/bandit_party_2","A3Q4T34SDWIHU9","either","8","516","","","","","","","1","0","0","0.4086594597","","0.4","0.8","0.6","0.2","","","","","0.9033088386","0.4086594597","0.6779247185","0.7482817554","","","","","","","","","","74","J","1","","","144","main_expt","",""
"","bandit","228","728914","0.0-186.0-0.0","52250379","wem/bandit_party_2","A3Q4T34SDWIHU9","either","8","487","","","","","","","1","0","0","0.4420772456","","0.4","0.8","0.6","0.2","","","","","0.8572864227","0.4420772456","0.7216102374","0.7400387939","","","","","","","","","","74","J","1","","","145","main_expt","",""
"","bandit","229","730758","0.0-187.0-0.0","52250379","wem/bandit_party_2","A3Q4T34SDWIHU9","either","8","305","","","","","","","1","0","0","0.508741462","","0.4","0.8","0.6","0.2","","","","","0.8687508917","0.508741462","0.7837267619","0.795971973","","","","","","","","","","74","J","1","","","146","main_expt","",""
"","bandit","230","732779","0.0-188.0-0.0","52250379","wem/bandit_party_2","A3Q4T34SDWIHU9","either","8","477","","","","","","","1","0","0","0.4624398998","","0.4","0.8","0.6","0.2","","","","","0.8657621525","0.4624398998","0.7652264833","0.7503502301","","","","","","","","","","74","J","1","","","147","main_expt","",""
"","bandit","231","734764","0.0-189.0-0.0","52250379","wem/bandit_party_2","A3Q4T34SDWIHU9","either","8","441","","","","","","","0","0","1","0.4062589849","","0.4","0.8","0.6","0.2","","","","","0.8362891365","0.4062589849","0.7358716413","0.8200474043","","","","","","","","","","74","J","1","","","148","main_expt","",""
"","bandit","232","736756","0.0-190.0-0.0","52250379","wem/bandit_party_2","A3Q4T34SDWIHU9","either","8","454","","","","","","","1","0","0","0.4895331913","","0.4","0.8","0.6","0.2","","","","","0.8144386017","0.4895331913","0.7129200786","0.8509010271","","","","","","","","","","74","J","1","","","149","main_expt","",""
"","bandit","233","738863","0.0-191.0-0.0","52250379","wem/bandit_party_2","A3Q4T34SDWIHU9","either","8","575","","","","","","","0","0","1","0.4704746919","","0.4","0.8","0.6","0.2","","","","","0.6948055455","0.4704746919","0.705531668","0.8298908313","","","","","","","","","","74","J","1","","","150","main_expt","",""
"","bandit","234","742976","0.0-192.0-0.0","52250379","wem/bandit_party_2","A3Q4T34SDWIHU9","either","8","2578","","","","","","","0","1","0","","0.4725745774","0.4","0.8","0.6","0.2","0.6231991314","0.4725745774","0.5744604188","0.7362749002","","","","","","","","","","","","","","74","J","1","","","151","main_expt","",""
"","bandit","235","745090","0.0-193.0-0.0","52250379","wem/bandit_party_2","A3Q4T34SDWIHU9","either","8","579","","","","","","","1","0","0","0.4943906398","","0.4","0.8","0.6","0.2","","","","","0.7045057733","0.4943906398","0.5372669321","0.7601791643","","","","","","","","","","74","J","1","","","152","main_expt","",""
"","bandit","236","747065","0.0-194.0-0.0","52250379","wem/bandit_party_2","A3Q4T34SDWIHU9","either","8","433","","","","","","","0","0","1","0.4639524782","","0.4","0.8","0.6","0.2","","","","","0.5331338622","0.4639524782","0.5447545218","0.7590648118","","","","","","","","","","74","J","1","","","153","main_expt","",""
"","bandit","237","749137","0.0-195.0-0.0","52250379","wem/bandit_party_2","A3Q4T34SDWIHU9","either","8","529","","","","","","","0","0","1","","0.3935792086","0.4","0.8","0.6","0.2","0.5096720896","0.3935792086","0.4191749193","0.7805387907","","","","","","","","","","","","","","74","J","1","","","154","main_expt","",""
"","bandit","238","751067","0.0-196.0-0.0","52250379","wem/bandit_party_2","A3Q4T34SDWIHU9","either","8","385","","","","","","","1","0","0","0.4127348605","","0.4","0.8","0.6","0.2","","","","","0.4719011365","0.4127348605","0.4269770229","0.8450805748","","","","","","","","","","74","J","1","","","155","main_expt","",""
"","bandit","239","754122","0.0-197.0-0.0","52250379","wem/bandit_party_2","A3Q4T34SDWIHU9","either","8","1519","","","","","","","0","1","0","","0.3697675558","0.4","0.8","0.6","0.2","0.5818713095","0.3697675558","0.4589862704","0.8513110265","","","","","","","","","","","","","","74","J","1","","","156","main_expt","",""
"","bandit","240","757120","0.0-198.0-0.0","52250379","wem/bandit_party_2","A3Q4T34SDWIHU9","either","8","1464","","","","","","","1","0","0","0.3604398023","","0.4","0.8","0.6","0.2","","","","","0.5804022203","0.3604398023","0.5370818316","0.8226236001","","","","","","","","","","74","J","1","","","157","main_expt","",""
"","bandit","241","759654","0.0-199.0-0.0","52250379","wem/bandit_party_2","A3Q4T34SDWIHU9","either","8","984","","","","","","","0","0","1","","0.4061750625","0.4","0.8","0.6","0.2","0.4773166223","0.4061750625","0.4757376888","0.8843141367","","","","","","","","","","","","","","74","J","1","","","158","main_expt","",""
"","bandit","242","761910","0.0-200.0-0.0","52250379","wem/bandit_party_2","A3Q4T34SDWIHU9","either","8","699","","","","","","","0","0","1","0.4696417586","","0.4","0.8","0.6","0.2","","","","","0.419048585","0.4696417586","0.4887287223","0.8078798749","","","","","","","","","","74","J","1","","","159","main_expt","",""
"","bandit","243","763880","0.0-201.0-0.0","52250379","wem/bandit_party_2","A3Q4T34SDWIHU9","either","8","422","","","","","","","0","1","0","","0.4659569923","0.4","0.8","0.6","0.2","0.4672574386","0.4659569923","0.4588489809","0.7689164465","","","","","","","","","","","","","","74","J","1","","","160","main_expt","",""
"","bandit","244","767352","0.0-202.0-0.0","52250379","wem/bandit_party_2","A3Q4T34SDWIHU9","either","8","1929","","","","","","","0","0","1","0.3947207546","","0.4","0.8","0.6","0.2","","","","","0.5612985374","0.3947207546","0.4920004413","0.7863156869","","","","","","","","","","74","J","1","","","161","main_expt","",""
"","bandit","245","769347","0.0-203.0-0.0","52250379","wem/bandit_party_2","A3Q4T34SDWIHU9","either","8","450","","","","","","","0","0","1","0.2460097942","","0.4","0.8","0.6","0.2","","","","","0.5288680036","0.2460097942","0.5389881207","0.8098475403","","","","","","","","","","74","J","1","","","162","main_expt","",""
"","bandit","246","771384","0.0-204.0-0.0","52250379","wem/bandit_party_2","A3Q4T34SDWIHU9","either","8","488","","","","","","","0","0","1","","0.3603606056","0.4","0.8","0.6","0.2","0.6096883849","0.3603606056","0.6040136001","0.8222712862","","","","","","","","","","","","","","74","J","1","","","163","main_expt","",""
"","bandit","247","773334","0.0-205.0-0.0","52250379","wem/bandit_party_2","A3Q4T34SDWIHU9","either","8","402","","","","","","","0","1","0","","0.2507209727","0.4","0.8","0.6","0.2","0.4868922288","0.2507209727","0.623756827","0.7876031225","","","","","","","","","","","","","","74","J","1","","","164","main_expt","",""
"","bandit","248","776277","0.0-206.0-0.0","52250379","wem/bandit_party_2","A3Q4T34SDWIHU9","either","8","1396","","","","","","","0","0","1","0.2162043423","","0.4","0.8","0.6","0.2","","","","","0.4055552053","0.2162043423","0.6164515281","0.7435052823","","","","","","","","","","74","J","1","","","165","main_expt","",""
"","bandit","249","778228","0.0-207.0-0.0","52250379","wem/bandit_party_2","A3Q4T34SDWIHU9","either","8","406","","","","","","","0","0","1","0.2573409732","","0.4","0.8","0.6","0.2","","","","","0.4748236382","0.2573409732","0.4660222187","0.6545739251","","","","","","","","","","74","J","1","","","166","main_expt","",""
"","bandit","250","780241","0.0-208.0-0.0","52250379","wem/bandit_party_2","A3Q4T34SDWIHU9","either","8","480","","","","","","","1","0","0","0.4016088623","","0.4","0.8","0.6","0.2","","","","","0.4725242185","0.4016088623","0.3336058786","0.6645907447","","","","","","","","","","74","J","1","","","167","main_expt","",""
"","bandit","251","782466","0.0-209.0-0.0","52250379","wem/bandit_party_2","A3Q4T34SDWIHU9","either","8","684","","","","","","","0","0","1","0.5522858252","","0.4","0.8","0.6","0.2","","","","","0.4775208721","0.5522858252","0.2887723434","0.7243751722","","","","","","","","","","74","J","1","","","168","main_expt","",""
"","bandit","252","784561","0.0-210.0-0.0","52250379","wem/bandit_party_2","A3Q4T34SDWIHU9","either","8","559","","","","","","","1","0","0","0.5461138513","","0.4","0.8","0.6","0.2","","","","","0.4682732781","0.5461138513","0.3357056981","0.6453105543","","","","","","","","","","74","J","1","","","169","main_expt","",""
"","bandit","253","787036","0.0-211.0-0.0","52250379","wem/bandit_party_2","A3Q4T34SDWIHU9","either","8","924","","","","","","","0","0","1","","0.4402798015","0.4","0.8","0.6","0.2","0.4246621539","0.4402798015","0.4179693295","0.5334010147","","","","","","","","","","","","","","74","J","1","","","170","main_expt","",""
"","bandit","254","789278","0.0-212.0-0.0","52250379","wem/bandit_party_2","A3Q4T34SDWIHU9","either","8","694","","","","","","","1","0","0","0.450294849","","0.4","0.8","0.6","0.2","","","","","0.2843380906","0.450294849","0.3050406521","0.498122785","","","","","","","","","","74","J","1","","","171","main_expt","",""
"","bandit","255","791376","0.0-213.0-0.0","52250379","wem/bandit_party_2","A3Q4T34SDWIHU9","either","8","536","","","","","","","1","0","0","0.6475755847","","0.4","0.8","0.6","0.2","","","","","0.2668952485","0.6475755847","0.3364500029","0.4356988635","","","","","","","","","","74","J","1","","","172","main_expt","",""
"","bandit","256","793562","0.0-214.0-0.0","52250379","wem/bandit_party_2","A3Q4T34SDWIHU9","either","8","626","","","","","","","1","0","0","0.6095255177","","0.4","0.8","0.6","0.2","","","","","0.3802819164","0.6095255177","0.421339117","0.3964199688","","","","","","","","","","74","J","1","","","173","main_expt","",""
"","bandit","257","795873","0.0-215.0-0.0","52250379","wem/bandit_party_2","A3Q4T34SDWIHU9","either","8","763","","","","","","","0","0","1","0.5003628493","","0.4","0.8","0.6","0.2","","","","","0.4042455133","0.5003628493","0.4913704717","0.3194345802","","","","","","","","","","74","J","1","","","174","main_expt","",""
"","bandit","258","797923","0.0-216.0-0.0","52250379","wem/bandit_party_2","A3Q4T34SDWIHU9","either","8","508","","","","","","","0","0","1","0.5576212716","","0.4","0.8","0.6","0.2","","","","","0.4393989914","0.5576212716","0.5882611891","0.2865230234","","","","","","","","","","74","J","1","","","175","main_expt","",""
"","bandit","259","799988","0.0-217.0-0.0","52250379","wem/bandit_party_2","A3Q4T34SDWIHU9","either","8","526","","","","","","","1","0","0","0.6230679906","","0.4","0.8","0.6","0.2","","","","","0.4705173801","0.6230679906","0.6313830356","0.3352692614","","","","","","","","","","74","J","1","","","176","main_expt","",""
"","bandit","260","801847","0.0-218.0-0.0","52250379","wem/bandit_party_2","A3Q4T34SDWIHU9","either","8","317","","","","","","","1","0","0","0.6501784685","","0.4","0.8","0.6","0.2","","","","","0.4698597734","0.6501784685","0.5531265137","0.3389264817","","","","","","","","","","74","J","1","","","177","main_expt","",""
"","bandit","261","804070","0.0-219.0-0.0","52250379","wem/bandit_party_2","A3Q4T34SDWIHU9","either","8","682","","","","","","","1","0","0","0.6334155083","","0.4","0.8","0.6","0.2","","","","","0.3570804947","0.6334155083","0.4621004187","0.3709673039","","","","","","","","","","74","J","1","","","178","main_expt","",""
"","bandit","262","806344","0.0-220.0-0.0","52250379","wem/bandit_party_2","A3Q4T34SDWIHU9","either","8","723","","","","","","","0","0","1","0.7548338289","","0.4","0.8","0.6","0.2","","","","","0.3441184995","0.7548338289","0.512884041","0.2940579202","","","","","","","","","","74","J","1","","","179","main_expt","",""
"","bandit","263","809268","0.0-221.0-0.0","52250379","wem/bandit_party_2","A3Q4T34SDWIHU9","either","8","1377","","","","","","","0","0","1","","0.8074073351","0.4","0.8","0.6","0.2","0.3646136501","0.8074073351","0.506744284","0.3218724025","","","","","","","","","","","","","","74","J","1","","","180","main_expt","",""
"","bandit","264","811210","0.0-222.0-0.0","52250379","wem/bandit_party_2","A3Q4T34SDWIHU9","either","8","381","","","","","","","0","1","0","","0.4556494723","0.4","0.8","0.6","0.2","0.3777688814","0.780721516","0.4556494723","0.3633286182","","","","","","","","","","","","","","75","K","2","","","181","main_expt","",""
"","bandit","265","813231","0.0-223.0-0.0","52250379","wem/bandit_party_2","A3Q4T34SDWIHU9","either","8","479","","","","","","","0","0","1","0.4494525508","","0.4","0.8","0.6","0.2","","","","","0.4578236703","0.7647415088","0.4494525508","0.3324048704","","","","","","","","","","75","K","2","","","182","main_expt","",""
"","bandit","266","815188","0.0-224.0-0.0","52250379","wem/bandit_party_2","A3Q4T34SDWIHU9","either","8","417","","","","","","","0","0","1","","0.5189143621","0.4","0.8","0.6","0.2","0.4244895098","0.7349307529","0.5189143621","0.3092830871","","","","","","","","","","","","","","75","K","2","","","183","main_expt","",""
"","bandit","267","817205","0.0-225.0-0.0","52250379","wem/bandit_party_2","A3Q4T34SDWIHU9","either","8","479","","","","","","","0","0","1","0.5167606333","","0.4","0.8","0.6","0.2","","","","","0.3566779322","0.8298088288","0.5167606333","0.3905692936","","","","","","","","","","75","K","2","","","184","main_expt","",""
"","bandit","268","819153","0.0-226.0-0.0","52250379","wem/bandit_party_2","A3Q4T34SDWIHU9","either","8","395","","","","","","","0","1","0","","0.4626192444","0.4","0.8","0.6","0.2","0.3737416658","0.7894193193","0.5270237034","0.4626192444","","","","","","","","","","","","","","76","L","3","","","185","main_expt","",""
"","bandit","269","821624","0.0-227.0-0.0","52250379","wem/bandit_party_2","A3Q4T34SDWIHU9","either","8","910","","","","","","","0","0","1","0.6061762586","","0.4","0.8","0.6","0.2","","","","","0.3120176694","0.7665022487","0.5556036571","0.6061762586","","","","","","","","","","76","L","3","","","186","main_expt","",""
"","bandit","270","823682","0.0-228.0-0.0","52250379","wem/bandit_party_2","A3Q4T34SDWIHU9","either","8","520","","","","","","","0","1","0","","0.530958695","0.4","0.8","0.6","0.2","0.4134691065","0.7394266891","0.5865134094","0.530958695","","","","","","","","","","","","","","76","L","3","","","187","main_expt","",""
"","bandit","271","825668","0.0-229.0-0.0","52250379","wem/bandit_party_2","A3Q4T34SDWIHU9","either","8","433","","","","","","","0","1","0","","0.380024655","0.4","0.8","0.6","0.2","0.4637770407","0.6567361442","0.5034866795","0.380024655","","","","","","","","","","","","","","76","L","3","","","188","main_expt","",""
"","bandit","272","827623","0.0-230.0-0.0","52250379","wem/bandit_party_2","A3Q4T34SDWIHU9","either","8","419","","","","","","","0","0","1","","0.4563575644","0.4","0.8","0.6","0.2","0.5739034088","0.6572443956","0.5761715841","0.4563575644","","","","","","","","","","","","","","76","L","3","","","189","main_expt","",""
"","bandit","273","829691","0.0-231.0-0.0","52250379","wem/bandit_party_2","A3Q4T34SDWIHU9","either","8","529","","","","","","","0","1","0","","0.4540853102","0.4","0.8","0.6","0.2","0.5859504021","0.6735764162","0.5325489933","0.4540853102","","","","","","","","","","","","","","76","L","3","","","190","main_expt","",""
"","bandit","274","831818","0.0-232.0-0.0","52250379","wem/bandit_party_2","A3Q4T34SDWIHU9","either","8","596","","","","","","","0","1","0","","0.4328006462","0.4","0.8","0.6","0.2","0.5325822721","0.5997518312","0.5614919892","0.4328006462","","","","","","","","","","","","","","76","L","3","","","191","main_expt","",""
"","bandit","275","833915","0.0-233.0-0.0","52250379","wem/bandit_party_2","A3Q4T34SDWIHU9","either","8","534","","","","","","","0","1","0","","0.4979354652","0.4","0.8","0.6","0.2","0.4622441745","0.6582178794","0.5972832049","0.4979354652","","","","","","","","","","","","","","76","L","3","","","192","main_expt","",""
"","bandit","276","836056","0.0-234.0-0.0","52250379","wem/bandit_party_2","A3Q4T34SDWIHU9","either","8","597","","","","","","","0","1","0","","0.4887187701","0.4","0.8","0.6","0.2","0.4765036663","0.7246172867","0.6997951875","0.4887187701","","","","","","","","","","","","","","76","L","3","","","193","main_expt","",""
"","bandit","277","837981","0.0-235.0-0.0","52250379","wem/bandit_party_2","A3Q4T34SDWIHU9","either","8","374","","","","","","","0","0","1","","0.4993882896","0.4","0.8","0.6","0.2","0.4504155567","0.7721250451","0.7511051992","0.4993882896","","","","","","","","","","","","","","76","L","3","","","194","main_expt","",""
"","bandit","278","840127","0.0-236.0-0.0","52250379","wem/bandit_party_2","A3Q4T34SDWIHU9","either","8","595","","","","","","","0","0","1","","0.5011331455","0.4","0.8","0.6","0.2","0.4354252764","0.8366496483","0.8281457055","0.5011331455","","","","","","","","","","","","","","76","L","3","","","195","main_expt","",""
"","bandit","279","842204","0.0-237.0-0.0","52250379","wem/bandit_party_2","A3Q4T34SDWIHU9","either","8","537","","","","","","","0","1","0","","0.4487960683","0.4","0.8","0.6","0.2","0.4170899215","0.8484646997","0.8248544968","0.4487960683","","","","","","","","","","","","","","76","L","3","","","196","main_expt","",""
"","bandit","280","844192","0.0-238.0-0.0","52250379","wem/bandit_party_2","A3Q4T34SDWIHU9","either","8","452","","","","","","","0","1","0","","0.3975590019","0.4","0.8","0.6","0.2","0.4149059055","0.8734060335","0.8532714289","0.3975590019","","","","","","","","","","","","","","76","L","3","","","197","main_expt","",""
"","bandit","281","846209","0.0-239.0-0.0","52250379","wem/bandit_party_2","A3Q4T34SDWIHU9","either","8","480","","","","","","","0","1","0","","0.4161601929","0.4","0.8","0.6","0.2","0.4737306044","0.8515360685","0.7587337752","0.4161601929","","","","","","","","","","","","","","76","L","3","","","198","main_expt","",""
"","bandit","282","848356","0.0-240.0-0.0","52250379","wem/bandit_party_2","A3Q4T34SDWIHU9","either","8","601","","","","","","","0","0","1","","0.4483979408","0.4","0.8","0.6","0.2","0.4541760911","0.8805923715","0.8124408481","0.4483979408","","","","","","","","","","","","","","76","L","3","","","199","main_expt","",""
"","bandit","283","849916","0.0-241.0-0.0","52250379","wem/bandit_party_2","A3Q4T34SDWIHU9","either","8","12","","","","","","","0","0","1","","0.5303380975","0.4","0.8","0.6","0.2","0.3964714959","0.9645818821","0.7935778268","0.5303380975","","","","","","","","","","","","","","76","L","3","","","200","main_expt","",""
"","bandit","284","852794","0.0-242.0-0.0","52250379","wem/bandit_party_2","A3Q4T34SDWIHU9","either","8","1332","","","","","","","0","0","1","0.3815447649","","0.4","0.8","0.6","0.2","","","","","0.3815447649","0.9689478708","0.736942723","0.4014045657","","","","","","","","","","72","H","0","img/none_selected.jpg","","201","main_expt","",""
"","bandit","285","856623","0.0-243.0-0.0","52250379","wem/bandit_party_2","A3Q4T34SDWIHU9","either","8","2284","","","","","","","0","0","1","","0.3726367513","0.4","0.8","0.6","0.2","0.3726367513","0.9678291885","0.7001951276","0.5115169607","","","","","","","","","","","","","","72","H","0","img/none_selected.jpg","","202","main_expt","",""
"","bandit","286","859266","0.0-244.0-0.0","52250379","wem/bandit_party_2","A3Q4T34SDWIHU9","either","8","1088","","","","","","","1","0","0","0.3062653216","","0.4","0.8","0.6","0.2","","","","","0.3062653216","0.9633244117","0.7209300446","0.5026191452","","","","","","","","","","72","H","0","img/none_selected.jpg","","203","main_expt","",""
"","bandit","287","861670","0.0-245.0-0.0","52250379","wem/bandit_party_2","A3Q4T34SDWIHU9","either","8","861","","","","","","","0","0","1","0.2848501254","","0.4","0.8","0.6","0.2","","","","","0.2848501254","0.9730812582","0.8574132932","0.4736298566","","","","","","","","","","72","H","0","img/none_selected.jpg","","204","main_expt","",""
"","bandit","288","864574","0.0-246.0-0.0","52250379","wem/bandit_party_2","A3Q4T34SDWIHU9","either","8","1361","","","","","","","1","0","0","0.9521206422","","0.4","0.8","0.6","0.2","","","","","0.3457586416","0.9521206422","0.9038760074","0.6121858428","","","","","","","","","","74","J","1","","","205","main_expt","",""
"","bandit","289","866698","0.0-247.0-0.0","52250379","wem/bandit_party_2","A3Q4T34SDWIHU9","either","8","574","","","","","","","1","0","0","0.9614764056","","0.4","0.8","0.6","0.2","","","","","0.4609097875","0.9614764056","0.9273356803","0.6377028942","","","","","","","","","","74","J","1","","","206","main_expt","",""
"","bandit","290","868781","0.0-248.0-0.0","52250379","wem/bandit_party_2","A3Q4T34SDWIHU9","either","8","536","","","","","","","1","0","0","0.9625830716","","0.4","0.8","0.6","0.2","","","","","0.4980316736","0.9625830716","0.9502037039","0.5700483165","","","","","","","","","","74","J","1","","","207","main_expt","",""
"","bandit","291","870916","0.0-249.0-0.0","52250379","wem/bandit_party_2","A3Q4T34SDWIHU9","either","8","579","","","","","","","1","0","0","0.9359306517","","0.4","0.8","0.6","0.2","","","","","0.4537691537","0.9359306517","0.944094639","0.624428721","","","","","","","","","","74","J","1","","","208","main_expt","",""
"","bandit","292","872965","0.0-250.0-0.0","52250379","wem/bandit_party_2","A3Q4T34SDWIHU9","either","8","507","","","","","","","0","1","0","","0.9632917203","0.4","0.8","0.6","0.2","0.4475842875","0.9632917203","0.9070839441","0.4861871301","","","","","","","","","","","","","","74","J","1","","","209","main_expt","",""
"","bandit","293","875159","0.0-251.0-0.0","52250379","wem/bandit_party_2","A3Q4T34SDWIHU9","either","8","644","","","","","","","0","0","1","0.9633226214","","0.4","0.8","0.6","0.2","","","","","0.4803454055","0.9633226214","0.8960653589","0.3956361612","","","","","","","","","","74","J","1","","","210","main_expt","",""
"","bandit","294","876987","0.0-252.0-0.0","52250379","wem/bandit_party_2","A3Q4T34SDWIHU9","either","8","284","","","","","","","1","0","0","0.9719781217","","0.4","0.8","0.6","0.2","","","","","0.4126443349","0.9719781217","0.9155455821","0.3599204452","","","","","","","","","","74","J","1","","","211","main_expt","",""
"","bandit","295","878972","0.0-253.0-0.0","52250379","wem/bandit_party_2","A3Q4T34SDWIHU9","either","8","439","","","","","","","1","0","0","0.9700781686","","0.4","0.8","0.6","0.2","","","","","0.3384802849","0.9700781686","0.9087954588","0.3349000901","","","","","","","","","","74","J","1","","","212","main_expt","",""
"","bandit","296","881049","0.0-254.0-0.0","52250379","wem/bandit_party_2","A3Q4T34SDWIHU9","either","8","527","","","","","","","1","0","0","0.971165811","","0.4","0.8","0.6","0.2","","","","","0.3039242722","0.971165811","0.8528540962","0.3183344176","","","","","","","","","","74","J","1","","","213","main_expt","",""
"","bandit","297","883189","0.0-255.0-0.0","52250379","wem/bandit_party_2","A3Q4T34SDWIHU9","either","8","590","","","","","","","1","0","0","0.9627117","","0.4","0.8","0.6","0.2","","","","","0.4541530846","0.9627117","0.8506041988","0.2390758011","","","","","","","","","","74","J","1","","","214","main_expt","",""
"","bandit","298","885379","0.0-256.0-0.0","52250379","wem/bandit_party_2","A3Q4T34SDWIHU9","either","8","642","","","","","","","1","0","0","0.9552130497","","0.4","0.8","0.6","0.2","","","","","0.5101749692","0.9552130497","0.8001829978","0.1997060473","","","","","","","","","","74","J","1","","","215","main_expt","",""
"","bandit","299","887418","0.0-257.0-0.0","52250379","wem/bandit_party_2","A3Q4T34SDWIHU9","either","8","484","","","","","","","1","0","0","0.9220350188","","0.4","0.8","0.6","0.2","","","","","0.5580520347","0.9220350188","0.733614842","0.2326539104","","","","","","","","","","74","J","1","","","216","main_expt","",""
"","bandit","300","889439","0.0-258.0-0.0","52250379","wem/bandit_party_2","A3Q4T34SDWIHU9","either","8","476","","","","","","","1","0","0","0.8736667029","","0.4","0.8","0.6","0.2","","","","","0.4368451062","0.8736667029","0.7479737912","0.2319826337","","","","","","","","","","74","J","1","","","217","main_expt","",""
"","bandit","301","891353","0.0-259.0-0.0","52250379","wem/bandit_party_2","A3Q4T34SDWIHU9","either","8","372","","","","","","","1","0","0","0.7602784417","","0.4","0.8","0.6","0.2","","","","","0.3963441813","0.7602784417","0.7713398237","0.3143382807","","","","","","","","","","74","J","1","","","218","main_expt","",""
"","bandit","302","893306","0.0-260.0-0.0","52250379","wem/bandit_party_2","A3Q4T34SDWIHU9","either","8","407","","","","","","","1","0","0","0.7643050859","","0.4","0.8","0.6","0.2","","","","","0.4809426617","0.7643050859","0.8077055691","0.3304972923","","","","","","","","","","74","J","1","","","219","main_expt","",""
"","bandit","303","895368","0.0-261.0-0.0","52250379","wem/bandit_party_2","A3Q4T34SDWIHU9","either","8","519","","","","","","","1","0","0","0.7793587236","","0.4","0.8","0.6","0.2","","","","","0.397759556","0.7793587236","0.7778114837","0.2866104843","","","","","","","","","","74","J","1","","","220","main_expt","",""
"","bandit","304","897560","0.0-262.0-0.0","52250379","wem/bandit_party_2","A3Q4T34SDWIHU9","either","8","647","","","","","","","1","0","0","0.82086311","","0.4","0.8","0.6","0.2","","","","","0.4087677593","0.82086311","0.7214198583","0.3602561646","","","","","","","","","","74","J","1","","","221","main_expt","",""
"","bandit","305","899794","0.0-263.0-0.0","52250379","wem/bandit_party_2","A3Q4T34SDWIHU9","either","8","687","","","","","","","1","0","0","0.8543662658","","0.4","0.8","0.6","0.2","","","","","0.4561280915","0.8543662658","0.8091526303","0.3228749062","","","","","","","","","","74","J","1","","","222","main_expt","",""
"","bandit","306","901998","0.0-264.0-0.0","52250379","wem/bandit_party_2","A3Q4T34SDWIHU9","either","8","665","","","","","","","1","0","0","0.8599459829","","0.4","0.8","0.6","0.2","","","","","0.4419858618","0.8599459829","0.8240838469","0.2549485676","","","","","","","","","","74","J","1","","","223","main_expt","",""
"","bandit","307","903959","0.0-265.0-0.0","52250379","wem/bandit_party_2","A3Q4T34SDWIHU9","either","8","415","","","","","","","0","1","0","","0.8747991669","0.4","0.8","0.6","0.2","0.494409337","0.8747991669","0.7670685714","0.2389333491","","","","","","","","","","","","","","74","J","1","","","224","main_expt","",""
"","bandit","308","905979","0.0-266.0-0.0","52250379","wem/bandit_party_2","A3Q4T34SDWIHU9","either","8","467","","","","","","","1","0","0","0.7910409491","","0.4","0.8","0.6","0.2","","","","","0.3713348049","0.7910409491","0.8775689376","0.1517307125","","","","","","","","","","74","J","1","","","225","main_expt","",""
"","bandit","309","907973","0.0-267.0-0.0","52250379","wem/bandit_party_2","A3Q4T34SDWIHU9","either","8","443","","","","","","","0","1","0","","0.7212928749","0.4","0.8","0.6","0.2","0.4013452417","0.7212928749","0.8846504348","0.1002450003","","","","","","","","","","","","","","74","J","1","","","226","main_expt","",""
"","bandit","310","909992","0.0-268.0-0.0","52250379","wem/bandit_party_2","A3Q4T34SDWIHU9","either","8","474","","","","","","","0","1","0","","0.7090989562","0.4","0.8","0.6","0.2","0.393451628","0.7090989562","0.851087938","0.1049945928","","","","","","","","","","","","","","74","J","1","","","227","main_expt","",""
"","bandit","311","912092","0.0-269.0-0.0","52250379","wem/bandit_party_2","A3Q4T34SDWIHU9","either","8","555","","","","","","","0","0","1","0.6606736223","","0.4","0.8","0.6","0.2","","","","","0.4175844788","0.6606736223","0.9074720337","0.03915988122","","","","","","","","","","74","J","1","","","228","main_expt","",""
"","bandit","312","914191","0.0-270.0-0.0","52250379","wem/bandit_party_2","A3Q4T34SDWIHU9","either","8","542","","","","","","","1","0","0","0.6893924153","","0.4","0.8","0.6","0.2","","","","","0.408368909","0.6893924153","0.872332114","0.03767516843","","","","","","","","","","74","J","1","","","229","main_expt","",""
"","bandit","313","916276","0.0-271.0-0.0","52250379","wem/bandit_party_2","A3Q4T34SDWIHU9","either","8","548","","","","","","","0","0","1","0.6067604319","","0.4","0.8","0.6","0.2","","","","","0.4777699032","0.6067604319","0.7967167456","0.05804790214","","","","","","","","","","74","J","1","","","230","main_expt","",""
"","bandit","314","918897","0.0-272.0-0.0","52250379","wem/bandit_party_2","A3Q4T34SDWIHU9","either","8","1066","","","","","","","0","0","1","0.5037419277","","0.4","0.8","0.6","0.2","","","","","0.4935442242","0.5037419277","0.7760618079","0.04963095007","","","","","","","","","","74","J","1","","","231","main_expt","",""
"","bandit","315","921033","0.0-273.0-0.0","52250379","wem/bandit_party_2","A3Q4T34SDWIHU9","either","8","592","","","","","","","0","0","1","0.4339479185","","0.4","0.8","0.6","0.2","","","","","0.4889590317","0.4339479185","0.7765467853","0.03759782928","","","","","","","","","","74","J","1","","","232","main_expt","",""
"","bandit","316","923914","0.0-274.0-0.0","52250379","wem/bandit_party_2","A3Q4T34SDWIHU9","either","8","1325","","","","","","","0","0","1","","0.03147013274","0.4","0.8","0.6","0.2","0.5212294662","0.4525546635","0.7895219362","0.03147013274","","","","","","","","","","","","","","76","L","3","","","233","main_expt","",""
