"consent","trial_type","trial_index","time_elapsed","internal_node_id","subjID","study","MID","cond","drift","rt","responses","button_pressed","key_press","like","value","connected","gems","bombs","no_reward","GemPrChosen","BombPrChosen","GainOverPainPr_0","GainOverPainPr_1","GainOverPainPr_2","GainOverPainPr_3","LosePr_0","LosePr_1","LosePr_2","LosePr_3","WinPr_0","WinPr_1","WinPr_2","WinPr_3","Q0","Q1","Q2","gender","age","ethnicity","label","expt_phase","target","respCharCode","respKey","respChoiceNum","respChoice","practice","trial_counter","trial_label","Q0_index"
"GDM/GDM_behavioral_consent_30min_online.html","consent","0","8287","0.0-0.0","53876302","wem/bandit_party_2","A2YRYS17DU3A8R","either","1","","","","","","","","","","","","","","","","","","","","","","","","","","","","","","","","","","","","","","","","",""
"","survey-text","1","11994","0.0-1.0","53876302","wem/bandit_party_2","A2YRYS17DU3A8R","either","1","2698","{""Q0"":""A2YRYS17DU3A8R""}","","","","","","","","","","","","","","","","","","","","","","","","","","","","","","","","","","","","","","",""
"","button-response","2","14316","0.0-2.0","53876302","wem/bandit_party_2","A2YRYS17DU3A8R","either","1","1316","","1","","","","","","","","","","","","","","","","","","","","","","","","","","","","","","","","","","","","","",""
"","text-replacement","3","22551","0.0-3.0","53876302","wem/bandit_party_2","A2YRYS17DU3A8R","either","1","7231","","","32","","","","","","","","","","","","","","","","","","","","","","","","","","","","","","","","","","","","",""
"","text-replacement","4","29483","0.0-4.0","53876302","wem/bandit_party_2","A2YRYS17DU3A8R","either","1","6931","","","32","","","","","","","","","","","","","","","","","","","","","","","","","","","","","","","","","","","","",""
"","identification","5","33844","0.0-6.0-0.0","53876302","wem/bandit_party_2","A2YRYS17DU3A8R","either","1","4351","","","","0","0","0","","","","","","","","","","","","","","","","","","","","","","","","pre","identification_pre","the Republican Party","","","","","","","",""
"","identification","6","38661","0.0-6.0-1.0","53876302","wem/bandit_party_2","A2YRYS17DU3A8R","either","1","3807","","","","5","6","6","","","","","","","","","","","","","","","","","","","","","","","","pre","identification_pre","the Democratic Party","","","","","","","",""
"","text-replacement","7","42577","0.0-7.0","53876302","wem/bandit_party_2","A2YRYS17DU3A8R","either","1","2911","","","32","","","","","","","","","","","","","","","","","","","","","","","","","","","","","","","","","","","","",""
"","text-replacement","8","46316","0.0-8.0","53876302","wem/bandit_party_2","A2YRYS17DU3A8R","either","1","3738","","","32","","","","","","","","","","","","","","","","","","","","","","","","","","","","","","","","","","","","",""
"","text-replacement","9","52905","0.0-9.0","53876302","wem/bandit_party_2","A2YRYS17DU3A8R","either","1","6587","","","32","","","","","","","","","","","","","","","","","","","","","","","","","","","","","","","","","","","","",""
"","text-replacement","10","55559","0.0-10.0","53876302","wem/bandit_party_2","A2YRYS17DU3A8R","either","1","2652","","","32","","","","","","","","","","","","","","","","","","","","","","","","","","","","","","","","","","","","",""
"","text-replacement","11","58416","0.0-11.0","53876302","wem/bandit_party_2","A2YRYS17DU3A8R","either","1","2856","","","32","","","","","","","","","","","","","","","","","","","","","","","","","","","","","","","","","","","","",""
"","bandit","12","62127","0.0-12.0-0.0","53876302","wem/bandit_party_2","A2YRYS17DU3A8R","either","1","2203","","","","","","","0","0","1","0","0","","","","","0","","","","0","","","","","","","","","","","","","74","J","0","img/none_selected_demo.jpg","true","0","",""
"","bandit","13","64697","0.0-13.0-0.0","53876302","wem/bandit_party_2","A2YRYS17DU3A8R","either","1","1058","","","","","","","0","0","1","0","0","","","","","0","","","","0","","","","","","","","","","","","","75","K","0","img/none_selected_demo.jpg","true","0","",""
"","text-replacement","14","69104","0.0-14.0","53876302","wem/bandit_party_2","A2YRYS17DU3A8R","either","1","4405","","","32","","","","","","","","","","","","","","","","","","","","","","","","","","","","","","","","","","","","",""
"","text-replacement","15","72952","0.0-15.0","53876302","wem/bandit_party_2","A2YRYS17DU3A8R","either","1","3846","","","32","","","","","","","","","","","","","","","","","","","","","","","","","","","","","","","","","","","","",""
"","text-replacement","16","76936","0.0-16.0","53876302","wem/bandit_party_2","A2YRYS17DU3A8R","either","1","3982","","","32","","","","","","","","","","","","","","","","","","","","","","","","","","","","","","","","","","","","",""
"","text-replacement","17","78217","0.0-17.0","53876302","wem/bandit_party_2","A2YRYS17DU3A8R","either","1","1280","","","32","","","","","","","","","","","","","","","","","","","","","","","","","","","","","","","","","","","","",""
"","bandit","18","80311","0.0-18.0-0.0","53876302","wem/bandit_party_2","A2YRYS17DU3A8R","either","1","584","","","","","","","0","1","0","","0.8","0.5","0.5","","","0.8","0.2","","","","","","","","","","","","","","","","74","J","0","img/none_selected_demo.jpg","true","0","80_20_practice",""
"","bandit","19","81906","0.0-18.0-1.0","53876302","wem/bandit_party_2","A2YRYS17DU3A8R","either","1","87","","","","","","","0","1","0","","0.2","0.5","0.5","","","0.8","0.2","","","","","","","","","","","","","","","","75","K","1","","true","0","80_20_practice",""
"","bandit","20","83817","0.0-18.0-2.0","53876302","wem/bandit_party_2","A2YRYS17DU3A8R","either","1","401","","","","","","","0","0","1","","0.2","0.5","0.5","","","0.8","0.2","","","","","","","","","","","","","","","","75","K","1","","true","0","80_20_practice",""
"","bandit","21","85802","0.0-18.0-3.0","53876302","wem/bandit_party_2","A2YRYS17DU3A8R","either","1","473","","","","","","","1","0","0","0.8","","0.5","0.5","","","","","","","0.8","0.2","","","","","","","","","","","","74","J","0","img/none_selected_demo.jpg","true","0","80_20_practice",""
"","bandit","22","87532","0.0-18.0-4.0","53876302","wem/bandit_party_2","A2YRYS17DU3A8R","either","1","220","","","","","","","1","0","0","0.8","","0.5","0.5","","","","","","","0.8","0.2","","","","","","","","","","","","74","J","0","img/none_selected_demo.jpg","true","0","80_20_practice",""
"","bandit","23","89534","0.0-18.0-5.0","53876302","wem/bandit_party_2","A2YRYS17DU3A8R","either","1","492","","","","","","","0","0","1","","0.2","0.5","0.5","","","0.8","0.2","","","","","","","","","","","","","","","","75","K","1","","true","0","80_20_practice",""
"","bandit","24","91222","0.0-18.0-6.0","53876302","wem/bandit_party_2","A2YRYS17DU3A8R","either","1","178","","","","","","","0","1","0","","0.8","0.5","0.5","","","0.8","0.2","","","","","","","","","","","","","","","","74","J","0","img/none_selected_demo.jpg","true","0","80_20_practice",""
"","bandit","25","93498","0.0-18.0-7.0","53876302","wem/bandit_party_2","A2YRYS17DU3A8R","either","1","766","","","","","","","0","0","1","","0.8","0.5","0.5","","","0.8","0.2","","","","","","","","","","","","","","","","74","J","0","img/none_selected_demo.jpg","true","0","80_20_practice",""
"","bandit","26","96000","0.0-18.0-8.0","53876302","wem/bandit_party_2","A2YRYS17DU3A8R","either","1","988","","","","","","","1","0","0","0.8","","0.5","0.5","","","","","","","0.8","0.2","","","","","","","","","","","","74","J","0","img/none_selected_demo.jpg","true","0","80_20_practice",""
"","bandit","27","97747","0.0-18.0-9.0","53876302","wem/bandit_party_2","A2YRYS17DU3A8R","either","1","237","","","","","","","0","0","1","0.2","","0.5","0.5","","","","","","","0.8","0.2","","","","","","","","","","","","75","K","1","","true","0","80_20_practice",""
"","bandit","28","99662","0.0-18.0-10.0","53876302","wem/bandit_party_2","A2YRYS17DU3A8R","either","1","404","","","","","","","1","0","0","0.8","","0.5","0.5","","","","","","","0.8","0.2","","","","","","","","","","","","74","J","0","img/none_selected_demo.jpg","true","0","80_20_practice",""
"","bandit","29","102068","0.0-18.0-11.0","53876302","wem/bandit_party_2","A2YRYS17DU3A8R","either","1","898","","","","","","","1","0","0","0.8","","0.5","0.5","","","","","","","0.8","0.2","","","","","","","","","","","","74","J","0","img/none_selected_demo.jpg","true","0","80_20_practice",""
"","bandit","30","104630","0.0-18.0-12.0","53876302","wem/bandit_party_2","A2YRYS17DU3A8R","either","1","1053","","","","","","","0","1","0","","0.8","0.5","0.5","","","0.8","0.2","","","","","","","","","","","","","","","","74","J","0","img/none_selected_demo.jpg","true","0","80_20_practice",""
"","bandit","31","106569","0.0-18.0-13.0","53876302","wem/bandit_party_2","A2YRYS17DU3A8R","either","1","427","","","","","","","0","0","1","0.2","","0.5","0.5","","","","","","","0.8","0.2","","","","","","","","","","","","75","K","1","","true","0","80_20_practice",""
"","bandit","32","108798","0.0-18.0-14.0","53876302","wem/bandit_party_2","A2YRYS17DU3A8R","either","1","718","","","","","","","1","0","0","0.8","","0.5","0.5","","","","","","","0.8","0.2","","","","","","","","","","","","74","J","0","img/none_selected_demo.jpg","true","0","80_20_practice",""
"","bandit","33","111676","0.0-18.0-15.0","53876302","wem/bandit_party_2","A2YRYS17DU3A8R","either","1","1365","","","","","","","1","0","0","0.8","","0.5","0.5","","","","","","","0.8","0.2","","","","","","","","","","","","74","J","0","img/none_selected_demo.jpg","true","0","80_20_practice",""
"","bandit","34","114509","0.0-18.0-16.0","53876302","wem/bandit_party_2","A2YRYS17DU3A8R","either","1","1323","","","","","","","1","0","0","0.8","","0.5","0.5","","","","","","","0.8","0.2","","","","","","","","","","","","74","J","0","img/none_selected_demo.jpg","true","0","80_20_practice",""
"","bandit","35","116354","0.0-18.0-17.0","53876302","wem/bandit_party_2","A2YRYS17DU3A8R","either","1","336","","","","","","","1","0","0","0.8","","0.5","0.5","","","","","","","0.8","0.2","","","","","","","","","","","","74","J","0","img/none_selected_demo.jpg","true","0","80_20_practice",""
"","bandit","36","118153","0.0-18.0-18.0","53876302","wem/bandit_party_2","A2YRYS17DU3A8R","either","1","290","","","","","","","1","0","0","0.8","","0.5","0.5","","","","","","","0.8","0.2","","","","","","","","","","","","74","J","0","img/none_selected_demo.jpg","true","0","80_20_practice",""
"","bandit","37","119889","0.0-18.0-19.0","53876302","wem/bandit_party_2","A2YRYS17DU3A8R","either","1","227","","","","","","","1","0","0","0.8","","0.5","0.5","","","","","","","0.8","0.2","","","","","","","","","","","","74","J","0","img/none_selected_demo.jpg","true","0","80_20_practice",""
"","text-replacement","38","122925","0.0-19.0","53876302","wem/bandit_party_2","A2YRYS17DU3A8R","either","1","3035","","","32","","","","","","","","","","","","","","","","","","","","","","","","","","","","","","","","","","","","",""
"","bandit","39","125623","0.0-20.0-0.0","53876302","wem/bandit_party_2","A2YRYS17DU3A8R","either","1","1189","","","","","","","1","0","0","1","0","","","","","0","1","","","1","0","","","","","","","","","","","","74","J","0","img/none_selected_demo.jpg","true","0","",""
"","text-replacement","40","129631","0.0-21.0","53876302","wem/bandit_party_2","A2YRYS17DU3A8R","either","1","4005","","","32","","","","","","","","","","","","","","","","","","","","","","","","","","","","","","","","","","","","",""
"","text-replacement","41","132872","0.0-22.0","53876302","wem/bandit_party_2","A2YRYS17DU3A8R","either","1","3239","","","32","","","","","","","","","","","","","","","","","","","","","","","","","","","","","","","","","","","","",""
"","text-replacement","42","135166","0.0-23.0","53876302","wem/bandit_party_2","A2YRYS17DU3A8R","either","1","2292","","","32","","","","","","","","","","","","","","","","","","","","","","","","","","","","","","","","","","","","",""
"","text-replacement","43","138050","0.0-24.0","53876302","wem/bandit_party_2","A2YRYS17DU3A8R","either","1","2883","","","32","","","","","","","","","","","","","","","","","","","","","","","","","","","","","","","","","","","","",""
"","text-replacement","44","139981","0.0-25.0","53876302","wem/bandit_party_2","A2YRYS17DU3A8R","either","1","1929","","","32","","","","","","","","","","","","","","","","","","","","","","","","","","","","","","","","","","","","",""
"","text-replacement","45","141466","0.0-26.0","53876302","wem/bandit_party_2","A2YRYS17DU3A8R","either","1","1482","","","32","","","","","","","","","","","","","","","","","","","","","","","","","","","","","","","","","","","","",""
"","text-replacement","46","143720","0.0-27.0","53876302","wem/bandit_party_2","A2YRYS17DU3A8R","either","1","2252","","","32","","","","","","","","","","","","","","","","","","","","","","","","","","","","","","","","","","","","",""
"","text-replacement","47","145111","0.0-28.0","53876302","wem/bandit_party_2","A2YRYS17DU3A8R","either","1","1389","","","32","","","","","","","","","","","","","","","","","","","","","","","","","","","","","","","","","","","","",""
"","text-replacement","48","146440","0.0-29.0","53876302","wem/bandit_party_2","A2YRYS17DU3A8R","either","1","1327","","","32","","","","","","","","","","","","","","","","","","","","","","","","","","","","","","","","","","","","",""
"","text-replacement","49","147498","0.0-30.0","53876302","wem/bandit_party_2","A2YRYS17DU3A8R","either","1","1057","","","32","","","","","","","","","","","","","","","","","","","","","","","","","","","","","","","","","","","","",""
"","text-replacement","50","149926","0.0-31.0","53876302","wem/bandit_party_2","A2YRYS17DU3A8R","either","1","2427","","","32","","","","","","","","","","","","","","","","","","","","","","","","","","","","","","","","","","","","",""
"","bandit","51","152491","0.0-32.0-0.0","53876302","wem/bandit_party_2","A2YRYS17DU3A8R","either","1","1055","","","","","","","0","0","1","","0.8","0.5","0.5","0.5","0.5","0.8","0.2","0.6","0.2","","","","","","","","","","","","","","72","H","0","img/none_selected.jpg","true","0","full_practice",""
"","bandit","52","154023","0.0-32.0-1.0","53876302","wem/bandit_party_2","A2YRYS17DU3A8R","either","1","22","","","","","","","0","1","0","","0.6","0.5","0.5","0.5","0.5","0.8","0.2","0.6","0.2","","","","","","","","","","","","","","75","K","2","","true","0","full_practice",""
"","bandit","53","155799","0.0-32.0-2.0","53876302","wem/bandit_party_2","A2YRYS17DU3A8R","either","1","267","","","","","","","0","0","1","0.2","","0.5","0.5","0.5","0.5","","","","","0.8","0.2","0.6","0.2","","","","","","","","","","76","L","3","","true","0","full_practice",""
"","bandit","54","157308","0.0-32.0-3.0","53876302","wem/bandit_party_2","A2YRYS17DU3A8R","either","1","0","","","","","","","0","0","1","0.2","","0.5","0.5","0.5","0.5","","","","","0.8","0.2","0.6","0.2","","","","","","","","","","74","J","1","","true","0","full_practice",""
"","bandit","55","159131","0.0-32.0-4.0","53876302","wem/bandit_party_2","A2YRYS17DU3A8R","either","1","311","","","","","","","0","0","1","0.6","","0.5","0.5","0.5","0.5","","","","","0.8","0.2","0.6","0.2","","","","","","","","","","75","K","2","","true","0","full_practice",""
"","bandit","56","160837","0.0-32.0-5.0","53876302","wem/bandit_party_2","A2YRYS17DU3A8R","either","1","197","","","","","","","0","0","1","","0.8","0.5","0.5","0.5","0.5","0.8","0.2","0.6","0.2","","","","","","","","","","","","","","72","H","0","img/none_selected.jpg","true","0","full_practice",""
"","bandit","57","162636","0.0-32.0-6.0","53876302","wem/bandit_party_2","A2YRYS17DU3A8R","either","1","291","","","","","","","0","0","1","","0.2","0.5","0.5","0.5","0.5","0.8","0.2","0.6","0.2","","","","","","","","","","","","","","76","L","3","","true","0","full_practice",""
"","bandit","58","164506","0.0-32.0-7.0","53876302","wem/bandit_party_2","A2YRYS17DU3A8R","either","1","361","","","","","","","1","0","0","0.6","","0.5","0.5","0.5","0.5","","","","","0.8","0.2","0.6","0.2","","","","","","","","","","75","K","2","","true","0","full_practice",""
"","bandit","59","166379","0.0-32.0-8.0","53876302","wem/bandit_party_2","A2YRYS17DU3A8R","either","1","362","","","","","","","1","0","0","0.2","","0.5","0.5","0.5","0.5","","","","","0.8","0.2","0.6","0.2","","","","","","","","","","74","J","1","","true","0","full_practice",""
"","bandit","60","168060","0.0-32.0-9.0","53876302","wem/bandit_party_2","A2YRYS17DU3A8R","either","1","173","","","","","","","1","0","0","0.8","","0.5","0.5","0.5","0.5","","","","","0.8","0.2","0.6","0.2","","","","","","","","","","72","H","0","img/none_selected.jpg","true","0","full_practice",""
"","bandit","61","171906","0.0-32.0-10.0","53876302","wem/bandit_party_2","A2YRYS17DU3A8R","either","1","2338","","","","","","","0","0","1","","0.8","0.5","0.5","0.5","0.5","0.8","0.2","0.6","0.2","","","","","","","","","","","","","","72","H","0","img/none_selected.jpg","true","0","full_practice",""
"","bandit","62","173617","0.0-32.0-11.0","53876302","wem/bandit_party_2","A2YRYS17DU3A8R","either","1","203","","","","","","","1","0","0","0.2","","0.5","0.5","0.5","0.5","","","","","0.8","0.2","0.6","0.2","","","","","","","","","","74","J","1","","true","0","full_practice",""
"","bandit","63","175438","0.0-32.0-12.0","53876302","wem/bandit_party_2","A2YRYS17DU3A8R","either","1","314","","","","","","","0","0","1","","0.6","0.5","0.5","0.5","0.5","0.8","0.2","0.6","0.2","","","","","","","","","","","","","","75","K","2","","true","0","full_practice",""
"","bandit","64","177198","0.0-32.0-13.0","53876302","wem/bandit_party_2","A2YRYS17DU3A8R","either","1","249","","","","","","","1","0","0","0.2","","0.5","0.5","0.5","0.5","","","","","0.8","0.2","0.6","0.2","","","","","","","","","","76","L","3","","true","0","full_practice",""
"","bandit","65","179023","0.0-32.0-14.0","53876302","wem/bandit_party_2","A2YRYS17DU3A8R","either","1","310","","","","","","","0","0","1","0.6","","0.5","0.5","0.5","0.5","","","","","0.8","0.2","0.6","0.2","","","","","","","","","","75","K","2","","true","0","full_practice",""
"","bandit","66","180571","0.0-32.0-15.0","53876302","wem/bandit_party_2","A2YRYS17DU3A8R","either","1","38","","","","","","","0","0","1","","0.2","0.5","0.5","0.5","0.5","0.8","0.2","0.6","0.2","","","","","","","","","","","","","","76","L","3","","true","0","full_practice",""
"","bandit","67","183118","0.0-32.0-16.0","53876302","wem/bandit_party_2","A2YRYS17DU3A8R","either","1","1034","","","","","","","0","0","1","","0.8","0.5","0.5","0.5","0.5","0.8","0.2","0.6","0.2","","","","","","","","","","","","","","72","H","0","img/none_selected.jpg","true","0","full_practice",""
"","bandit","68","184646","0.0-32.0-17.0","53876302","wem/bandit_party_2","A2YRYS17DU3A8R","either","1","15","","","","","","","1","0","0","0.2","","0.5","0.5","0.5","0.5","","","","","0.8","0.2","0.6","0.2","","","","","","","","","","74","J","1","","true","0","full_practice",""
"","bandit","69","186515","0.0-32.0-18.0","53876302","wem/bandit_party_2","A2YRYS17DU3A8R","either","1","356","","","","","","","0","0","1","0.2","","0.5","0.5","0.5","0.5","","","","","0.8","0.2","0.6","0.2","","","","","","","","","","74","J","1","","true","0","full_practice",""
"","bandit","70","188289","0.0-32.0-19.0","53876302","wem/bandit_party_2","A2YRYS17DU3A8R","either","1","265","","","","","","","0","0","1","0.2","","0.5","0.5","0.5","0.5","","","","","0.8","0.2","0.6","0.2","","","","","","","","","","74","J","1","","true","0","full_practice",""
"","text","71","193985","0.0-33.0","53876302","wem/bandit_party_2","A2YRYS17DU3A8R","either","1","5689","","","32","","","","","","","","","","","","","","","","","","","","","","","","","","","","","","","","","","","","",""
"","text-replacement","72","200187","0.0-34.0","53876302","wem/bandit_party_2","A2YRYS17DU3A8R","either","1","5198","","","32","","","","","","","","","","","","","","","","","","","","","","","","","","","","","","","","","","","","",""
"","text-replacement","73","201950","0.0-35.0","53876302","wem/bandit_party_2","A2YRYS17DU3A8R","either","1","1761","","","32","","","","","","","","","","","","","","","","","","","","","","","","","","","","","","","","","","","","",""
"","text-replacement","74","203116","0.0-36.0","53876302","wem/bandit_party_2","A2YRYS17DU3A8R","either","1","1165","","","32","","","","","","","","","","","","","","","","","","","","","","","","","","","","","","","","","","","","",""
"","text-replacement","75","205637","0.0-37.0","53876302","wem/bandit_party_2","A2YRYS17DU3A8R","either","1","2519","","","32","","","","","","","","","","","","","","","","","","","","","","","","","","","","","","","","","","","","",""
"","text-replacement","76","206581","0.0-38.0","53876302","wem/bandit_party_2","A2YRYS17DU3A8R","either","1","941","","","32","","","","","","","","","","","","","","","","","","","","","","","","","","","","","","","","","","","","",""
"","survey-multi-choice-replacement","77","210309","0.0-39.0-0.0","53876302","wem/bandit_party_2","A2YRYS17DU3A8R","either","1","3722","","","","","","","","","","","","","","","","","","","","","","","","Money will be added to the pool for <span style='color:blue;'>DEMOCRATS</span>","","","","","","","attn_check","","","","","","","","","0"
"","survey-multi-choice-replacement","78","265599","0.0-40.0-0.0","53876302","wem/bandit_party_2","A2YRYS17DU3A8R","either","1","54282","","","","","","","","","","","","","","","","","","","","","","","","Equal amounts of money will be added to the pool for <span style='color:blue;'>DEMOCRATS</span> and subtracted from the pool for <span style='color:red;'>REPUBLICANS</span>","","","","","","","attn_check","","","","","","","","","2"
"","survey-multi-choice-replacement","79","269257","0.0-41.0-0.0","53876302","wem/bandit_party_2","A2YRYS17DU3A8R","either","1","2647","","","","","","","","","","","","","","","","","","","","","","","","No money will be added to either pool","","","","","","","attn_check","","","","","","","","","3"
"","bandit","80","278515","0.0-42.0-0.0","53876302","wem/bandit_party_2","A2YRYS17DU3A8R","either","1","6745","","","","","","","0","1","0","","0.4995060561","0.2","0.6","0.8","0.4","0.4995060561","0.8101107889","0.7674833066","0.5202783506","","","","","","","","","","","","","","72","H","0","img/none_selected.jpg","","1","main_expt",""
"","bandit","81","280430","0.0-43.0-0.0","53876302","wem/bandit_party_2","A2YRYS17DU3A8R","either","1","401","","","","","","","0","1","0","","0.8827976921","0.2","0.6","0.8","0.4","0.4452888422","0.8827976921","0.7786696111","0.4559554218","","","","","","","","","","","","","","74","J","1","","","2","main_expt",""
"","bandit","82","282270","0.0-44.0-0.0","53876302","wem/bandit_party_2","A2YRYS17DU3A8R","either","1","332","","","","","","","0","1","0","","0.4956599627","0.2","0.6","0.8","0.4","0.4956599627","0.918633781","0.7883912796","0.3791335739","","","","","","","","","","","","","","72","H","0","img/none_selected.jpg","","3","main_expt",""
"","bandit","83","284122","0.0-45.0-0.0","53876302","wem/bandit_party_2","A2YRYS17DU3A8R","either","1","338","","","","","","","0","1","0","","0.3939226057","0.2","0.6","0.8","0.4","0.3939226057","0.8961075186","0.8311681014","0.362446662","","","","","","","","","","","","","","72","H","0","img/none_selected.jpg","","4","main_expt",""
"","bandit","84","286188","0.0-46.0-0.0","53876302","wem/bandit_party_2","A2YRYS17DU3A8R","either","1","555","","","","","","","0","0","1","","0.4737796053","0.2","0.6","0.8","0.4","0.4737796053","0.9065038385","0.706748425","0.4337427147","","","","","","","","","","","","","","72","H","0","img/none_selected.jpg","","5","main_expt",""
"","bandit","85","288237","0.0-47.0-0.0","53876302","wem/bandit_party_2","A2YRYS17DU3A8R","either","1","538","","","","","","","1","0","0","0.7246132019","","0.2","0.6","0.8","0.4","","","","","0.5798080576","0.9628954729","0.7246132019","0.4260566605","","","","","","","","","","75","K","2","","","6","main_expt",""
"","bandit","86","290199","0.0-48.0-0.0","53876302","wem/bandit_party_2","A2YRYS17DU3A8R","either","1","447","","","","","","","0","1","0","","0.5595739282","0.2","0.6","0.8","0.4","0.6184433593","0.9244273404","0.822103072","0.5595739282","","","","","","","","","","","","","","76","L","3","","","7","main_expt",""
"","bandit","87","292375","0.0-49.0-0.0","53876302","wem/bandit_party_2","A2YRYS17DU3A8R","either","1","667","","","","","","","0","1","0","","0.5380809204","0.2","0.6","0.8","0.4","0.5380809204","0.9214665689","0.8176183596","0.5757792393","","","","","","","","","","","","","","72","H","0","img/none_selected.jpg","","8","main_expt",""
"","bandit","88","294157","0.0-50.0-0.0","53876302","wem/bandit_party_2","A2YRYS17DU3A8R","either","1","268","","","","","","","0","1","0","","0.9604963414","0.2","0.6","0.8","0.4","0.4884558296","0.9604963414","0.7421782695","0.5508288143","","","","","","","","","","","","","","74","J","1","","","9","main_expt",""
"","bandit","89","297616","0.0-51.0-0.0","53876302","wem/bandit_party_2","A2YRYS17DU3A8R","either","1","1950","","","","","","","1","0","0","0.7112185725","","0.2","0.6","0.8","0.4","","","","","0.6062827564","0.973544224","0.7112185725","0.4615344473","","","","","","","","","","75","K","2","","","10","main_expt",""
"","bandit","90","299531","0.0-52.0-0.0","53876302","wem/bandit_party_2","A2YRYS17DU3A8R","either","1","405","","","","","","","0","0","1","0.4731032433","","0.2","0.6","0.8","0.4","","","","","0.6618996933","0.9756729976","0.6656122322","0.4731032433","","","","","","","","","","76","L","3","","","11","main_expt",""
"","bandit","91","301581","0.0-53.0-0.0","53876302","wem/bandit_party_2","A2YRYS17DU3A8R","either","1","539","","","","","","","0","1","0","","0.6589688621","0.2","0.6","0.8","0.4","0.6589688621","0.9824084628","0.632951522","0.5028989732","","","","","","","","","","","","","","72","H","0","img/none_selected.jpg","","12","main_expt",""
"","bandit","92","303536","0.0-54.0-0.0","53876302","wem/bandit_party_2","A2YRYS17DU3A8R","either","1","445","","","","","","","0","1","0","","0.7483501345","0.2","0.6","0.8","0.4","0.7483501345","0.9852841122","0.6428643634","0.5252386458","","","","","","","","","","","","","","72","H","0","img/none_selected.jpg","","13","main_expt",""
"","bandit","93","305475","0.0-55.0-0.0","53876302","wem/bandit_party_2","A2YRYS17DU3A8R","either","1","426","","","","","","","1","0","0","0.7642220585","","0.2","0.6","0.8","0.4","","","","","0.7642220585","0.9844185579","0.5693663763","0.4883642101","","","","","","","","","","72","H","0","img/none_selected.jpg","","14","main_expt",""
"","bandit","94","307251","0.0-56.0-0.0","53876302","wem/bandit_party_2","A2YRYS17DU3A8R","either","1","263","","","","","","","1","0","0","0.9716790186","","0.2","0.6","0.8","0.4","","","","","0.8255663415","0.9716790186","0.6354763258","0.5125695872","","","","","","","","","","74","J","1","","","15","main_expt",""
"","bandit","95","309073","0.0-57.0-0.0","53876302","wem/bandit_party_2","A2YRYS17DU3A8R","either","1","310","","","","","","","0","0","1","0.8262734196","","0.2","0.6","0.8","0.4","","","","","0.8262734196","0.9724226268","0.6074668868","0.483313844","","","","","","","","","","72","H","0","img/none_selected.jpg","","16","main_expt",""
"","bandit","96","310896","0.0-58.0-0.0","53876302","wem/bandit_party_2","A2YRYS17DU3A8R","either","1","312","","","","","","","0","0","1","0.634379517","","0.2","0.6","0.8","0.4","","","","","0.8957105494","0.969397438","0.634379517","0.4764119597","","","","","","","","","","75","K","2","","","17","main_expt",""
"","bandit","97","312765","0.0-59.0-0.0","53876302","wem/bandit_party_2","A2YRYS17DU3A8R","either","1","356","","","","","","","0","0","1","0.4742144938","","0.2","0.6","0.8","0.4","","","","","0.8243017832","0.9487821198","0.7399013172","0.4742144938","","","","","","","","","","76","L","3","","","18","main_expt",""
"","bandit","98","314559","0.0-60.0-0.0","53876302","wem/bandit_party_2","A2YRYS17DU3A8R","either","1","286","","","","","","","0","1","0","","0.8174393347","0.2","0.6","0.8","0.4","0.8174393347","0.8822386923","0.6892422428","0.5445729057","","","","","","","","","","","","","","72","H","0","img/none_selected.jpg","","19","main_expt",""
"","bandit","99","316160","0.0-61.0-0.0","53876302","wem/bandit_party_2","A2YRYS17DU3A8R","either","1","91","","","","","","","1","0","0","0.8658452863","","0.2","0.6","0.8","0.4","","","","","0.8457625901","0.8658452863","0.5544472153","0.5114357523","","","","","","","","","","74","J","1","","","20","main_expt",""
"","bandit","100","317896","0.0-62.0-0.0","53876302","wem/bandit_party_2","A2YRYS17DU3A8R","either","1","222","","","","","","","0","1","0","","0.8565453533","0.2","0.6","0.8","0.4","0.8565453533","0.8597265301","0.4705077418","0.4948626968","","","","","","","","","","","","","","72","H","0","img/none_selected.jpg","","21","main_expt",""
"","bandit","101","319875","0.0-63.0-0.0","53876302","wem/bandit_party_2","A2YRYS17DU3A8R","either","1","465","","","","","","","0","1","0","","0.8821281293","0.2","0.6","0.8","0.4","0.8821281293","0.929530396","0.5364913494","0.3750889156","","","","","","","","","","","","","","72","H","0","img/none_selected.jpg","","22","main_expt",""
"","bandit","102","322034","0.0-64.0-0.0","53876302","wem/bandit_party_2","A2YRYS17DU3A8R","either","1","646","","","","","","","0","1","0","","0.8253896901","0.2","0.6","0.8","0.4","0.8253896901","0.9149061772","0.5450887529","0.3874093852","","","","","","","","","","","","","","72","H","0","img/none_selected.jpg","","23","main_expt",""
"","bandit","103","323857","0.0-65.0-0.0","53876302","wem/bandit_party_2","A2YRYS17DU3A8R","either","1","310","","","","","","","1","0","0","0.8682133559","","0.2","0.6","0.8","0.4","","","","","0.8682133559","0.9389899916","0.6013055931","0.4126546177","","","","","","","","","","72","H","0","img/none_selected.jpg","","24","main_expt",""
"","bandit","104","325498","0.0-66.0-0.0","53876302","wem/bandit_party_2","A2YRYS17DU3A8R","either","1","129","","","","","","","1","0","0","0.9583062328","","0.2","0.6","0.8","0.4","","","","","0.8186134727","0.9583062328","0.7116226269","0.3871809826","","","","","","","","","","74","J","1","","","25","main_expt",""
"","bandit","105","327119","0.0-67.0-0.0","53876302","wem/bandit_party_2","A2YRYS17DU3A8R","either","1","107","","","","","","","0","1","0","","0.841170918","0.2","0.6","0.8","0.4","0.841170918","0.9349434311","0.7284905038","0.4162773602","","","","","","","","","","","","","","72","H","0","img/none_selected.jpg","","26","main_expt",""
"","bandit","106","328848","0.0-68.0-0.0","53876302","wem/bandit_party_2","A2YRYS17DU3A8R","either","1","219","","","","","","","1","0","0","0.9147743466","","0.2","0.6","0.8","0.4","","","","","0.8332298301","0.9147743466","0.7007901837","0.4153433109","","","","","","","","","","74","J","1","","","27","main_expt",""
"","bandit","107","330764","0.0-69.0-0.0","53876302","wem/bandit_party_2","A2YRYS17DU3A8R","either","1","402","","","","","","","0","0","1","","0.8340804883","0.2","0.6","0.8","0.4","0.8340804883","0.8913744663","0.7197690037","0.3083156359","","","","","","","","","","","","","","72","H","0","img/none_selected.jpg","","28","main_expt",""
"","bandit","108","332539","0.0-70.0-0.0","53876302","wem/bandit_party_2","A2YRYS17DU3A8R","either","1","266","","","","","","","1","0","0","0.7569205749","","0.2","0.6","0.8","0.4","","","","","0.8800986549","0.9004815278","0.7569205749","0.4048150761","","","","","","","","","","75","K","2","","","29","main_expt",""
"","bandit","109","334251","0.0-71.0-0.0","53876302","wem/bandit_party_2","A2YRYS17DU3A8R","either","1","200","","","","","","","0","1","0","","0.5604470694","0.2","0.6","0.8","0.4","0.800988266","0.8335499875","0.7007062976","0.5604470694","","","","","","","","","","","","","","76","L","3","","","30","main_expt",""
"","bandit","110","336251","0.0-72.0-0.0","53876302","wem/bandit_party_2","A2YRYS17DU3A8R","either","1","491","","","","","","","1","0","0","0.5114456598","","0.2","0.6","0.8","0.4","","","","","0.8092707987","0.7904098286","0.6218809145","0.5114456598","","","","","","","","","","76","L","3","","","31","main_expt",""
"","bandit","111","339470","0.0-73.0-0.0","53876302","wem/bandit_party_2","A2YRYS17DU3A8R","either","1","1707","","","","","","","0","1","0","","0.7600689364","0.2","0.6","0.8","0.4","0.7600689364","0.8156470634","0.5448888872","0.5195843055","","","","","","","","","","","","","","72","H","0","img/none_selected.jpg","","32","main_expt",""
"","bandit","112","341289","0.0-74.0-0.0","53876302","wem/bandit_party_2","A2YRYS17DU3A8R","either","1","312","","","","","","","0","1","0","","0.7268405739","0.2","0.6","0.8","0.4","0.7268405739","0.7458483223","0.4396040002","0.4278216128","","","","","","","","","","","","","","72","H","0","img/none_selected.jpg","","33","main_expt",""
"","bandit","113","343068","0.0-75.0-0.0","53876302","wem/bandit_party_2","A2YRYS17DU3A8R","either","1","269","","","","","","","0","1","0","","0.7867385379","0.2","0.6","0.8","0.4","0.7867385379","0.8745519215","0.3418027302","0.4581725564","","","","","","","","","","","","","","72","H","0","img/none_selected.jpg","","34","main_expt",""
"","bandit","114","344780","0.0-76.0-0.0","53876302","wem/bandit_party_2","A2YRYS17DU3A8R","either","1","200","","","","","","","1","0","0","0.8761773117","","0.2","0.6","0.8","0.4","","","","","0.7776722478","0.8761773117","0.3770378826","0.5170179058","","","","","","","","","","74","J","1","","","35","main_expt",""
"","bandit","115","346493","0.0-77.0-0.0","53876302","wem/bandit_party_2","A2YRYS17DU3A8R","either","1","203","","","","","","","0","0","1","","0.8110731924","0.2","0.6","0.8","0.4","0.8110731924","0.8898579413","0.3264650107","0.5761285305","","","","","","","","","","","","","","72","H","0","img/none_selected.jpg","","36","main_expt",""
"","bandit","116","348019","0.0-78.0-0.0","53876302","wem/bandit_party_2","A2YRYS17DU3A8R","either","1","16","","","","","","","0","0","1","0.1696248696","","0.2","0.6","0.8","0.4","","","","","0.8371501114","0.9189960073","0.1696248696","0.5824592389","","","","","","","","","","75","K","2","","","37","main_expt",""
"","bandit","117","349958","0.0-79.0-0.0","53876302","wem/bandit_party_2","A2YRYS17DU3A8R","either","1","424","","","","","","","0","1","0","","0.801984358","0.2","0.6","0.8","0.4","0.801984358","0.9429067042","0.3008725236","0.5039158184","","","","","","","","","","","","","","72","H","0","img/none_selected.jpg","","38","main_expt",""
"","bandit","118","351798","0.0-80.0-0.0","53876302","wem/bandit_party_2","A2YRYS17DU3A8R","either","1","331","","","","","","","0","1","0","","0.836760671","0.2","0.6","0.8","0.4","0.836760671","0.8860185862","0.3612597963","0.4906961915","","","","","","","","","","","","","","72","H","0","img/none_selected.jpg","","39","main_expt",""
"","bandit","119","353667","0.0-81.0-0.0","53876302","wem/bandit_party_2","A2YRYS17DU3A8R","either","1","358","","","","","","","0","1","0","","0.7930168878","0.2","0.6","0.8","0.4","0.7930168878","0.8958725565","0.3316001813","0.5118773476","","","","","","","","","","","","","","72","H","0","img/none_selected.jpg","","40","main_expt",""
"","bandit","120","355448","0.0-82.0-0.0","53876302","wem/bandit_party_2","A2YRYS17DU3A8R","either","1","268","","","","","","","0","1","0","","0.6758505439","0.2","0.6","0.8","0.4","0.6758505439","0.8369757826","0.251761063","0.5207000815","","","","","","","","","","","","","","72","H","0","img/none_selected.jpg","","41","main_expt",""
"","bandit","121","357224","0.0-83.0-0.0","53876302","wem/bandit_party_2","A2YRYS17DU3A8R","either","1","264","","","","","","","0","1","0","","0.669091732","0.2","0.6","0.8","0.4","0.669091732","0.8724413244","0.3764367217","0.6208632684","","","","","","","","","","","","","","72","H","0","img/none_selected.jpg","","42","main_expt",""
"","bandit","122","358931","0.0-84.0-0.0","53876302","wem/bandit_party_2","A2YRYS17DU3A8R","either","1","198","","","","","","","0","0","1","","0.5774386383","0.2","0.6","0.8","0.4","0.5774386383","0.8721156492","0.4280411123","0.6736877605","","","","","","","","","","","","","","72","H","0","img/none_selected.jpg","","43","main_expt",""
"","bandit","123","360776","0.0-85.0-0.0","53876302","wem/bandit_party_2","A2YRYS17DU3A8R","either","1","336","","","","","","","1","0","0","0.874486911","","0.2","0.6","0.8","0.4","","","","","0.5402750746","0.874486911","0.4250007774","0.6770598463","","","","","","","","","","74","J","1","","","44","main_expt",""
"","bandit","124","362535","0.0-86.0-0.0","53876302","wem/bandit_party_2","A2YRYS17DU3A8R","either","1","245","","","","","","","0","1","0","","0.4769525635","0.2","0.6","0.8","0.4","0.4769525635","0.7653026016","0.3964774122","0.6811336834","","","","","","","","","","","","","","72","H","0","img/none_selected.jpg","","45","main_expt",""
"","bandit","125","364467","0.0-87.0-0.0","53876302","wem/bandit_party_2","A2YRYS17DU3A8R","either","1","421","","","","","","","0","0","1","","0.460739512","0.2","0.6","0.8","0.4","0.460739512","0.6884850605","0.3755541509","0.7409040253","","","","","","","","","","","","","","72","H","0","img/none_selected.jpg","","46","main_expt",""
"","bandit","126","366291","0.0-88.0-0.0","53876302","wem/bandit_party_2","A2YRYS17DU3A8R","either","1","313","","","","","","","0","0","1","0.3953603582","","0.2","0.6","0.8","0.4","","","","","0.3953603582","0.6869729855","0.3698766084","0.8602274841","","","","","","","","","","72","H","0","img/none_selected.jpg","","47","main_expt",""
"","bandit","127","367933","0.0-89.0-0.0","53876302","wem/bandit_party_2","A2YRYS17DU3A8R","either","1","131","","","","","","","0","0","1","","0.5194217752","0.2","0.6","0.8","0.4","0.5194217752","0.624749708","0.2924141828","0.8947369126","","","","","","","","","","","","","","72","H","0","img/none_selected.jpg","","48","main_expt",""
"","bandit","128","370005","0.0-90.0-0.0","53876302","wem/bandit_party_2","A2YRYS17DU3A8R","either","1","559","","","","","","","0","0","1","0.5015721984","","0.2","0.6","0.8","0.4","","","","","0.5015721984","0.6269608649","0.2506794134","0.9071052574","","","","","","","","","","72","H","0","img/none_selected.jpg","","49","main_expt",""
"","bandit","129","371578","0.0-91.0-0.0","53876302","wem/bandit_party_2","A2YRYS17DU3A8R","either","1","61","","","","","","","0","0","1","","0.4427204185","0.2","0.6","0.8","0.4","0.4427204185","0.5394470416","0.2200095001","0.8569531155","","","","","","","","","","","","","","72","H","0","img/none_selected.jpg","","50","main_expt",""
"","bandit","130","373355","0.0-92.0-0.0","53876302","wem/bandit_party_2","A2YRYS17DU3A8R","either","1","266","","","","","","","0","0","1","","0.5194544998","0.2","0.6","0.8","0.4","0.5194544998","0.4991806479","0.2703780474","0.8728609703","","","","","","","","","","","","","","72","H","0","img/none_selected.jpg","","51","main_expt",""
"","bandit","131","375315","0.0-93.0-0.0","53876302","wem/bandit_party_2","A2YRYS17DU3A8R","either","1","446","","","","","","","0","0","1","","0.3215640211","0.2","0.6","0.8","0.4","0.4420680866","0.5431464126","0.3215640211","0.902184381","","","","","","","","","","","","","","75","K","2","","","52","main_expt",""
"","bandit","132","377475","0.0-94.0-0.0","53876302","wem/bandit_party_2","A2YRYS17DU3A8R","either","1","649","","","","","","","1","0","0","0.8975054296","","0.2","0.6","0.8","0.4","","","","","0.5541791803","0.4799783957","0.2918797996","0.8975054296","","","","","","","","","","76","L","3","","","53","main_expt",""
"","bandit","133","379321","0.0-95.0-0.0","53876302","wem/bandit_party_2","A2YRYS17DU3A8R","either","1","332","","","","","","","0","0","1","0.6187664305","","0.2","0.6","0.8","0.4","","","","","0.6187664305","0.3946877269","0.2432815539","0.9436546011","","","","","","","","","","72","H","0","img/none_selected.jpg","","54","main_expt",""
"","bandit","134","381526","0.0-96.0-0.0","53876302","wem/bandit_party_2","A2YRYS17DU3A8R","either","1","690","","","","","","","0","0","1","0.3892466866","","0.2","0.6","0.8","0.4","","","","","0.538030076","0.3892466866","0.1993500609","0.9411334538","","","","","","","","","","74","J","1","","","55","main_expt",""
"","bandit","135","383575","0.0-97.0-0.0","53876302","wem/bandit_party_2","A2YRYS17DU3A8R","either","1","537","","","","","","","0","0","1","","0.1832364248","0.2","0.6","0.8","0.4","0.5137881872","0.347268188","0.1832364248","0.862285227","","","","","","","","","","","","","","75","K","2","","","56","main_expt",""
"","bandit","136","385171","0.0-98.0-0.0","53876302","wem/bandit_party_2","A2YRYS17DU3A8R","either","1","81","","","","","","","0","1","0","","0.9034803314","0.2","0.6","0.8","0.4","0.6274604021","0.3462231845","0.1703919496","0.9034803314","","","","","","","","","","","","","","76","L","3","","","57","main_expt",""
"","bandit","137","386970","0.0-99.0-0.0","53876302","wem/bandit_party_2","A2YRYS17DU3A8R","either","1","286","","","","","","","0","1","0","","0.9062052911","0.2","0.6","0.8","0.4","0.5636132077","0.3707442777","0.2146973212","0.9062052911","","","","","","","","","","","","","","76","L","3","","","58","main_expt",""
"","bandit","138","388705","0.0-100.0-0.0","53876302","wem/bandit_party_2","A2YRYS17DU3A8R","either","1","221","","","","","","","0","1","0","","0.9169546289","0.2","0.6","0.8","0.4","0.6555757088","0.4530366532","0.2118107272","0.9169546289","","","","","","","","","","","","","","76","L","3","","","59","main_expt",""
"","bandit","139","390522","0.0-101.0-0.0","53876302","wem/bandit_party_2","A2YRYS17DU3A8R","either","1","307","","","","","","","1","0","0","0.9048679239","","0.2","0.6","0.8","0.4","","","","","0.6555481193","0.4335409142","0.2096036334","0.9048679239","","","","","","","","","","76","L","3","","","60","main_expt",""
"","bandit","140","392258","0.0-102.0-0.0","53876302","wem/bandit_party_2","A2YRYS17DU3A8R","either","1","223","","","","","","","0","0","1","0.1985607356","","0.2","0.6","0.8","0.4","","","","","0.6988977931","0.3601573371","0.1985607356","0.9346572725","","","","","","","","","","75","K","2","","","61","main_expt",""
"","bandit","141","394167","0.0-103.0-0.0","53876302","wem/bandit_party_2","A2YRYS17DU3A8R","either","1","399","","","","","","","1","0","0","0.3187004912","","0.2","0.6","0.8","0.4","","","","","0.6124712875","0.3187004912","0.2352246004","0.9332729597","","","","","","","","","","74","J","1","","","62","main_expt",""
"","bandit","142","395856","0.0-104.0-0.0","53876302","wem/bandit_party_2","A2YRYS17DU3A8R","either","1","178","","","","","","","0","1","0","","0.4881994696","0.2","0.6","0.8","0.4","0.4881994696","0.331276396","0.1989126294","0.9300142507","","","","","","","","","","","","","","72","H","0","img/none_selected.jpg","","63","main_expt",""
"","bandit","143","397633","0.0-105.0-0.0","53876302","wem/bandit_party_2","A2YRYS17DU3A8R","either","1","267","","","","","","","0","1","0","","0.5007509184","0.2","0.6","0.8","0.4","0.5007509184","0.3984677","0.2231035509","0.8992917639","","","","","","","","","","","","","","72","H","0","img/none_selected.jpg","","64","main_expt",""
"","bandit","144","399635","0.0-106.0-0.0","53876302","wem/bandit_party_2","A2YRYS17DU3A8R","either","1","492","","","","","","","0","0","1","","0.6077525222","0.2","0.6","0.8","0.4","0.6077525222","0.3012021372","0.174077904","0.7939475476","","","","","","","","","","","","","","72","H","0","img/none_selected.jpg","","65","main_expt",""
"","bandit","145","401481","0.0-107.0-0.0","53876302","wem/bandit_party_2","A2YRYS17DU3A8R","either","1","334","","","","","","","1","0","0","0.1505104035","","0.2","0.6","0.8","0.4","","","","","0.4876759876","0.2848395029","0.1505104035","0.7848839068","","","","","","","","","","75","K","2","","","66","main_expt",""
"","bandit","146","403170","0.0-108.0-0.0","53876302","wem/bandit_party_2","A2YRYS17DU3A8R","either","1","176","","","","","","","0","0","1","0.7712869283","","0.2","0.6","0.8","0.4","","","","","0.4705728971","0.2908363747","0.1706094741","0.7712869283","","","","","","","","","","76","L","3","","","67","main_expt",""
"","bandit","147","405079","0.0-109.0-0.0","53876302","wem/bandit_party_2","A2YRYS17DU3A8R","either","1","400","","","","","","","0","0","1","0.3226378352","","0.2","0.6","0.8","0.4","","","","","0.5822594153","0.3226378352","0.193375558","0.7426915226","","","","","","","","","","74","J","1","","","68","main_expt",""
"","bandit","148","407447","0.0-110.0-0.0","53876302","wem/bandit_party_2","A2YRYS17DU3A8R","either","1","857","","","","","","","0","1","0","","0.6189715015","0.2","0.6","0.8","0.4","0.6189715015","0.4490581071","0.226811003","0.592712881","","","","","","","","","","","","","","72","H","0","img/none_selected.jpg","","69","main_expt",""
"","bandit","149","413611","0.0-111.0-0.0","53876302","wem/bandit_party_2","A2YRYS17DU3A8R","either","1","4651","","","","","","","0","0","1","","0.5307799745","0.2","0.6","0.8","0.4","0.5307799745","0.42365523","0.191142909","0.6587085967","","","","","","","","","","","","","","72","H","0","img/none_selected.jpg","","70","main_expt",""
"","bandit","150","415456","0.0-112.0-0.0","53876302","wem/bandit_party_2","A2YRYS17DU3A8R","either","1","329","","","","","","","1","0","0","0.427101634","","0.2","0.6","0.8","0.4","","","","","0.5205551237","0.427101634","0.2371486809","0.7562029562","","","","","","","","","","74","J","1","","","71","main_expt",""
"","bandit","151","417303","0.0-113.0-0.0","53876302","wem/bandit_party_2","A2YRYS17DU3A8R","either","1","335","","","","","","","0","0","1","0.5387899421","","0.2","0.6","0.8","0.4","","","","","0.5913901284","0.5387899421","0.2602117984","0.670676276","","","","","","","","","","74","J","1","","","72","main_expt",""
"","bandit","152","418939","0.0-114.0-0.0","53876302","wem/bandit_party_2","A2YRYS17DU3A8R","either","1","127","","","","","","","1","0","0","0.6870219419","","0.2","0.6","0.8","0.4","","","","","0.7127465592","0.4931252492","0.1837165363","0.6870219419","","","","","","","","","","76","L","3","","","73","main_expt",""
"","bandit","153","420587","0.0-115.0-0.0","53876302","wem/bandit_party_2","A2YRYS17DU3A8R","either","1","133","","","","","","","1","0","0","0.2032334464","","0.2","0.6","0.8","0.4","","","","","0.7804212289","0.3888626504","0.2032334464","0.582898469","","","","","","","","","","75","K","2","","","74","main_expt",""
"","bandit","154","422271","0.0-116.0-0.0","53876302","wem/bandit_party_2","A2YRYS17DU3A8R","either","1","172","","","","","","","0","1","0","","0.6452442043","0.2","0.6","0.8","0.4","0.7966502287","0.3866429177","0.2782751631","0.6452442043","","","","","","","","","","","","","","76","L","3","","","75","main_expt",""
"","bandit","155","423913","0.0-117.0-0.0","53876302","wem/bandit_party_2","A2YRYS17DU3A8R","either","1","131","","","","","","","0","0","1","","0.7031137023","0.2","0.6","0.8","0.4","0.7775959854","0.3948468247","0.3318782676","0.7031137023","","","","","","","","","","","","","","76","L","3","","","76","main_expt",""
"","bandit","156","425532","0.0-118.0-0.0","53876302","wem/bandit_party_2","A2YRYS17DU3A8R","either","1","109","","","","","","","0","0","1","","0.312607664","0.2","0.6","0.8","0.4","0.8523583745","0.4853082722","0.312607664","0.6096498107","","","","","","","","","","","","","","75","K","2","","","77","main_expt",""
"","bandit","157","427153","0.0-119.0-0.0","53876302","wem/bandit_party_2","A2YRYS17DU3A8R","either","1","111","","","","","","","1","0","0","0.4971609959","","0.2","0.6","0.8","0.4","","","","","0.7707034136","0.4971609959","0.3250695504","0.532302087","","","","","","","","","","74","J","1","","","78","main_expt",""
"","bandit","158","429583","0.0-120.0-0.0","53876302","wem/bandit_party_2","A2YRYS17DU3A8R","either","1","921","","","","","","","1","0","0","0.7919080975","","0.2","0.6","0.8","0.4","","","","","0.7919080975","0.5349041547","0.277144637","0.4448734945","","","","","","","","","","72","H","0","img/none_selected.jpg","","79","main_expt",""
"","bandit","159","431204","0.0-121.0-0.0","53876302","wem/bandit_party_2","A2YRYS17DU3A8R","either","1","109","","","","","","","0","0","1","0.4713204996","","0.2","0.6","0.8","0.4","","","","","0.8107458935","0.4713204996","0.293018971","0.34513516","","","","","","","","","","74","J","1","","","80","main_expt",""
"","bandit","160","433929","0.0-122.0-0.0","53876302","wem/bandit_party_2","A2YRYS17DU3A8R","either","1","1212","","","","","","","0","0","1","0.2730851157","","0.2","0.6","0.8","0.4","","","","","0.7851591746","0.4132476049","0.2730851157","0.406584365","","","","","","","","","","75","K","2","","","81","main_expt",""
"","bandit","161","440182","0.0-123.0-0.0","53876302","wem/bandit_party_2","A2YRYS17DU3A8R","either","1","4741","","","","","","","0","0","1","0.4640808921","","0.2","0.6","0.8","0.4","","","","","0.8067558171","0.4640808921","0.2436011542","0.5068312928","","","","","","","","","","74","J","1","","","82","main_expt",""
"","bandit","162","442138","0.0-124.0-0.0","53876302","wem/bandit_party_2","A2YRYS17DU3A8R","either","1","445","","","","","","","0","0","1","","0.442115463","0.2","0.6","0.8","0.4","0.7777816444","0.442115463","0.2009218657","0.5209063211","","","","","","","","","","","","","","74","J","1","","","83","main_expt",""
"","bandit","163","443677","0.0-125.0-0.0","53876302","wem/bandit_party_2","A2YRYS17DU3A8R","either","1","24","","","","","","","0","0","1","0.1550904625","","0.2","0.6","0.8","0.4","","","","","0.7801041195","0.5117806844","0.1550904625","0.6221591745","","","","","","","","","","75","K","2","","","84","main_expt",""
"","bandit","164","445337","0.0-126.0-0.0","53876302","wem/bandit_party_2","A2YRYS17DU3A8R","either","1","148","","","","","","","0","0","1","","0.6939346182","0.2","0.6","0.8","0.4","0.7593249252","0.5309627618","0.1193398435","0.6939346182","","","","","","","","","","","","","","76","L","3","","","85","main_expt",""
"","bandit","165","447878","0.0-127.0-0.0","53876302","wem/bandit_party_2","A2YRYS17DU3A8R","either","1","1029","","","","","","","0","1","0","","0.7911667705","0.2","0.6","0.8","0.4","0.7911667705","0.5482659382","0.1398572341","0.7533471596","","","","","","","","","","","","","","72","H","0","img/none_selected.jpg","","86","main_expt",""
"","bandit","166","451163","0.0-128.0-0.0","53876302","wem/bandit_party_2","A2YRYS17DU3A8R","either","1","1773","","","","","","","0","0","1","0.4772076429","","0.2","0.6","0.8","0.4","","","","","0.8480662183","0.4772076429","0.1941505275","0.8040573679","","","","","","","","","","74","J","1","","","87","main_expt",""
"","bandit","167","453009","0.0-129.0-0.0","53876302","wem/bandit_party_2","A2YRYS17DU3A8R","either","1","333","","","","","","","0","1","0","","0.8110462569","0.2","0.6","0.8","0.4","0.8110462569","0.5202977678","0.09645570925","0.7800800897","","","","","","","","","","","","","","72","H","0","img/none_selected.jpg","","88","main_expt",""
"","bandit","168","455145","0.0-130.0-0.0","53876302","wem/bandit_party_2","A2YRYS17DU3A8R","either","1","624","","","","","","","1","0","0","0.7924414871","","0.2","0.6","0.8","0.4","","","","","0.7924414871","0.4970482359","0.1304326216","0.7329239748","","","","","","","","","","72","H","0","img/none_selected.jpg","","89","main_expt",""
"","bandit","169","457751","0.0-131.0-0.0","53876302","wem/bandit_party_2","A2YRYS17DU3A8R","either","1","1097","","","","","","","1","0","0","0.7202813078","","0.2","0.6","0.8","0.4","","","","","0.8190855249","0.4671205494","0.1410434261","0.7202813078","","","","","","","","","","76","L","3","","","90","main_expt",""
"","bandit","170","461199","0.0-132.0-0.0","53876302","wem/bandit_party_2","A2YRYS17DU3A8R","either","1","1936","","","","","","","1","0","0","0.858270253","","0.2","0.6","0.8","0.4","","","","","0.858270253","0.5518401665","0.1277095213","0.698586111","","","","","","","","","","72","H","0","img/none_selected.jpg","","91","main_expt",""
"","bandit","171","462725","0.0-133.0-0.0","53876302","wem/bandit_party_2","A2YRYS17DU3A8R","either","1","17","","","","","","","1","0","0","0.620788192","","0.2","0.6","0.8","0.4","","","","","0.8583259383","0.620788192","0.08596821216","0.6054304462","","","","","","","","","","74","J","1","","","92","main_expt",""
"","bandit","172","464624","0.0-134.0-0.0","53876302","wem/bandit_party_2","A2YRYS17DU3A8R","either","1","385","","","","","","","0","0","1","0.05652587691","","0.2","0.6","0.8","0.4","","","","","0.8335107661","0.679669404","0.05652587691","0.6829204303","","","","","","","","","","75","K","2","","","93","main_expt",""
"","bandit","173","468286","0.0-135.0-0.0","53876302","wem/bandit_party_2","A2YRYS17DU3A8R","either","1","2148","","","","","","","0","0","1","","0.8849423118","0.2","0.6","0.8","0.4","0.8849423118","0.6726581754","0.07490457358","0.6084783934","","","","","","","","","","","","","","72","H","0","img/none_selected.jpg","","94","main_expt",""
"","bandit","174","470288","0.0-136.0-0.0","53876302","wem/bandit_party_2","A2YRYS17DU3A8R","either","1","493","","","","","","","0","0","1","","0.51962455","0.2","0.6","0.8","0.4","0.9175662658","0.5983950962","0.05201682933","0.51962455","","","","","","","","","","","","","","76","L","3","","","95","main_expt",""
"","bandit","175","472720","0.0-137.0-0.0","53876302","wem/bandit_party_2","A2YRYS17DU3A8R","either","1","917","","","","","","","0","1","0","","0.8726153548","0.2","0.6","0.8","0.4","0.8726153548","0.6316158747","0.0353667714","0.453067158","","","","","","","","","","","","","","72","H","0","img/none_selected.jpg","","96","main_expt",""
"","bandit","176","474403","0.0-138.0-0.0","53876302","wem/bandit_party_2","A2YRYS17DU3A8R","either","1","173","","","","","","","0","0","1","0.6660601513","","0.2","0.6","0.8","0.4","","","","","0.7260562137","0.6660601513","0.04301306848","0.4090095009","","","","","","","","","","74","J","1","","","97","main_expt",""
"","bandit","177","476226","0.0-139.0-0.0","53876302","wem/bandit_party_2","A2YRYS17DU3A8R","either","1","312","","","","","","","0","0","1","","0.6506148609","0.2","0.6","0.8","0.4","0.6506148609","0.6185462561","0.03950067624","0.360727585","","","","","","","","","","","","","","72","H","0","img/none_selected.jpg","","98","main_expt",""
"","bandit","178","478120","0.0-140.0-0.0","53876302","wem/bandit_party_2","A2YRYS17DU3A8R","either","1","380","","","","","","","0","0","1","0.03156699585","","0.2","0.6","0.8","0.4","","","","","0.5816342488","0.581128502","0.03156699585","0.3351327477","","","","","","","","","","75","K","2","","","99","main_expt",""
"","bandit","179","479894","0.0-141.0-0.0","53876302","wem/bandit_party_2","A2YRYS17DU3A8R","either","1","263","","","","","","","1","0","0","0.3491912274","","0.2","0.6","0.8","0.4","","","","","0.5521464449","0.479775063","0.0248161238","0.3491912274","","","","","","","","","","76","L","3","","","100","main_expt",""
"","bandit","180","481629","0.0-142.0-0.0","53876302","wem/bandit_party_2","A2YRYS17DU3A8R","either","1","222","","","","","","","0","0","1","","0.4105375765","0.2","0.6","0.8","0.4","0.6063232436","0.5114647241","0.02218075004","0.4105375765","","","","","","","","","","","","","","76","L","3","","","101","main_expt",""
"","bandit","181","483498","0.0-143.0-0.0","53876302","wem/bandit_party_2","A2YRYS17DU3A8R","either","1","355","","","","","","","0","1","0","","0.5636213764","0.2","0.6","0.8","0.4","0.5636213764","0.4718740674","0.01802152149","0.438632671","","","","","","","","","","","","","","72","H","0","img/none_selected.jpg","","102","main_expt",""
"","bandit","182","485391","0.0-144.0-0.0","53876302","wem/bandit_party_2","A2YRYS17DU3A8R","either","1","378","","","","","","","0","0","1","","0.5370473259","0.2","0.6","0.8","0.4","0.5370473259","0.5245129891","0.01877214671","0.372838406","","","","","","","","","","","","","","72","H","0","img/none_selected.jpg","","103","main_expt",""
"","bandit","183","487253","0.0-145.0-0.0","53876302","wem/bandit_party_2","A2YRYS17DU3A8R","either","1","354","","","","","","","0","0","1","","0.549647281","0.2","0.6","0.8","0.4","0.549647281","0.5170751474","0.01556743346","0.3057692375","","","","","","","","","","","","","","72","H","0","img/none_selected.jpg","","104","main_expt",""
"","bandit","184","489053","0.0-146.0-0.0","53876302","wem/bandit_party_2","A2YRYS17DU3A8R","either","1","287","","","","","","","0","0","1","0.03717147126","","0.2","0.6","0.8","0.4","","","","","0.4225976111","0.472330124","0.03717147126","0.37369274","","","","","","","","","","75","K","2","","","105","main_expt",""
"","bandit","185","490810","0.0-147.0-0.0","53876302","wem/bandit_party_2","A2YRYS17DU3A8R","either","1","247","","","","","","","1","0","0","0.568133852","","0.2","0.6","0.8","0.4","","","","","0.5005163425","0.568133852","0.07687033395","0.3179799449","","","","","","","","","","74","J","1","","","106","main_expt",""
"","bandit","186","492674","0.0-148.0-0.0","53876302","wem/bandit_party_2","A2YRYS17DU3A8R","either","1","354","","","","","","","0","0","1","","0.3053765494","0.2","0.6","0.8","0.4","0.3995396385","0.536018559","0.07659049968","0.3053765494","","","","","","","","","","","","","","76","L","3","","","107","main_expt",""
"","bandit","187","494230","0.0-149.0-0.0","53876302","wem/bandit_party_2","A2YRYS17DU3A8R","either","1","41","","","","","","","0","0","1","","0.3880888981","0.2","0.6","0.8","0.4","0.3855926336","0.3880888981","0.07827602418","0.2732860947","","","","","","","","","","","","","","74","J","1","","","108","main_expt",""
"","bandit","188","495982","0.0-150.0-0.0","53876302","wem/bandit_party_2","A2YRYS17DU3A8R","either","1","241","","","","","","","0","0","1","0.1352418701","","0.2","0.6","0.8","0.4","","","","","0.3059937163","0.3675045314","0.1352418701","0.2624197952","","","","","","","","","","75","K","2","","","109","main_expt",""
"","bandit","189","497602","0.0-151.0-0.0","53876302","wem/bandit_party_2","A2YRYS17DU3A8R","either","1","111","","","","","","","0","0","1","","0.2752892785","0.2","0.6","0.8","0.4","0.2752892785","0.4560700489","0.1705666919","0.3303210632","","","","","","","","","","","","","","72","H","0","img/none_selected.jpg","","110","main_expt",""
"","bandit","190","499360","0.0-152.0-0.0","53876302","wem/bandit_party_2","A2YRYS17DU3A8R","either","1","242","","","","","","","0","0","1","0.2202970635","","0.2","0.6","0.8","0.4","","","","","0.3038626008","0.5366389876","0.2202970635","0.3541452024","","","","","","","","","","75","K","2","","","111","main_expt",""
"","bandit","191","500980","0.0-153.0-0.0","53876302","wem/bandit_party_2","A2YRYS17DU3A8R","either","1","105","","","","","","","0","1","0","","0.4468573219","0.2","0.6","0.8","0.4","0.2308866464","0.5742054707","0.2368742277","0.4468573219","","","","","","","","","","","","","","76","L","3","","","112","main_expt",""
"","bandit","192","502803","0.0-154.0-0.0","53876302","wem/bandit_party_2","A2YRYS17DU3A8R","either","1","308","","","","","","","0","1","0","","0.5163231944","0.2","0.6","0.8","0.4","0.2420052043","0.6014260319","0.2487241586","0.5163231944","","","","","","","","","","","","","","76","L","3","","","113","main_expt",""
"","bandit","193","504533","0.0-155.0-0.0","53876302","wem/bandit_party_2","A2YRYS17DU3A8R","either","1","218","","","","","","","0","0","1","0.4064640458","","0.2","0.6","0.8","0.4","","","","","0.3277817495","0.5398035654","0.238824581","0.4064640458","","","","","","","","","","76","L","3","","","114","main_expt",""
"","bandit","194","506128","0.0-156.0-0.0","53876302","wem/bandit_party_2","A2YRYS17DU3A8R","either","1","86","","","","","","","0","0","1","0.5008208772","","0.2","0.6","0.8","0.4","","","","","0.3280884562","0.5008208772","0.1480638281","0.4085425191","","","","","","","","","","74","J","1","","","115","main_expt",""
"","bandit","195","508896","0.0-157.0-0.0","53876302","wem/bandit_party_2","A2YRYS17DU3A8R","either","1","1260","","","","","","","1","0","0","0.4200837231","","0.2","0.6","0.8","0.4","","","","","0.4137256642","0.4200837231","0.1246447603","0.4412864427","","","","","","","","","","74","J","1","","","116","main_expt",""
"","bandit","196","510922","0.0-158.0-0.0","53876302","wem/bandit_party_2","A2YRYS17DU3A8R","either","1","517","","","","","","","0","0","1","","0.372751341","0.2","0.6","0.8","0.4","0.372751341","0.4094987027","0.1308085784","0.5188885271","","","","","","","","","","","","","","72","H","0","img/none_selected.jpg","","117","main_expt",""
"","bandit","197","512948","0.0-159.0-0.0","53876302","wem/bandit_party_2","A2YRYS17DU3A8R","either","1","515","","","","","","","0","0","1","0.09076242324","","0.2","0.6","0.8","0.4","","","","","0.4225631273","0.3862907493","0.09076242324","0.5728151575","","","","","","","","","","75","K","2","","","118","main_expt",""
"","bandit","198","514951","0.0-160.0-0.0","53876302","wem/bandit_party_2","A2YRYS17DU3A8R","either","1","490","","","","","","","0","1","0","","0.4188482812","0.2","0.6","0.8","0.4","0.4188482812","0.4437318585","0.09057925276","0.5065624602","","","","","","","","","","","","","","72","H","0","img/none_selected.jpg","","119","main_expt",""
"","bandit","199","516866","0.0-161.0-0.0","53876302","wem/bandit_party_2","A2YRYS17DU3A8R","either","1","401","","","","","","","0","0","1","0.4064427813","","0.2","0.6","0.8","0.4","","","","","0.3729077829","0.293469011","0.1288926122","0.4064427813","","","","","","","","","","76","L","3","","","120","main_expt",""
"","bandit","200","519988","0.0-162.0-0.0","53876302","wem/bandit_party_2","A2YRYS17DU3A8R","either","1","1613","","","","","","","0","0","1","","0.3817262037","0.2","0.6","0.8","0.4","0.3817262037","0.2141601759","0.1479701512","0.3948988447","","","","","","","","","","","","","","72","H","0","img/none_selected.jpg","","121","main_expt",""
"","bandit","201","521724","0.0-163.0-0.0","53876302","wem/bandit_party_2","A2YRYS17DU3A8R","either","1","221","","","","","","","0","0","1","0.2594293103","","0.2","0.6","0.8","0.4","","","","","0.3537210734","0.2594293103","0.1663524813","0.316823658","","","","","","","","","","74","J","1","","","122","main_expt",""
"","bandit","202","523912","0.0-164.0-0.0","53876302","wem/bandit_party_2","A2YRYS17DU3A8R","either","1","673","","","","","","","0","0","1","","0.1993917655","0.2","0.6","0.8","0.4","0.3633727708","0.1519240937","0.1993917655","0.3045978244","","","","","","","","","","","","","","75","K","2","","","123","main_expt",""
"","bandit","203","525729","0.0-165.0-0.0","53876302","wem/bandit_party_2","A2YRYS17DU3A8R","either","1","305","","","","","","","0","0","1","","0.2389028675","0.2","0.6","0.8","0.4","0.4139908316","0.2311656533","0.2948689786","0.2389028675","","","","","","","","","","","","","","76","L","3","","","124","main_expt",""
"","bandit","204","527418","0.0-166.0-0.0","53876302","wem/bandit_party_2","A2YRYS17DU3A8R","either","1","174","","","","","","","0","0","1","0.3619800754","","0.2","0.6","0.8","0.4","","","","","0.3619800754","0.1956748967","0.4054398129","0.2166803268","","","","","","","","","","72","H","0","img/none_selected.jpg","","125","main_expt",""
"","bandit","205","529130","0.0-167.0-0.0","53876302","wem/bandit_party_2","A2YRYS17DU3A8R","either","1","201","","","","","","","1","0","0","0.1419383156","","0.2","0.6","0.8","0.4","","","","","0.353362548","0.1419383156","0.5337661481","0.1613674106","","","","","","","","","","74","J","1","","","126","main_expt",""
"","bandit","206","530883","0.0-168.0-0.0","53876302","wem/bandit_party_2","A2YRYS17DU3A8R","either","1","241","","","","","","","0","0","1","0.1768105291","","0.2","0.6","0.8","0.4","","","","","0.2888217425","0.1768105291","0.5510518781","0.1682412955","","","","","","","","","","74","J","1","","","127","main_expt",""
"","bandit","207","532949","0.0-169.0-0.0","53876302","wem/bandit_party_2","A2YRYS17DU3A8R","either","1","556","","","","","","","1","0","0","0.4746642732","","0.2","0.6","0.8","0.4","","","","","0.3131893798","0.1187699492","0.4746642732","0.1655910943","","","","","","","","","","75","K","2","","","128","main_expt",""
"","bandit","208","534801","0.0-170.0-0.0","53876302","wem/bandit_party_2","A2YRYS17DU3A8R","either","1","339","","","","","","","0","0","1","0.5345142674","","0.2","0.6","0.8","0.4","","","","","0.2826861836","0.1860330609","0.5345142674","0.1845506081","","","","","","","","","","75","K","2","","","129","main_expt",""
"","bandit","209","536484","0.0-171.0-0.0","53876302","wem/bandit_party_2","A2YRYS17DU3A8R","either","1","173","","","","","","","1","0","0","0.1548240476","","0.2","0.6","0.8","0.4","","","","","0.3434973012","0.09722607165","0.6617219445","0.1548240476","","","","","","","","","","76","L","3","","","130","main_expt",""
"","bandit","210","538376","0.0-172.0-0.0","53876302","wem/bandit_party_2","A2YRYS17DU3A8R","either","1","380","","","","","","","0","0","1","","0.1503989","0.2","0.6","0.8","0.4","0.3848082556","0.05626421391","0.6183560712","0.1503989","","","","","","","","","","","","","","76","L","3","","","131","main_expt",""
"","bandit","211","539926","0.0-173.0-0.0","53876302","wem/bandit_party_2","A2YRYS17DU3A8R","either","1","38","","","","","","","1","0","0","0.1149854728","","0.2","0.6","0.8","0.4","","","","","0.4140069858","0.1149854728","0.7009512511","0.1199593994","","","","","","","","","","74","J","1","","","132","main_expt",""
"","bandit","212","541731","0.0-174.0-0.0","53876302","wem/bandit_party_2","A2YRYS17DU3A8R","either","1","290","","","","","","","0","0","1","","0.1698175541","0.2","0.6","0.8","0.4","0.3745017877","0.1698175541","0.5838974895","0.1518383839","","","","","","","","","","","","","","74","J","1","","","133","main_expt",""
"","bandit","213","543530","0.0-175.0-0.0","53876302","wem/bandit_party_2","A2YRYS17DU3A8R","either","1","284","","","","","","","0","0","1","","0.3918835711","0.2","0.6","0.8","0.4","0.3918835711","0.1925371395","0.6628563986","0.1855528241","","","","","","","","","","","","","","72","H","0","img/none_selected.jpg","","134","main_expt",""
"","bandit","214","545374","0.0-176.0-0.0","53876302","wem/bandit_party_2","A2YRYS17DU3A8R","either","1","330","","","","","","","0","0","1","0.5610912218","","0.2","0.6","0.8","0.4","","","","","0.3405764209","0.246136332","0.5610912218","0.2187769305","","","","","","","","","","75","K","2","","","135","main_expt",""
"","bandit","215","547378","0.0-177.0-0.0","53876302","wem/bandit_party_2","A2YRYS17DU3A8R","either","1","489","","","","","","","0","0","1","0.2001534018","","0.2","0.6","0.8","0.4","","","","","0.4155430462","0.2277518718","0.4834649218","0.2001534018","","","","","","","","","","76","L","3","","","136","main_expt",""
"","bandit","216","549397","0.0-178.0-0.0","53876302","wem/bandit_party_2","A2YRYS17DU3A8R","either","1","509","","","","","","","1","0","0","0.3389252929","","0.2","0.6","0.8","0.4","","","","","0.3389252929","0.252962458","0.513072369","0.176995917","","","","","","","","","","72","H","0","img/none_selected.jpg","","137","main_expt",""
"","bandit","217","551266","0.0-179.0-0.0","53876302","wem/bandit_party_2","A2YRYS17DU3A8R","either","1","357","","","","","","","0","0","1","0.3018696236","","0.2","0.6","0.8","0.4","","","","","0.2698753193","0.3018696236","0.5502636267","0.1460019238","","","","","","","","","","74","J","1","","","138","main_expt",""
"","bandit","218","552799","0.0-180.0-0.0","53876302","wem/bandit_party_2","A2YRYS17DU3A8R","either","1","21","","","","","","","0","1","0","","0.2821570394","0.2","0.6","0.8","0.4","0.2821570394","0.347353107","0.4564922144","0.06707115951","","","","","","","","","","","","","","72","H","0","img/none_selected.jpg","","139","main_expt",""
"","bandit","219","554644","0.0-181.0-0.0","53876302","wem/bandit_party_2","A2YRYS17DU3A8R","either","1","330","","","","","","","0","0","1","0.3577533322","","0.2","0.6","0.8","0.4","","","","","0.3577533322","0.2477375586","0.4116013625","0.1071331831","","","","","","","","","","72","H","0","img/none_selected.jpg","","140","main_expt",""
"","bandit","220","556380","0.0-182.0-0.0","53876302","wem/bandit_party_2","A2YRYS17DU3A8R","either","1","221","","","","","","","0","0","1","","0.4250900652","0.2","0.6","0.8","0.4","0.4250900652","0.2880826197","0.4498847811","0.1224459691","","","","","","","","","","","","","","72","H","0","img/none_selected.jpg","","141","main_expt",""
"","bandit","221","558219","0.0-183.0-0.0","53876302","wem/bandit_party_2","A2YRYS17DU3A8R","either","1","327","","","","","","","0","0","1","0.2287108423","","0.2","0.6","0.8","0.4","","","","","0.3451055681","0.2287108423","0.4822150968","0.1127900777","","","","","","","","","","74","J","1","","","142","main_expt",""
"","bandit","222","559950","0.0-184.0-0.0","53876302","wem/bandit_party_2","A2YRYS17DU3A8R","either","1","221","","","","","","","1","0","0","0.513506041","","0.2","0.6","0.8","0.4","","","","","0.4661026996","0.2096850542","0.513506041","0.1736101882","","","","","","","","","","75","K","2","","","143","main_expt",""
"","bandit","223","561889","0.0-185.0-0.0","53876302","wem/bandit_party_2","A2YRYS17DU3A8R","either","1","425","","","","","","","1","0","0","0.556822441","","0.2","0.6","0.8","0.4","","","","","0.4683168179","0.2214165798","0.556822441","0.1231714597","","","","","","","","","","75","K","2","","","144","main_expt",""
"","bandit","224","563867","0.0-186.0-0.0","53876302","wem/bandit_party_2","A2YRYS17DU3A8R","either","1","467","","","","","","","0","0","1","0.5633269006","","0.2","0.6","0.8","0.4","","","","","0.448697065","0.2412424024","0.5633269006","0.10514291","","","","","","","","","","75","K","2","","","145","main_expt",""
"","bandit","225","565620","0.0-187.0-0.0","53876302","wem/bandit_party_2","A2YRYS17DU3A8R","either","1","242","","","","","","","0","0","1","","0.0972381369","0.2","0.6","0.8","0.4","0.4560677512","0.1841611904","0.6482805244","0.0972381369","","","","","","","","","","","","","","76","L","3","","","146","main_expt",""
"","bandit","226","567513","0.0-188.0-0.0","53876302","wem/bandit_party_2","A2YRYS17DU3A8R","either","1","381","","","","","","","0","1","0","","0.513472809","0.2","0.6","0.8","0.4","0.513472809","0.1577922033","0.6036290043","0.1897119627","","","","","","","","","","","","","","72","H","0","img/none_selected.jpg","","147","main_expt",""
"","bandit","227","569625","0.0-189.0-0.0","53876302","wem/bandit_party_2","A2YRYS17DU3A8R","either","1","601","","","","","","","0","1","0","","0.3820674583","0.2","0.6","0.8","0.4","0.3820674583","0.1663963597","0.6110248825","0.1759094881","","","","","","","","","","","","","","72","H","0","img/none_selected.jpg","","148","main_expt",""
"","bandit","228","571541","0.0-190.0-0.0","53876302","wem/bandit_party_2","A2YRYS17DU3A8R","either","1","403","","","","","","","0","0","1","","0.3116557105","0.2","0.6","0.8","0.4","0.3116557105","0.319747154","0.6453676348","0.2204336569","","","","","","","","","","","","","","72","H","0","img/none_selected.jpg","","149","main_expt",""
"","bandit","229","573363","0.0-191.0-0.0","53876302","wem/bandit_party_2","A2YRYS17DU3A8R","either","1","309","","","","","","","0","0","1","0.66235511","","0.2","0.6","0.8","0.4","","","","","0.3039338698","0.5410110608","0.66235511","0.2328853871","","","","","","","","","","75","K","2","","","150","main_expt",""
"","bandit","230","575069","0.0-192.0-0.0","53876302","wem/bandit_party_2","A2YRYS17DU3A8R","either","1","197","","","","","","","0","1","0","","0.2652525627","0.2","0.6","0.8","0.4","0.3092958796","0.5584745132","0.5547575852","0.2652525627","","","","","","","","","","","","","","76","L","3","","","151","main_expt",""
"","bandit","231","576898","0.0-193.0-0.0","53876302","wem/bandit_party_2","A2YRYS17DU3A8R","either","1","315","","","","","","","0","0","1","0.2654363334","","0.2","0.6","0.8","0.4","","","","","0.3097370874","0.5709378499","0.5223098228","0.2654363334","","","","","","","","","","76","L","3","","","152","main_expt",""
"","bandit","232","578831","0.0-194.0-0.0","53876302","wem/bandit_party_2","A2YRYS17DU3A8R","either","1","420","","","","","","","0","0","1","","0.3505589273","0.2","0.6","0.8","0.4","0.2955649657","0.6314515046","0.5137303037","0.3505589273","","","","","","","","","","","","","","76","L","3","","","153","main_expt",""
"","bandit","233","580427","0.0-195.0-0.0","53876302","wem/bandit_party_2","A2YRYS17DU3A8R","either","1","84","","","","","","","0","0","1","","0.39889796","0.2","0.6","0.8","0.4","0.221553637","0.6734276465","0.5193194566","0.39889796","","","","","","","","","","","","","","76","L","3","","","154","main_expt",""
"","bandit","234","582342","0.0-196.0-0.0","53876302","wem/bandit_party_2","A2YRYS17DU3A8R","either","1","401","","","","","","","1","0","0","0.7019144477","","0.2","0.6","0.8","0.4","","","","","0.2231547498","0.7019144477","0.4736812385","0.4202606707","","","","","","","","","","74","J","1","","","155","main_expt",""
"","bandit","235","584344","0.0-197.0-0.0","53876302","wem/bandit_party_2","A2YRYS17DU3A8R","either","1","487","","","","","","","0","0","1","","0.2750957943","0.2","0.6","0.8","0.4","0.2750957943","0.6695455193","0.4616442501","0.4814159609","","","","","","","","","","","","","","72","H","0","img/none_selected.jpg","","156","main_expt",""
"","bandit","236","586707","0.0-198.0-0.0","53876302","wem/bandit_party_2","A2YRYS17DU3A8R","either","1","850","","","","","","","0","1","0","","0.5316807058","0.2","0.6","0.8","0.4","0.2005793054","0.6179864128","0.5025740222","0.5316807058","","","","","","","","","","","","","","76","L","3","","","157","main_expt",""
"","bandit","237","590329","0.0-199.0-0.0","53876302","wem/bandit_party_2","A2YRYS17DU3A8R","either","1","2108","","","","","","","0","0","1","","0.5429668589","0.2","0.6","0.8","0.4","0.2502080146","0.7380689997","0.4548105643","0.5429668589","","","","","","","","","","","","","","76","L","3","","","158","main_expt",""
"","bandit","238","592261","0.0-200.0-0.0","53876302","wem/bandit_party_2","A2YRYS17DU3A8R","either","1","422","","","","","","","0","0","1","","0.2729805177","0.2","0.6","0.8","0.4","0.2729805177","0.7632184112","0.4622667215","0.5991419929","","","","","","","","","","","","","","72","H","0","img/none_selected.jpg","","159","main_expt",""
"","bandit","239","594669","0.0-201.0-0.0","53876302","wem/bandit_party_2","A2YRYS17DU3A8R","either","1","897","","","","","","","0","0","1","0.6917664031","","0.2","0.6","0.8","0.4","","","","","0.2801697818","0.6917664031","0.4600517474","0.6480894682","","","","","","","","","","74","J","1","","","160","main_expt",""
"","bandit","240","597034","0.0-202.0-0.0","53876302","wem/bandit_party_2","A2YRYS17DU3A8R","either","1","851","","","","","","","1","0","0","0.6776161973","","0.2","0.6","0.8","0.4","","","","","0.2437938608","0.7106531984","0.481388234","0.6776161973","","","","","","","","","","76","L","3","","","161","main_expt",""
"","bandit","241","603738","0.0-203.0-0.0","53876302","wem/bandit_party_2","A2YRYS17DU3A8R","either","1","5193","","","","","","","0","0","1","","0.2687553501","0.2","0.6","0.8","0.4","0.2687553501","0.809310282","0.3850106192","0.7134031715","","","","","","","","","","","","","","72","H","0","img/none_selected.jpg","","162","main_expt",""
"","bandit","242","606463","0.0-204.0-0.0","53876302","wem/bandit_party_2","A2YRYS17DU3A8R","either","1","1210","","","","","","","0","1","0","","0.6215635068","0.2","0.6","0.8","0.4","0.245991677","0.7492875705","0.3498723973","0.6215635068","","","","","","","","","","","","","","76","L","3","","","163","main_expt",""
"","bandit","243","610172","0.0-205.0-0.0","53876302","wem/bandit_party_2","A2YRYS17DU3A8R","either","1","2197","","","","","","","0","0","1","0.7561394707","","0.2","0.6","0.8","0.4","","","","","0.270385563","0.7561394707","0.4287417444","0.5219240024","","","","","","","","","","74","J","1","","","164","main_expt",""
"","bandit","244","612332","0.0-206.0-0.0","53876302","wem/bandit_party_2","A2YRYS17DU3A8R","either","1","648","","","","","","","0","0","1","","0.3150145745","0.2","0.6","0.8","0.4","0.3037855967","0.8111415702","0.3150145745","0.4727302842","","","","","","","","","","","","","","75","K","2","","","165","main_expt",""
"","bandit","245","614113","0.0-207.0-0.0","53876302","wem/bandit_party_2","A2YRYS17DU3A8R","either","1","265","","","","","","","0","1","0","","0.5181018645","0.2","0.6","0.8","0.4","0.3395577104","0.7759938205","0.2927018344","0.5181018645","","","","","","","","","","","","","","76","L","3","","","166","main_expt",""
"","bandit","246","615663","0.0-208.0-0.0","53876302","wem/bandit_party_2","A2YRYS17DU3A8R","either","1","39","","","","","","","0","1","0","","0.3443901906","0.2","0.6","0.8","0.4","0.3443901906","0.8267633335","0.3610256338","0.5280433419","","","","","","","","","","","","","","72","H","0","img/none_selected.jpg","","167","main_expt",""
"","bandit","247","617531","0.0-209.0-0.0","53876302","wem/bandit_party_2","A2YRYS17DU3A8R","either","1","359","","","","","","","0","0","1","","0.2552323567","0.2","0.6","0.8","0.4","0.2552323567","0.8136073627","0.3137127159","0.5470010145","","","","","","","","","","","","","","72","H","0","img/none_selected.jpg","","168","main_expt",""
"","bandit","248","620232","0.0-210.0-0.0","53876302","wem/bandit_party_2","A2YRYS17DU3A8R","either","1","1188","","","","","","","0","0","1","0.7308533614","","0.2","0.6","0.8","0.4","","","","","0.289352286","0.7308533614","0.2292796242","0.5558845962","","","","","","","","","","74","J","1","","","169","main_expt",""
"","bandit","249","621944","0.0-211.0-0.0","53876302","wem/bandit_party_2","A2YRYS17DU3A8R","either","1","196","","","","","","","1","0","0","0.221948569","","0.2","0.6","0.8","0.4","","","","","0.2262743404","0.7090730391","0.221948569","0.5799309324","","","","","","","","","","75","K","2","","","170","main_expt",""
"","bandit","250","623809","0.0-212.0-0.0","53876302","wem/bandit_party_2","A2YRYS17DU3A8R","either","1","356","","","","","","","0","0","1","0.159615594","","0.2","0.6","0.8","0.4","","","","","0.2644351609","0.7229684446","0.159615594","0.6643953266","","","","","","","","","","75","K","2","","","171","main_expt",""
"","bandit","251","625628","0.0-213.0-0.0","53876302","wem/bandit_party_2","A2YRYS17DU3A8R","either","1","309","","","","","","","1","0","0","0.7610666705","","0.2","0.6","0.8","0.4","","","","","0.4136296373","0.6612043244","0.1303854457","0.7610666705","","","","","","","","","","76","L","3","","","172","main_expt",""
"","bandit","252","627794","0.0-214.0-0.0","53876302","wem/bandit_party_2","A2YRYS17DU3A8R","either","1","652","","","","","","","0","0","1","","0.8006149786","0.2","0.6","0.8","0.4","0.491318492","0.7669021743","0.07729024622","0.8006149786","","","","","","","","","","","","","","76","L","3","","","173","main_expt",""
"","bandit","253","629344","0.0-215.0-0.0","53876302","wem/bandit_party_2","A2YRYS17DU3A8R","either","1","37","","","","","","","0","1","0","","0.4966763124","0.2","0.6","0.8","0.4","0.4966763124","0.8111867287","0.1227026474","0.791095403","","","","","","","","","","","","","","72","H","0","img/none_selected.jpg","","174","main_expt",""
"","bandit","254","631073","0.0-216.0-0.0","53876302","wem/bandit_party_2","A2YRYS17DU3A8R","either","1","219","","","","","","","0","1","0","","0.8192498968","0.2","0.6","0.8","0.4","0.5109350621","0.8192498968","0.09483306355","0.8572088762","","","","","","","","","","","","","","74","J","1","","","175","main_expt",""
"","bandit","255","632739","0.0-217.0-0.0","53876302","wem/bandit_party_2","A2YRYS17DU3A8R","either","1","155","","","","","","","0","1","0","","0.6321295754","0.2","0.6","0.8","0.4","0.6321295754","0.8371283275","0.143069758","0.8576080684","","","","","","","","","","","","","","72","H","0","img/none_selected.jpg","","176","main_expt",""
"","bandit","256","634562","0.0-218.0-0.0","53876302","wem/bandit_party_2","A2YRYS17DU3A8R","either","1","312","","","","","","","1","0","0","0.8545140947","","0.2","0.6","0.8","0.4","","","","","0.5515755996","0.8545140947","0.1741656422","0.8678158231","","","","","","","","","","74","J","1","","","177","main_expt",""
"","bandit","257","636320","0.0-219.0-0.0","53876302","wem/bandit_party_2","A2YRYS17DU3A8R","either","1","246","","","","","","","0","1","0","","0.5086275016","0.2","0.6","0.8","0.4","0.5086275016","0.8794893657","0.1904086474","0.8820542777","","","","","","","","","","","","","","72","H","0","img/none_selected.jpg","","178","main_expt",""
"","bandit","258","638096","0.0-220.0-0.0","53876302","wem/bandit_party_2","A2YRYS17DU3A8R","either","1","263","","","","","","","0","1","0","","0.5215192908","0.2","0.6","0.8","0.4","0.5215192908","0.8939587296","0.1778905233","0.8907334788","","","","","","","","","","","","","","72","H","0","img/none_selected.jpg","","179","main_expt",""
"","bandit","259","639721","0.0-221.0-0.0","53876302","wem/bandit_party_2","A2YRYS17DU3A8R","either","1","111","","","","","","","0","0","1","","0.5193414217","0.2","0.6","0.8","0.4","0.5193414217","0.868077767","0.2112817454","0.9161653667","","","","","","","","","","","","","","72","H","0","img/none_selected.jpg","","180","main_expt",""
"","bandit","260","641538","0.0-222.0-0.0","53876302","wem/bandit_party_2","A2YRYS17DU3A8R","either","1","304","","","","","","","1","0","0","0.9295405476","","0.2","0.6","0.8","0.4","","","","","0.4613460131","0.9295405476","0.2236312472","0.9327112184","","","","","","","","","","74","J","1","","","181","main_expt",""
"","bandit","261","643429","0.0-223.0-0.0","53876302","wem/bandit_party_2","A2YRYS17DU3A8R","either","1","377","","","","","","","1","0","0","0.9213574857","","0.2","0.6","0.8","0.4","","","","","0.4468633868","0.9213574857","0.264467441","0.9284398706","","","","","","","","","","74","J","1","","","182","main_expt",""
"","bandit","262","645230","0.0-224.0-0.0","53876302","wem/bandit_party_2","A2YRYS17DU3A8R","either","1","287","","","","","","","0","1","0","","0.9374560388","0.2","0.6","0.8","0.4","0.4985091709","0.9374560388","0.2240632979","0.89591471","","","","","","","","","","","","","","74","J","1","","","183","main_expt",""
"","bandit","263","647058","0.0-225.0-0.0","53876302","wem/bandit_party_2","A2YRYS17DU3A8R","either","1","314","","","","","","","1","0","0","0.9120054929","","0.2","0.6","0.8","0.4","","","","","0.6057575335","0.9120054929","0.1671404848","0.9146434193","","","","","","","","","","74","J","1","","","184","main_expt",""
"","bandit","264","648577","0.0-226.0-0.0","53876302","wem/bandit_party_2","A2YRYS17DU3A8R","either","1","10","","","","","","","1","0","0","0.8428471033","","0.2","0.6","0.8","0.4","","","","","0.4915456485","0.8428471033","0.1932257563","0.8575823977","","","","","","","","","","74","J","1","","","185","main_expt",""
"","bandit","265","650610","0.0-227.0-0.0","53876302","wem/bandit_party_2","A2YRYS17DU3A8R","either","1","520","","","","","","","1","0","0","0.7734335662","","0.2","0.6","0.8","0.4","","","","","0.5976273718","0.7734335662","0.155472597","0.8487952361","","","","","","","","","","74","J","1","","","186","main_expt",""
"","bandit","266","652386","0.0-228.0-0.0","53876302","wem/bandit_party_2","A2YRYS17DU3A8R","either","1","259","","","","","","","0","0","1","0.7667319261","","0.2","0.6","0.8","0.4","","","","","0.5743595779","0.7667319261","0.1895871356","0.8603972339","","","","","","","","","","74","J","1","","","187","main_expt",""
"","bandit","267","654185","0.0-229.0-0.0","53876302","wem/bandit_party_2","A2YRYS17DU3A8R","either","1","287","","","","","","","1","0","0","0.5945875292","","0.2","0.6","0.8","0.4","","","","","0.6833173747","0.5945875292","0.2119556673","0.8834510925","","","","","","","","","","74","J","1","","","188","main_expt",""
"","bandit","268","656141","0.0-230.0-0.0","53876302","wem/bandit_party_2","A2YRYS17DU3A8R","either","1","442","","","","","","","0","0","1","","0.651089354","0.2","0.6","0.8","0.4","0.651089354","0.7406569186","0.2255007403","0.8973947779","","","","","","","","","","","","","","72","H","0","img/none_selected.jpg","","189","main_expt",""
"","bandit","269","657923","0.0-231.0-0.0","53876302","wem/bandit_party_2","A2YRYS17DU3A8R","either","1","266","","","","","","","0","1","0","","0.7371931777","0.2","0.6","0.8","0.4","0.6599652607","0.7371931777","0.1754842532","0.8824587855","","","","","","","","","","","","","","74","J","1","","","190","main_expt",""
"","bandit","270","659722","0.0-232.0-0.0","53876302","wem/bandit_party_2","A2YRYS17DU3A8R","either","1","283","","","","","","","0","0","1","0.7019705866","","0.2","0.6","0.8","0.4","","","","","0.6960236584","0.7019705866","0.1936311571","0.9076431997","","","","","","","","","","74","J","1","","","191","main_expt",""
"","bandit","271","661748","0.0-233.0-0.0","53876302","wem/bandit_party_2","A2YRYS17DU3A8R","either","1","509","","","","","","","0","1","0","","0.6198122665","0.2","0.6","0.8","0.4","0.6713911156","0.6198122665","0.215612591","0.8673165995","","","","","","","","","","","","","","74","J","1","","","192","main_expt",""
"","bandit","272","663878","0.0-234.0-0.0","53876302","wem/bandit_party_2","A2YRYS17DU3A8R","either","1","620","","","","","","","0","1","0","","0.6100930929","0.2","0.6","0.8","0.4","0.7244072205","0.6100930929","0.2818734505","0.8264401474","","","","","","","","","","","","","","74","J","1","","","193","main_expt",""
"","bandit","273","665793","0.0-235.0-0.0","53876302","wem/bandit_party_2","A2YRYS17DU3A8R","either","1","402","","","","","","","1","0","0","0.6332739585","","0.2","0.6","0.8","0.4","","","","","0.7397798508","0.6332739585","0.3616108755","0.8546086414","","","","","","","","","","74","J","1","","","194","main_expt",""
"","bandit","274","667599","0.0-236.0-0.0","53876302","wem/bandit_party_2","A2YRYS17DU3A8R","either","1","289","","","","","","","1","0","0","0.609207161","","0.2","0.6","0.8","0.4","","","","","0.7602069811","0.609207161","0.3979961615","0.7914914872","","","","","","","","","","74","J","1","","","195","main_expt",""
"","bandit","275","669891","0.0-237.0-0.0","53876302","wem/bandit_party_2","A2YRYS17DU3A8R","either","1","782","","","","","","","0","0","1","","0.7114092524","0.2","0.6","0.8","0.4","0.7114092524","0.6560649547","0.4366641927","0.7608346536","","","","","","","","","","","","","","72","H","0","img/none_selected.jpg","","196","main_expt",""
"","bandit","276","673467","0.0-238.0-0.0","53876302","wem/bandit_party_2","A2YRYS17DU3A8R","either","1","2064","","","","","","","1","0","0","0.6917424169","","0.2","0.6","0.8","0.4","","","","","0.6917424169","0.6656533059","0.560782874","0.7003784325","","","","","","","","","","72","H","0","img/none_selected.jpg","","197","main_expt",""
"","bandit","277","675898","0.0-239.0-0.0","53876302","wem/bandit_party_2","A2YRYS17DU3A8R","either","1","917","","","","","","","0","1","0","","0.6841747727","0.2","0.6","0.8","0.4","0.6561069913","0.6841747727","0.5649388288","0.6036075577","","","","","","","","","","","","","","74","J","1","","","198","main_expt",""
"","bandit","278","679926","0.0-240.0-0.0","53876302","wem/bandit_party_2","A2YRYS17DU3A8R","either","1","2513","","","","","","","0","0","1","0.6948346643","","0.2","0.6","0.8","0.4","","","","","0.6948346643","0.7105065455","0.5375892324","0.5843314555","","","","","","","","","","72","H","0","img/none_selected.jpg","","199","main_expt",""
"","bandit","279","681726","0.0-241.0-0.0","53876302","wem/bandit_party_2","A2YRYS17DU3A8R","either","1","284","","","","","","","1","0","0","0.7380433654","","0.2","0.6","0.8","0.4","","","","","0.7369743936","0.7380433654","0.5625167851","0.539414212","","","","","","","","","","74","J","1","","","200","main_expt",""
"","bandit","280","683414","0.0-242.0-0.0","53876302","wem/bandit_party_2","A2YRYS17DU3A8R","either","1","172","","","","","","","0","0","1","0.8347268415","","0.2","0.6","0.8","0.4","","","","","0.8347268415","0.6432951689","0.6266810217","0.3774065742","","","","","","","","","","72","H","0","img/none_selected.jpg","","201","main_expt",""
"","bandit","281","685278","0.0-243.0-0.0","53876302","wem/bandit_party_2","A2YRYS17DU3A8R","either","1","351","","","","","","","1","0","0","0.6661075828","","0.2","0.6","0.8","0.4","","","","","0.7612264534","0.4995879772","0.6661075828","0.2824615609","","","","","","","","","","75","K","2","","","202","main_expt",""
"","bandit","282","686879","0.0-244.0-0.0","53876302","wem/bandit_party_2","A2YRYS17DU3A8R","either","1","86","","","","","","","0","0","1","","0.6904596671","0.2","0.6","0.8","0.4","0.6904596671","0.4767352753","0.7534099026","0.210170224","","","","","","","","","","","","","","72","H","0","img/none_selected.jpg","","203","main_expt",""
"","bandit","283","688633","0.0-245.0-0.0","53876302","wem/bandit_party_2","A2YRYS17DU3A8R","either","1","239","","","","","","","0","0","1","0.3680612217","","0.2","0.6","0.8","0.4","","","","","0.6855485072","0.3680612217","0.7033522103","0.2708138581","","","","","","","","","","74","J","1","","","204","main_expt",""
"","bandit","284","690525","0.0-246.0-0.0","53876302","wem/bandit_party_2","A2YRYS17DU3A8R","either","1","377","","","","","","","0","1","0","","0.7006332368","0.2","0.6","0.8","0.4","0.7006332368","0.3404512965","0.6105989365","0.3319820794","","","","","","","","","","","","","","72","H","0","img/none_selected.jpg","","205","main_expt",""
"","bandit","285","692435","0.0-247.0-0.0","53876302","wem/bandit_party_2","A2YRYS17DU3A8R","either","1","397","","","","","","","1","0","0","0.725137222","","0.2","0.6","0.8","0.4","","","","","0.7533130943","0.2774568564","0.725137222","0.3517339603","","","","","","","","","","75","K","2","","","206","main_expt",""
"","bandit","286","694192","0.0-248.0-0.0","53876302","wem/bandit_party_2","A2YRYS17DU3A8R","either","1","244","","","","","","","0","0","1","","0.2871079035","0.2","0.6","0.8","0.4","0.7191760557","0.2228883469","0.5888984072","0.2871079035","","","","","","","","","","","","","","76","L","3","","","207","main_expt",""
"","bandit","287","696102","0.0-249.0-0.0","53876302","wem/bandit_party_2","A2YRYS17DU3A8R","either","1","396","","","","","","","1","0","0","0.6264293856","","0.2","0.6","0.8","0.4","","","","","0.6264293856","0.2829247412","0.4650323514","0.2642306377","","","","","","","","","","72","H","0","img/none_selected.jpg","","208","main_expt",""
"","bandit","288","697655","0.0-250.0-0.0","53876302","wem/bandit_party_2","A2YRYS17DU3A8R","either","1","39","","","","","","","1","0","0","0.3169104167","","0.2","0.6","0.8","0.4","","","","","0.6500478562","0.3169104167","0.4100719568","0.3587725811","","","","","","","","","","74","J","1","","","209","main_expt",""
"","bandit","289","714013","0.0-251.0-0.0","53876302","wem/bandit_party_2","A2YRYS17DU3A8R","either","1","14844","","","","","","","0","1","0","","0.6498865343","0.2","0.6","0.8","0.4","0.6498865343","0.2090062306","0.5177296744","0.3103342645","","","","","","","","","","","","","","72","H","0","img/none_selected.jpg","","210","main_expt",""
"","bandit","290","716080","0.0-252.0-0.0","53876302","wem/bandit_party_2","A2YRYS17DU3A8R","either","1","555","","","","","","","0","0","1","0.1481662818","","0.2","0.6","0.8","0.4","","","","","0.6056301442","0.1481662818","0.5950812693","0.3760595068","","","","","","","","","","74","J","1","","","211","main_expt",""
"","bandit","291","718848","0.0-253.0-0.0","53876302","wem/bandit_party_2","A2YRYS17DU3A8R","either","1","1257","","","","","","","0","1","0","","0.447023013","0.2","0.6","0.8","0.4","0.5524844402","0.2114888193","0.7169745983","0.447023013","","","","","","","","","","","","","","76","L","3","","","212","main_expt",""
"","bandit","292","721147","0.0-254.0-0.0","53876302","wem/bandit_party_2","A2YRYS17DU3A8R","either","1","784","","","","","","","0","0","1","","0.4529182837","0.2","0.6","0.8","0.4","0.6984249358","0.2234642754","0.6766124197","0.4529182837","","","","","","","","","","","","","","76","L","3","","","213","main_expt",""
"","bandit","293","723422","0.0-255.0-0.0","53876302","wem/bandit_party_2","A2YRYS17DU3A8R","either","1","758","","","","","","","0","0","1","0.8005648136","","0.2","0.6","0.8","0.4","","","","","0.5996975418","0.2315139555","0.8005648136","0.4306534983","","","","","","","","","","75","K","2","","","214","main_expt",""
"","bandit","294","725309","0.0-256.0-0.0","53876302","wem/bandit_party_2","A2YRYS17DU3A8R","either","1","372","","","","","","","0","0","1","","0.1949488974","0.2","0.6","0.8","0.4","0.6067129047","0.1949488974","0.8487964291","0.4314469479","","","","","","","","","","","","","","74","J","1","","","215","main_expt",""
"","bandit","295","727241","0.0-257.0-0.0","53876302","wem/bandit_party_2","A2YRYS17DU3A8R","either","1","420","","","","","","","0","0","1","","0.6297976658","0.2","0.6","0.8","0.4","0.6297976658","0.2333303883","0.8674123454","0.45439575","","","","","","","","","","","","","","72","H","0","img/none_selected.jpg","","216","main_expt",""
"","bandit","296","729086","0.0-258.0-0.0","53876302","wem/bandit_party_2","A2YRYS17DU3A8R","either","1","332","","","","","","","0","0","1","0.2027763819","","0.2","0.6","0.8","0.4","","","","","0.6095272491","0.2027763819","0.8774404243","0.5228861726","","","","","","","","","","74","J","1","","","217","main_expt",""
"","bandit","297","730619","0.0-259.0-0.0","53876302","wem/bandit_party_2","A2YRYS17DU3A8R","either","1","21","","","","","","","0","0","1","","0.463703458","0.2","0.6","0.8","0.4","0.7058099393","0.1895874514","0.8836448068","0.463703458","","","","","","","","","","","","","","76","L","3","","","218","main_expt",""
"","bandit","298","732239","0.0-260.0-0.0","53876302","wem/bandit_party_2","A2YRYS17DU3A8R","either","1","105","","","","","","","1","0","0","0.880498508","","0.2","0.6","0.8","0.4","","","","","0.7396246451","0.1537120117","0.880498508","0.4522864467","","","","","","","","","","75","K","2","","","219","main_expt",""
"","bandit","299","735094","0.0-261.0-0.0","53876302","wem/bandit_party_2","A2YRYS17DU3A8R","either","1","1343","","","","","","","0","1","0","","0.4561576612","0.2","0.6","0.8","0.4","0.7091968036","0.2022747423","0.8740874997","0.4561576612","","","","","","","","","","","","","","76","L","3","","","220","main_expt",""
"","bandit","300","737253","0.0-262.0-0.0","53876302","wem/bandit_party_2","A2YRYS17DU3A8R","either","1","648","","","","","","","0","1","0","","0.3174413427","0.2","0.6","0.8","0.4","0.7116308873","0.3174413427","0.8527830905","0.4264657168","","","","","","","","","","","","","","74","J","1","","","221","main_expt",""
"","bandit","301","739168","0.0-263.0-0.0","53876302","wem/bandit_party_2","A2YRYS17DU3A8R","either","1","401","","","","","","","0","0","1","0.2315667073","","0.2","0.6","0.8","0.4","","","","","0.769465391","0.2315667073","0.7717907476","0.3055141729","","","","","","","","","","74","J","1","","","222","main_expt",""
"","bandit","302","740858","0.0-264.0-0.0","53876302","wem/bandit_party_2","A2YRYS17DU3A8R","either","1","174","","","","","","","0","1","0","","0.7509006974","0.2","0.6","0.8","0.4","0.7509006974","0.2261006122","0.8359700354","0.2868954791","","","","","","","","","","","","","","72","H","0","img/none_selected.jpg","","223","main_expt",""
"","bandit","303","742630","0.0-265.0-0.0","53876302","wem/bandit_party_2","A2YRYS17DU3A8R","either","1","261","","","","","","","0","0","1","0.2698185242","","0.2","0.6","0.8","0.4","","","","","0.7007688409","0.2662378096","0.819670806","0.2698185242","","","","","","","","","","76","L","3","","","224","main_expt",""
"","bandit","304","744323","0.0-266.0-0.0","53876302","wem/bandit_party_2","A2YRYS17DU3A8R","either","1","178","","","","","","","1","0","0","0.8512382749","","0.2","0.6","0.8","0.4","","","","","0.7409020096","0.2163280173","0.8512382749","0.213842325","","","","","","","","","","75","K","2","","","225","main_expt",""
"","bandit","305","746459","0.0-267.0-0.0","53876302","wem/bandit_party_2","A2YRYS17DU3A8R","either","1","622","","","","","","","1","0","0","0.2809353625","","0.2","0.6","0.8","0.4","","","","","0.7052945704","0.2809353625","0.8342861847","0.1616408491","","","","","","","","","","74","J","1","","","226","main_expt",""
"","bandit","306","748124","0.0-268.0-0.0","53876302","wem/bandit_party_2","A2YRYS17DU3A8R","either","1","150","","","","","","","0","1","0","","0.606091252","0.2","0.6","0.8","0.4","0.606091252","0.2396571279","0.7736041865","0.1777599287","","","","","","","","","","","","","","72","H","0","img/none_selected.jpg","","227","main_expt",""
"","bandit","307","750016","0.0-269.0-0.0","53876302","wem/bandit_party_2","A2YRYS17DU3A8R","either","1","377","","","","","","","1","0","0","0.5834203199","","0.2","0.6","0.8","0.4","","","","","0.5834203199","0.3430446928","0.8094350608","0.2866543064","","","","","","","","","","72","H","0","img/none_selected.jpg","","228","main_expt",""
"","bandit","308","752059","0.0-270.0-0.0","53876302","wem/bandit_party_2","A2YRYS17DU3A8R","either","1","530","","","","","","","0","1","0","","0.5466214007","0.2","0.6","0.8","0.4","0.5466214007","0.2886233194","0.8078722129","0.3948293382","","","","","","","","","","","","","","72","H","0","img/none_selected.jpg","","229","main_expt",""
"","bandit","309","753842","0.0-271.0-0.0","53876302","wem/bandit_party_2","A2YRYS17DU3A8R","either","1","268","","","","","","","0","0","1","","0.5519014059","0.2","0.6","0.8","0.4","0.5519014059","0.3213731463","0.7719043616","0.3291786684","","","","","","","","","","","","","","72","H","0","img/none_selected.jpg","","230","main_expt",""
"","bandit","310","755978","0.0-272.0-0.0","53876302","wem/bandit_party_2","A2YRYS17DU3A8R","either","1","624","","","","","","","0","1","0","","0.4527164215","0.2","0.6","0.8","0.4","0.4527164215","0.2771614906","0.8049264475","0.2378236032","","","","","","","","","","","","","","72","H","0","img/none_selected.jpg","","231","main_expt",""
"","bandit","311","758073","0.0-273.0-0.0","53876302","wem/bandit_party_2","A2YRYS17DU3A8R","either","1","580","","","","","","","0","0","1","0.5135082398","","0.2","0.6","0.8","0.4","","","","","0.5135082398","0.2249105956","0.8850589997","0.246393804","","","","","","","","","","72","H","0","img/none_selected.jpg","","232","main_expt",""
"","bandit","312","760006","0.0-274.0-0.0","53876302","wem/bandit_party_2","A2YRYS17DU3A8R","either","1","417","","","","","","","0","0","1","","0.2447973041","0.2","0.6","0.8","0.4","0.5502454751","0.2447973041","0.9183615156","0.2141634692","","","","","","","","","","","","","","74","J","1","","","233","main_expt",""
"","bandit","313","762211","0.0-275.0-0.0","53876302","wem/bandit_party_2","A2YRYS17DU3A8R","either","1","689","","","","","","","0","0","1","","0.3783923662","0.2","0.6","0.8","0.4","0.3783923662","0.24601643","0.9639410842","0.2876436191","","","","","","","","","","","","","","72","H","0","img/none_selected.jpg","","234","main_expt",""
"","bandit","314","764323","0.0-276.0-0.0","53876302","wem/bandit_party_2","A2YRYS17DU3A8R","either","1","599","","","","","","","0","0","1","","0.2814299379","0.2","0.6","0.8","0.4","0.2814299379","0.1629844561","0.9697187448","0.2769077257","","","","","","","","","","","","","","72","H","0","img/none_selected.jpg","","235","main_expt",""
