"consent","trial_type","trial_index","time_elapsed","internal_node_id","subjID","study","MID","cond","drift","rt","responses","button_pressed","key_press","like","value","connected","gems","bombs","no_reward","GemPrChosen","BombPrChosen","GainOverPainPr_0","GainOverPainPr_1","GainOverPainPr_2","GainOverPainPr_3","LosePr_0","LosePr_1","LosePr_2","LosePr_3","WinPr_0","WinPr_1","WinPr_2","WinPr_3","Q0","Q1","Q2","gender","age","ethnicity","label","expt_phase","target","respCharCode","respKey","respChoiceNum","respChoice","practice","trial_counter","trial_label","Q0_index"
"GDM/GDM_behavioral_consent_30min_online.html","consent","0","41358","0.0-0.0","53930946","wem/bandit_party_2","A35IGG3NIWL4A3","either","3","","","","","","","","","","","","","","","","","","","","","","","","","","","","","","","","","","","","","","","","",""
"","survey-text","1","45102","0.0-1.0","53930946","wem/bandit_party_2","A35IGG3NIWL4A3","either","3","2721","{""Q0"":""A35IGG3NIWL4A3""}","","","","","","","","","","","","","","","","","","","","","","","","","","","","","","","","","","","","","","",""
"","button-response","2","48582","0.0-2.0","53930946","wem/bandit_party_2","A35IGG3NIWL4A3","either","3","2467","","1","","","","","","","","","","","","","","","","","","","","","","","","","","","","","","","","","","","","","",""
"","text-replacement","3","58658","0.0-3.0","53930946","wem/bandit_party_2","A35IGG3NIWL4A3","either","3","9067","","","32","","","","","","","","","","","","","","","","","","","","","","","","","","","","","","","","","","","","",""
"","text-replacement","4","65560","0.0-4.0","53930946","wem/bandit_party_2","A35IGG3NIWL4A3","either","3","6893","","","32","","","","","","","","","","","","","","","","","","","","","","","","","","","","","","","","","","","","",""
"","identification","5","79354","0.0-6.0-0.0","53930946","wem/bandit_party_2","A35IGG3NIWL4A3","either","3","13741","","","","3","2","2","","","","","","","","","","","","","","","","","","","","","","","","pre","identification_pre","the Democratic Party","","","","","","","",""
"","identification","6","85884","0.0-6.0-1.0","53930946","wem/bandit_party_2","A35IGG3NIWL4A3","either","3","5479","","","","0","0","0","","","","","","","","","","","","","","","","","","","","","","","","pre","identification_pre","the Republican Party","","","","","","","",""
"","text-replacement","7","94996","0.0-7.0","53930946","wem/bandit_party_2","A35IGG3NIWL4A3","either","3","8104","","","32","","","","","","","","","","","","","","","","","","","","","","","","","","","","","","","","","","","","",""
"","text-replacement","8","102754","0.0-8.0","53930946","wem/bandit_party_2","A35IGG3NIWL4A3","either","3","7745","","","32","","","","","","","","","","","","","","","","","","","","","","","","","","","","","","","","","","","","",""
"","text-replacement","9","111748","0.0-9.0","53930946","wem/bandit_party_2","A35IGG3NIWL4A3","either","3","8976","","","32","","","","","","","","","","","","","","","","","","","","","","","","","","","","","","","","","","","","",""
"","text-replacement","10","113919","0.0-10.0","53930946","wem/bandit_party_2","A35IGG3NIWL4A3","either","3","2163","","","32","","","","","","","","","","","","","","","","","","","","","","","","","","","","","","","","","","","","",""
"","text-replacement","11","118265","0.0-11.0","53930946","wem/bandit_party_2","A35IGG3NIWL4A3","either","3","4340","","","32","","","","","","","","","","","","","","","","","","","","","","","","","","","","","","","","","","","","",""
"","bandit","12","120818","0.0-12.0-0.0","53930946","wem/bandit_party_2","A35IGG3NIWL4A3","either","3","1033","","","","","","","0","0","1","0","0","","","","","0","","","","0","","","","","","","","","","","","","74","J","0","img/none_selected_demo.jpg","true","0","",""
"","bandit","13","122998","0.0-13.0-0.0","53930946","wem/bandit_party_2","A35IGG3NIWL4A3","either","3","665","","","","","","","0","0","1","0","0","","","","","0","","","","0","","","","","","","","","","","","","75","K","0","img/none_selected_demo.jpg","true","0","",""
"","text-replacement","14","132167","0.0-14.0","53930946","wem/bandit_party_2","A35IGG3NIWL4A3","either","3","9159","","","32","","","","","","","","","","","","","","","","","","","","","","","","","","","","","","","","","","","","",""
"","text-replacement","15","135993","0.0-15.0","53930946","wem/bandit_party_2","A35IGG3NIWL4A3","either","3","3817","","","32","","","","","","","","","","","","","","","","","","","","","","","","","","","","","","","","","","","","",""
"","text-replacement","16","142142","0.0-16.0","53930946","wem/bandit_party_2","A35IGG3NIWL4A3","either","3","6143","","","32","","","","","","","","","","","","","","","","","","","","","","","","","","","","","","","","","","","","",""
"","text-replacement","17","144511","0.0-17.0","53930946","wem/bandit_party_2","A35IGG3NIWL4A3","either","3","2362","","","32","","","","","","","","","","","","","","","","","","","","","","","","","","","","","","","","","","","","",""
"","bandit","18","146948","0.0-18.0-0.0","53930946","wem/bandit_party_2","A35IGG3NIWL4A3","either","3","919","","","","","","","0","0","1","","0.8","0.5","0.5","","","0.8","0.2","","","","","","","","","","","","","","","","74","J","0","img/none_selected_demo.jpg","true","0","80_20_practice",""
"","bandit","19","150215","0.0-18.0-1.0","53930946","wem/bandit_party_2","A35IGG3NIWL4A3","either","3","1753","","","","","","","1","0","0","0.8","","0.5","0.5","","","","","","","0.8","0.2","","","","","","","","","","","","74","J","0","img/none_selected_demo.jpg","true","0","80_20_practice",""
"","bandit","20","153449","0.0-18.0-2.0","53930946","wem/bandit_party_2","A35IGG3NIWL4A3","either","3","1721","","","","","","","1","0","0","0.8","","0.5","0.5","","","","","","","0.8","0.2","","","","","","","","","","","","74","J","0","img/none_selected_demo.jpg","true","0","80_20_practice",""
"","bandit","21","156215","0.0-18.0-3.0","53930946","wem/bandit_party_2","A35IGG3NIWL4A3","either","3","1246","","","","","","","1","0","0","0.8","","0.5","0.5","","","","","","","0.8","0.2","","","","","","","","","","","","74","J","0","img/none_selected_demo.jpg","true","0","80_20_practice",""
"","bandit","22","158652","0.0-18.0-4.0","53930946","wem/bandit_party_2","A35IGG3NIWL4A3","either","3","915","","","","","","","0","0","1","0.2","","0.5","0.5","","","","","","","0.8","0.2","","","","","","","","","","","","75","K","1","","true","0","80_20_practice",""
"","bandit","23","161380","0.0-18.0-5.0","53930946","wem/bandit_party_2","A35IGG3NIWL4A3","either","3","1207","","","","","","","0","0","1","0.2","","0.5","0.5","","","","","","","0.8","0.2","","","","","","","","","","","","75","K","1","","true","0","80_20_practice",""
"","bandit","24","163507","0.0-18.0-6.0","53930946","wem/bandit_party_2","A35IGG3NIWL4A3","either","3","616","","","","","","","0","0","1","","0.2","0.5","0.5","","","0.8","0.2","","","","","","","","","","","","","","","","75","K","1","","true","0","80_20_practice",""
"","bandit","25","165649","0.0-18.0-7.0","53930946","wem/bandit_party_2","A35IGG3NIWL4A3","either","3","629","","","","","","","1","0","0","0.2","","0.5","0.5","","","","","","","0.8","0.2","","","","","","","","","","","","75","K","1","","true","0","80_20_practice",""
"","bandit","26","167619","0.0-18.0-8.0","53930946","wem/bandit_party_2","A35IGG3NIWL4A3","either","3","446","","","","","","","0","0","1","","0.8","0.5","0.5","","","0.8","0.2","","","","","","","","","","","","","","","","74","J","0","img/none_selected_demo.jpg","true","0","80_20_practice",""
"","bandit","27","169495","0.0-18.0-9.0","53930946","wem/bandit_party_2","A35IGG3NIWL4A3","either","3","354","","","","","","","0","0","1","","0.8","0.5","0.5","","","0.8","0.2","","","","","","","","","","","","","","","","74","J","0","img/none_selected_demo.jpg","true","0","80_20_practice",""
"","bandit","28","171365","0.0-18.0-10.0","53930946","wem/bandit_party_2","A35IGG3NIWL4A3","either","3","354","","","","","","","1","0","0","0.8","","0.5","0.5","","","","","","","0.8","0.2","","","","","","","","","","","","74","J","0","img/none_selected_demo.jpg","true","0","80_20_practice",""
"","bandit","29","173352","0.0-18.0-11.0","53930946","wem/bandit_party_2","A35IGG3NIWL4A3","either","3","473","","","","","","","0","1","0","","0.8","0.5","0.5","","","0.8","0.2","","","","","","","","","","","","","","","","74","J","0","img/none_selected_demo.jpg","true","0","80_20_practice",""
"","bandit","30","175384","0.0-18.0-12.0","53930946","wem/bandit_party_2","A35IGG3NIWL4A3","either","3","520","","","","","","","1","0","0","0.8","","0.5","0.5","","","","","","","0.8","0.2","","","","","","","","","","","","74","J","0","img/none_selected_demo.jpg","true","0","80_20_practice",""
"","bandit","31","177255","0.0-18.0-13.0","53930946","wem/bandit_party_2","A35IGG3NIWL4A3","either","3","356","","","","","","","0","0","1","0.8","","0.5","0.5","","","","","","","0.8","0.2","","","","","","","","","","","","74","J","0","img/none_selected_demo.jpg","true","0","80_20_practice",""
"","bandit","32","179143","0.0-18.0-14.0","53930946","wem/bandit_party_2","A35IGG3NIWL4A3","either","3","373","","","","","","","0","0","1","","0.2","0.5","0.5","","","0.8","0.2","","","","","","","","","","","","","","","","75","K","1","","true","0","80_20_practice",""
"","bandit","33","180972","0.0-18.0-15.0","53930946","wem/bandit_party_2","A35IGG3NIWL4A3","either","3","309","","","","","","","0","0","1","0.2","","0.5","0.5","","","","","","","0.8","0.2","","","","","","","","","","","","75","K","1","","true","0","80_20_practice",""
"","bandit","34","182803","0.0-18.0-16.0","53930946","wem/bandit_party_2","A35IGG3NIWL4A3","either","3","306","","","","","","","0","0","1","0.2","","0.5","0.5","","","","","","","0.8","0.2","","","","","","","","","","","","75","K","1","","true","0","80_20_practice",""
"","bandit","35","184718","0.0-18.0-17.0","53930946","wem/bandit_party_2","A35IGG3NIWL4A3","either","3","387","","","","","","","0","0","1","0.2","","0.5","0.5","","","","","","","0.8","0.2","","","","","","","","","","","","75","K","1","","true","0","80_20_practice",""
"","bandit","36","189458","0.0-18.0-18.0","53930946","wem/bandit_party_2","A35IGG3NIWL4A3","either","3","3218","","","","","","","0","1","0","","0.8","0.5","0.5","","","0.8","0.2","","","","","","","","","","","","","","","","74","J","0","img/none_selected_demo.jpg","true","0","80_20_practice",""
"","bandit","37","194559","0.0-18.0-19.0","53930946","wem/bandit_party_2","A35IGG3NIWL4A3","either","3","3588","","","","","","","0","0","1","","0.2","0.5","0.5","","","0.8","0.2","","","","","","","","","","","","","","","","75","K","1","","true","0","80_20_practice",""
"","text-replacement","38","201990","0.0-19.0","53930946","wem/bandit_party_2","A35IGG3NIWL4A3","either","3","7422","","","32","","","","","","","","","","","","","","","","","","","","","","","","","","","","","","","","","","","","",""
"","bandit","39","204318","0.0-20.0-0.0","53930946","wem/bandit_party_2","A35IGG3NIWL4A3","either","3","813","","","","","","","1","0","0","1","0","","","","","0","1","","","1","0","","","","","","","","","","","","74","J","0","img/none_selected_demo.jpg","true","0","",""
"","text-replacement","40","207213","0.0-21.0","53930946","wem/bandit_party_2","A35IGG3NIWL4A3","either","3","2890","","","32","","","","","","","","","","","","","","","","","","","","","","","","","","","","","","","","","","","","",""
"","text-replacement","41","210176","0.0-22.0","53930946","wem/bandit_party_2","A35IGG3NIWL4A3","either","3","2949","","","32","","","","","","","","","","","","","","","","","","","","","","","","","","","","","","","","","","","","",""
"","text-replacement","42","211387","0.0-23.0","53930946","wem/bandit_party_2","A35IGG3NIWL4A3","either","3","1202","","","32","","","","","","","","","","","","","","","","","","","","","","","","","","","","","","","","","","","","",""
"","text-replacement","43","213824","0.0-24.0","53930946","wem/bandit_party_2","A35IGG3NIWL4A3","either","3","2430","","","32","","","","","","","","","","","","","","","","","","","","","","","","","","","","","","","","","","","","",""
"","text-replacement","44","216090","0.0-25.0","53930946","wem/bandit_party_2","A35IGG3NIWL4A3","either","3","2254","","","32","","","","","","","","","","","","","","","","","","","","","","","","","","","","","","","","","","","","",""
"","text-replacement","45","217355","0.0-26.0","53930946","wem/bandit_party_2","A35IGG3NIWL4A3","either","3","1257","","","32","","","","","","","","","","","","","","","","","","","","","","","","","","","","","","","","","","","","",""
"","text-replacement","46","219896","0.0-27.0","53930946","wem/bandit_party_2","A35IGG3NIWL4A3","either","3","2529","","","32","","","","","","","","","","","","","","","","","","","","","","","","","","","","","","","","","","","","",""
"","text-replacement","47","222342","0.0-28.0","53930946","wem/bandit_party_2","A35IGG3NIWL4A3","either","3","2437","","","32","","","","","","","","","","","","","","","","","","","","","","","","","","","","","","","","","","","","",""
"","text-replacement","48","226518","0.0-29.0","53930946","wem/bandit_party_2","A35IGG3NIWL4A3","either","3","4170","","","32","","","","","","","","","","","","","","","","","","","","","","","","","","","","","","","","","","","","",""
"","text-replacement","49","227480","0.0-30.0","53930946","wem/bandit_party_2","A35IGG3NIWL4A3","either","3","956","","","32","","","","","","","","","","","","","","","","","","","","","","","","","","","","","","","","","","","","",""
"","text-replacement","50","229322","0.0-31.0","53930946","wem/bandit_party_2","A35IGG3NIWL4A3","either","3","1836","","","32","","","","","","","","","","","","","","","","","","","","","","","","","","","","","","","","","","","","",""
"","bandit","51","231659","0.0-32.0-0.0","53930946","wem/bandit_party_2","A35IGG3NIWL4A3","either","3","825","","","","","","","0","0","1","","0.8","0.5","0.5","0.5","0.5","0.8","0.2","0.6","0.2","","","","","","","","","","","","","","72","H","0","img/none_selected.jpg","true","0","full_practice",""
"","bandit","52","233525","0.0-32.0-1.0","53930946","wem/bandit_party_2","A35IGG3NIWL4A3","either","3","345","","","","","","","1","0","0","0.8","","0.5","0.5","0.5","0.5","","","","","0.8","0.2","0.6","0.2","","","","","","","","","","72","H","0","img/none_selected.jpg","true","0","full_practice",""
"","bandit","53","235292","0.0-32.0-2.0","53930946","wem/bandit_party_2","A35IGG3NIWL4A3","either","3","247","","","","","","","1","0","0","0.8","","0.5","0.5","0.5","0.5","","","","","0.8","0.2","0.6","0.2","","","","","","","","","","72","H","0","img/none_selected.jpg","true","0","full_practice",""
"","bandit","54","237083","0.0-32.0-3.0","53930946","wem/bandit_party_2","A35IGG3NIWL4A3","either","3","272","","","","","","","0","1","0","","0.8","0.5","0.5","0.5","0.5","0.8","0.2","0.6","0.2","","","","","","","","","","","","","","72","H","0","img/none_selected.jpg","true","0","full_practice",""
"","bandit","55","238639","0.0-32.0-4.0","53930946","wem/bandit_party_2","A35IGG3NIWL4A3","either","3","43","","","","","","","0","0","1","0.8","","0.5","0.5","0.5","0.5","","","","","0.8","0.2","0.6","0.2","","","","","","","","","","72","H","0","img/none_selected.jpg","true","0","full_practice",""
"","bandit","56","240239","0.0-32.0-5.0","53930946","wem/bandit_party_2","A35IGG3NIWL4A3","either","3","74","","","","","","","0","1","0","","0.8","0.5","0.5","0.5","0.5","0.8","0.2","0.6","0.2","","","","","","","","","","","","","","72","H","0","img/none_selected.jpg","true","0","full_practice",""
"","bandit","57","241834","0.0-32.0-6.0","53930946","wem/bandit_party_2","A35IGG3NIWL4A3","either","3","80","","","","","","","0","0","1","","0.8","0.5","0.5","0.5","0.5","0.8","0.2","0.6","0.2","","","","","","","","","","","","","","72","H","0","img/none_selected.jpg","true","0","full_practice",""
"","bandit","58","243733","0.0-32.0-7.0","53930946","wem/bandit_party_2","A35IGG3NIWL4A3","either","3","386","","","","","","","0","0","1","0.2","","0.5","0.5","0.5","0.5","","","","","0.8","0.2","0.6","0.2","","","","","","","","","","74","J","1","","true","0","full_practice",""
"","bandit","59","246210","0.0-32.0-8.0","53930946","wem/bandit_party_2","A35IGG3NIWL4A3","either","3","952","","","","","","","0","1","0","","0.2","0.5","0.5","0.5","0.5","0.8","0.2","0.6","0.2","","","","","","","","","","","","","","74","J","1","","true","0","full_practice",""
"","bandit","60","248001","0.0-32.0-9.0","53930946","wem/bandit_party_2","A35IGG3NIWL4A3","either","3","278","","","","","","","0","0","1","0.2","","0.5","0.5","0.5","0.5","","","","","0.8","0.2","0.6","0.2","","","","","","","","","","74","J","1","","true","0","full_practice",""
"","bandit","61","249887","0.0-32.0-10.0","53930946","wem/bandit_party_2","A35IGG3NIWL4A3","either","3","367","","","","","","","0","1","0","","0.6","0.5","0.5","0.5","0.5","0.8","0.2","0.6","0.2","","","","","","","","","","","","","","75","K","2","","true","0","full_practice",""
"","bandit","62","251675","0.0-32.0-11.0","53930946","wem/bandit_party_2","A35IGG3NIWL4A3","either","3","265","","","","","","","1","0","0","0.6","","0.5","0.5","0.5","0.5","","","","","0.8","0.2","0.6","0.2","","","","","","","","","","75","K","2","","true","0","full_practice",""
"","bandit","63","253274","0.0-32.0-12.0","53930946","wem/bandit_party_2","A35IGG3NIWL4A3","either","3","86","","","","","","","1","0","0","0.6","","0.5","0.5","0.5","0.5","","","","","0.8","0.2","0.6","0.2","","","","","","","","","","75","K","2","","true","0","full_practice",""
"","bandit","64","255032","0.0-32.0-13.0","53930946","wem/bandit_party_2","A35IGG3NIWL4A3","either","3","240","","","","","","","0","1","0","","0.6","0.5","0.5","0.5","0.5","0.8","0.2","0.6","0.2","","","","","","","","","","","","","","75","K","2","","true","0","full_practice",""
"","bandit","65","256801","0.0-32.0-14.0","53930946","wem/bandit_party_2","A35IGG3NIWL4A3","either","3","244","","","","","","","0","1","0","","0.6","0.5","0.5","0.5","0.5","0.8","0.2","0.6","0.2","","","","","","","","","","","","","","75","K","2","","true","0","full_practice",""
"","bandit","66","258592","0.0-32.0-15.0","53930946","wem/bandit_party_2","A35IGG3NIWL4A3","either","3","269","","","","","","","1","0","0","0.6","","0.5","0.5","0.5","0.5","","","","","0.8","0.2","0.6","0.2","","","","","","","","","","75","K","2","","true","0","full_practice",""
"","bandit","67","260658","0.0-32.0-16.0","53930946","wem/bandit_party_2","A35IGG3NIWL4A3","either","3","543","","","","","","","0","0","1","0.6","","0.5","0.5","0.5","0.5","","","","","0.8","0.2","0.6","0.2","","","","","","","","","","75","K","2","","true","0","full_practice",""
"","bandit","68","262426","0.0-32.0-17.0","53930946","wem/bandit_party_2","A35IGG3NIWL4A3","either","3","255","","","","","","","0","1","0","","0.6","0.5","0.5","0.5","0.5","0.8","0.2","0.6","0.2","","","","","","","","","","","","","","75","K","2","","true","0","full_practice",""
"","bandit","69","264059","0.0-32.0-18.0","53930946","wem/bandit_party_2","A35IGG3NIWL4A3","either","3","119","","","","","","","0","0","1","0.6","","0.5","0.5","0.5","0.5","","","","","0.8","0.2","0.6","0.2","","","","","","","","","","75","K","2","","true","0","full_practice",""
"","bandit","70","265868","0.0-32.0-19.0","53930946","wem/bandit_party_2","A35IGG3NIWL4A3","either","3","293","","","","","","","0","1","0","","0.6","0.5","0.5","0.5","0.5","0.8","0.2","0.6","0.2","","","","","","","","","","","","","","75","K","2","","true","0","full_practice",""
"","text","71","268696","0.0-33.0","53930946","wem/bandit_party_2","A35IGG3NIWL4A3","either","3","2793","","","32","","","","","","","","","","","","","","","","","","","","","","","","","","","","","","","","","","","","",""
"","text-replacement","72","278350","0.0-34.0","53930946","wem/bandit_party_2","A35IGG3NIWL4A3","either","3","8642","","","32","","","","","","","","","","","","","","","","","","","","","","","","","","","","","","","","","","","","",""
"","text-replacement","73","282998","0.0-35.0","53930946","wem/bandit_party_2","A35IGG3NIWL4A3","either","3","4640","","","32","","","","","","","","","","","","","","","","","","","","","","","","","","","","","","","","","","","","",""
"","text-replacement","74","285589","0.0-36.0","53930946","wem/bandit_party_2","A35IGG3NIWL4A3","either","3","2574","","","32","","","","","","","","","","","","","","","","","","","","","","","","","","","","","","","","","","","","",""
"","text-replacement","75","289383","0.0-37.0","53930946","wem/bandit_party_2","A35IGG3NIWL4A3","either","3","3783","","","32","","","","","","","","","","","","","","","","","","","","","","","","","","","","","","","","","","","","",""
"","text-replacement","76","291511","0.0-38.0","53930946","wem/bandit_party_2","A35IGG3NIWL4A3","either","3","2118","","","32","","","","","","","","","","","","","","","","","","","","","","","","","","","","","","","","","","","","",""
"","survey-multi-choice-replacement","77","297660","0.0-39.0-0.0","53930946","wem/bandit_party_2","A35IGG3NIWL4A3","either","3","6123","","","","","","","","","","","","","","","","","","","","","","","","Money will be added to the pool for <span style='color:blue;'>DEMOCRATS</span>","","","","","","","attn_check","","","","","","","","","0"
"","survey-multi-choice-replacement","78","303559","0.0-40.0-0.0","53930946","wem/bandit_party_2","A35IGG3NIWL4A3","either","3","4868","","","","","","","","","","","","","","","","","","","","","","","","Equal amounts of money will be added to the pool for <span style='color:blue;'>DEMOCRATS</span> and subtracted from the pool for <span style='color:red;'>REPUBLICANS</span>","","","","","","","attn_check","","","","","","","","","2"
"","survey-multi-choice-replacement","79","308202","0.0-41.0-0.0","53930946","wem/bandit_party_2","A35IGG3NIWL4A3","either","3","3623","","","","","","","","","","","","","","","","","","","","","","","","No money will be added to either pool","","","","","","","attn_check","","","","","","","","","3"
"","bandit","80","312526","0.0-42.0-0.0","53930946","wem/bandit_party_2","A35IGG3NIWL4A3","either","3","1806","","","","","","","1","0","0","0.6473934842","","0.8","0.2","0.6","0.4","","","","","0.6473934842","0.4261870849","0.6494041588","0.1387034319","","","","","","","","","","72","H","0","img/none_selected.jpg","","1","main_expt",""
"","bandit","81","314455","0.0-43.0-0.0","53930946","wem/bandit_party_2","A35IGG3NIWL4A3","either","3","416","","","","","","","1","0","0","0.5221866694","","0.8","0.2","0.6","0.4","","","","","0.5221866694","0.3223101542","0.7608835745","0.2166337036","","","","","","","","","","72","H","0","img/none_selected.jpg","","2","main_expt",""
"","bandit","82","316264","0.0-44.0-0.0","53930946","wem/bandit_party_2","A35IGG3NIWL4A3","either","3","293","","","","","","","1","0","0","0.5356292978","","0.8","0.2","0.6","0.4","","","","","0.5356292978","0.2541217019","0.7745567172","0.3253899216","","","","","","","","","","72","H","0","img/none_selected.jpg","","3","main_expt",""
"","bandit","83","318085","0.0-45.0-0.0","53930946","wem/bandit_party_2","A35IGG3NIWL4A3","either","3","303","","","","","","","0","0","1","0.5154592071","","0.8","0.2","0.6","0.4","","","","","0.5154592071","0.2272043942","0.8315703218","0.3003293127","","","","","","","","","","72","H","0","img/none_selected.jpg","","4","main_expt",""
"","bandit","84","319900","0.0-46.0-0.0","53930946","wem/bandit_party_2","A35IGG3NIWL4A3","either","3","289","","","","","","","0","0","1","0.4578896037","","0.8","0.2","0.6","0.4","","","","","0.4578896037","0.2967729676","0.8380789219","0.3839660868","","","","","","","","","","72","H","0","img/none_selected.jpg","","5","main_expt",""
"","bandit","85","321667","0.0-47.0-0.0","53930946","wem/bandit_party_2","A35IGG3NIWL4A3","either","3","253","","","","","","","0","1","0","","0.3211998527","0.8","0.2","0.6","0.4","0.4825789634","0.3211998527","0.8233568153","0.3833463511","","","","","","","","","","","","","","74","J","1","","","6","main_expt",""
"","bandit","86","323417","0.0-48.0-0.0","53930946","wem/bandit_party_2","A35IGG3NIWL4A3","either","3","232","","","","","","","0","1","0","","0.4190649117","0.8","0.2","0.6","0.4","0.4013658759","0.4190649117","0.8672840292","0.3173395401","","","","","","","","","","","","","","74","J","1","","","7","main_expt",""
"","bandit","87","325167","0.0-49.0-0.0","53930946","wem/bandit_party_2","A35IGG3NIWL4A3","either","3","237","","","","","","","0","1","0","","0.5253498774","0.8","0.2","0.6","0.4","0.3721769634","0.5253498774","0.7921451217","0.3265190876","","","","","","","","","","","","","","74","J","1","","","8","main_expt",""
"","bandit","88","326943","0.0-50.0-0.0","53930946","wem/bandit_party_2","A35IGG3NIWL4A3","either","3","259","","","","","","","0","0","1","","0.5552176016","0.8","0.2","0.6","0.4","0.3934089605","0.5552176016","0.7826569337","0.4229840653","","","","","","","","","","","","","","74","J","1","","","9","main_expt",""
"","bandit","89","328716","0.0-51.0-0.0","53930946","wem/bandit_party_2","A35IGG3NIWL4A3","either","3","254","","","","","","","0","1","0","","0.654745146","0.8","0.2","0.6","0.4","0.3360942297","0.654745146","0.7150392401","0.5107168356","","","","","","","","","","","","","","74","J","1","","","10","main_expt",""
"","bandit","90","330490","0.0-52.0-0.0","53930946","wem/bandit_party_2","A35IGG3NIWL4A3","either","3","260","","","","","","","0","0","1","","0.6089063278","0.8","0.2","0.6","0.4","0.4969537907","0.6089063278","0.6906605055","0.4383577931","","","","","","","","","","","","","","74","J","1","","","11","main_expt",""
"","bandit","91","332121","0.0-53.0-0.0","53930946","wem/bandit_party_2","A35IGG3NIWL4A3","either","3","99","","","","","","","1","0","0","0.559155858","","0.8","0.2","0.6","0.4","","","","","0.4760264401","0.559155858","0.6725575113","0.5487148549","","","","","","","","","","74","J","1","","","12","main_expt",""
"","bandit","92","333885","0.0-54.0-0.0","53930946","wem/bandit_party_2","A35IGG3NIWL4A3","either","3","243","","","","","","","0","1","0","","0.6464491645","0.8","0.2","0.6","0.4","0.4008761295","0.6464491645","0.7404599176","0.7407599438","","","","","","","","","","","","","","74","J","1","","","13","main_expt",""
"","bandit","93","335669","0.0-55.0-0.0","53930946","wem/bandit_party_2","A35IGG3NIWL4A3","either","3","266","","","","","","","0","1","0","","0.6936958995","0.8","0.2","0.6","0.4","0.358486362","0.6936958995","0.6751607758","0.8307131687","","","","","","","","","","","","","","74","J","1","","","14","main_expt",""
"","bandit","94","337353","0.0-56.0-0.0","53930946","wem/bandit_party_2","A35IGG3NIWL4A3","either","3","157","","","","","","","0","0","1","","0.731471075","0.8","0.2","0.6","0.4","0.395258373","0.731471075","0.6115440925","0.8114394421","","","","","","","","","","","","","","74","J","1","","","15","main_expt",""
"","bandit","95","339119","0.0-57.0-0.0","53930946","wem/bandit_party_2","A35IGG3NIWL4A3","either","3","240","","","","","","","1","0","0","0.6487541525","","0.8","0.2","0.6","0.4","","","","","0.4197334966","0.6487541525","0.7019001419","0.8242397169","","","","","","","","","","74","J","1","","","16","main_expt",""
"","bandit","96","340796","0.0-58.0-0.0","53930946","wem/bandit_party_2","A35IGG3NIWL4A3","either","3","165","","","","","","","0","0","1","","0.7654634758","0.8","0.2","0.6","0.4","0.2160816064","0.7654634758","0.7017998","0.8317633157","","","","","","","","","","","","","","74","J","1","","","17","main_expt",""
"","bandit","97","342632","0.0-59.0-0.0","53930946","wem/bandit_party_2","A35IGG3NIWL4A3","either","3","314","","","","","","","0","1","0","","0.7160830043","0.8","0.2","0.6","0.4","0.2058632209","0.7160830043","0.7672473748","0.8158638682","","","","","","","","","","","","","","74","J","1","","","18","main_expt",""
"","bandit","98","344451","0.0-60.0-0.0","53930946","wem/bandit_party_2","A35IGG3NIWL4A3","either","3","295","","","","","","","0","1","0","","0.6856656502","0.8","0.2","0.6","0.4","0.2314559036","0.6856656502","0.7950219121","0.8291878069","","","","","","","","","","","","","","74","J","1","","","19","main_expt",""
"","bandit","99","346290","0.0-61.0-0.0","53930946","wem/bandit_party_2","A35IGG3NIWL4A3","either","3","315","","","","","","","0","1","0","","0.6829400921","0.8","0.2","0.6","0.4","0.1762066147","0.6829400921","0.8460513568","0.8665153398","","","","","","","","","","","","","","74","J","1","","","20","main_expt",""
"","bandit","100","348086","0.0-62.0-0.0","53930946","wem/bandit_party_2","A35IGG3NIWL4A3","either","3","278","","","","","","","0","0","1","","0.6849203215","0.8","0.2","0.6","0.4","0.150477598","0.6849203215","0.8571228725","0.8181415858","","","","","","","","","","","","","","74","J","1","","","21","main_expt",""
"","bandit","101","349862","0.0-63.0-0.0","53930946","wem/bandit_party_2","A35IGG3NIWL4A3","either","3","256","","","","","","","1","0","0","0.6832197831","","0.8","0.2","0.6","0.4","","","","","0.1957635407","0.6832197831","0.8498483749","0.7731960963","","","","","","","","","","74","J","1","","","22","main_expt",""
"","bandit","102","351646","0.0-64.0-0.0","53930946","wem/bandit_party_2","A35IGG3NIWL4A3","either","3","262","","","","","","","0","1","0","","0.6103957523","0.8","0.2","0.6","0.4","0.2193187944","0.6103957523","0.887495535","0.8004626553","","","","","","","","","","","","","","74","J","1","","","23","main_expt",""
"","bandit","103","353377","0.0-65.0-0.0","53930946","wem/bandit_party_2","A35IGG3NIWL4A3","either","3","216","","","","","","","0","1","0","","0.5485819736","0.8","0.2","0.6","0.4","0.1836328706","0.5485819736","0.918231735","0.7941911222","","","","","","","","","","","","","","74","J","1","","","24","main_expt",""
"","bandit","104","355141","0.0-66.0-0.0","53930946","wem/bandit_party_2","A35IGG3NIWL4A3","either","3","244","","","","","","","0","0","1","","0.5852935809","0.8","0.2","0.6","0.4","0.1410441375","0.5852935809","0.9111146318","0.7100633829","","","","","","","","","","","","","","74","J","1","","","25","main_expt",""
"","bandit","105","356886","0.0-67.0-0.0","53930946","wem/bandit_party_2","A35IGG3NIWL4A3","either","3","218","","","","","","","1","0","0","0.6097892937","","0.8","0.2","0.6","0.4","","","","","0.1082593399","0.6097892937","0.9190640316","0.6872129375","","","","","","","","","","74","J","1","","","26","main_expt",""
"","bandit","106","358682","0.0-68.0-0.0","53930946","wem/bandit_party_2","A35IGG3NIWL4A3","either","3","266","","","","","","","0","0","1","","0.6653335402","0.8","0.2","0.6","0.4","0.1042047793","0.6653335402","0.9372614837","0.6798864795","","","","","","","","","","","","","","74","J","1","","","27","main_expt",""
"","bandit","107","360384","0.0-69.0-0.0","53930946","wem/bandit_party_2","A35IGG3NIWL4A3","either","3","189","","","","","","","0","1","0","","0.9269484959","0.8","0.2","0.6","0.4","0.1153509117","0.6850825106","0.9269484959","0.6812343762","","","","","","","","","","","","","","75","K","2","","","28","main_expt",""
"","bandit","108","362177","0.0-70.0-0.0","53930946","wem/bandit_party_2","A35IGG3NIWL4A3","either","3","270","","","","","","","1","0","0","0.9376772981","","0.8","0.2","0.6","0.4","","","","","0.1601566248","0.7309016742","0.9376772981","0.5305157647","","","","","","","","","","75","K","2","","","29","main_expt",""
"","bandit","109","363989","0.0-71.0-0.0","53930946","wem/bandit_party_2","A35IGG3NIWL4A3","either","3","284","","","","","","","1","0","0","0.8795505253","","0.8","0.2","0.6","0.4","","","","","0.09548927903","0.8141980113","0.8795505253","0.4713174284","","","","","","","","","","75","K","2","","","30","main_expt",""
"","bandit","110","365767","0.0-72.0-0.0","53930946","wem/bandit_party_2","A35IGG3NIWL4A3","either","3","261","","","","","","","0","0","1","","0.8605863748","0.8","0.2","0.6","0.4","0.09272353297","0.8926711601","0.8605863748","0.2938490869","","","","","","","","","","","","","","75","K","2","","","31","main_expt",""
"","bandit","111","367382","0.0-73.0-0.0","53930946","wem/bandit_party_2","A35IGG3NIWL4A3","either","3","94","","","","","","","0","1","0","","0.757600507","0.8","0.2","0.6","0.4","0.09547929832","0.8397563013","0.757600507","0.3005160425","","","","","","","","","","","","","","75","K","2","","","32","main_expt",""
"","bandit","112","369204","0.0-74.0-0.0","53930946","wem/bandit_party_2","A35IGG3NIWL4A3","either","3","293","","","","","","","0","0","1","0.7257103923","","0.8","0.2","0.6","0.4","","","","","0.08683876107","0.8251988787","0.7257103923","0.3661211491","","","","","","","","","","75","K","2","","","33","main_expt",""
"","bandit","113","370994","0.0-75.0-0.0","53930946","wem/bandit_party_2","A35IGG3NIWL4A3","either","3","273","","","","","","","0","0","1","","0.5786815464","0.8","0.2","0.6","0.4","0.08117088791","0.7303528712","0.5786815464","0.4614725573","","","","","","","","","","","","","","75","K","2","","","34","main_expt",""
"","bandit","114","372772","0.0-76.0-0.0","53930946","wem/bandit_party_2","A35IGG3NIWL4A3","either","3","250","","","","","","","0","0","1","","0.4597324626","0.8","0.2","0.6","0.4","0.09593582107","0.8093673003","0.4812266686","0.4597324626","","","","","","","","","","","","","","76","L","3","","","35","main_expt",""
"","bandit","115","374589","0.0-77.0-0.0","53930946","wem/bandit_party_2","A35IGG3NIWL4A3","either","3","290","","","","","","","0","1","0","","0.4294742096","0.8","0.2","0.6","0.4","0.1392988708","0.79718131","0.4459447539","0.4294742096","","","","","","","","","","","","","","76","L","3","","","36","main_expt",""
"","bandit","116","376404","0.0-78.0-0.0","53930946","wem/bandit_party_2","A35IGG3NIWL4A3","either","3","296","","","","","","","0","1","0","","0.5301274199","0.8","0.2","0.6","0.4","0.07673209605","0.8157762275","0.5737218407","0.5301274199","","","","","","","","","","","","","","76","L","3","","","37","main_expt",""
"","bandit","117","378223","0.0-79.0-0.0","53930946","wem/bandit_party_2","A35IGG3NIWL4A3","either","3","284","","","","","","","0","0","1","","0.5746889943","0.8","0.2","0.6","0.4","0.1078843958","0.7941499978","0.6008421093","0.5746889943","","","","","","","","","","","","","","76","L","3","","","38","main_expt",""
"","bandit","118","380045","0.0-80.0-0.0","53930946","wem/bandit_party_2","A35IGG3NIWL4A3","either","3","296","","","","","","","0","1","0","","0.6621100331","0.8","0.2","0.6","0.4","0.09731722171","0.7352357368","0.6076920036","0.6621100331","","","","","","","","","","","","","","76","L","3","","","39","main_expt",""
"","bandit","119","381811","0.0-81.0-0.0","53930946","wem/bandit_party_2","A35IGG3NIWL4A3","either","3","242","","","","","","","0","1","0","","0.6794361822","0.8","0.2","0.6","0.4","0.2123509389","0.7920886563","0.6616622706","0.6794361822","","","","","","","","","","","","","","76","L","3","","","40","main_expt",""
"","bandit","120","383603","0.0-82.0-0.0","53930946","wem/bandit_party_2","A35IGG3NIWL4A3","either","3","268","","","","","","","0","1","0","","0.7140523024","0.8","0.2","0.6","0.4","0.1265365425","0.8780543775","0.6945341382","0.7140523024","","","","","","","","","","","","","","76","L","3","","","41","main_expt",""
"","bandit","121","385382","0.0-83.0-0.0","53930946","wem/bandit_party_2","A35IGG3NIWL4A3","either","3","251","","","","","","","1","0","0","0.6669732994","","0.8","0.2","0.6","0.4","","","","","0.166138795","0.9167256642","0.6833149102","0.6669732994","","","","","","","","","","76","L","3","","","42","main_expt",""
"","bandit","122","387192","0.0-84.0-0.0","53930946","wem/bandit_party_2","A35IGG3NIWL4A3","either","3","281","","","","","","","0","1","0","","0.5435093165","0.8","0.2","0.6","0.4","0.1782339186","0.9407985187","0.7094953576","0.5435093165","","","","","","","","","","","","","","76","L","3","","","43","main_expt",""
"","bandit","123","389010","0.0-85.0-0.0","53930946","wem/bandit_party_2","A35IGG3NIWL4A3","either","3","298","","","","","","","0","1","0","","0.6002661395","0.8","0.2","0.6","0.4","0.1342945815","0.9000978766","0.7519468023","0.6002661395","","","","","","","","","","","","","","76","L","3","","","44","main_expt",""
"","bandit","124","390769","0.0-86.0-0.0","53930946","wem/bandit_party_2","A35IGG3NIWL4A3","either","3","244","","","","","","","0","1","0","","0.5948203474","0.8","0.2","0.6","0.4","0.09086288848","0.9190036262","0.7673203249","0.5948203474","","","","","","","","","","","","","","76","L","3","","","45","main_expt",""
"","bandit","125","392575","0.0-87.0-0.0","53930946","wem/bandit_party_2","A35IGG3NIWL4A3","either","3","288","","","","","","","0","1","0","","0.6230250108","0.8","0.2","0.6","0.4","0.06420934006","0.8865788656","0.722836051","0.6230250108","","","","","","","","","","","","","","76","L","3","","","46","main_expt",""
"","bandit","126","394378","0.0-88.0-0.0","53930946","wem/bandit_party_2","A35IGG3NIWL4A3","either","3","272","","","","","","","0","1","0","","0.7239235909","0.8","0.2","0.6","0.4","0.02332738683","0.8207935484","0.7392487755","0.7239235909","","","","","","","","","","","","","","76","L","3","","","47","main_expt",""
"","bandit","127","396208","0.0-89.0-0.0","53930946","wem/bandit_party_2","A35IGG3NIWL4A3","either","3","316","","","","","","","0","0","1","","0.7715310514","0.8","0.2","0.6","0.4","0.03517565614","0.8170742187","0.7551111279","0.7715310514","","","","","","","","","","","","","","76","L","3","","","48","main_expt",""
"","bandit","128","398007","0.0-90.0-0.0","53930946","wem/bandit_party_2","A35IGG3NIWL4A3","either","3","281","","","","","","","0","1","0","","0.822179592","0.8","0.2","0.6","0.4","0.04466115719","0.7874830355","0.6917772817","0.822179592","","","","","","","","","","","","","","76","L","3","","","49","main_expt",""
"","bandit","129","399783","0.0-91.0-0.0","53930946","wem/bandit_party_2","A35IGG3NIWL4A3","either","3","249","","","","","","","1","0","0","0.8108951243","","0.8","0.2","0.6","0.4","","","","","0.05053383529","0.8279472521","0.6689959301","0.8108951243","","","","","","","","","","76","L","3","","","50","main_expt",""
"","bandit","130","401527","0.0-92.0-0.0","53930946","wem/bandit_party_2","A35IGG3NIWL4A3","either","3","217","","","","","","","0","1","0","","0.7649170446","0.8","0.2","0.6","0.4","0.04681033125","0.8426817256","0.6020608281","0.7649170446","","","","","","","","","","","","","","76","L","3","","","51","main_expt",""
"","bandit","131","403355","0.0-93.0-0.0","53930946","wem/bandit_party_2","A35IGG3NIWL4A3","either","3","295","","","","","","","0","0","1","","0.8169848275","0.8","0.2","0.6","0.4","0.09308222201","0.8377647656","0.6583182673","0.8169848275","","","","","","","","","","","","","","76","L","3","","","52","main_expt",""
"","bandit","132","405136","0.0-94.0-0.0","53930946","wem/bandit_party_2","A35IGG3NIWL4A3","either","3","248","","","","","","","1","0","0","0.8843577791","","0.8","0.2","0.6","0.4","","","","","0.1397702629","0.8241398149","0.5419436754","0.8843577791","","","","","","","","","","76","L","3","","","53","main_expt",""
"","bandit","133","406950","0.0-95.0-0.0","53930946","wem/bandit_party_2","A35IGG3NIWL4A3","either","3","285","","","","","","","1","0","0","0.8854515068","","0.8","0.2","0.6","0.4","","","","","0.110287685","0.7289352116","0.5717614462","0.8854515068","","","","","","","","","","76","L","3","","","54","main_expt",""
"","bandit","134","408699","0.0-96.0-0.0","53930946","wem/bandit_party_2","A35IGG3NIWL4A3","either","3","217","","","","","","","0","1","0","","0.8884574585","0.8","0.2","0.6","0.4","0.1843384007","0.5895019519","0.5497935615","0.8884574585","","","","","","","","","","","","","","76","L","3","","","55","main_expt",""
"","bandit","135","410459","0.0-97.0-0.0","53930946","wem/bandit_party_2","A35IGG3NIWL4A3","either","3","229","","","","","","","0","0","1","0.8840911236","","0.8","0.2","0.6","0.4","","","","","0.2056752237","0.4622464331","0.4902645195","0.8840911236","","","","","","","","","","76","L","3","","","56","main_expt",""
"","bandit","136","412553","0.0-98.0-0.0","53930946","wem/bandit_party_2","A35IGG3NIWL4A3","either","3","572","","","","","","","1","0","0","0.864283103","","0.8","0.2","0.6","0.4","","","","","0.3410726922","0.490024734","0.5258365243","0.864283103","","","","","","","","","","76","L","3","","","57","main_expt",""
"","bandit","137","414293","0.0-99.0-0.0","53930946","wem/bandit_party_2","A35IGG3NIWL4A3","either","3","220","","","","","","","1","0","0","0.7377821737","","0.8","0.2","0.6","0.4","","","","","0.3873695161","0.6182628796","0.6097664349","0.7377821737","","","","","","","","","","76","L","3","","","58","main_expt",""
"","bandit","138","416123","0.0-100.0-0.0","53930946","wem/bandit_party_2","A35IGG3NIWL4A3","either","3","304","","","","","","","0","0","1","0.7469541206","","0.8","0.2","0.6","0.4","","","","","0.3281321534","0.6976829826","0.6016711108","0.7469541206","","","","","","","","","","76","L","3","","","59","main_expt",""
"","bandit","139","417963","0.0-101.0-0.0","53930946","wem/bandit_party_2","A35IGG3NIWL4A3","either","3","311","","","","","","","1","0","0","0.8019510571","","0.8","0.2","0.6","0.4","","","","","0.2380439254","0.675433977","0.5544917648","0.8019510571","","","","","","","","","","76","L","3","","","60","main_expt",""
"","bandit","140","419754","0.0-102.0-0.0","53930946","wem/bandit_party_2","A35IGG3NIWL4A3","either","3","265","","","","","","","0","1","0","","0.8943887388","0.8","0.2","0.6","0.4","0.2228222105","0.7206550838","0.6842720067","0.8943887388","","","","","","","","","","","","","","76","L","3","","","61","main_expt",""
"","bandit","141","421552","0.0-103.0-0.0","53930946","wem/bandit_party_2","A35IGG3NIWL4A3","either","3","279","","","","","","","0","1","0","","0.8942973556","0.8","0.2","0.6","0.4","0.2489253665","0.7184677658","0.6824345281","0.8942973556","","","","","","","","","","","","","","76","L","3","","","62","main_expt",""
"","bandit","142","423369","0.0-104.0-0.0","53930946","wem/bandit_party_2","A35IGG3NIWL4A3","either","3","283","","","","","","","0","1","0","","0.8829609874","0.8","0.2","0.6","0.4","0.2298237489","0.6785259816","0.7321168219","0.8829609874","","","","","","","","","","","","","","76","L","3","","","63","main_expt",""
"","bandit","143","425183","0.0-105.0-0.0","53930946","wem/bandit_party_2","A35IGG3NIWL4A3","either","3","285","","","","","","","1","0","0","0.8175344892","","0.8","0.2","0.6","0.4","","","","","0.1849055857","0.6349383059","0.8123013145","0.8175344892","","","","","","","","","","76","L","3","","","64","main_expt",""
"","bandit","144","427123","0.0-106.0-0.0","53930946","wem/bandit_party_2","A35IGG3NIWL4A3","either","3","416","","","","","","","0","1","0","","0.7812905168","0.8","0.2","0.6","0.4","0.2285715909","0.629769122","0.8236121316","0.7812905168","","","","","","","","","","","","","","76","L","3","","","65","main_expt",""
"","bandit","145","428924","0.0-107.0-0.0","53930946","wem/bandit_party_2","A35IGG3NIWL4A3","either","3","279","","","","","","","0","0","1","0.7848445355","","0.8","0.2","0.6","0.4","","","","","0.2477643906","0.7158950816","0.8270077233","0.7848445355","","","","","","","","","","76","L","3","","","66","main_expt",""
"","bandit","146","430571","0.0-108.0-0.0","53930946","wem/bandit_party_2","A35IGG3NIWL4A3","either","3","130","","","","","","","1","0","0","0.763143195","","0.8","0.2","0.6","0.4","","","","","0.1801078726","0.6309271871","0.7601471472","0.763143195","","","","","","","","","","76","L","3","","","67","main_expt",""
"","bandit","147","432267","0.0-109.0-0.0","53930946","wem/bandit_party_2","A35IGG3NIWL4A3","either","3","173","","","","","","","0","1","0","","0.7966751536","0.8","0.2","0.6","0.4","0.08479184886","0.617221228","0.7567750057","0.7966751536","","","","","","","","","","","","","","76","L","3","","","68","main_expt",""
"","bandit","148","433915","0.0-110.0-0.0","53930946","wem/bandit_party_2","A35IGG3NIWL4A3","either","3","132","","","","","","","0","1","0","","0.8534335227","0.8","0.2","0.6","0.4","0.06982522498","0.6235929763","0.6871277649","0.8534335227","","","","","","","","","","","","","","76","L","3","","","69","main_expt",""
"","bandit","149","435693","0.0-111.0-0.0","53930946","wem/bandit_party_2","A35IGG3NIWL4A3","either","3","257","","","","","","","0","0","1","","0.8915498471","0.8","0.2","0.6","0.4","0.05029268469","0.5543620559","0.773099018","0.8915498471","","","","","","","","","","","","","","76","L","3","","","70","main_expt",""
"","bandit","150","437458","0.0-112.0-0.0","53930946","wem/bandit_party_2","A35IGG3NIWL4A3","either","3","227","","","","","","","0","1","0","","0.8736989015","0.8","0.2","0.6","0.4","0.06413839938","0.5333999135","0.7412476729","0.8736989015","","","","","","","","","","","","","","76","L","3","","","71","main_expt",""
"","bandit","151","439264","0.0-113.0-0.0","53930946","wem/bandit_party_2","A35IGG3NIWL4A3","either","3","271","","","","","","","1","0","0","0.8837551658","","0.8","0.2","0.6","0.4","","","","","0.05155778705","0.5905126671","0.8080704968","0.8837551658","","","","","","","","","","76","L","3","","","72","main_expt",""
"","bandit","152","441026","0.0-114.0-0.0","53930946","wem/bandit_party_2","A35IGG3NIWL4A3","either","3","240","","","","","","","0","1","0","","0.8495494246","0.8","0.2","0.6","0.4","0.0232747386","0.6925119087","0.8270016227","0.8495494246","","","","","","","","","","","","","","76","L","3","","","73","main_expt",""
"","bandit","153","442694","0.0-115.0-0.0","53930946","wem/bandit_party_2","A35IGG3NIWL4A3","either","3","143","","","","","","","0","1","0","","0.9127472651","0.8","0.2","0.6","0.4","0.04751547773","0.7134745341","0.7872017979","0.9127472651","","","","","","","","","","","","","","76","L","3","","","74","main_expt",""
"","bandit","154","444514","0.0-116.0-0.0","53930946","wem/bandit_party_2","A35IGG3NIWL4A3","either","3","298","","","","","","","1","0","0","0.9199060817","","0.8","0.2","0.6","0.4","","","","","0.05282531612","0.8065440948","0.6167225576","0.9199060817","","","","","","","","","","76","L","3","","","75","main_expt",""
"","bandit","155","446355","0.0-117.0-0.0","53930946","wem/bandit_party_2","A35IGG3NIWL4A3","either","3","317","","","","","","","0","1","0","","0.8691294168","0.8","0.2","0.6","0.4","0.08738729654","0.7849172319","0.637182095","0.8691294168","","","","","","","","","","","","","","76","L","3","","","76","main_expt",""
"","bandit","156","448194","0.0-118.0-0.0","53930946","wem/bandit_party_2","A35IGG3NIWL4A3","either","3","309","","","","","","","0","1","0","","0.9111329321","0.8","0.2","0.6","0.4","0.08851312664","0.7818962729","0.7169911294","0.9111329321","","","","","","","","","","","","","","76","L","3","","","77","main_expt",""
"","bandit","157","449906","0.0-119.0-0.0","53930946","wem/bandit_party_2","A35IGG3NIWL4A3","either","3","190","","","","","","","0","1","0","","0.9286966754","0.8","0.2","0.6","0.4","0.145228539","0.7002933386","0.7446448061","0.9286966754","","","","","","","","","","","","","","76","L","3","","","78","main_expt",""
"","bandit","158","451550","0.0-120.0-0.0","53930946","wem/bandit_party_2","A35IGG3NIWL4A3","either","3","126","","","","","","","1","0","0","0.9616021792","","0.8","0.2","0.6","0.4","","","","","0.1669860915","0.6510109529","0.8152221547","0.9616021792","","","","","","","","","","76","L","3","","","79","main_expt",""
"","bandit","159","453417","0.0-121.0-0.0","53930946","wem/bandit_party_2","A35IGG3NIWL4A3","either","3","345","","","","","","","0","1","0","","0.950571795","0.8","0.2","0.6","0.4","0.1922913003","0.6765614865","0.810351938","0.950571795","","","","","","","","","","","","","","76","L","3","","","80","main_expt",""
"","bandit","160","455233","0.0-122.0-0.0","53930946","wem/bandit_party_2","A35IGG3NIWL4A3","either","3","288","","","","","","","0","1","0","","0.9331160128","0.8","0.2","0.6","0.4","0.2407870914","0.5908869344","0.8895110989","0.9331160128","","","","","","","","","","","","","","76","L","3","","","81","main_expt",""
"","bandit","161","457054","0.0-123.0-0.0","53930946","wem/bandit_party_2","A35IGG3NIWL4A3","either","3","289","","","","","","","1","0","0","0.9465986336","","0.8","0.2","0.6","0.4","","","","","0.3077898034","0.5267531711","0.9046816681","0.9465986336","","","","","","","","","","76","L","3","","","82","main_expt",""
"","bandit","162","458721","0.0-124.0-0.0","53930946","wem/bandit_party_2","A35IGG3NIWL4A3","either","3","151","","","","","","","0","1","0","","0.9371159138","0.8","0.2","0.6","0.4","0.2337579628","0.6168373964","0.8465278631","0.9371159138","","","","","","","","","","","","","","76","L","3","","","83","main_expt",""
"","bandit","163","460544","0.0-125.0-0.0","53930946","wem/bandit_party_2","A35IGG3NIWL4A3","either","3","289","","","","","","","0","1","0","","0.8998840018","0.8","0.2","0.6","0.4","0.2781329454","0.5733990252","0.7584930438","0.8998840018","","","","","","","","","","","","","","76","L","3","","","84","main_expt",""
"","bandit","164","462374","0.0-126.0-0.0","53930946","wem/bandit_party_2","A35IGG3NIWL4A3","either","3","305","","","","","","","0","1","0","","0.9102188985","0.8","0.2","0.6","0.4","0.3013149798","0.4719695616","0.7727946294","0.9102188985","","","","","","","","","","","","","","76","L","3","","","85","main_expt",""
"","bandit","165","464115","0.0-127.0-0.0","53930946","wem/bandit_party_2","A35IGG3NIWL4A3","either","3","220","","","","","","","0","1","0","","0.9000055418","0.8","0.2","0.6","0.4","0.3231836659","0.6941651786","0.8216594778","0.9000055418","","","","","","","","","","","","","","76","L","3","","","86","main_expt",""
"","bandit","166","465919","0.0-128.0-0.0","53930946","wem/bandit_party_2","A35IGG3NIWL4A3","either","3","271","","","","","","","1","0","0","0.8563468124","","0.8","0.2","0.6","0.4","","","","","0.3986379136","0.5408952125","0.7833884788","0.8563468124","","","","","","","","","","76","L","3","","","87","main_expt",""
"","bandit","167","467623","0.0-129.0-0.0","53930946","wem/bandit_party_2","A35IGG3NIWL4A3","either","3","178","","","","","","","0","0","1","","0.7349543302","0.8","0.2","0.6","0.4","0.4230151841","0.5438891422","0.7804426693","0.7349543302","","","","","","","","","","","","","","76","L","3","","","88","main_expt",""
"","bandit","168","469389","0.0-130.0-0.0","53930946","wem/bandit_party_2","A35IGG3NIWL4A3","either","3","248","","","","","","","0","1","0","","0.7907967515","0.8","0.2","0.6","0.4","0.3761858397","0.4294971294","0.7930928848","0.7907967515","","","","","","","","","","","","","","76","L","3","","","89","main_expt",""
"","bandit","169","471171","0.0-131.0-0.0","53930946","wem/bandit_party_2","A35IGG3NIWL4A3","either","3","261","","","","","","","0","1","0","","0.7883246469","0.8","0.2","0.6","0.4","0.4799086841","0.4928337868","0.7683039237","0.7883246469","","","","","","","","","","","","","","76","L","3","","","90","main_expt",""
"","bandit","170","472988","0.0-132.0-0.0","53930946","wem/bandit_party_2","A35IGG3NIWL4A3","either","3","281","","","","","","","0","1","0","","0.8389096604","0.8","0.2","0.6","0.4","0.4558425901","0.5655090935","0.8072091422","0.8389096604","","","","","","","","","","","","","","76","L","3","","","91","main_expt",""
"","bandit","171","474789","0.0-133.0-0.0","53930946","wem/bandit_party_2","A35IGG3NIWL4A3","either","3","283","","","","","","","1","0","0","0.8064187158","","0.8","0.2","0.6","0.4","","","","","0.3781515597","0.6154818033","0.7791444337","0.8064187158","","","","","","","","","","76","L","3","","","92","main_expt",""
"","bandit","172","476676","0.0-134.0-0.0","53930946","wem/bandit_party_2","A35IGG3NIWL4A3","either","3","371","","","","","","","1","0","0","0.7542368763","","0.8","0.2","0.6","0.4","","","","","0.2858753042","0.7381217307","0.8498372391","0.7542368763","","","","","","","","","","76","L","3","","","93","main_expt",""
"","bandit","173","478501","0.0-135.0-0.0","53930946","wem/bandit_party_2","A35IGG3NIWL4A3","either","3","302","","","","","","","0","1","0","","0.6932487021","0.8","0.2","0.6","0.4","0.3914428564","0.7776388333","0.8440610374","0.6932487021","","","","","","","","","","","","","","76","L","3","","","94","main_expt",""
"","bandit","174","480294","0.0-136.0-0.0","53930946","wem/bandit_party_2","A35IGG3NIWL4A3","either","3","266","","","","","","","0","1","0","","0.6706070003","0.8","0.2","0.6","0.4","0.3800018616","0.8299152283","0.8092418145","0.6706070003","","","","","","","","","","","","","","76","L","3","","","95","main_expt",""
"","bandit","175","482094","0.0-137.0-0.0","53930946","wem/bandit_party_2","A35IGG3NIWL4A3","either","3","276","","","","","","","0","0","1","0.6670251336","","0.8","0.2","0.6","0.4","","","","","0.3078584031","0.7697811485","0.8655172998","0.6670251336","","","","","","","","","","76","L","3","","","96","main_expt",""
"","bandit","176","483644","0.0-138.0-0.0","53930946","wem/bandit_party_2","A35IGG3NIWL4A3","either","3","27","","","","","","","1","0","0","0.7023758817","","0.8","0.2","0.6","0.4","","","","","0.218486712","0.7487724405","0.8735151232","0.7023758817","","","","","","","","","","76","L","3","","","97","main_expt",""
"","bandit","177","485483","0.0-139.0-0.0","53930946","wem/bandit_party_2","A35IGG3NIWL4A3","either","3","307","","","","","","","0","0","1","0.7036518389","","0.8","0.2","0.6","0.4","","","","","0.2037628256","0.7450583294","0.84409386","0.7036518389","","","","","","","","","","76","L","3","","","98","main_expt",""
"","bandit","178","487292","0.0-140.0-0.0","53930946","wem/bandit_party_2","A35IGG3NIWL4A3","either","3","277","","","","","","","0","1","0","","0.8401346726","0.8","0.2","0.6","0.4","0.2400196326","0.7227120129","0.8089648913","0.8401346726","","","","","","","","","","","","","","76","L","3","","","99","main_expt",""
"","bandit","179","489082","0.0-141.0-0.0","53930946","wem/bandit_party_2","A35IGG3NIWL4A3","either","3","259","","","","","","","0","1","0","","0.8640782416","0.8","0.2","0.6","0.4","0.3298222115","0.5872141049","0.7259557377","0.8640782416","","","","","","","","","","","","","","76","L","3","","","100","main_expt",""
"","bandit","180","490931","0.0-142.0-0.0","53930946","wem/bandit_party_2","A35IGG3NIWL4A3","either","3","330","","","","","","","1","0","0","0.8232172207","","0.8","0.2","0.6","0.4","","","","","0.3108047587","0.6432213136","0.6332869741","0.8232172207","","","","","","","","","","76","L","3","","","101","main_expt",""
"","bandit","181","492740","0.0-143.0-0.0","53930946","wem/bandit_party_2","A35IGG3NIWL4A3","either","3","269","","","","","","","1","0","0","0.8451901448","","0.8","0.2","0.6","0.4","","","","","0.2869381514","0.6009476408","0.659443461","0.8451901448","","","","","","","","","","76","L","3","","","102","main_expt",""
"","bandit","182","494502","0.0-144.0-0.0","53930946","wem/bandit_party_2","A35IGG3NIWL4A3","either","3","230","","","","","","","0","1","0","","0.8792283932","0.8","0.2","0.6","0.4","0.246485708","0.6120105745","0.5959971703","0.8792283932","","","","","","","","","","","","","","76","L","3","","","103","main_expt",""
"","bandit","183","496036","0.0-145.0-0.0","53930946","wem/bandit_party_2","A35IGG3NIWL4A3","either","3","13","","","","","","","1","0","0","0.8887181638","","0.8","0.2","0.6","0.4","","","","","0.2175667678","0.6821098495","0.5643630141","0.8887181638","","","","","","","","","","76","L","3","","","104","main_expt",""
"","bandit","184","497846","0.0-146.0-0.0","53930946","wem/bandit_party_2","A35IGG3NIWL4A3","either","3","273","","","","","","","0","0","1","0.8013578166","","0.8","0.2","0.6","0.4","","","","","0.2645808036","0.7228510016","0.5489079514","0.8013578166","","","","","","","","","","76","L","3","","","105","main_expt",""
"","bandit","185","499683","0.0-147.0-0.0","53930946","wem/bandit_party_2","A35IGG3NIWL4A3","either","3","311","","","","","","","0","0","1","","0.7307006529","0.8","0.2","0.6","0.4","0.2652424516","0.6639212405","0.4336033326","0.7307006529","","","","","","","","","","","","","","76","L","3","","","106","main_expt",""
"","bandit","186","501455","0.0-148.0-0.0","53930946","wem/bandit_party_2","A35IGG3NIWL4A3","either","3","249","","","","","","","0","1","0","","0.6237034742","0.8","0.2","0.6","0.4","0.2481661544","0.6237034742","0.4779201531","0.7519500851","","","","","","","","","","","","","","74","J","1","","","107","main_expt",""
"","bandit","187","503239","0.0-149.0-0.0","53930946","wem/bandit_party_2","A35IGG3NIWL4A3","either","3","260","","","","","","","0","1","0","","0.5847293191","0.8","0.2","0.6","0.4","0.2361720859","0.5847293191","0.5075294874","0.7457577851","","","","","","","","","","","","","","74","J","1","","","108","main_expt",""
"","bandit","188","504972","0.0-150.0-0.0","53930946","wem/bandit_party_2","A35IGG3NIWL4A3","either","3","197","","","","","","","0","1","0","","0.6260859175","0.8","0.2","0.6","0.4","0.2799679389","0.6260859175","0.522842385","0.77583868","","","","","","","","","","","","","","74","J","1","","","109","main_expt",""
"","bandit","189","506762","0.0-151.0-0.0","53930946","wem/bandit_party_2","A35IGG3NIWL4A3","either","3","271","","","","","","","0","1","0","","0.4788227383","0.8","0.2","0.6","0.4","0.3333098602","0.4788227383","0.419893696","0.7520827962","","","","","","","","","","","","","","74","J","1","","","110","main_expt",""
"","bandit","190","508555","0.0-152.0-0.0","53930946","wem/bandit_party_2","A35IGG3NIWL4A3","either","3","262","","","","","","","0","0","1","","0.6019778282","0.8","0.2","0.6","0.4","0.3669732535","0.6019778282","0.431092028","0.6512809768","","","","","","","","","","","","","","74","J","1","","","111","main_expt",""
"","bandit","191","510434","0.0-153.0-0.0","53930946","wem/bandit_party_2","A35IGG3NIWL4A3","either","3","355","","","","","","","0","1","0","","0.546445977","0.8","0.2","0.6","0.4","0.389765336","0.546445977","0.3590071368","0.5891937939","","","","","","","","","","","","","","74","J","1","","","112","main_expt",""
"","bandit","192","512213","0.0-154.0-0.0","53930946","wem/bandit_party_2","A35IGG3NIWL4A3","either","3","249","","","","","","","0","0","1","0.6256092846","","0.8","0.2","0.6","0.4","","","","","0.3191506652","0.6256092846","0.4498419114","0.6490525038","","","","","","","","","","74","J","1","","","113","main_expt",""
"","bandit","193","514006","0.0-155.0-0.0","53930946","wem/bandit_party_2","A35IGG3NIWL4A3","either","3","270","","","","","","","0","1","0","","0.6577617598","0.8","0.2","0.6","0.4","0.2090321438","0.6577617598","0.4829831469","0.6283680234","","","","","","","","","","","","","","74","J","1","","","114","main_expt",""
"","bandit","194","515670","0.0-156.0-0.0","53930946","wem/bandit_party_2","A35IGG3NIWL4A3","either","3","122","","","","","","","0","1","0","","0.7140476354","0.8","0.2","0.6","0.4","0.2094439124","0.7140476354","0.4846695964","0.6064224059","","","","","","","","","","","","","","74","J","1","","","115","main_expt",""
"","bandit","195","517511","0.0-157.0-0.0","53930946","wem/bandit_party_2","A35IGG3NIWL4A3","either","3","309","","","","","","","0","1","0","","0.6589976567","0.8","0.2","0.6","0.4","0.2695181069","0.6589976567","0.5396909338","0.545813367","","","","","","","","","","","","","","74","J","1","","","116","main_expt",""
"","bandit","196","519323","0.0-158.0-0.0","53930946","wem/bandit_party_2","A35IGG3NIWL4A3","either","3","276","","","","","","","0","0","1","","0.6937703341","0.8","0.2","0.6","0.4","0.3402036285","0.6937703341","0.5378282835","0.5179373022","","","","","","","","","","","","","","74","J","1","","","117","main_expt",""
"","bandit","197","521149","0.0-159.0-0.0","53930946","wem/bandit_party_2","A35IGG3NIWL4A3","either","3","304","","","","","","","1","0","0","0.77114399","","0.8","0.2","0.6","0.4","","","","","0.3101634078","0.77114399","0.5729988564","0.4014157923","","","","","","","","","","74","J","1","","","118","main_expt",""
"","bandit","198","522959","0.0-160.0-0.0","53930946","wem/bandit_party_2","A35IGG3NIWL4A3","either","3","274","","","","","","","0","1","0","","0.710000291","0.8","0.2","0.6","0.4","0.3242193616","0.710000291","0.5630251564","0.4360264599","","","","","","","","","","","","","","74","J","1","","","119","main_expt",""
"","bandit","199","524756","0.0-161.0-0.0","53930946","wem/bandit_party_2","A35IGG3NIWL4A3","either","3","266","","","","","","","1","0","0","0.6767982245","","0.8","0.2","0.6","0.4","","","","","0.3334277272","0.6767982245","0.6482115929","0.3297853269","","","","","","","","","","74","J","1","","","120","main_expt",""
"","bandit","200","526520","0.0-162.0-0.0","53930946","wem/bandit_party_2","A35IGG3NIWL4A3","either","3","242","","","","","","","0","1","0","","0.7360115258","0.8","0.2","0.6","0.4","0.4066521311","0.7360115258","0.5688505083","0.3767442019","","","","","","","","","","","","","","74","J","1","","","121","main_expt",""
"","bandit","201","528298","0.0-163.0-0.0","53930946","wem/bandit_party_2","A35IGG3NIWL4A3","either","3","255","","","","","","","1","0","0","0.7258716992","","0.8","0.2","0.6","0.4","","","","","0.5193034213","0.7258716992","0.5349597204","0.3589515546","","","","","","","","","","74","J","1","","","122","main_expt",""
"","bandit","202","530163","0.0-164.0-0.0","53930946","wem/bandit_party_2","A35IGG3NIWL4A3","either","3","343","","","","","","","1","0","0","0.7848203729","","0.8","0.2","0.6","0.4","","","","","0.5594962391","0.7848203729","0.412887176","0.3461890545","","","","","","","","","","74","J","1","","","123","main_expt",""
"","bandit","203","532183","0.0-165.0-0.0","53930946","wem/bandit_party_2","A35IGG3NIWL4A3","either","3","489","","","","","","","0","0","1","","0.7673004895","0.8","0.2","0.6","0.4","0.6876014299","0.7673004895","0.4137060999","0.2287340519","","","","","","","","","","","","","","74","J","1","","","124","main_expt",""
"","bandit","204","534831","0.0-166.0-0.0","53930946","wem/bandit_party_2","A35IGG3NIWL4A3","either","3","1131","","","","","","","1","0","0","0.8020703208","","0.8","0.2","0.6","0.4","","","","","0.7354493796","0.8020703208","0.3226696341","0.2900718705","","","","","","","","","","74","J","1","","","125","main_expt",""
"","bandit","205","536622","0.0-167.0-0.0","53930946","wem/bandit_party_2","A35IGG3NIWL4A3","either","3","269","","","","","","","0","1","0","","0.8196031782","0.8","0.2","0.6","0.4","0.76840964","0.8196031782","0.3904211026","0.2880997441","","","","","","","","","","","","","","74","J","1","","","126","main_expt",""
"","bandit","206","538396","0.0-168.0-0.0","53930946","wem/bandit_party_2","A35IGG3NIWL4A3","either","3","250","","","","","","","0","1","0","","0.7095492128","0.8","0.2","0.6","0.4","0.7310750685","0.7095492128","0.4227014292","0.3451069126","","","","","","","","","","","","","","74","J","1","","","127","main_expt",""
"","bandit","207","540192","0.0-169.0-0.0","53930946","wem/bandit_party_2","A35IGG3NIWL4A3","either","3","264","","","","","","","0","0","1","0.711577854","","0.8","0.2","0.6","0.4","","","","","0.6582635175","0.711577854","0.543317668","0.3129298861","","","","","","","","","","74","J","1","","","128","main_expt",""
"","bandit","208","541818","0.0-170.0-0.0","53930946","wem/bandit_party_2","A35IGG3NIWL4A3","either","3","100","","","","","","","0","0","1","","0.7022761705","0.8","0.2","0.6","0.4","0.7529887683","0.7022761705","0.5906282681","0.3507055597","","","","","","","","","","","","","","74","J","1","","","129","main_expt",""
"","bandit","209","543623","0.0-171.0-0.0","53930946","wem/bandit_party_2","A35IGG3NIWL4A3","either","3","268","","","","","","","1","0","0","0.6636268631","","0.8","0.2","0.6","0.4","","","","","0.7929301986","0.7309419319","0.6636268631","0.3753424236","","","","","","","","","","75","K","2","","","130","main_expt",""
"","bandit","210","545402","0.0-172.0-0.0","53930946","wem/bandit_party_2","A35IGG3NIWL4A3","either","3","247","","","","","","","1","0","0","0.5686699027","","0.8","0.2","0.6","0.4","","","","","0.8149544693","0.6904825683","0.5686699027","0.3473486375","","","","","","","","","","75","K","2","","","131","main_expt",""
"","bandit","211","547186","0.0-173.0-0.0","53930946","wem/bandit_party_2","A35IGG3NIWL4A3","either","3","247","","","","","","","1","0","0","0.6564012045","","0.8","0.2","0.6","0.4","","","","","0.7626544417","0.7153166113","0.6564012045","0.303679922","","","","","","","","","","75","K","2","","","132","main_expt",""
"","bandit","212","548964","0.0-174.0-0.0","53930946","wem/bandit_party_2","A35IGG3NIWL4A3","either","3","241","","","","","","","0","0","1","0.5876654864","","0.8","0.2","0.6","0.4","","","","","0.7584501248","0.8135501627","0.5876654864","0.3385565331","","","","","","","","","","75","K","2","","","133","main_expt",""
"","bandit","213","550822","0.0-175.0-0.0","53930946","wem/bandit_party_2","A35IGG3NIWL4A3","either","3","337","","","","","","","0","1","0","","0.5299368298","0.8","0.2","0.6","0.4","0.7905015291","0.7707892239","0.5299368298","0.3686406913","","","","","","","","","","","","","","75","K","2","","","134","main_expt",""
"","bandit","214","552630","0.0-176.0-0.0","53930946","wem/bandit_party_2","A35IGG3NIWL4A3","either","3","288","","","","","","","0","0","1","0.4547966061","","0.8","0.2","0.6","0.4","","","","","0.7515189777","0.7689088841","0.4547966061","0.3672202126","","","","","","","","","","75","K","2","","","135","main_expt",""
"","bandit","215","554403","0.0-177.0-0.0","53930946","wem/bandit_party_2","A35IGG3NIWL4A3","either","3","244","","","","","","","1","0","0","0.7293518859","","0.8","0.2","0.6","0.4","","","","","0.7293518859","0.6641324257","0.5290841583","0.4064769993","","","","","","","","","","72","H","0","img/none_selected.jpg","","136","main_expt",""
"","bandit","216","556190","0.0-178.0-0.0","53930946","wem/bandit_party_2","A35IGG3NIWL4A3","either","3","252","","","","","","","1","0","0","0.7286216209","","0.8","0.2","0.6","0.4","","","","","0.7286216209","0.635388201","0.419904672","0.3492503667","","","","","","","","","","72","H","0","img/none_selected.jpg","","137","main_expt",""
"","bandit","217","558035","0.0-179.0-0.0","53930946","wem/bandit_party_2","A35IGG3NIWL4A3","either","3","319","","","","","","","1","0","0","0.7425921641","","0.8","0.2","0.6","0.4","","","","","0.7425921641","0.6889508363","0.4532768315","0.3315752647","","","","","","","","","","72","H","0","img/none_selected.jpg","","138","main_expt",""
"","bandit","218","559817","0.0-180.0-0.0","53930946","wem/bandit_party_2","A35IGG3NIWL4A3","either","3","260","","","","","","","1","0","0","0.7356638012","","0.8","0.2","0.6","0.4","","","","","0.7356638012","0.6481427694","0.4194835996","0.3080831972","","","","","","","","","","72","H","0","img/none_selected.jpg","","139","main_expt",""
"","bandit","219","561611","0.0-181.0-0.0","53930946","wem/bandit_party_2","A35IGG3NIWL4A3","either","3","269","","","","","","","1","0","0","0.7334346803","","0.8","0.2","0.6","0.4","","","","","0.7334346803","0.6497449761","0.420008375","0.3254670704","","","","","","","","","","72","H","0","img/none_selected.jpg","","140","main_expt",""
"","bandit","220","563413","0.0-182.0-0.0","53930946","wem/bandit_party_2","A35IGG3NIWL4A3","either","3","276","","","","","","","1","0","0","0.7737071977","","0.8","0.2","0.6","0.4","","","","","0.7737071977","0.7328205829","0.3908595681","0.3452870884","","","","","","","","","","72","H","0","img/none_selected.jpg","","141","main_expt",""
"","bandit","221","565222","0.0-183.0-0.0","53930946","wem/bandit_party_2","A35IGG3NIWL4A3","either","3","283","","","","","","","1","0","0","0.7912630164","","0.8","0.2","0.6","0.4","","","","","0.7912630164","0.6396752577","0.3994278682","0.2659846132","","","","","","","","","","72","H","0","img/none_selected.jpg","","142","main_expt",""
"","bandit","222","567037","0.0-184.0-0.0","53930946","wem/bandit_party_2","A35IGG3NIWL4A3","either","3","272","","","","","","","0","0","1","","0.7709923268","0.8","0.2","0.6","0.4","0.7709923268","0.5974809775","0.3137486051","0.2549781044","","","","","","","","","","","","","","72","H","0","img/none_selected.jpg","","143","main_expt",""
"","bandit","223","568812","0.0-185.0-0.0","53930946","wem/bandit_party_2","A35IGG3NIWL4A3","either","3","245","","","","","","","1","0","0","0.7492848764","","0.8","0.2","0.6","0.4","","","","","0.7492848764","0.5953980303","0.3961992406","0.3603981418","","","","","","","","","","72","H","0","img/none_selected.jpg","","144","main_expt",""
"","bandit","224","570675","0.0-186.0-0.0","53930946","wem/bandit_party_2","A35IGG3NIWL4A3","either","3","327","","","","","","","1","0","0","0.7343485297","","0.8","0.2","0.6","0.4","","","","","0.7343485297","0.6215671736","0.3186856111","0.3682949958","","","","","","","","","","72","H","0","img/none_selected.jpg","","145","main_expt",""
"","bandit","225","572451","0.0-187.0-0.0","53930946","wem/bandit_party_2","A35IGG3NIWL4A3","either","3","251","","","","","","","1","0","0","0.7701032705","","0.8","0.2","0.6","0.4","","","","","0.7701032705","0.5766937592","0.2724247948","0.5028772858","","","","","","","","","","72","H","0","img/none_selected.jpg","","146","main_expt",""
"","bandit","226","574254","0.0-188.0-0.0","53930946","wem/bandit_party_2","A35IGG3NIWL4A3","either","3","275","","","","","","","1","0","0","0.7521601774","","0.8","0.2","0.6","0.4","","","","","0.7521601774","0.4600492943","0.2844288079","0.4186890645","","","","","","","","","","72","H","0","img/none_selected.jpg","","147","main_expt",""
"","bandit","227","576105","0.0-189.0-0.0","53930946","wem/bandit_party_2","A35IGG3NIWL4A3","either","3","319","","","","","","","1","0","0","0.7762143641","","0.8","0.2","0.6","0.4","","","","","0.7762143641","0.4575448178","0.3095389551","0.3928328601","","","","","","","","","","72","H","0","img/none_selected.jpg","","148","main_expt",""
"","bandit","228","577958","0.0-190.0-0.0","53930946","wem/bandit_party_2","A35IGG3NIWL4A3","either","3","320","","","","","","","1","0","0","0.716016993","","0.8","0.2","0.6","0.4","","","","","0.716016993","0.3840278576","0.2464654743","0.4220063763","","","","","","","","","","72","H","0","img/none_selected.jpg","","149","main_expt",""
"","bandit","229","579828","0.0-191.0-0.0","53930946","wem/bandit_party_2","A35IGG3NIWL4A3","either","3","346","","","","","","","0","0","1","0.7182774931","","0.8","0.2","0.6","0.4","","","","","0.7182774931","0.3004406684","0.2088091358","0.3206822378","","","","","","","","","","72","H","0","img/none_selected.jpg","","150","main_expt",""
"","bandit","230","581882","0.0-192.0-0.0","53930946","wem/bandit_party_2","A35IGG3NIWL4A3","either","3","533","","","","","","","0","0","1","0.2769981479","","0.8","0.2","0.6","0.4","","","","","0.8028216805","0.2769981479","0.2670014618","0.3380172956","","","","","","","","","","74","J","1","","","151","main_expt",""
"","bandit","231","584073","0.0-193.0-0.0","53930946","wem/bandit_party_2","A35IGG3NIWL4A3","either","3","667","","","","","","","0","0","1","0.3100930243","","0.8","0.2","0.6","0.4","","","","","0.8634692279","0.40565407","0.3100930243","0.2461440624","","","","","","","","","","75","K","2","","","152","main_expt",""
"","bandit","232","585868","0.0-194.0-0.0","53930946","wem/bandit_party_2","A35IGG3NIWL4A3","either","3","270","","","","","","","0","0","1","","0.1852716423","0.8","0.2","0.6","0.4","0.7719190238","0.3829351634","0.3796096158","0.1852716423","","","","","","","","","","","","","","76","L","3","","","153","main_expt",""
"","bandit","233","587500","0.0-195.0-0.0","53930946","wem/bandit_party_2","A35IGG3NIWL4A3","either","3","104","","","","","","","1","0","0","0.8343429945","","0.8","0.2","0.6","0.4","","","","","0.8343429945","0.4912137185","0.2265028128","0.1660439368","","","","","","","","","","72","H","0","img/none_selected.jpg","","154","main_expt",""
"","bandit","234","589238","0.0-196.0-0.0","53930946","wem/bandit_party_2","A35IGG3NIWL4A3","either","3","216","","","","","","","1","0","0","0.7908731232","","0.8","0.2","0.6","0.4","","","","","0.7908731232","0.5312535156","0.2135741777","0.2241607793","","","","","","","","","","72","H","0","img/none_selected.jpg","","155","main_expt",""
"","bandit","235","591008","0.0-197.0-0.0","53930946","wem/bandit_party_2","A35IGG3NIWL4A3","either","3","240","","","","","","","1","0","0","0.7848911391","","0.8","0.2","0.6","0.4","","","","","0.7848911391","0.5747898199","0.1338357519","0.1566338899","","","","","","","","","","72","H","0","img/none_selected.jpg","","156","main_expt",""
"","bandit","236","592642","0.0-198.0-0.0","53930946","wem/bandit_party_2","A35IGG3NIWL4A3","either","3","93","","","","","","","1","0","0","0.7467155263","","0.8","0.2","0.6","0.4","","","","","0.7467155263","0.5948125822","0.1344370697","0.1839373886","","","","","","","","","","72","H","0","img/none_selected.jpg","","157","main_expt",""
"","bandit","237","594450","0.0-199.0-0.0","53930946","wem/bandit_party_2","A35IGG3NIWL4A3","either","3","276","","","","","","","0","1","0","","0.7413618202","0.8","0.2","0.6","0.4","0.7413618202","0.6533804049","0.1217930933","0.155802242","","","","","","","","","","","","","","72","H","0","img/none_selected.jpg","","158","main_expt",""
"","bandit","238","596265","0.0-200.0-0.0","53930946","wem/bandit_party_2","A35IGG3NIWL4A3","either","3","285","","","","","","","1","0","0","0.6882043704","","0.8","0.2","0.6","0.4","","","","","0.6882043704","0.5777198579","0.08524485746","0.2304237345","","","","","","","","","","72","H","0","img/none_selected.jpg","","159","main_expt",""
"","bandit","239","598030","0.0-201.0-0.0","53930946","wem/bandit_party_2","A35IGG3NIWL4A3","either","3","224","","","","","","","1","0","0","0.7253096401","","0.8","0.2","0.6","0.4","","","","","0.7253096401","0.6777741118","0.07332219892","0.2242026456","","","","","","","","","","72","H","0","img/none_selected.jpg","","160","main_expt",""
"","bandit","240","599735","0.0-202.0-0.0","53930946","wem/bandit_party_2","A35IGG3NIWL4A3","either","3","174","","","","","","","1","0","0","0.6989182833","","0.8","0.2","0.6","0.4","","","","","0.6989182833","0.6249074267","0.1063489691","0.2708915048","","","","","","","","","","72","H","0","img/none_selected.jpg","","161","main_expt",""
"","bandit","241","601497","0.0-203.0-0.0","53930946","wem/bandit_party_2","A35IGG3NIWL4A3","either","3","239","","","","","","","1","0","0","0.7679575172","","0.8","0.2","0.6","0.4","","","","","0.7679575172","0.6755041601","0.09670310095","0.2921592604","","","","","","","","","","72","H","0","img/none_selected.jpg","","162","main_expt",""
"","bandit","242","603290","0.0-204.0-0.0","53930946","wem/bandit_party_2","A35IGG3NIWL4A3","either","3","264","","","","","","","1","0","0","0.6877390752","","0.8","0.2","0.6","0.4","","","","","0.6877390752","0.6461818487","0.1266359811","0.2050535257","","","","","","","","","","72","H","0","img/none_selected.jpg","","163","main_expt",""
"","bandit","243","605050","0.0-205.0-0.0","53930946","wem/bandit_party_2","A35IGG3NIWL4A3","either","3","233","","","","","","","1","0","0","0.6957575266","","0.8","0.2","0.6","0.4","","","","","0.6957575266","0.76368027","0.1212611996","0.1998759094","","","","","","","","","","72","H","0","img/none_selected.jpg","","164","main_expt",""
"","bandit","244","606920","0.0-206.0-0.0","53930946","wem/bandit_party_2","A35IGG3NIWL4A3","either","3","327","","","","","","","1","0","0","0.6760148625","","0.8","0.2","0.6","0.4","","","","","0.6760148625","0.8400099296","0.1917887173","0.1821974317","","","","","","","","","","72","H","0","img/none_selected.jpg","","165","main_expt",""
"","bandit","245","608918","0.0-207.0-0.0","53930946","wem/bandit_party_2","A35IGG3NIWL4A3","either","3","457","","","","","","","0","0","1","0.6463317238","","0.8","0.2","0.6","0.4","","","","","0.6463317238","0.8573275969","0.1560613016","0.2916844583","","","","","","","","","","72","H","0","img/none_selected.jpg","","166","main_expt",""
"","bandit","246","610457","0.0-208.0-0.0","53930946","wem/bandit_party_2","A35IGG3NIWL4A3","either","3","11","","","","","","","1","0","0","0.5613055562","","0.8","0.2","0.6","0.4","","","","","0.5613055562","0.7735369509","0.2214887095","0.3087465624","","","","","","","","","","72","H","0","img/none_selected.jpg","","167","main_expt",""
"","bandit","247","612236","0.0-209.0-0.0","53930946","wem/bandit_party_2","A35IGG3NIWL4A3","either","3","236","","","","","","","1","0","0","0.5586162784","","0.8","0.2","0.6","0.4","","","","","0.5586162784","0.8091314607","0.3463453368","0.3896626528","","","","","","","","","","72","H","0","img/none_selected.jpg","","168","main_expt",""
"","bandit","248","613953","0.0-210.0-0.0","53930946","wem/bandit_party_2","A35IGG3NIWL4A3","either","3","193","","","","","","","0","0","1","0.597448185","","0.8","0.2","0.6","0.4","","","","","0.597448185","0.8364166478","0.3222551453","0.4458805252","","","","","","","","","","72","H","0","img/none_selected.jpg","","169","main_expt",""
"","bandit","249","615479","0.0-211.0-0.0","53930946","wem/bandit_party_2","A35IGG3NIWL4A3","either","3","1","","","","","","","0","0","1","0.5351242352","","0.8","0.2","0.6","0.4","","","","","0.5351242352","0.7867883415","0.2556410415","0.4844269655","","","","","","","","","","72","H","0","img/none_selected.jpg","","170","main_expt",""
"","bandit","250","617016","0.0-212.0-0.0","53930946","wem/bandit_party_2","A35IGG3NIWL4A3","either","3","1","","","","","","","1","0","0","0.8728822524","","0.8","0.2","0.6","0.4","","","","","0.4819966971","0.8728822524","0.2248109201","0.4858642724","","","","","","","","","","74","J","1","","","171","main_expt",""
"","bandit","251","618698","0.0-213.0-0.0","53930946","wem/bandit_party_2","A35IGG3NIWL4A3","either","3","141","","","","","","","0","1","0","","0.7804912391","0.8","0.2","0.6","0.4","0.4038669266","0.7804912391","0.3468742366","0.5060245996","","","","","","","","","","","","","","74","J","1","","","172","main_expt",""
"","bandit","252","620424","0.0-214.0-0.0","53930946","wem/bandit_party_2","A35IGG3NIWL4A3","either","3","186","","","","","","","0","0","1","","0.7728490534","0.8","0.2","0.6","0.4","0.3102533384","0.7728490534","0.234408543","0.5413528159","","","","","","","","","","","","","","74","J","1","","","173","main_expt",""
"","bandit","253","622044","0.0-215.0-0.0","53930946","wem/bandit_party_2","A35IGG3NIWL4A3","either","3","95","","","","","","","0","1","0","","0.814185781","0.8","0.2","0.6","0.4","0.3818943333","0.814185781","0.1404050277","0.6505326818","","","","","","","","","","","","","","74","J","1","","","174","main_expt",""
"","bandit","254","623601","0.0-216.0-0.0","53930946","wem/bandit_party_2","A35IGG3NIWL4A3","either","3","26","","","","","","","0","1","0","","0.8010682597","0.8","0.2","0.6","0.4","0.2893198216","0.8010682597","0.1081611795","0.6470977149","","","","","","","","","","","","","","74","J","1","","","175","main_expt",""
"","bandit","255","625413","0.0-217.0-0.0","53930946","wem/bandit_party_2","A35IGG3NIWL4A3","either","3","274","","","","","","","0","1","0","","0.7083228223","0.8","0.2","0.6","0.4","0.226416223","0.7083228223","0.0730283124","0.6844229635","","","","","","","","","","","","","","74","J","1","","","176","main_expt",""
"","bandit","256","627172","0.0-218.0-0.0","53930946","wem/bandit_party_2","A35IGG3NIWL4A3","either","3","232","","","","","","","0","1","0","","0.7408938443","0.8","0.2","0.6","0.4","0.2786676386","0.7408938443","0.07044941978","0.6883244284","","","","","","","","","","","","","","74","J","1","","","177","main_expt",""
"","bandit","257","628950","0.0-219.0-0.0","53930946","wem/bandit_party_2","A35IGG3NIWL4A3","either","3","244","","","","","","","0","0","1","","0.6621187214","0.8","0.2","0.6","0.4","0.2279078815","0.6621187214","0.06886985111","0.6098590842","","","","","","","","","","","","","","74","J","1","","","178","main_expt",""
"","bandit","258","630528","0.0-220.0-0.0","53930946","wem/bandit_party_2","A35IGG3NIWL4A3","either","3","48","","","","","","","0","1","0","","0.6765487854","0.8","0.2","0.6","0.4","0.1690126781","0.6765487854","0.07254371148","0.5924449164","","","","","","","","","","","","","","74","J","1","","","179","main_expt",""
"","bandit","259","632228","0.0-221.0-0.0","53930946","wem/bandit_party_2","A35IGG3NIWL4A3","either","3","173","","","","","","","0","0","1","","0.7276027883","0.8","0.2","0.6","0.4","0.1356066944","0.7276027883","0.055057054","0.4915111467","","","","","","","","","","","","","","74","J","1","","","180","main_expt",""
"","bandit","260","634112","0.0-222.0-0.0","53930946","wem/bandit_party_2","A35IGG3NIWL4A3","either","3","361","","","","","","","0","0","1","0.7083410305","","0.8","0.2","0.6","0.4","","","","","0.1889441784","0.7083410305","0.1187845962","0.4713933083","","","","","","","","","","74","J","1","","","181","main_expt",""
"","bandit","261","635930","0.0-223.0-0.0","53930946","wem/bandit_party_2","A35IGG3NIWL4A3","either","3","292","","","","","","","0","1","0","","0.500114893","0.8","0.2","0.6","0.4","0.2163976064","0.6489729838","0.1304227184","0.500114893","","","","","","","","","","","","","","76","L","3","","","182","main_expt",""
"","bandit","262","637504","0.0-224.0-0.0","53930946","wem/bandit_party_2","A35IGG3NIWL4A3","either","3","47","","","","","","","0","1","0","","0.4949273894","0.8","0.2","0.6","0.4","0.1902524086","0.6956751073","0.1374638341","0.4949273894","","","","","","","","","","","","","","76","L","3","","","183","main_expt",""
"","bandit","263","639316","0.0-225.0-0.0","53930946","wem/bandit_party_2","A35IGG3NIWL4A3","either","3","268","","","","","","","0","0","1","0.4271361476","","0.8","0.2","0.6","0.4","","","","","0.2265805791","0.6066537109","0.1914365344","0.4271361476","","","","","","","","","","76","L","3","","","184","main_expt",""
"","bandit","264","640972","0.0-226.0-0.0","53930946","wem/bandit_party_2","A35IGG3NIWL4A3","either","3","115","","","","","","","0","0","1","","0.4558255176","0.8","0.2","0.6","0.4","0.1843452782","0.6337362372","0.1939872458","0.4558255176","","","","","","","","","","","","","","76","L","3","","","185","main_expt",""
"","bandit","265","642612","0.0-227.0-0.0","53930946","wem/bandit_party_2","A35IGG3NIWL4A3","either","3","105","","","","","","","0","0","1","","0.2219937035","0.8","0.2","0.6","0.4","0.1898387663","0.5908962551","0.2219937035","0.4031301461","","","","","","","","","","","","","","75","K","2","","","186","main_expt",""
"","bandit","266","644465","0.0-228.0-0.0","53930946","wem/bandit_party_2","A35IGG3NIWL4A3","either","3","315","","","","","","","0","0","1","0.7651761031","","0.8","0.2","0.6","0.4","","","","","0.210498268","0.7651761031","0.2024523472","0.3993697366","","","","","","","","","","74","J","1","","","187","main_expt",""
"","bandit","267","646369","0.0-229.0-0.0","53930946","wem/bandit_party_2","A35IGG3NIWL4A3","either","3","377","","","","","","","0","0","1","0.2368649008","","0.8","0.2","0.6","0.4","","","","","0.2368649008","0.7928336054","0.1930401344","0.4478687375","","","","","","","","","","72","H","0","img/none_selected.jpg","","188","main_expt",""
"","bandit","268","648777","0.0-230.0-0.0","53930946","wem/bandit_party_2","A35IGG3NIWL4A3","either","3","884","","","","","","","0","0","1","0.291591963","","0.8","0.2","0.6","0.4","","","","","0.291591963","0.8917358491","0.3255404916","0.3699601256","","","","","","","","","","72","H","0","img/none_selected.jpg","","189","main_expt",""
"","bandit","269","650464","0.0-231.0-0.0","53930946","wem/bandit_party_2","A35IGG3NIWL4A3","either","3","160","","","","","","","0","0","1","","0.898448025","0.8","0.2","0.6","0.4","0.4411779124","0.898448025","0.2364063212","0.3723251068","","","","","","","","","","","","","","74","J","1","","","190","main_expt",""
"","bandit","270","652007","0.0-232.0-0.0","53930946","wem/bandit_party_2","A35IGG3NIWL4A3","either","3","9","","","","","","","1","0","0","0.2662767285","","0.8","0.2","0.6","0.4","","","","","0.3968704403","0.9186708851","0.2662767285","0.3309849287","","","","","","","","","","75","K","2","","","191","main_expt",""
"","bandit","271","653590","0.0-233.0-0.0","53930946","wem/bandit_party_2","A35IGG3NIWL4A3","either","3","49","","","","","","","0","0","1","0.2815174114","","0.8","0.2","0.6","0.4","","","","","0.4512817608","0.9314477517","0.2815174114","0.2865625263","","","","","","","","","","75","K","2","","","192","main_expt",""
"","bandit","272","655648","0.0-234.0-0.0","53930946","wem/bandit_party_2","A35IGG3NIWL4A3","either","3","514","","","","","","","0","0","1","0.3461293965","","0.8","0.2","0.6","0.4","","","","","0.4788006455","0.9090465067","0.3461293965","0.2862811746","","","","","","","","","","75","K","2","","","193","main_expt",""
"","bandit","273","657447","0.0-235.0-0.0","53930946","wem/bandit_party_2","A35IGG3NIWL4A3","either","3","260","","","","","","","1","0","0","0.2785288642","","0.8","0.2","0.6","0.4","","","","","0.4651889587","0.8762249788","0.3303735913","0.2785288642","","","","","","","","","","76","L","3","","","194","main_expt",""
"","bandit","274","659148","0.0-236.0-0.0","53930946","wem/bandit_party_2","A35IGG3NIWL4A3","either","3","172","","","","","","","0","0","1","","0.2283941808","0.8","0.2","0.6","0.4","0.4718629942","0.8623185747","0.3194565039","0.2283941808","","","","","","","","","","","","","","76","L","3","","","195","main_expt",""
"","bandit","275","660973","0.0-237.0-0.0","53930946","wem/bandit_party_2","A35IGG3NIWL4A3","either","3","298","","","","","","","0","0","1","","0.214282227","0.8","0.2","0.6","0.4","0.3825708332","0.7745977574","0.4103944464","0.214282227","","","","","","","","","","","","","","76","L","3","","","196","main_expt",""
"","bandit","276","662966","0.0-238.0-0.0","53930946","wem/bandit_party_2","A35IGG3NIWL4A3","either","3","452","","","","","","","0","1","0","","0.7723069829","0.8","0.2","0.6","0.4","0.4530864699","0.7723069829","0.4445726534","0.1422959513","","","","","","","","","","","","","","74","J","1","","","197","main_expt",""
"","bandit","277","664677","0.0-239.0-0.0","53930946","wem/bandit_party_2","A35IGG3NIWL4A3","either","3","170","","","","","","","0","1","0","","0.7084082875","0.8","0.2","0.6","0.4","0.4337652667","0.7084082875","0.4351718099","0.1126324943","","","","","","","","","","","","","","74","J","1","","","198","main_expt",""
"","bandit","278","666476","0.0-240.0-0.0","53930946","wem/bandit_party_2","A35IGG3NIWL4A3","either","3","269","","","","","","","0","0","1","","0.7016883558","0.8","0.2","0.6","0.4","0.4138332966","0.7016883558","0.4641294157","0.1144166609","","","","","","","","","","","","","","74","J","1","","","199","main_expt",""
"","bandit","279","668519","0.0-241.0-0.0","53930946","wem/bandit_party_2","A35IGG3NIWL4A3","either","3","521","","","","","","","0","1","0","","0.6504384346","0.8","0.2","0.6","0.4","0.5005175686","0.6504384346","0.4468687069","0.1518003708","","","","","","","","","","","","","","74","J","1","","","200","main_expt",""
"","bandit","280","670322","0.0-242.0-0.0","53930946","wem/bandit_party_2","A35IGG3NIWL4A3","either","3","277","","","","","","","1","0","0","0.7904945102","","0.8","0.2","0.6","0.4","","","","","0.5122642399","0.7904945102","0.5087435212","0.1974433607","","","","","","","","","","74","J","1","","","201","main_expt",""
"","bandit","281","672181","0.0-243.0-0.0","53930946","wem/bandit_party_2","A35IGG3NIWL4A3","either","3","333","","","","","","","0","0","1","","0.7039472437","0.8","0.2","0.6","0.4","0.5414597976","0.7039472437","0.4992132835","0.2000842809","","","","","","","","","","","","","","74","J","1","","","202","main_expt",""
"","bandit","282","673977","0.0-244.0-0.0","53930946","wem/bandit_party_2","A35IGG3NIWL4A3","either","3","271","","","","","","","1","0","0","0.7478807213","","0.8","0.2","0.6","0.4","","","","","0.4993649945","0.7478807213","0.4859842053","0.1715580826","","","","","","","","","","74","J","1","","","203","main_expt",""
"","bandit","283","676058","0.0-245.0-0.0","53930946","wem/bandit_party_2","A35IGG3NIWL4A3","either","3","557","","","","","","","1","0","0","0.7346150791","","0.8","0.2","0.6","0.4","","","","","0.4056752737","0.7346150791","0.6162755314","0.3028604286","","","","","","","","","","74","J","1","","","204","main_expt",""
"","bandit","284","677651","0.0-246.0-0.0","53930946","wem/bandit_party_2","A35IGG3NIWL4A3","either","3","66","","","","","","","1","0","0","0.7240623961","","0.8","0.2","0.6","0.4","","","","","0.4174768156","0.7240623961","0.6204906845","0.3714949669","","","","","","","","","","74","J","1","","","205","main_expt",""
"","bandit","285","679401","0.0-247.0-0.0","53930946","wem/bandit_party_2","A35IGG3NIWL4A3","either","3","209","","","","","","","0","1","0","","0.733657826","0.8","0.2","0.6","0.4","0.4364097613","0.733657826","0.6390595606","0.3034865557","","","","","","","","","","","","","","74","J","1","","","206","main_expt",""
"","bandit","286","681224","0.0-248.0-0.0","53930946","wem/bandit_party_2","A35IGG3NIWL4A3","either","3","301","","","","","","","0","1","0","","0.6797091947","0.8","0.2","0.6","0.4","0.4666062126","0.6797091947","0.6022157482","0.2688105372","","","","","","","","","","","","","","74","J","1","","","207","main_expt",""
"","bandit","287","682802","0.0-249.0-0.0","53930946","wem/bandit_party_2","A35IGG3NIWL4A3","either","3","33","","","","","","","0","1","0","","0.472157919","0.8","0.2","0.6","0.4","0.4594719295","0.472157919","0.6598502583","0.2240001326","","","","","","","","","","","","","","74","J","1","","","208","main_expt",""
"","bandit","288","687177","0.0-250.0-0.0","53930946","wem/bandit_party_2","A35IGG3NIWL4A3","either","3","2848","","","","","","","0","1","0","","0.4993955773","0.8","0.2","0.6","0.4","0.5415101973","0.4993955773","0.6329069529","0.3284172364","","","","","","","","","","","","","","74","J","1","","","209","main_expt",""
"","bandit","289","688819","0.0-251.0-0.0","53930946","wem/bandit_party_2","A35IGG3NIWL4A3","either","3","120","","","","","","","0","0","1","","0.3923888982","0.8","0.2","0.6","0.4","0.5627952802","0.3923888982","0.5418549626","0.3178667136","","","","","","","","","","","","","","74","J","1","","","210","main_expt",""
"","bandit","290","690601","0.0-252.0-0.0","53930946","wem/bandit_party_2","A35IGG3NIWL4A3","either","3","252","","","","","","","0","1","0","","0.4183885941","0.8","0.2","0.6","0.4","0.5779033475","0.4183885941","0.7265410197","0.278360526","","","","","","","","","","","","","","74","J","1","","","211","main_expt",""
"","bandit","291","692380","0.0-253.0-0.0","53930946","wem/bandit_party_2","A35IGG3NIWL4A3","either","3","242","","","","","","","0","1","0","","0.5367383083","0.8","0.2","0.6","0.4","0.6169713091","0.5367383083","0.6550819281","0.2720231684","","","","","","","","","","","","","","74","J","1","","","212","main_expt",""
"","bandit","292","694186","0.0-254.0-0.0","53930946","wem/bandit_party_2","A35IGG3NIWL4A3","either","3","266","","","","","","","0","1","0","","0.5779451767","0.8","0.2","0.6","0.4","0.5688165975","0.5779451767","0.5812500281","0.3445332441","","","","","","","","","","","","","","74","J","1","","","213","main_expt",""
"","bandit","293","695855","0.0-255.0-0.0","53930946","wem/bandit_party_2","A35IGG3NIWL4A3","either","3","143","","","","","","","0","0","1","","0.5615700258","0.8","0.2","0.6","0.4","0.5354690829","0.5615700258","0.6912727382","0.331154659","","","","","","","","","","","","","","74","J","1","","","214","main_expt",""
"","bandit","294","697654","0.0-256.0-0.0","53930946","wem/bandit_party_2","A35IGG3NIWL4A3","either","3","262","","","","","","","0","1","0","","0.5361399643","0.8","0.2","0.6","0.4","0.4395706401","0.5361399643","0.695573978","0.3168016653","","","","","","","","","","","","","","74","J","1","","","215","main_expt",""
"","bandit","295","699465","0.0-257.0-0.0","53930946","wem/bandit_party_2","A35IGG3NIWL4A3","either","3","272","","","","","","","0","1","0","","0.620750855","0.8","0.2","0.6","0.4","0.4522294324","0.620750855","0.6531454011","0.2870858596","","","","","","","","","","","","","","74","J","1","","","216","main_expt",""
"","bandit","296","701233","0.0-258.0-0.0","53930946","wem/bandit_party_2","A35IGG3NIWL4A3","either","3","236","","","","","","","0","1","0","","0.4812239037","0.8","0.2","0.6","0.4","0.4141575353","0.4812239037","0.6459690495","0.2877345098","","","","","","","","","","","","","","74","J","1","","","217","main_expt",""
"","bandit","297","703054","0.0-259.0-0.0","53930946","wem/bandit_party_2","A35IGG3NIWL4A3","either","3","285","","","","","","","0","0","1","","0.4028497994","0.8","0.2","0.6","0.4","0.3009722504","0.4028497994","0.6679944541","0.3608492067","","","","","","","","","","","","","","74","J","1","","","218","main_expt",""
"","bandit","298","705195","0.0-260.0-0.0","53930946","wem/bandit_party_2","A35IGG3NIWL4A3","either","3","614","","","","","","","0","0","1","","0.4441021312","0.8","0.2","0.6","0.4","0.2706893249","0.4441021312","0.7159195147","0.4380407461","","","","","","","","","","","","","","74","J","1","","","219","main_expt",""
"","bandit","299","706877","0.0-261.0-0.0","53930946","wem/bandit_party_2","A35IGG3NIWL4A3","either","3","136","","","","","","","1","0","0","0.6874484601","","0.8","0.2","0.6","0.4","","","","","0.3821277721","0.4867825248","0.6874484601","0.4769938592","","","","","","","","","","75","K","2","","","220","main_expt",""
"","bandit","300","708694","0.0-262.0-0.0","53930946","wem/bandit_party_2","A35IGG3NIWL4A3","either","3","269","","","","","","","1","0","0","0.6528128226","","0.8","0.2","0.6","0.4","","","","","0.4534214389","0.5428062785","0.6528128226","0.4612627877","","","","","","","","","","75","K","2","","","221","main_expt",""
"","bandit","301","710277","0.0-263.0-0.0","53930946","wem/bandit_party_2","A35IGG3NIWL4A3","either","3","38","","","","","","","0","0","1","0.6836467719","","0.8","0.2","0.6","0.4","","","","","0.6049712458","0.5993321864","0.6836467719","0.4192901336","","","","","","","","","","75","K","2","","","222","main_expt",""
"","bandit","302","711810","0.0-264.0-0.0","53930946","wem/bandit_party_2","A35IGG3NIWL4A3","either","3","2","","","","","","","0","1","0","","0.7820879334","0.8","0.2","0.6","0.4","0.6389506418","0.4920604154","0.7820879334","0.5559965486","","","","","","","","","","","","","","75","K","2","","","223","main_expt",""
"","bandit","303","713511","0.0-265.0-0.0","53930946","wem/bandit_party_2","A35IGG3NIWL4A3","either","3","167","","","","","","","0","1","0","","0.763226653","0.8","0.2","0.6","0.4","0.6677375732","0.5344282052","0.763226653","0.6687933923","","","","","","","","","","","","","","75","K","2","","","224","main_expt",""
"","bandit","304","715848","0.0-266.0-0.0","53930946","wem/bandit_party_2","A35IGG3NIWL4A3","either","3","793","","","","","","","0","0","1","0.6931961842","","0.8","0.2","0.6","0.4","","","","","0.7706853934","0.5583452501","0.6931961842","0.5954484576","","","","","","","","","","75","K","2","","","225","main_expt",""
"","bandit","305","717546","0.0-267.0-0.0","53930946","wem/bandit_party_2","A35IGG3NIWL4A3","either","3","157","","","","","","","1","0","0","0.6633974694","","0.8","0.2","0.6","0.4","","","","","0.7624197083","0.5126042404","0.6633974694","0.6152447968","","","","","","","","","","75","K","2","","","226","main_expt",""
"","bandit","306","719504","0.0-268.0-0.0","53930946","wem/bandit_party_2","A35IGG3NIWL4A3","either","3","436","","","","","","","0","1","0","","0.6567175756","0.8","0.2","0.6","0.4","0.7287840805","0.5720595628","0.6567175756","0.6597553912","","","","","","","","","","","","","","75","K","2","","","227","main_expt",""
"","bandit","307","721032","0.0-269.0-0.0","53930946","wem/bandit_party_2","A35IGG3NIWL4A3","either","3","2","","","","","","","1","0","0","0.6052730858","","0.8","0.2","0.6","0.4","","","","","0.7993891034","0.6134710885","0.6052730858","0.594895186","","","","","","","","","","75","K","2","","","228","main_expt",""
"","bandit","308","722746","0.0-270.0-0.0","53930946","wem/bandit_party_2","A35IGG3NIWL4A3","either","3","179","","","","","","","0","0","1","0.5548990383","","0.8","0.2","0.6","0.4","","","","","0.8374027748","0.5669106804","0.5548990383","0.5722559027","","","","","","","","","","75","K","2","","","229","main_expt",""
"","bandit","309","724838","0.0-271.0-0.0","53930946","wem/bandit_party_2","A35IGG3NIWL4A3","either","3","561","","","","","","","0","0","1","","0.6017114108","0.8","0.2","0.6","0.4","0.8414873787","0.6286782819","0.6017114108","0.5409090622","","","","","","","","","","","","","","75","K","2","","","230","main_expt",""
"","bandit","310","726633","0.0-272.0-0.0","53930946","wem/bandit_party_2","A35IGG3NIWL4A3","either","3","257","","","","","","","0","0","1","","0.518727512","0.8","0.2","0.6","0.4","0.8531648874","0.5594948871","0.5525336349","0.518727512","","","","","","","","","","","","","","76","L","3","","","231","main_expt",""
"","bandit","311","728314","0.0-273.0-0.0","53930946","wem/bandit_party_2","A35IGG3NIWL4A3","either","3","147","","","","","","","1","0","0","0.8813812612","","0.8","0.2","0.6","0.4","","","","","0.8813812612","0.5817998964","0.4493361955","0.5200298571","","","","","","","","","","72","H","0","img/none_selected.jpg","","232","main_expt",""
"","bandit","312","730107","0.0-274.0-0.0","53930946","wem/bandit_party_2","A35IGG3NIWL4A3","either","3","268","","","","","","","1","0","0","0.8916766345","","0.8","0.2","0.6","0.4","","","","","0.8916766345","0.5971875981","0.5280832246","0.4564343731","","","","","","","","","","72","H","0","img/none_selected.jpg","","233","main_expt",""
"","bandit","313","731960","0.0-275.0-0.0","53930946","wem/bandit_party_2","A35IGG3NIWL4A3","either","3","324","","","","","","","1","0","0","0.842820862","","0.8","0.2","0.6","0.4","","","","","0.842820862","0.5227237997","0.6814540918","0.4168065644","","","","","","","","","","72","H","0","img/none_selected.jpg","","234","main_expt",""
"","bandit","314","733773","0.0-276.0-0.0","53930946","wem/bandit_party_2","A35IGG3NIWL4A3","either","3","276","","","","","","","1","0","0","0.7856269381","","0.8","0.2","0.6","0.4","","","","","0.7856269381","0.6231997156","0.5518959403","0.4340770274","","","","","","","","","","72","H","0","img/none_selected.jpg","","235","main_expt",""
"","bandit","315","735546","0.0-277.0-0.0","53930946","wem/bandit_party_2","A35IGG3NIWL4A3","either","3","246","","","","","","","0","1","0","","0.8092971262","0.8","0.2","0.6","0.4","0.8092971262","0.558272317","0.4965619817","0.4489205242","","","","","","","","","","","","","","72","H","0","img/none_selected.jpg","","236","main_expt",""
"","bandit","316","737312","0.0-278.0-0.0","53930946","wem/bandit_party_2","A35IGG3NIWL4A3","either","3","235","","","","","","","1","0","0","0.8125536838","","0.8","0.2","0.6","0.4","","","","","0.8125536838","0.6118965497","0.4762879104","0.4838648791","","","","","","","","","","72","H","0","img/none_selected.jpg","","237","main_expt",""
"","bandit","317","739300","0.0-279.0-0.0","53930946","wem/bandit_party_2","A35IGG3NIWL4A3","either","3","440","","","","","","","0","0","1","0.8684257659","","0.8","0.2","0.6","0.4","","","","","0.8684257659","0.7415542647","0.4991976808","0.4615645545","","","","","","","","","","72","H","0","img/none_selected.jpg","","238","main_expt",""
