"consent","trial_type","trial_index","time_elapsed","internal_node_id","subjID","study","MID","cond","drift","rt","responses","button_pressed","key_press","like","value","connected","gems","bombs","no_reward","GemPrChosen","BombPrChosen","GainOverPainPr_0","GainOverPainPr_1","GainOverPainPr_2","GainOverPainPr_3","LosePr_0","LosePr_1","LosePr_2","LosePr_3","WinPr_0","WinPr_1","WinPr_2","WinPr_3","Q0","Q1","Q2","gender","age","ethnicity","label","expt_phase","target","respCharCode","respKey","respChoiceNum","respChoice","practice","trial_counter","trial_label","Q0_index"
"GDM/GDM_behavioral_consent_30min_online.html","consent","0","14200","0.0-0.0","53963490","wem/bandit_party_2","A1PIGZNLSQMGNW","either","3","","","","","","","","","","","","","","","","","","","","","","","","","","","","","","","","","","","","","","","","",""
"","survey-text","1","21325","0.0-1.0","53963490","wem/bandit_party_2","A1PIGZNLSQMGNW","either","3","6114","{""Q0"":""A1PIGZNLSQMGNW""}","","","","","","","","","","","","","","","","","","","","","","","","","","","","","","","","","","","","","","",""
"","button-response","2","23820","0.0-2.0","53963490","wem/bandit_party_2","A1PIGZNLSQMGNW","either","3","1489","","1","","","","","","","","","","","","","","","","","","","","","","","","","","","","","","","","","","","","","",""
"","text-replacement","3","35053","0.0-3.0","53963490","wem/bandit_party_2","A1PIGZNLSQMGNW","either","3","10229","","","32","","","","","","","","","","","","","","","","","","","","","","","","","","","","","","","","","","","","",""
"","text-replacement","4","42747","0.0-4.0","53963490","wem/bandit_party_2","A1PIGZNLSQMGNW","either","3","7692","","","32","","","","","","","","","","","","","","","","","","","","","","","","","","","","","","","","","","","","",""
"","identification","5","51219","0.0-6.0-0.0","53963490","wem/bandit_party_2","A1PIGZNLSQMGNW","either","3","8455","","","","2","3","1","","","","","","","","","","","","","","","","","","","","","","","","pre","identification_pre","the Republican Party","","","","","","","",""
"","identification","6","56565","0.0-6.0-1.0","53963490","wem/bandit_party_2","A1PIGZNLSQMGNW","either","3","4330","","","","3","2","2","","","","","","","","","","","","","","","","","","","","","","","","pre","identification_pre","the Democratic Party","","","","","","","",""
"","text-replacement","7","61995","0.0-7.0","53963490","wem/bandit_party_2","A1PIGZNLSQMGNW","either","3","4428","","","32","","","","","","","","","","","","","","","","","","","","","","","","","","","","","","","","","","","","",""
"","text-replacement","8","66220","0.0-8.0","53963490","wem/bandit_party_2","A1PIGZNLSQMGNW","either","3","4223","","","32","","","","","","","","","","","","","","","","","","","","","","","","","","","","","","","","","","","","",""
"","text-replacement","9","75595","0.0-9.0","53963490","wem/bandit_party_2","A1PIGZNLSQMGNW","either","3","9372","","","32","","","","","","","","","","","","","","","","","","","","","","","","","","","","","","","","","","","","",""
"","text-replacement","10","78724","0.0-10.0","53963490","wem/bandit_party_2","A1PIGZNLSQMGNW","either","3","3127","","","32","","","","","","","","","","","","","","","","","","","","","","","","","","","","","","","","","","","","",""
"","text-replacement","11","81995","0.0-11.0","53963490","wem/bandit_party_2","A1PIGZNLSQMGNW","either","3","3269","","","32","","","","","","","","","","","","","","","","","","","","","","","","","","","","","","","","","","","","",""
"","bandit","12","86369","0.0-12.0-0.0","53963490","wem/bandit_party_2","A1PIGZNLSQMGNW","either","3","2868","","","","","","","0","0","1","0","0","","","","","0","","","","0","","","","","","","","","","","","","74","J","0","img/none_selected_demo.jpg","true","0","",""
"","bandit","13","88953","0.0-13.0-0.0","53963490","wem/bandit_party_2","A1PIGZNLSQMGNW","either","3","1079","","","","","","","0","0","1","0","0","","","","","0","","","","0","","","","","","","","","","","","","75","K","0","img/none_selected_demo.jpg","true","0","",""
"","text-replacement","14","93252","0.0-14.0","53963490","wem/bandit_party_2","A1PIGZNLSQMGNW","either","3","4296","","","32","","","","","","","","","","","","","","","","","","","","","","","","","","","","","","","","","","","","",""
"","text-replacement","15","97971","0.0-15.0","53963490","wem/bandit_party_2","A1PIGZNLSQMGNW","either","3","4717","","","32","","","","","","","","","","","","","","","","","","","","","","","","","","","","","","","","","","","","",""
"","text-replacement","16","102883","0.0-16.0","53963490","wem/bandit_party_2","A1PIGZNLSQMGNW","either","3","4909","","","32","","","","","","","","","","","","","","","","","","","","","","","","","","","","","","","","","","","","",""
"","text-replacement","17","106156","0.0-17.0","53963490","wem/bandit_party_2","A1PIGZNLSQMGNW","either","3","3271","","","32","","","","","","","","","","","","","","","","","","","","","","","","","","","","","","","","","","","","",""
"","bandit","18","109417","0.0-18.0-0.0","53963490","wem/bandit_party_2","A1PIGZNLSQMGNW","either","3","1756","","","","","","","0","0","1","","0.8","0.5","0.5","","","0.8","0.2","","","","","","","","","","","","","","","","74","J","0","img/none_selected_demo.jpg","true","0","80_20_practice",""
"","bandit","19","112016","0.0-18.0-1.0","53963490","wem/bandit_party_2","A1PIGZNLSQMGNW","either","3","1094","","","","","","","1","0","0","0.8","","0.5","0.5","","","","","","","0.8","0.2","","","","","","","","","","","","74","J","0","img/none_selected_demo.jpg","true","0","80_20_practice",""
"","bandit","20","113920","0.0-18.0-2.0","53963490","wem/bandit_party_2","A1PIGZNLSQMGNW","either","3","399","","","","","","","1","0","0","0.8","","0.5","0.5","","","","","","","0.8","0.2","","","","","","","","","","","","74","J","0","img/none_selected_demo.jpg","true","0","80_20_practice",""
"","bandit","21","115736","0.0-18.0-3.0","53963490","wem/bandit_party_2","A1PIGZNLSQMGNW","either","3","312","","","","","","","0","1","0","","0.8","0.5","0.5","","","0.8","0.2","","","","","","","","","","","","","","","","74","J","0","img/none_selected_demo.jpg","true","0","80_20_practice",""
"","bandit","22","117528","0.0-18.0-4.0","53963490","wem/bandit_party_2","A1PIGZNLSQMGNW","either","3","287","","","","","","","0","1","0","","0.8","0.5","0.5","","","0.8","0.2","","","","","","","","","","","","","","","","74","J","0","img/none_selected_demo.jpg","true","0","80_20_practice",""
"","bandit","23","119306","0.0-18.0-5.0","53963490","wem/bandit_party_2","A1PIGZNLSQMGNW","either","3","273","","","","","","","0","1","0","","0.8","0.5","0.5","","","0.8","0.2","","","","","","","","","","","","","","","","74","J","0","img/none_selected_demo.jpg","true","0","80_20_practice",""
"","bandit","24","121185","0.0-18.0-6.0","53963490","wem/bandit_party_2","A1PIGZNLSQMGNW","either","3","373","","","","","","","0","1","0","","0.8","0.5","0.5","","","0.8","0.2","","","","","","","","","","","","","","","","74","J","0","img/none_selected_demo.jpg","true","0","80_20_practice",""
"","bandit","25","122953","0.0-18.0-7.0","53963490","wem/bandit_party_2","A1PIGZNLSQMGNW","either","3","262","","","","","","","0","1","0","","0.8","0.5","0.5","","","0.8","0.2","","","","","","","","","","","","","","","","74","J","0","img/none_selected_demo.jpg","true","0","80_20_practice",""
"","bandit","26","124784","0.0-18.0-8.0","53963490","wem/bandit_party_2","A1PIGZNLSQMGNW","either","3","327","","","","","","","0","1","0","","0.8","0.5","0.5","","","0.8","0.2","","","","","","","","","","","","","","","","74","J","0","img/none_selected_demo.jpg","true","0","80_20_practice",""
"","bandit","27","126633","0.0-18.0-9.0","53963490","wem/bandit_party_2","A1PIGZNLSQMGNW","either","3","343","","","","","","","1","0","0","0.8","","0.5","0.5","","","","","","","0.8","0.2","","","","","","","","","","","","74","J","0","img/none_selected_demo.jpg","true","0","80_20_practice",""
"","bandit","28","128992","0.0-18.0-10.0","53963490","wem/bandit_party_2","A1PIGZNLSQMGNW","either","3","854","","","","","","","0","1","0","","0.8","0.5","0.5","","","0.8","0.2","","","","","","","","","","","","","","","","74","J","0","img/none_selected_demo.jpg","true","0","80_20_practice",""
"","bandit","29","130952","0.0-18.0-11.0","53963490","wem/bandit_party_2","A1PIGZNLSQMGNW","either","3","456","","","","","","","0","1","0","","0.8","0.5","0.5","","","0.8","0.2","","","","","","","","","","","","","","","","74","J","0","img/none_selected_demo.jpg","true","0","80_20_practice",""
"","bandit","30","132888","0.0-18.0-12.0","53963490","wem/bandit_party_2","A1PIGZNLSQMGNW","either","3","431","","","","","","","0","1","0","","0.8","0.5","0.5","","","0.8","0.2","","","","","","","","","","","","","","","","74","J","0","img/none_selected_demo.jpg","true","0","80_20_practice",""
"","bandit","31","134784","0.0-18.0-13.0","53963490","wem/bandit_party_2","A1PIGZNLSQMGNW","either","3","391","","","","","","","0","1","0","","0.8","0.5","0.5","","","0.8","0.2","","","","","","","","","","","","","","","","74","J","0","img/none_selected_demo.jpg","true","0","80_20_practice",""
"","bandit","32","136801","0.0-18.0-14.0","53963490","wem/bandit_party_2","A1PIGZNLSQMGNW","either","3","510","","","","","","","0","0","1","","0.8","0.5","0.5","","","0.8","0.2","","","","","","","","","","","","","","","","74","J","0","img/none_selected_demo.jpg","true","0","80_20_practice",""
"","bandit","33","138736","0.0-18.0-15.0","53963490","wem/bandit_party_2","A1PIGZNLSQMGNW","either","3","430","","","","","","","1","0","0","0.8","","0.5","0.5","","","","","","","0.8","0.2","","","","","","","","","","","","74","J","0","img/none_selected_demo.jpg","true","0","80_20_practice",""
"","bandit","34","140632","0.0-18.0-16.0","53963490","wem/bandit_party_2","A1PIGZNLSQMGNW","either","3","391","","","","","","","0","1","0","","0.8","0.5","0.5","","","0.8","0.2","","","","","","","","","","","","","","","","74","J","0","img/none_selected_demo.jpg","true","0","80_20_practice",""
"","bandit","35","142409","0.0-18.0-17.0","53963490","wem/bandit_party_2","A1PIGZNLSQMGNW","either","3","272","","","","","","","0","1","0","","0.8","0.5","0.5","","","0.8","0.2","","","","","","","","","","","","","","","","74","J","0","img/none_selected_demo.jpg","true","0","80_20_practice",""
"","bandit","36","144129","0.0-18.0-18.0","53963490","wem/bandit_party_2","A1PIGZNLSQMGNW","either","3","214","","","","","","","1","0","0","0.8","","0.5","0.5","","","","","","","0.8","0.2","","","","","","","","","","","","74","J","0","img/none_selected_demo.jpg","true","0","80_20_practice",""
"","bandit","37","145634","0.0-18.0-19.0","53963490","wem/bandit_party_2","A1PIGZNLSQMGNW","either","3","1","","","","","","","1","0","0","0.8","","0.5","0.5","","","","","","","0.8","0.2","","","","","","","","","","","","74","J","0","img/none_selected_demo.jpg","true","0","80_20_practice",""
"","text-replacement","38","149603","0.0-19.0","53963490","wem/bandit_party_2","A1PIGZNLSQMGNW","either","3","3965","","","32","","","","","","","","","","","","","","","","","","","","","","","","","","","","","","","","","","","","",""
"","bandit","39","151649","0.0-20.0-0.0","53963490","wem/bandit_party_2","A1PIGZNLSQMGNW","either","3","541","","","","","","","1","0","0","1","0","","","","","0","1","","","1","0","","","","","","","","","","","","74","J","0","img/none_selected_demo.jpg","true","0","",""
"","text-replacement","40","155524","0.0-21.0","53963490","wem/bandit_party_2","A1PIGZNLSQMGNW","either","3","3872","","","32","","","","","","","","","","","","","","","","","","","","","","","","","","","","","","","","","","","","",""
"","text-replacement","41","157939","0.0-22.0","53963490","wem/bandit_party_2","A1PIGZNLSQMGNW","either","3","2412","","","32","","","","","","","","","","","","","","","","","","","","","","","","","","","","","","","","","","","","",""
"","text-replacement","42","160003","0.0-23.0","53963490","wem/bandit_party_2","A1PIGZNLSQMGNW","either","3","2062","","","32","","","","","","","","","","","","","","","","","","","","","","","","","","","","","","","","","","","","",""
"","text-replacement","43","162843","0.0-24.0","53963490","wem/bandit_party_2","A1PIGZNLSQMGNW","either","3","2838","","","32","","","","","","","","","","","","","","","","","","","","","","","","","","","","","","","","","","","","",""
"","text-replacement","44","169508","0.0-25.0","53963490","wem/bandit_party_2","A1PIGZNLSQMGNW","either","3","6663","","","32","","","","","","","","","","","","","","","","","","","","","","","","","","","","","","","","","","","","",""
"","text-replacement","45","171891","0.0-26.0","53963490","wem/bandit_party_2","A1PIGZNLSQMGNW","either","3","2380","","","32","","","","","","","","","","","","","","","","","","","","","","","","","","","","","","","","","","","","",""
"","text-replacement","46","174747","0.0-27.0","53963490","wem/bandit_party_2","A1PIGZNLSQMGNW","either","3","2853","","","32","","","","","","","","","","","","","","","","","","","","","","","","","","","","","","","","","","","","",""
"","text-replacement","47","179732","0.0-28.0","53963490","wem/bandit_party_2","A1PIGZNLSQMGNW","either","3","4983","","","32","","","","","","","","","","","","","","","","","","","","","","","","","","","","","","","","","","","","",""
"","text-replacement","48","193692","0.0-29.0","53963490","wem/bandit_party_2","A1PIGZNLSQMGNW","either","3","13958","","","32","","","","","","","","","","","","","","","","","","","","","","","","","","","","","","","","","","","","",""
"","text-replacement","49","195164","0.0-30.0","53963490","wem/bandit_party_2","A1PIGZNLSQMGNW","either","3","1468","","","32","","","","","","","","","","","","","","","","","","","","","","","","","","","","","","","","","","","","",""
"","text-replacement","50","198371","0.0-31.0","53963490","wem/bandit_party_2","A1PIGZNLSQMGNW","either","3","3204","","","32","","","","","","","","","","","","","","","","","","","","","","","","","","","","","","","","","","","","",""
"","bandit","51","201202","0.0-32.0-0.0","53963490","wem/bandit_party_2","A1PIGZNLSQMGNW","either","3","1325","","","","","","","1","0","0","0.6","","0.5","0.5","0.5","0.5","","","","","0.8","0.2","0.6","0.2","","","","","","","","","","75","K","2","","true","0","full_practice",""
"","bandit","52","203489","0.0-32.0-1.0","53963490","wem/bandit_party_2","A1PIGZNLSQMGNW","either","3","780","","","","","","","0","0","1","","0.6","0.5","0.5","0.5","0.5","0.8","0.2","0.6","0.2","","","","","","","","","","","","","","75","K","2","","true","0","full_practice",""
"","bandit","53","205304","0.0-32.0-2.0","53963490","wem/bandit_party_2","A1PIGZNLSQMGNW","either","3","310","","","","","","","1","0","0","0.6","","0.5","0.5","0.5","0.5","","","","","0.8","0.2","0.6","0.2","","","","","","","","","","75","K","2","","true","0","full_practice",""
"","bandit","54","207032","0.0-32.0-3.0","53963490","wem/bandit_party_2","A1PIGZNLSQMGNW","either","3","222","","","","","","","0","1","0","","0.6","0.5","0.5","0.5","0.5","0.8","0.2","0.6","0.2","","","","","","","","","","","","","","75","K","2","","true","0","full_practice",""
"","bandit","55","208712","0.0-32.0-4.0","53963490","wem/bandit_party_2","A1PIGZNLSQMGNW","either","3","175","","","","","","","0","0","1","0.6","","0.5","0.5","0.5","0.5","","","","","0.8","0.2","0.6","0.2","","","","","","","","","","75","K","2","","true","0","full_practice",""
"","bandit","56","210424","0.0-32.0-5.0","53963490","wem/bandit_party_2","A1PIGZNLSQMGNW","either","3","206","","","","","","","0","0","1","","0.2","0.5","0.5","0.5","0.5","0.8","0.2","0.6","0.2","","","","","","","","","","","","","","76","L","3","","true","0","full_practice",""
"","bandit","57","212160","0.0-32.0-6.0","53963490","wem/bandit_party_2","A1PIGZNLSQMGNW","either","3","231","","","","","","","0","1","0","","0.2","0.5","0.5","0.5","0.5","0.8","0.2","0.6","0.2","","","","","","","","","","","","","","76","L","3","","true","0","full_practice",""
"","bandit","58","213897","0.0-32.0-7.0","53963490","wem/bandit_party_2","A1PIGZNLSQMGNW","either","3","231","","","","","","","0","0","1","","0.6","0.5","0.5","0.5","0.5","0.8","0.2","0.6","0.2","","","","","","","","","","","","","","75","K","2","","true","0","full_practice",""
"","bandit","59","215457","0.0-32.0-8.0","53963490","wem/bandit_party_2","A1PIGZNLSQMGNW","either","3","54","","","","","","","1","0","0","0.6","","0.5","0.5","0.5","0.5","","","","","0.8","0.2","0.6","0.2","","","","","","","","","","75","K","2","","true","0","full_practice",""
"","bandit","60","217176","0.0-32.0-9.0","53963490","wem/bandit_party_2","A1PIGZNLSQMGNW","either","3","213","","","","","","","0","0","1","0.6","","0.5","0.5","0.5","0.5","","","","","0.8","0.2","0.6","0.2","","","","","","","","","","75","K","2","","true","0","full_practice",""
"","bandit","61","219025","0.0-32.0-10.0","53963490","wem/bandit_party_2","A1PIGZNLSQMGNW","either","3","342","","","","","","","0","0","1","0.2","","0.5","0.5","0.5","0.5","","","","","0.8","0.2","0.6","0.2","","","","","","","","","","76","L","3","","true","0","full_practice",""
"","bandit","62","220609","0.0-32.0-11.0","53963490","wem/bandit_party_2","A1PIGZNLSQMGNW","either","3","77","","","","","","","0","0","1","","0.2","0.5","0.5","0.5","0.5","0.8","0.2","0.6","0.2","","","","","","","","","","","","","","76","L","3","","true","0","full_practice",""
"","bandit","63","222417","0.0-32.0-12.0","53963490","wem/bandit_party_2","A1PIGZNLSQMGNW","either","3","302","","","","","","","0","1","0","","0.8","0.5","0.5","0.5","0.5","0.8","0.2","0.6","0.2","","","","","","","","","","","","","","72","H","0","img/none_selected.jpg","true","0","full_practice",""
"","bandit","64","224233","0.0-32.0-13.0","53963490","wem/bandit_party_2","A1PIGZNLSQMGNW","either","3","309","","","","","","","0","0","1","","0.8","0.5","0.5","0.5","0.5","0.8","0.2","0.6","0.2","","","","","","","","","","","","","","72","H","0","img/none_selected.jpg","true","0","full_practice",""
"","bandit","65","226017","0.0-32.0-14.0","53963490","wem/bandit_party_2","A1PIGZNLSQMGNW","either","3","277","","","","","","","0","1","0","","0.8","0.5","0.5","0.5","0.5","0.8","0.2","0.6","0.2","","","","","","","","","","","","","","72","H","0","img/none_selected.jpg","true","0","full_practice",""
"","bandit","66","227728","0.0-32.0-15.0","53963490","wem/bandit_party_2","A1PIGZNLSQMGNW","either","3","206","","","","","","","0","0","1","0.2","","0.5","0.5","0.5","0.5","","","","","0.8","0.2","0.6","0.2","","","","","","","","","","74","J","1","","true","0","full_practice",""
"","bandit","67","229408","0.0-32.0-16.0","53963490","wem/bandit_party_2","A1PIGZNLSQMGNW","either","3","174","","","","","","","0","0","1","","0.8","0.5","0.5","0.5","0.5","0.8","0.2","0.6","0.2","","","","","","","","","","","","","","72","H","0","img/none_selected.jpg","true","0","full_practice",""
"","bandit","68","230969","0.0-32.0-17.0","53963490","wem/bandit_party_2","A1PIGZNLSQMGNW","either","3","54","","","","","","","0","0","1","","0.6","0.5","0.5","0.5","0.5","0.8","0.2","0.6","0.2","","","","","","","","","","","","","","75","K","2","","true","0","full_practice",""
"","bandit","69","232616","0.0-32.0-18.0","53963490","wem/bandit_party_2","A1PIGZNLSQMGNW","either","3","141","","","","","","","0","0","1","","0.2","0.5","0.5","0.5","0.5","0.8","0.2","0.6","0.2","","","","","","","","","","","","","","74","J","1","","true","0","full_practice",""
"","bandit","70","234266","0.0-32.0-19.0","53963490","wem/bandit_party_2","A1PIGZNLSQMGNW","either","3","142","","","","","","","0","0","1","0.2","","0.5","0.5","0.5","0.5","","","","","0.8","0.2","0.6","0.2","","","","","","","","","","76","L","3","","true","0","full_practice",""
"","text","71","237316","0.0-33.0","53963490","wem/bandit_party_2","A1PIGZNLSQMGNW","either","3","3039","","","32","","","","","","","","","","","","","","","","","","","","","","","","","","","","","","","","","","","","",""
"","text-replacement","72","252796","0.0-34.0","53963490","wem/bandit_party_2","A1PIGZNLSQMGNW","either","3","14476","","","32","","","","","","","","","","","","","","","","","","","","","","","","","","","","","","","","","","","","",""
"","text-replacement","73","262187","0.0-35.0","53963490","wem/bandit_party_2","A1PIGZNLSQMGNW","either","3","9388","","","32","","","","","","","","","","","","","","","","","","","","","","","","","","","","","","","","","","","","",""
"","text-replacement","74","268931","0.0-36.0","53963490","wem/bandit_party_2","A1PIGZNLSQMGNW","either","3","6743","","","32","","","","","","","","","","","","","","","","","","","","","","","","","","","","","","","","","","","","",""
"","text-replacement","75","272763","0.0-37.0","53963490","wem/bandit_party_2","A1PIGZNLSQMGNW","either","3","3828","","","32","","","","","","","","","","","","","","","","","","","","","","","","","","","","","","","","","","","","",""
"","text-replacement","76","277627","0.0-38.0","53963490","wem/bandit_party_2","A1PIGZNLSQMGNW","either","3","4861","","","32","","","","","","","","","","","","","","","","","","","","","","","","","","","","","","","","","","","","",""
"","survey-multi-choice-replacement","77","282802","0.0-39.0-0.0","53963490","wem/bandit_party_2","A1PIGZNLSQMGNW","either","3","5165","","","","","","","","","","","","","","","","","","","","","","","","Money will be added to the pool for <span style='color:blue;'>DEMOCRATS</span>","","","","","","","attn_check","","","","","","","","","0"
"","survey-multi-choice-replacement","78","291636","0.0-40.0-0.0","53963490","wem/bandit_party_2","A1PIGZNLSQMGNW","either","3","7823","","","","","","","","","","","","","","","","","","","","","","","","Equal amounts of money will be added to the pool for <span style='color:blue;'>DEMOCRATS</span> and subtracted from the pool for <span style='color:red;'>REPUBLICANS</span>","","","","","","","attn_check","","","","","","","","","2"
"","survey-multi-choice-replacement","79","295475","0.0-41.0-0.0","53963490","wem/bandit_party_2","A1PIGZNLSQMGNW","either","3","2829","","","","","","","","","","","","","","","","","","","","","","","","No money will be added to either pool","","","","","","","attn_check","","","","","","","","","3"
"","bandit","80","300313","0.0-42.0-0.0","53963490","wem/bandit_party_2","A1PIGZNLSQMGNW","either","3","2329","","","","","","","0","1","0","","0.6473934842","0.4","0.2","0.8","0.6","0.6473934842","0.6494041588","0.4261870849","0.1387034319","","","","","","","","","","","","","","72","H","0","img/none_selected.jpg","","1","main_expt",""
"","bandit","81","303378","0.0-43.0-0.0","53963490","wem/bandit_party_2","A1PIGZNLSQMGNW","either","3","1556","","","","","","","0","0","1","0.3223101542","","0.4","0.2","0.8","0.6","","","","","0.5221866694","0.7608835745","0.3223101542","0.2166337036","","","","","","","","","","75","K","2","","","2","main_expt",""
"","bandit","82","305064","0.0-44.0-0.0","53963490","wem/bandit_party_2","A1PIGZNLSQMGNW","either","3","180","","","","","","","0","1","0","","0.2541217019","0.4","0.2","0.8","0.6","0.5356292978","0.7745567172","0.2541217019","0.3253899216","","","","","","","","","","","","","","75","K","2","","","3","main_expt",""
"","bandit","83","306865","0.0-45.0-0.0","53963490","wem/bandit_party_2","A1PIGZNLSQMGNW","either","3","294","","","","","","","0","0","1","0.2272043942","","0.4","0.2","0.8","0.6","","","","","0.5154592071","0.8315703218","0.2272043942","0.3003293127","","","","","","","","","","75","K","2","","","4","main_expt",""
"","bandit","84","308433","0.0-46.0-0.0","53963490","wem/bandit_party_2","A1PIGZNLSQMGNW","either","3","60","","","","","","","0","0","1","","0.2967729676","0.4","0.2","0.8","0.6","0.4578896037","0.8380789219","0.2967729676","0.3839660868","","","","","","","","","","","","","","75","K","2","","","5","main_expt",""
"","bandit","85","310081","0.0-47.0-0.0","53963490","wem/bandit_party_2","A1PIGZNLSQMGNW","either","3","141","","","","","","","0","0","1","","0.3833463511","0.4","0.2","0.8","0.6","0.4825789634","0.8233568153","0.3211998527","0.3833463511","","","","","","","","","","","","","","76","L","3","","","6","main_expt",""
"","bandit","86","311784","0.0-48.0-0.0","53963490","wem/bandit_party_2","A1PIGZNLSQMGNW","either","3","197","","","","","","","1","0","0","0.4013658759","","0.4","0.2","0.8","0.6","","","","","0.4013658759","0.8672840292","0.4190649117","0.3173395401","","","","","","","","","","72","H","0","img/none_selected.jpg","","7","main_expt",""
"","bandit","87","313360","0.0-49.0-0.0","53963490","wem/bandit_party_2","A1PIGZNLSQMGNW","either","3","70","","","","","","","1","0","0","0.3721769634","","0.4","0.2","0.8","0.6","","","","","0.3721769634","0.7921451217","0.5253498774","0.3265190876","","","","","","","","","","72","H","0","img/none_selected.jpg","","8","main_expt",""
"","bandit","88","314969","0.0-50.0-0.0","53963490","wem/bandit_party_2","A1PIGZNLSQMGNW","either","3","102","","","","","","","1","0","0","0.3934089605","","0.4","0.2","0.8","0.6","","","","","0.3934089605","0.7826569337","0.5552176016","0.4229840653","","","","","","","","","","72","H","0","img/none_selected.jpg","","9","main_expt",""
"","bandit","89","316649","0.0-51.0-0.0","53963490","wem/bandit_party_2","A1PIGZNLSQMGNW","either","3","170","","","","","","","0","0","1","","0.3360942297","0.4","0.2","0.8","0.6","0.3360942297","0.7150392401","0.654745146","0.5107168356","","","","","","","","","","","","","","72","H","0","img/none_selected.jpg","","10","main_expt",""
"","bandit","90","318353","0.0-52.0-0.0","53963490","wem/bandit_party_2","A1PIGZNLSQMGNW","either","3","197","","","","","","","0","1","0","","0.6906605055","0.4","0.2","0.8","0.6","0.4969537907","0.6906605055","0.6089063278","0.4383577931","","","","","","","","","","","","","","74","J","1","","","11","main_expt",""
"","bandit","91","320040","0.0-53.0-0.0","53963490","wem/bandit_party_2","A1PIGZNLSQMGNW","either","3","180","","","","","","","0","0","1","","0.4760264401","0.4","0.2","0.8","0.6","0.4760264401","0.6725575113","0.559155858","0.5487148549","","","","","","","","","","","","","","72","H","0","img/none_selected.jpg","","12","main_expt",""
"","bandit","92","321648","0.0-54.0-0.0","53963490","wem/bandit_party_2","A1PIGZNLSQMGNW","either","3","102","","","","","","","0","0","1","","0.4008761295","0.4","0.2","0.8","0.6","0.4008761295","0.7404599176","0.6464491645","0.7407599438","","","","","","","","","","","","","","72","H","0","img/none_selected.jpg","","13","main_expt",""
"","bandit","93","323600","0.0-55.0-0.0","53963490","wem/bandit_party_2","A1PIGZNLSQMGNW","either","3","446","","","","","","","0","1","0","","0.6751607758","0.4","0.2","0.8","0.6","0.358486362","0.6751607758","0.6936958995","0.8307131687","","","","","","","","","","","","","","74","J","1","","","14","main_expt",""
"","bandit","94","325336","0.0-56.0-0.0","53963490","wem/bandit_party_2","A1PIGZNLSQMGNW","either","3","230","","","","","","","0","1","0","","0.6115440925","0.4","0.2","0.8","0.6","0.395258373","0.6115440925","0.731471075","0.8114394421","","","","","","","","","","","","","","74","J","1","","","15","main_expt",""
"","bandit","95","326977","0.0-57.0-0.0","53963490","wem/bandit_party_2","A1PIGZNLSQMGNW","either","3","134","","","","","","","0","0","1","0.7019001419","","0.4","0.2","0.8","0.6","","","","","0.4197334966","0.7019001419","0.6487541525","0.8242397169","","","","","","","","","","74","J","1","","","16","main_expt",""
"","bandit","96","328561","0.0-58.0-0.0","53963490","wem/bandit_party_2","A1PIGZNLSQMGNW","either","3","77","","","","","","","0","0","1","","0.2160816064","0.4","0.2","0.8","0.6","0.2160816064","0.7017998","0.7654634758","0.8317633157","","","","","","","","","","","","","","72","H","0","img/none_selected.jpg","","17","main_expt",""
"","bandit","97","330370","0.0-59.0-0.0","53963490","wem/bandit_party_2","A1PIGZNLSQMGNW","either","3","302","","","","","","","1","0","0","0.8158638682","","0.4","0.2","0.8","0.6","","","","","0.2058632209","0.7672473748","0.7160830043","0.8158638682","","","","","","","","","","76","L","3","","","18","main_expt",""
"","bandit","98","332049","0.0-60.0-0.0","53963490","wem/bandit_party_2","A1PIGZNLSQMGNW","either","3","172","","","","","","","0","1","0","","0.7950219121","0.4","0.2","0.8","0.6","0.2314559036","0.7950219121","0.6856656502","0.8291878069","","","","","","","","","","","","","","74","J","1","","","19","main_expt",""
"","bandit","99","333736","0.0-61.0-0.0","53963490","wem/bandit_party_2","A1PIGZNLSQMGNW","either","3","180","","","","","","","0","1","0","","0.8460513568","0.4","0.2","0.8","0.6","0.1762066147","0.8460513568","0.6829400921","0.8665153398","","","","","","","","","","","","","","74","J","1","","","20","main_expt",""
"","bandit","100","335329","0.0-62.0-0.0","53963490","wem/bandit_party_2","A1PIGZNLSQMGNW","either","3","85","","","","","","","0","0","1","","0.8571228725","0.4","0.2","0.8","0.6","0.150477598","0.8571228725","0.6849203215","0.8181415858","","","","","","","","","","","","","","74","J","1","","","21","main_expt",""
"","bandit","101","337032","0.0-63.0-0.0","53963490","wem/bandit_party_2","A1PIGZNLSQMGNW","either","3","198","","","","","","","1","0","0","0.6832197831","","0.4","0.2","0.8","0.6","","","","","0.1957635407","0.8498483749","0.6832197831","0.7731960963","","","","","","","","","","75","K","2","","","22","main_expt",""
"","bandit","102","338704","0.0-64.0-0.0","53963490","wem/bandit_party_2","A1PIGZNLSQMGNW","either","3","165","","","","","","","1","0","0","0.2193187944","","0.4","0.2","0.8","0.6","","","","","0.2193187944","0.887495535","0.6103957523","0.8004626553","","","","","","","","","","72","H","0","img/none_selected.jpg","","23","main_expt",""
"","bandit","103","340232","0.0-65.0-0.0","53963490","wem/bandit_party_2","A1PIGZNLSQMGNW","either","3","22","","","","","","","0","0","1","0.1836328706","","0.4","0.2","0.8","0.6","","","","","0.1836328706","0.918231735","0.5485819736","0.7941911222","","","","","","","","","","72","H","0","img/none_selected.jpg","","24","main_expt",""
"","bandit","104","341904","0.0-66.0-0.0","53963490","wem/bandit_party_2","A1PIGZNLSQMGNW","either","3","165","","","","","","","0","0","1","","0.5852935809","0.4","0.2","0.8","0.6","0.1410441375","0.9111146318","0.5852935809","0.7100633829","","","","","","","","","","","","","","75","K","2","","","25","main_expt",""
"","bandit","105","343616","0.0-67.0-0.0","53963490","wem/bandit_party_2","A1PIGZNLSQMGNW","either","3","205","","","","","","","0","0","1","0.6097892937","","0.4","0.2","0.8","0.6","","","","","0.1082593399","0.9190640316","0.6097892937","0.6872129375","","","","","","","","","","75","K","2","","","26","main_expt",""
"","bandit","106","345240","0.0-68.0-0.0","53963490","wem/bandit_party_2","A1PIGZNLSQMGNW","either","3","118","","","","","","","0","0","1","0.6653335402","","0.4","0.2","0.8","0.6","","","","","0.1042047793","0.9372614837","0.6653335402","0.6798864795","","","","","","","","","","75","K","2","","","27","main_expt",""
"","bandit","107","347081","0.0-69.0-0.0","53963490","wem/bandit_party_2","A1PIGZNLSQMGNW","either","3","335","","","","","","","0","1","0","","0.9269484959","0.4","0.2","0.8","0.6","0.1153509117","0.9269484959","0.6850825106","0.6812343762","","","","","","","","","","","","","","74","J","1","","","28","main_expt",""
"","bandit","108","348977","0.0-70.0-0.0","53963490","wem/bandit_party_2","A1PIGZNLSQMGNW","either","3","388","","","","","","","0","1","0","","0.9376772981","0.4","0.2","0.8","0.6","0.1601566248","0.9376772981","0.7309016742","0.5305157647","","","","","","","","","","","","","","74","J","1","","","29","main_expt",""
"","bandit","109","350751","0.0-71.0-0.0","53963490","wem/bandit_party_2","A1PIGZNLSQMGNW","either","3","268","","","","","","","0","1","0","","0.8795505253","0.4","0.2","0.8","0.6","0.09548927903","0.8795505253","0.8141980113","0.4713174284","","","","","","","","","","","","","","74","J","1","","","30","main_expt",""
"","bandit","110","352281","0.0-72.0-0.0","53963490","wem/bandit_party_2","A1PIGZNLSQMGNW","either","3","20","","","","","","","1","0","0","0.8605863748","","0.4","0.2","0.8","0.6","","","","","0.09272353297","0.8605863748","0.8926711601","0.2938490869","","","","","","","","","","74","J","1","","","31","main_expt",""
"","bandit","111","354121","0.0-73.0-0.0","53963490","wem/bandit_party_2","A1PIGZNLSQMGNW","either","3","332","","","","","","","0","0","1","","0.757600507","0.4","0.2","0.8","0.6","0.09547929832","0.757600507","0.8397563013","0.3005160425","","","","","","","","","","","","","","74","J","1","","","32","main_expt",""
"","bandit","112","355920","0.0-74.0-0.0","53963490","wem/bandit_party_2","A1PIGZNLSQMGNW","either","3","292","","","","","","","0","1","0","","0.3661211491","0.4","0.2","0.8","0.6","0.08683876107","0.7257103923","0.8251988787","0.3661211491","","","","","","","","","","","","","","76","L","3","","","33","main_expt",""
"","bandit","113","358587","0.0-75.0-0.0","53963490","wem/bandit_party_2","A1PIGZNLSQMGNW","either","3","1159","","","","","","","0","0","1","0.7303528712","","0.4","0.2","0.8","0.6","","","","","0.08117088791","0.5786815464","0.7303528712","0.4614725573","","","","","","","","","","75","K","2","","","34","main_expt",""
"","bandit","114","360137","0.0-76.0-0.0","53963490","wem/bandit_party_2","A1PIGZNLSQMGNW","either","3","39","","","","","","","0","0","1","","0.4812266686","0.4","0.2","0.8","0.6","0.09593582107","0.4812266686","0.8093673003","0.4597324626","","","","","","","","","","","","","","74","J","1","","","35","main_expt",""
"","bandit","115","362017","0.0-77.0-0.0","53963490","wem/bandit_party_2","A1PIGZNLSQMGNW","either","3","372","","","","","","","0","0","1","0.1392988708","","0.4","0.2","0.8","0.6","","","","","0.1392988708","0.4459447539","0.79718131","0.4294742096","","","","","","","","","","72","H","0","img/none_selected.jpg","","36","main_expt",""
"","bandit","116","363792","0.0-78.0-0.0","53963490","wem/bandit_party_2","A1PIGZNLSQMGNW","either","3","268","","","","","","","0","0","1","0.07673209605","","0.4","0.2","0.8","0.6","","","","","0.07673209605","0.5737218407","0.8157762275","0.5301274199","","","","","","","","","","72","H","0","img/none_selected.jpg","","37","main_expt",""
"","bandit","117","365513","0.0-79.0-0.0","53963490","wem/bandit_party_2","A1PIGZNLSQMGNW","either","3","212","","","","","","","0","0","1","0.1078843958","","0.4","0.2","0.8","0.6","","","","","0.1078843958","0.6008421093","0.7941499978","0.5746889943","","","","","","","","","","72","H","0","img/none_selected.jpg","","38","main_expt",""
"","bandit","118","367208","0.0-80.0-0.0","53963490","wem/bandit_party_2","A1PIGZNLSQMGNW","either","3","188","","","","","","","0","1","0","","0.6076920036","0.4","0.2","0.8","0.6","0.09731722171","0.6076920036","0.7352357368","0.6621100331","","","","","","","","","","","","","","74","J","1","","","39","main_expt",""
"","bandit","119","369409","0.0-81.0-0.0","53963490","wem/bandit_party_2","A1PIGZNLSQMGNW","either","3","693","","","","","","","0","1","0","","0.6794361822","0.4","0.2","0.8","0.6","0.2123509389","0.6616622706","0.7920886563","0.6794361822","","","","","","","","","","","","","","76","L","3","","","40","main_expt",""
"","bandit","120","371200","0.0-82.0-0.0","53963490","wem/bandit_party_2","A1PIGZNLSQMGNW","either","3","285","","","","","","","0","1","0","","0.6945341382","0.4","0.2","0.8","0.6","0.1265365425","0.6945341382","0.8780543775","0.7140523024","","","","","","","","","","","","","","74","J","1","","","41","main_expt",""
"","bandit","121","372952","0.0-83.0-0.0","53963490","wem/bandit_party_2","A1PIGZNLSQMGNW","either","3","244","","","","","","","0","1","0","","0.6669732994","0.4","0.2","0.8","0.6","0.166138795","0.6833149102","0.9167256642","0.6669732994","","","","","","","","","","","","","","76","L","3","","","42","main_expt",""
"","bandit","122","374545","0.0-84.0-0.0","53963490","wem/bandit_party_2","A1PIGZNLSQMGNW","either","3","85","","","","","","","0","1","0","","0.7094953576","0.4","0.2","0.8","0.6","0.1782339186","0.7094953576","0.9407985187","0.5435093165","","","","","","","","","","","","","","74","J","1","","","43","main_expt",""
"","bandit","123","376073","0.0-85.0-0.0","53963490","wem/bandit_party_2","A1PIGZNLSQMGNW","either","3","20","","","","","","","0","1","0","","0.6002661395","0.4","0.2","0.8","0.6","0.1342945815","0.7519468023","0.9000978766","0.6002661395","","","","","","","","","","","","","","76","L","3","","","44","main_expt",""
"","bandit","124","377872","0.0-86.0-0.0","53963490","wem/bandit_party_2","A1PIGZNLSQMGNW","either","3","292","","","","","","","0","1","0","","0.7673203249","0.4","0.2","0.8","0.6","0.09086288848","0.7673203249","0.9190036262","0.5948203474","","","","","","","","","","","","","","74","J","1","","","45","main_expt",""
"","bandit","125","379641","0.0-87.0-0.0","53963490","wem/bandit_party_2","A1PIGZNLSQMGNW","either","3","260","","","","","","","0","1","0","","0.6230250108","0.4","0.2","0.8","0.6","0.06420934006","0.722836051","0.8865788656","0.6230250108","","","","","","","","","","","","","","76","L","3","","","46","main_expt",""
"","bandit","126","381392","0.0-88.0-0.0","53963490","wem/bandit_party_2","A1PIGZNLSQMGNW","either","3","244","","","","","","","0","1","0","","0.7392487755","0.4","0.2","0.8","0.6","0.02332738683","0.7392487755","0.8207935484","0.7239235909","","","","","","","","","","","","","","74","J","1","","","47","main_expt",""
"","bandit","127","383160","0.0-89.0-0.0","53963490","wem/bandit_party_2","A1PIGZNLSQMGNW","either","3","260","","","","","","","1","0","0","0.7715310514","","0.4","0.2","0.8","0.6","","","","","0.03517565614","0.7551111279","0.8170742187","0.7715310514","","","","","","","","","","76","L","3","","","48","main_expt",""
"","bandit","128","385201","0.0-90.0-0.0","53963490","wem/bandit_party_2","A1PIGZNLSQMGNW","either","3","533","","","","","","","0","0","1","","0.6917772817","0.4","0.2","0.8","0.6","0.04466115719","0.6917772817","0.7874830355","0.822179592","","","","","","","","","","","","","","74","J","1","","","49","main_expt",""
"","bandit","129","387608","0.0-91.0-0.0","53963490","wem/bandit_party_2","A1PIGZNLSQMGNW","either","3","899","","","","","","","1","0","0","0.8279472521","","0.4","0.2","0.8","0.6","","","","","0.05053383529","0.6689959301","0.8279472521","0.8108951243","","","","","","","","","","75","K","2","","","50","main_expt",""
"","bandit","130","389457","0.0-92.0-0.0","53963490","wem/bandit_party_2","A1PIGZNLSQMGNW","either","3","341","","","","","","","0","0","1","0.04681033125","","0.4","0.2","0.8","0.6","","","","","0.04681033125","0.6020608281","0.8426817256","0.7649170446","","","","","","","","","","72","H","0","img/none_selected.jpg","","51","main_expt",""
"","bandit","131","391107","0.0-93.0-0.0","53963490","wem/bandit_party_2","A1PIGZNLSQMGNW","either","3","140","","","","","","","0","0","1","","0.09308222201","0.4","0.2","0.8","0.6","0.09308222201","0.6583182673","0.8377647656","0.8169848275","","","","","","","","","","","","","","72","H","0","img/none_selected.jpg","","52","main_expt",""
"","bandit","132","392825","0.0-94.0-0.0","53963490","wem/bandit_party_2","A1PIGZNLSQMGNW","either","3","210","","","","","","","0","0","1","0.8241398149","","0.4","0.2","0.8","0.6","","","","","0.1397702629","0.5419436754","0.8241398149","0.8843577791","","","","","","","","","","75","K","2","","","53","main_expt",""
"","bandit","133","394481","0.0-95.0-0.0","53963490","wem/bandit_party_2","A1PIGZNLSQMGNW","either","3","147","","","","","","","0","0","1","0.5717614462","","0.4","0.2","0.8","0.6","","","","","0.110287685","0.5717614462","0.7289352116","0.8854515068","","","","","","","","","","74","J","1","","","54","main_expt",""
"","bandit","134","396153","0.0-96.0-0.0","53963490","wem/bandit_party_2","A1PIGZNLSQMGNW","either","3","164","","","","","","","0","0","1","0.5497935615","","0.4","0.2","0.8","0.6","","","","","0.1843384007","0.5497935615","0.5895019519","0.8884574585","","","","","","","","","","74","J","1","","","55","main_expt",""
"","bandit","135","398192","0.0-97.0-0.0","53963490","wem/bandit_party_2","A1PIGZNLSQMGNW","either","3","531","","","","","","","0","0","1","","0.2056752237","0.4","0.2","0.8","0.6","0.2056752237","0.4902645195","0.4622464331","0.8840911236","","","","","","","","","","","","","","72","H","0","img/none_selected.jpg","","56","main_expt",""
"","bandit","136","400192","0.0-98.0-0.0","53963490","wem/bandit_party_2","A1PIGZNLSQMGNW","either","3","493","","","","","","","1","0","0","0.864283103","","0.4","0.2","0.8","0.6","","","","","0.3410726922","0.5258365243","0.490024734","0.864283103","","","","","","","","","","76","L","3","","","57","main_expt",""
"","bandit","137","401961","0.0-99.0-0.0","53963490","wem/bandit_party_2","A1PIGZNLSQMGNW","either","3","262","","","","","","","0","1","0","","0.6182628796","0.4","0.2","0.8","0.6","0.3873695161","0.6097664349","0.6182628796","0.7377821737","","","","","","","","","","","","","","75","K","2","","","58","main_expt",""
"","bandit","138","403720","0.0-100.0-0.0","53963490","wem/bandit_party_2","A1PIGZNLSQMGNW","either","3","252","","","","","","","1","0","0","0.6976829826","","0.4","0.2","0.8","0.6","","","","","0.3281321534","0.6016711108","0.6976829826","0.7469541206","","","","","","","","","","75","K","2","","","59","main_expt",""
"","bandit","139","405432","0.0-101.0-0.0","53963490","wem/bandit_party_2","A1PIGZNLSQMGNW","either","3","204","","","","","","","1","0","0","0.8019510571","","0.4","0.2","0.8","0.6","","","","","0.2380439254","0.5544917648","0.675433977","0.8019510571","","","","","","","","","","76","L","3","","","60","main_expt",""
"","bandit","140","407080","0.0-102.0-0.0","53963490","wem/bandit_party_2","A1PIGZNLSQMGNW","either","3","141","","","","","","","1","0","0","0.8943887388","","0.4","0.2","0.8","0.6","","","","","0.2228222105","0.6842720067","0.7206550838","0.8943887388","","","","","","","","","","76","L","3","","","61","main_expt",""
"","bandit","141","408784","0.0-103.0-0.0","53963490","wem/bandit_party_2","A1PIGZNLSQMGNW","either","3","197","","","","","","","1","0","0","0.8942973556","","0.4","0.2","0.8","0.6","","","","","0.2489253665","0.6824345281","0.7184677658","0.8942973556","","","","","","","","","","76","L","3","","","62","main_expt",""
"","bandit","142","410416","0.0-104.0-0.0","53963490","wem/bandit_party_2","A1PIGZNLSQMGNW","either","3","123","","","","","","","0","1","0","","0.8829609874","0.4","0.2","0.8","0.6","0.2298237489","0.7321168219","0.6785259816","0.8829609874","","","","","","","","","","","","","","76","L","3","","","63","main_expt",""
"","bandit","143","412113","0.0-105.0-0.0","53963490","wem/bandit_party_2","A1PIGZNLSQMGNW","either","3","190","","","","","","","0","1","0","","0.6349383059","0.4","0.2","0.8","0.6","0.1849055857","0.8123013145","0.6349383059","0.8175344892","","","","","","","","","","","","","","75","K","2","","","64","main_expt",""
"","bandit","144","413776","0.0-106.0-0.0","53963490","wem/bandit_party_2","A1PIGZNLSQMGNW","either","3","155","","","","","","","1","0","0","0.629769122","","0.4","0.2","0.8","0.6","","","","","0.2285715909","0.8236121316","0.629769122","0.7812905168","","","","","","","","","","75","K","2","","","65","main_expt",""
"","bandit","145","415290","0.0-107.0-0.0","53963490","wem/bandit_party_2","A1PIGZNLSQMGNW","either","3","6","","","","","","","0","0","1","","0.7158950816","0.4","0.2","0.8","0.6","0.2477643906","0.8270077233","0.7158950816","0.7848445355","","","","","","","","","","","","","","75","K","2","","","66","main_expt",""
"","bandit","146","417024","0.0-108.0-0.0","53963490","wem/bandit_party_2","A1PIGZNLSQMGNW","either","3","226","","","","","","","0","1","0","","0.7601471472","0.4","0.2","0.8","0.6","0.1801078726","0.7601471472","0.6309271871","0.763143195","","","","","","","","","","","","","","74","J","1","","","67","main_expt",""
"","bandit","147","418592","0.0-109.0-0.0","53963490","wem/bandit_party_2","A1PIGZNLSQMGNW","either","3","60","","","","","","","0","1","0","","0.7567750057","0.4","0.2","0.8","0.6","0.08479184886","0.7567750057","0.617221228","0.7966751536","","","","","","","","","","","","","","74","J","1","","","68","main_expt",""
"","bandit","148","420249","0.0-110.0-0.0","53963490","wem/bandit_party_2","A1PIGZNLSQMGNW","either","3","148","","","","","","","0","0","1","","0.6871277649","0.4","0.2","0.8","0.6","0.06982522498","0.6871277649","0.6235929763","0.8534335227","","","","","","","","","","","","","","74","J","1","","","69","main_expt",""
"","bandit","149","421961","0.0-111.0-0.0","53963490","wem/bandit_party_2","A1PIGZNLSQMGNW","either","3","204","","","","","","","0","0","1","","0.5543620559","0.4","0.2","0.8","0.6","0.05029268469","0.773099018","0.5543620559","0.8915498471","","","","","","","","","","","","","","75","K","2","","","70","main_expt",""
"","bandit","150","423618","0.0-112.0-0.0","53963490","wem/bandit_party_2","A1PIGZNLSQMGNW","either","3","148","","","","","","","0","0","1","0.06413839938","","0.4","0.2","0.8","0.6","","","","","0.06413839938","0.7412476729","0.5333999135","0.8736989015","","","","","","","","","","72","H","0","img/none_selected.jpg","","71","main_expt",""
"","bandit","151","425273","0.0-113.0-0.0","53963490","wem/bandit_party_2","A1PIGZNLSQMGNW","either","3","145","","","","","","","0","0","1","0.05155778705","","0.4","0.2","0.8","0.6","","","","","0.05155778705","0.8080704968","0.5905126671","0.8837551658","","","","","","","","","","72","H","0","img/none_selected.jpg","","72","main_expt",""
"","bandit","152","426984","0.0-114.0-0.0","53963490","wem/bandit_party_2","A1PIGZNLSQMGNW","either","3","202","","","","","","","1","0","0","0.8495494246","","0.4","0.2","0.8","0.6","","","","","0.0232747386","0.8270016227","0.6925119087","0.8495494246","","","","","","","","","","76","L","3","","","73","main_expt",""
"","bandit","153","428592","0.0-115.0-0.0","53963490","wem/bandit_party_2","A1PIGZNLSQMGNW","either","3","99","","","","","","","0","1","0","","0.9127472651","0.4","0.2","0.8","0.6","0.04751547773","0.7872017979","0.7134745341","0.9127472651","","","","","","","","","","","","","","76","L","3","","","74","main_expt",""
"","bandit","154","430233","0.0-116.0-0.0","53963490","wem/bandit_party_2","A1PIGZNLSQMGNW","either","3","132","","","","","","","1","0","0","0.8065440948","","0.4","0.2","0.8","0.6","","","","","0.05282531612","0.6167225576","0.8065440948","0.9199060817","","","","","","","","","","75","K","2","","","75","main_expt",""
"","bandit","155","431976","0.0-117.0-0.0","53963490","wem/bandit_party_2","A1PIGZNLSQMGNW","either","3","234","","","","","","","1","0","0","0.8691294168","","0.4","0.2","0.8","0.6","","","","","0.08738729654","0.637182095","0.7849172319","0.8691294168","","","","","","","","","","76","L","3","","","76","main_expt",""
"","bandit","156","433729","0.0-118.0-0.0","53963490","wem/bandit_party_2","A1PIGZNLSQMGNW","either","3","246","","","","","","","0","1","0","","0.9111329321","0.4","0.2","0.8","0.6","0.08851312664","0.7169911294","0.7818962729","0.9111329321","","","","","","","","","","","","","","76","L","3","","","77","main_expt",""
"","bandit","157","435616","0.0-119.0-0.0","53963490","wem/bandit_party_2","A1PIGZNLSQMGNW","either","3","379","","","","","","","0","1","0","","0.9286966754","0.4","0.2","0.8","0.6","0.145228539","0.7446448061","0.7002933386","0.9286966754","","","","","","","","","","","","","","76","L","3","","","78","main_expt",""
"","bandit","158","437408","0.0-120.0-0.0","53963490","wem/bandit_party_2","A1PIGZNLSQMGNW","either","3","284","","","","","","","0","1","0","","0.9616021792","0.4","0.2","0.8","0.6","0.1669860915","0.8152221547","0.6510109529","0.9616021792","","","","","","","","","","","","","","76","L","3","","","79","main_expt",""
"","bandit","159","439193","0.0-121.0-0.0","53963490","wem/bandit_party_2","A1PIGZNLSQMGNW","either","3","276","","","","","","","0","1","0","","0.950571795","0.4","0.2","0.8","0.6","0.1922913003","0.810351938","0.6765614865","0.950571795","","","","","","","","","","","","","","76","L","3","","","80","main_expt",""
"","bandit","160","440889","0.0-122.0-0.0","53963490","wem/bandit_party_2","A1PIGZNLSQMGNW","either","3","186","","","","","","","0","0","1","0.9331160128","","0.4","0.2","0.8","0.6","","","","","0.2407870914","0.8895110989","0.5908869344","0.9331160128","","","","","","","","","","76","L","3","","","81","main_expt",""
"","bandit","161","442648","0.0-123.0-0.0","53963490","wem/bandit_party_2","A1PIGZNLSQMGNW","either","3","250","","","","","","","0","1","0","","0.9046816681","0.4","0.2","0.8","0.6","0.3077898034","0.9046816681","0.5267531711","0.9465986336","","","","","","","","","","","","","","74","J","1","","","82","main_expt",""
"","bandit","162","444346","0.0-124.0-0.0","53963490","wem/bandit_party_2","A1PIGZNLSQMGNW","either","3","189","","","","","","","1","0","0","0.9371159138","","0.4","0.2","0.8","0.6","","","","","0.2337579628","0.8465278631","0.6168373964","0.9371159138","","","","","","","","","","76","L","3","","","83","main_expt",""
"","bandit","163","446001","0.0-125.0-0.0","53963490","wem/bandit_party_2","A1PIGZNLSQMGNW","either","3","146","","","","","","","0","0","1","0.8998840018","","0.4","0.2","0.8","0.6","","","","","0.2781329454","0.7584930438","0.5733990252","0.8998840018","","","","","","","","","","76","L","3","","","84","main_expt",""
"","bandit","164","447584","0.0-126.0-0.0","53963490","wem/bandit_party_2","A1PIGZNLSQMGNW","either","3","75","","","","","","","0","0","1","0.4719695616","","0.4","0.2","0.8","0.6","","","","","0.3013149798","0.7727946294","0.4719695616","0.9102188985","","","","","","","","","","75","K","2","","","85","main_expt",""
"","bandit","165","449624","0.0-127.0-0.0","53963490","wem/bandit_party_2","A1PIGZNLSQMGNW","either","3","531","","","","","","","1","0","0","0.6941651786","","0.4","0.2","0.8","0.6","","","","","0.3231836659","0.8216594778","0.6941651786","0.9000055418","","","","","","","","","","75","K","2","","","86","main_expt",""
"","bandit","166","451408","0.0-128.0-0.0","53963490","wem/bandit_party_2","A1PIGZNLSQMGNW","either","3","276","","","","","","","1","0","0","0.5408952125","","0.4","0.2","0.8","0.6","","","","","0.3986379136","0.7833884788","0.5408952125","0.8563468124","","","","","","","","","","75","K","2","","","87","main_expt",""
"","bandit","167","453129","0.0-129.0-0.0","53963490","wem/bandit_party_2","A1PIGZNLSQMGNW","either","3","211","","","","","","","0","0","1","","0.7349543302","0.4","0.2","0.8","0.6","0.4230151841","0.7804426693","0.5438891422","0.7349543302","","","","","","","","","","","","","","76","L","3","","","88","main_expt",""
"","bandit","168","454986","0.0-130.0-0.0","53963490","wem/bandit_party_2","A1PIGZNLSQMGNW","either","3","347","","","","","","","0","0","1","","0.3761858397","0.4","0.2","0.8","0.6","0.3761858397","0.7930928848","0.4294971294","0.7907967515","","","","","","","","","","","","","","72","H","0","img/none_selected.jpg","","89","main_expt",""
"","bandit","169","456665","0.0-131.0-0.0","53963490","wem/bandit_party_2","A1PIGZNLSQMGNW","either","3","170","","","","","","","0","0","1","","0.4799086841","0.4","0.2","0.8","0.6","0.4799086841","0.7683039237","0.4928337868","0.7883246469","","","","","","","","","","","","","","72","H","0","img/none_selected.jpg","","90","main_expt",""
"","bandit","170","458720","0.0-132.0-0.0","53963490","wem/bandit_party_2","A1PIGZNLSQMGNW","either","3","546","","","","","","","0","0","1","","0.8072091422","0.4","0.2","0.8","0.6","0.4558425901","0.8072091422","0.5655090935","0.8389096604","","","","","","","","","","","","","","74","J","1","","","91","main_expt",""
"","bandit","171","460616","0.0-133.0-0.0","53963490","wem/bandit_party_2","A1PIGZNLSQMGNW","either","3","387","","","","","","","0","1","0","","0.7791444337","0.4","0.2","0.8","0.6","0.3781515597","0.7791444337","0.6154818033","0.8064187158","","","","","","","","","","","","","","74","J","1","","","92","main_expt",""
"","bandit","172","462600","0.0-134.0-0.0","53963490","wem/bandit_party_2","A1PIGZNLSQMGNW","either","3","474","","","","","","","1","0","0","0.7542368763","","0.4","0.2","0.8","0.6","","","","","0.2858753042","0.8498372391","0.7381217307","0.7542368763","","","","","","","","","","76","L","3","","","93","main_expt",""
"","bandit","173","466106","0.0-135.0-0.0","53963490","wem/bandit_party_2","A1PIGZNLSQMGNW","either","3","1993","","","","","","","0","0","1","0.6932487021","","0.4","0.2","0.8","0.6","","","","","0.3914428564","0.8440610374","0.7776388333","0.6932487021","","","","","","","","","","76","L","3","","","94","main_expt",""
"","bandit","174","467840","0.0-136.0-0.0","53963490","wem/bandit_party_2","A1PIGZNLSQMGNW","either","3","226","","","","","","","1","0","0","0.8299152283","","0.4","0.2","0.8","0.6","","","","","0.3800018616","0.8092418145","0.8299152283","0.6706070003","","","","","","","","","","75","K","2","","","95","main_expt",""
"","bandit","175","469592","0.0-137.0-0.0","53963490","wem/bandit_party_2","A1PIGZNLSQMGNW","either","3","244","","","","","","","0","0","1","","0.7697811485","0.4","0.2","0.8","0.6","0.3078584031","0.8655172998","0.7697811485","0.6670251336","","","","","","","","","","","","","","75","K","2","","","96","main_expt",""
"","bandit","176","471208","0.0-138.0-0.0","53963490","wem/bandit_party_2","A1PIGZNLSQMGNW","either","3","107","","","","","","","0","1","0","","0.8735151232","0.4","0.2","0.8","0.6","0.218486712","0.8735151232","0.7487724405","0.7023758817","","","","","","","","","","","","","","74","J","1","","","97","main_expt",""
"","bandit","177","473000","0.0-139.0-0.0","53963490","wem/bandit_party_2","A1PIGZNLSQMGNW","either","3","283","","","","","","","0","1","0","","0.84409386","0.4","0.2","0.8","0.6","0.2037628256","0.84409386","0.7450583294","0.7036518389","","","","","","","","","","","","","","74","J","1","","","98","main_expt",""
"","bandit","178","474824","0.0-140.0-0.0","53963490","wem/bandit_party_2","A1PIGZNLSQMGNW","either","3","315","","","","","","","0","1","0","","0.8089648913","0.4","0.2","0.8","0.6","0.2400196326","0.8089648913","0.7227120129","0.8401346726","","","","","","","","","","","","","","74","J","1","","","99","main_expt",""
"","bandit","179","477178","0.0-141.0-0.0","53963490","wem/bandit_party_2","A1PIGZNLSQMGNW","either","3","844","","","","","","","1","0","0","0.8640782416","","0.4","0.2","0.8","0.6","","","","","0.3298222115","0.7259557377","0.5872141049","0.8640782416","","","","","","","","","","76","L","3","","","100","main_expt",""
"","bandit","180","479081","0.0-142.0-0.0","53963490","wem/bandit_party_2","A1PIGZNLSQMGNW","either","3","393","","","","","","","0","1","0","","0.6332869741","0.4","0.2","0.8","0.6","0.3108047587","0.6332869741","0.6432213136","0.8232172207","","","","","","","","","","","","","","74","J","1","","","101","main_expt",""
"","bandit","181","480832","0.0-143.0-0.0","53963490","wem/bandit_party_2","A1PIGZNLSQMGNW","either","3","243","","","","","","","0","1","0","","0.659443461","0.4","0.2","0.8","0.6","0.2869381514","0.659443461","0.6009476408","0.8451901448","","","","","","","","","","","","","","74","J","1","","","102","main_expt",""
"","bandit","182","482617","0.0-144.0-0.0","53963490","wem/bandit_party_2","A1PIGZNLSQMGNW","either","3","275","","","","","","","0","1","0","","0.5959971703","0.4","0.2","0.8","0.6","0.246485708","0.5959971703","0.6120105745","0.8792283932","","","","","","","","","","","","","","74","J","1","","","103","main_expt",""
"","bandit","183","484672","0.0-145.0-0.0","53963490","wem/bandit_party_2","A1PIGZNLSQMGNW","either","3","547","","","","","","","0","1","0","","0.6821098495","0.4","0.2","0.8","0.6","0.2175667678","0.5643630141","0.6821098495","0.8887181638","","","","","","","","","","","","","","75","K","2","","","104","main_expt",""
"","bandit","184","486448","0.0-146.0-0.0","53963490","wem/bandit_party_2","A1PIGZNLSQMGNW","either","3","267","","","","","","","0","1","0","","0.5489079514","0.4","0.2","0.8","0.6","0.2645808036","0.5489079514","0.7228510016","0.8013578166","","","","","","","","","","","","","","74","J","1","","","105","main_expt",""
"","bandit","185","488257","0.0-147.0-0.0","53963490","wem/bandit_party_2","A1PIGZNLSQMGNW","either","3","300","","","","","","","0","0","1","","0.4336033326","0.4","0.2","0.8","0.6","0.2652424516","0.4336033326","0.6639212405","0.7307006529","","","","","","","","","","","","","","74","J","1","","","106","main_expt",""
"","bandit","186","490032","0.0-148.0-0.0","53963490","wem/bandit_party_2","A1PIGZNLSQMGNW","either","3","266","","","","","","","1","0","0","0.2481661544","","0.4","0.2","0.8","0.6","","","","","0.2481661544","0.4779201531","0.6237034742","0.7519500851","","","","","","","","","","72","H","0","img/none_selected.jpg","","107","main_expt",""
"","bandit","187","491952","0.0-149.0-0.0","53963490","wem/bandit_party_2","A1PIGZNLSQMGNW","either","3","412","","","","","","","0","1","0","","0.7457577851","0.4","0.2","0.8","0.6","0.2361720859","0.5075294874","0.5847293191","0.7457577851","","","","","","","","","","","","","","76","L","3","","","108","main_expt",""
"","bandit","188","493721","0.0-150.0-0.0","53963490","wem/bandit_party_2","A1PIGZNLSQMGNW","either","3","258","","","","","","","0","0","1","","0.2799679389","0.4","0.2","0.8","0.6","0.2799679389","0.522842385","0.6260859175","0.77583868","","","","","","","","","","","","","","72","H","0","img/none_selected.jpg","","109","main_expt",""
"","bandit","189","495616","0.0-151.0-0.0","53963490","wem/bandit_party_2","A1PIGZNLSQMGNW","either","3","386","","","","","","","1","0","0","0.7520827962","","0.4","0.2","0.8","0.6","","","","","0.3333098602","0.419893696","0.4788227383","0.7520827962","","","","","","","","","","76","L","3","","","110","main_expt",""
"","bandit","190","497497","0.0-152.0-0.0","53963490","wem/bandit_party_2","A1PIGZNLSQMGNW","either","3","371","","","","","","","0","0","1","0.6512809768","","0.4","0.2","0.8","0.6","","","","","0.3669732535","0.431092028","0.6019778282","0.6512809768","","","","","","","","","","76","L","3","","","111","main_expt",""
"","bandit","191","499305","0.0-153.0-0.0","53963490","wem/bandit_party_2","A1PIGZNLSQMGNW","either","3","299","","","","","","","1","0","0","0.546445977","","0.4","0.2","0.8","0.6","","","","","0.389765336","0.3590071368","0.546445977","0.5891937939","","","","","","","","","","75","K","2","","","112","main_expt",""
"","bandit","192","501201","0.0-154.0-0.0","53963490","wem/bandit_party_2","A1PIGZNLSQMGNW","either","3","386","","","","","","","1","0","0","0.6256092846","","0.4","0.2","0.8","0.6","","","","","0.3191506652","0.4498419114","0.6256092846","0.6490525038","","","","","","","","","","75","K","2","","","113","main_expt",""
"","bandit","193","503008","0.0-155.0-0.0","53963490","wem/bandit_party_2","A1PIGZNLSQMGNW","either","3","298","","","","","","","0","1","0","","0.6577617598","0.4","0.2","0.8","0.6","0.2090321438","0.4829831469","0.6577617598","0.6283680234","","","","","","","","","","","","","","75","K","2","","","114","main_expt",""
"","bandit","194","504936","0.0-156.0-0.0","53963490","wem/bandit_party_2","A1PIGZNLSQMGNW","either","3","418","","","","","","","0","1","0","","0.7140476354","0.4","0.2","0.8","0.6","0.2094439124","0.4846695964","0.7140476354","0.6064224059","","","","","","","","","","","","","","75","K","2","","","115","main_expt",""
"","bandit","195","506873","0.0-157.0-0.0","53963490","wem/bandit_party_2","A1PIGZNLSQMGNW","either","3","427","","","","","","","0","0","1","0.6589976567","","0.4","0.2","0.8","0.6","","","","","0.2695181069","0.5396909338","0.6589976567","0.545813367","","","","","","","","","","75","K","2","","","116","main_expt",""
"","bandit","196","508920","0.0-158.0-0.0","53963490","wem/bandit_party_2","A1PIGZNLSQMGNW","either","3","538","","","","","","","0","1","0","","0.3402036285","0.4","0.2","0.8","0.6","0.3402036285","0.5378282835","0.6937703341","0.5179373022","","","","","","","","","","","","","","72","H","0","img/none_selected.jpg","","117","main_expt",""
"","bandit","197","510897","0.0-159.0-0.0","53963490","wem/bandit_party_2","A1PIGZNLSQMGNW","either","3","467","","","","","","","0","1","0","","0.4014157923","0.4","0.2","0.8","0.6","0.3101634078","0.5729988564","0.77114399","0.4014157923","","","","","","","","","","","","","","76","L","3","","","118","main_expt",""
"","bandit","198","512890","0.0-160.0-0.0","53963490","wem/bandit_party_2","A1PIGZNLSQMGNW","either","3","482","","","","","","","1","0","0","0.3242193616","","0.4","0.2","0.8","0.6","","","","","0.3242193616","0.5630251564","0.710000291","0.4360264599","","","","","","","","","","72","H","0","img/none_selected.jpg","","119","main_expt",""
"","bandit","199","514634","0.0-161.0-0.0","53963490","wem/bandit_party_2","A1PIGZNLSQMGNW","either","3","231","","","","","","","0","0","1","0.3334277272","","0.4","0.2","0.8","0.6","","","","","0.3334277272","0.6482115929","0.6767982245","0.3297853269","","","","","","","","","","72","H","0","img/none_selected.jpg","","120","main_expt",""
"","bandit","200","516241","0.0-162.0-0.0","53963490","wem/bandit_party_2","A1PIGZNLSQMGNW","either","3","97","","","","","","","0","0","1","","0.4066521311","0.4","0.2","0.8","0.6","0.4066521311","0.5688505083","0.7360115258","0.3767442019","","","","","","","","","","","","","","72","H","0","img/none_selected.jpg","","121","main_expt",""
"","bandit","201","518008","0.0-163.0-0.0","53963490","wem/bandit_party_2","A1PIGZNLSQMGNW","either","3","257","","","","","","","0","1","0","","0.5349597204","0.4","0.2","0.8","0.6","0.5193034213","0.5349597204","0.7258716992","0.3589515546","","","","","","","","","","","","","","74","J","1","","","122","main_expt",""
"","bandit","202","520017","0.0-164.0-0.0","53963490","wem/bandit_party_2","A1PIGZNLSQMGNW","either","3","498","","","","","","","0","0","1","","0.412887176","0.4","0.2","0.8","0.6","0.5594962391","0.412887176","0.7848203729","0.3461890545","","","","","","","","","","","","","","74","J","1","","","123","main_expt",""
"","bandit","203","522561","0.0-165.0-0.0","53963490","wem/bandit_party_2","A1PIGZNLSQMGNW","either","3","1033","","","","","","","0","0","1","","0.6876014299","0.4","0.2","0.8","0.6","0.6876014299","0.4137060999","0.7673004895","0.2287340519","","","","","","","","","","","","","","72","H","0","img/none_selected.jpg","","124","main_expt",""
"","bandit","204","524313","0.0-166.0-0.0","53963490","wem/bandit_party_2","A1PIGZNLSQMGNW","either","3","242","","","","","","","0","0","1","","0.2900718705","0.4","0.2","0.8","0.6","0.7354493796","0.3226696341","0.8020703208","0.2900718705","","","","","","","","","","","","","","76","L","3","","","125","main_expt",""
"","bandit","205","525905","0.0-167.0-0.0","53963490","wem/bandit_party_2","A1PIGZNLSQMGNW","either","3","81","","","","","","","1","0","0","0.2880997441","","0.4","0.2","0.8","0.6","","","","","0.76840964","0.3904211026","0.8196031782","0.2880997441","","","","","","","","","","76","L","3","","","126","main_expt",""
"","bandit","206","527648","0.0-168.0-0.0","53963490","wem/bandit_party_2","A1PIGZNLSQMGNW","either","3","234","","","","","","","0","0","1","","0.3451069126","0.4","0.2","0.8","0.6","0.7310750685","0.4227014292","0.7095492128","0.3451069126","","","","","","","","","","","","","","76","L","3","","","127","main_expt",""
"","bandit","207","529384","0.0-169.0-0.0","53963490","wem/bandit_party_2","A1PIGZNLSQMGNW","either","3","226","","","","","","","1","0","0","0.711577854","","0.4","0.2","0.8","0.6","","","","","0.6582635175","0.543317668","0.711577854","0.3129298861","","","","","","","","","","75","K","2","","","128","main_expt",""
"","bandit","208","531033","0.0-170.0-0.0","53963490","wem/bandit_party_2","A1PIGZNLSQMGNW","either","3","139","","","","","","","0","0","1","0.3507055597","","0.4","0.2","0.8","0.6","","","","","0.7529887683","0.5906282681","0.7022761705","0.3507055597","","","","","","","","","","76","L","3","","","129","main_expt",""
"","bandit","209","532672","0.0-171.0-0.0","53963490","wem/bandit_party_2","A1PIGZNLSQMGNW","either","3","131","","","","","","","0","0","1","","0.6636268631","0.4","0.2","0.8","0.6","0.7929301986","0.6636268631","0.7309419319","0.3753424236","","","","","","","","","","","","","","74","J","1","","","130","main_expt",""
"","bandit","210","534505","0.0-172.0-0.0","53963490","wem/bandit_party_2","A1PIGZNLSQMGNW","either","3","323","","","","","","","0","0","1","","0.5686699027","0.4","0.2","0.8","0.6","0.8149544693","0.5686699027","0.6904825683","0.3473486375","","","","","","","","","","","","","","74","J","1","","","131","main_expt",""
"","bandit","211","536248","0.0-173.0-0.0","53963490","wem/bandit_party_2","A1PIGZNLSQMGNW","either","3","233","","","","","","","0","1","0","","0.7626544417","0.4","0.2","0.8","0.6","0.7626544417","0.6564012045","0.7153166113","0.303679922","","","","","","","","","","","","","","72","H","0","img/none_selected.jpg","","132","main_expt",""
"","bandit","212","538176","0.0-174.0-0.0","53963490","wem/bandit_party_2","A1PIGZNLSQMGNW","either","3","419","","","","","","","0","0","1","0.7584501248","","0.4","0.2","0.8","0.6","","","","","0.7584501248","0.5876654864","0.8135501627","0.3385565331","","","","","","","","","","72","H","0","img/none_selected.jpg","","133","main_expt",""
"","bandit","213","539712","0.0-175.0-0.0","53963490","wem/bandit_party_2","A1PIGZNLSQMGNW","either","3","25","","","","","","","0","1","0","","0.7905015291","0.4","0.2","0.8","0.6","0.7905015291","0.5299368298","0.7707892239","0.3686406913","","","","","","","","","","","","","","72","H","0","img/none_selected.jpg","","134","main_expt",""
"","bandit","214","541473","0.0-176.0-0.0","53963490","wem/bandit_party_2","A1PIGZNLSQMGNW","either","3","251","","","","","","","0","0","1","0.7689088841","","0.4","0.2","0.8","0.6","","","","","0.7515189777","0.4547966061","0.7689088841","0.3672202126","","","","","","","","","","75","K","2","","","135","main_expt",""
"","bandit","215","543185","0.0-177.0-0.0","53963490","wem/bandit_party_2","A1PIGZNLSQMGNW","either","3","202","","","","","","","0","1","0","","0.7293518859","0.4","0.2","0.8","0.6","0.7293518859","0.5290841583","0.6641324257","0.4064769993","","","","","","","","","","","","","","72","H","0","img/none_selected.jpg","","136","main_expt",""
"","bandit","216","544944","0.0-178.0-0.0","53963490","wem/bandit_party_2","A1PIGZNLSQMGNW","either","3","249","","","","","","","0","1","0","","0.7286216209","0.4","0.2","0.8","0.6","0.7286216209","0.419904672","0.635388201","0.3492503667","","","","","","","","","","","","","","72","H","0","img/none_selected.jpg","","137","main_expt",""
"","bandit","217","546656","0.0-179.0-0.0","53963490","wem/bandit_party_2","A1PIGZNLSQMGNW","either","3","202","","","","","","","0","1","0","","0.7425921641","0.4","0.2","0.8","0.6","0.7425921641","0.4532768315","0.6889508363","0.3315752647","","","","","","","","","","","","","","72","H","0","img/none_selected.jpg","","138","main_expt",""
"","bandit","218","548409","0.0-180.0-0.0","53963490","wem/bandit_party_2","A1PIGZNLSQMGNW","either","3","242","","","","","","","0","0","1","","0.7356638012","0.4","0.2","0.8","0.6","0.7356638012","0.4194835996","0.6481427694","0.3080831972","","","","","","","","","","","","","","72","H","0","img/none_selected.jpg","","139","main_expt",""
"","bandit","219","550938","0.0-181.0-0.0","53963490","wem/bandit_party_2","A1PIGZNLSQMGNW","either","3","1017","","","","","","","0","0","1","","0.3254670704","0.4","0.2","0.8","0.6","0.7334346803","0.420008375","0.6497449761","0.3254670704","","","","","","","","","","","","","","76","L","3","","","140","main_expt",""
"","bandit","220","552608","0.0-182.0-0.0","53963490","wem/bandit_party_2","A1PIGZNLSQMGNW","either","3","161","","","","","","","0","0","1","0.3452870884","","0.4","0.2","0.8","0.6","","","","","0.7737071977","0.3908595681","0.7328205829","0.3452870884","","","","","","","","","","76","L","3","","","141","main_expt",""
"","bandit","221","554369","0.0-183.0-0.0","53963490","wem/bandit_party_2","A1PIGZNLSQMGNW","either","3","251","","","","","","","1","0","0","0.6396752577","","0.4","0.2","0.8","0.6","","","","","0.7912630164","0.3994278682","0.6396752577","0.2659846132","","","","","","","","","","75","K","2","","","142","main_expt",""
"","bandit","222","556121","0.0-184.0-0.0","53963490","wem/bandit_party_2","A1PIGZNLSQMGNW","either","3","241","","","","","","","0","0","1","","0.3137486051","0.4","0.2","0.8","0.6","0.7709923268","0.3137486051","0.5974809775","0.2549781044","","","","","","","","","","","","","","74","J","1","","","143","main_expt",""
"","bandit","223","557776","0.0-185.0-0.0","53963490","wem/bandit_party_2","A1PIGZNLSQMGNW","either","3","144","","","","","","","1","0","0","0.5953980303","","0.4","0.2","0.8","0.6","","","","","0.7492848764","0.3961992406","0.5953980303","0.3603981418","","","","","","","","","","75","K","2","","","144","main_expt",""
"","bandit","224","559392","0.0-186.0-0.0","53963490","wem/bandit_party_2","A1PIGZNLSQMGNW","either","3","107","","","","","","","1","0","0","0.6215671736","","0.4","0.2","0.8","0.6","","","","","0.7343485297","0.3186856111","0.6215671736","0.3682949958","","","","","","","","","","75","K","2","","","145","main_expt",""
"","bandit","225","561096","0.0-187.0-0.0","53963490","wem/bandit_party_2","A1PIGZNLSQMGNW","either","3","194","","","","","","","1","0","0","0.5766937592","","0.4","0.2","0.8","0.6","","","","","0.7701032705","0.2724247948","0.5766937592","0.5028772858","","","","","","","","","","75","K","2","","","146","main_expt",""
"","bandit","226","562888","0.0-188.0-0.0","53963490","wem/bandit_party_2","A1PIGZNLSQMGNW","either","3","283","","","","","","","0","0","1","","0.2844288079","0.4","0.2","0.8","0.6","0.7521601774","0.2844288079","0.4600492943","0.4186890645","","","","","","","","","","","","","","74","J","1","","","147","main_expt",""
"","bandit","227","564498","0.0-189.0-0.0","53963490","wem/bandit_party_2","A1PIGZNLSQMGNW","either","3","99","","","","","","","0","0","1","0.4575448178","","0.4","0.2","0.8","0.6","","","","","0.7762143641","0.3095389551","0.4575448178","0.3928328601","","","","","","","","","","75","K","2","","","148","main_expt",""
"","bandit","228","566081","0.0-190.0-0.0","53963490","wem/bandit_party_2","A1PIGZNLSQMGNW","either","3","72","","","","","","","0","0","1","","0.716016993","0.4","0.2","0.8","0.6","0.716016993","0.2464654743","0.3840278576","0.4220063763","","","","","","","","","","","","","","72","H","0","img/none_selected.jpg","","149","main_expt",""
"","bandit","229","567873","0.0-191.0-0.0","53963490","wem/bandit_party_2","A1PIGZNLSQMGNW","either","3","280","","","","","","","0","0","1","0.3206822378","","0.4","0.2","0.8","0.6","","","","","0.7182774931","0.2088091358","0.3004406684","0.3206822378","","","","","","","","","","76","L","3","","","150","main_expt",""
"","bandit","230","569648","0.0-192.0-0.0","53963490","wem/bandit_party_2","A1PIGZNLSQMGNW","either","3","264","","","","","","","1","0","0","0.3380172956","","0.4","0.2","0.8","0.6","","","","","0.8028216805","0.2670014618","0.2769981479","0.3380172956","","","","","","","","","","76","L","3","","","151","main_expt",""
"","bandit","231","571528","0.0-193.0-0.0","53963490","wem/bandit_party_2","A1PIGZNLSQMGNW","either","3","370","","","","","","","0","1","0","","0.2461440624","0.4","0.2","0.8","0.6","0.8634692279","0.3100930243","0.40565407","0.2461440624","","","","","","","","","","","","","","76","L","3","","","152","main_expt",""
"","bandit","232","573650","0.0-194.0-0.0","53963490","wem/bandit_party_2","A1PIGZNLSQMGNW","either","3","610","","","","","","","0","0","1","0.1852716423","","0.4","0.2","0.8","0.6","","","","","0.7719190238","0.3796096158","0.3829351634","0.1852716423","","","","","","","","","","76","L","3","","","153","main_expt",""
"","bandit","233","575240","0.0-195.0-0.0","53963490","wem/bandit_party_2","A1PIGZNLSQMGNW","either","3","81","","","","","","","1","0","0","0.8343429945","","0.4","0.2","0.8","0.6","","","","","0.8343429945","0.2265028128","0.4912137185","0.1660439368","","","","","","","","","","72","H","0","img/none_selected.jpg","","154","main_expt",""
"","bandit","234","577489","0.0-196.0-0.0","53963490","wem/bandit_party_2","A1PIGZNLSQMGNW","either","3","739","","","","","","","0","0","1","0.2135741777","","0.4","0.2","0.8","0.6","","","","","0.7908731232","0.2135741777","0.5312535156","0.2241607793","","","","","","","","","","74","J","1","","","155","main_expt",""
"","bandit","235","579256","0.0-197.0-0.0","53963490","wem/bandit_party_2","A1PIGZNLSQMGNW","either","3","256","","","","","","","0","1","0","","0.7848911391","0.4","0.2","0.8","0.6","0.7848911391","0.1338357519","0.5747898199","0.1566338899","","","","","","","","","","","","","","72","H","0","img/none_selected.jpg","","156","main_expt",""
"","bandit","236","580976","0.0-198.0-0.0","53963490","wem/bandit_party_2","A1PIGZNLSQMGNW","either","3","210","","","","","","","0","1","0","","0.7467155263","0.4","0.2","0.8","0.6","0.7467155263","0.1344370697","0.5948125822","0.1839373886","","","","","","","","","","","","","","72","H","0","img/none_selected.jpg","","157","main_expt",""
"","bandit","237","582697","0.0-199.0-0.0","53963490","wem/bandit_party_2","A1PIGZNLSQMGNW","either","3","210","","","","","","","1","0","0","0.7413618202","","0.4","0.2","0.8","0.6","","","","","0.7413618202","0.1217930933","0.6533804049","0.155802242","","","","","","","","","","72","H","0","img/none_selected.jpg","","158","main_expt",""
"","bandit","238","584361","0.0-200.0-0.0","53963490","wem/bandit_party_2","A1PIGZNLSQMGNW","either","3","150","","","","","","","0","0","1","","0.6882043704","0.4","0.2","0.8","0.6","0.6882043704","0.08524485746","0.5777198579","0.2304237345","","","","","","","","","","","","","","72","H","0","img/none_selected.jpg","","159","main_expt",""
"","bandit","239","586257","0.0-201.0-0.0","53963490","wem/bandit_party_2","A1PIGZNLSQMGNW","either","3","385","","","","","","","0","1","0","","0.6777741118","0.4","0.2","0.8","0.6","0.7253096401","0.07332219892","0.6777741118","0.2242026456","","","","","","","","","","","","","","75","K","2","","","160","main_expt",""
"","bandit","240","587840","0.0-202.0-0.0","53963490","wem/bandit_party_2","A1PIGZNLSQMGNW","either","3","73","","","","","","","0","0","1","0.6249074267","","0.4","0.2","0.8","0.6","","","","","0.6989182833","0.1063489691","0.6249074267","0.2708915048","","","","","","","","","","75","K","2","","","161","main_expt",""
"","bandit","241","589433","0.0-203.0-0.0","53963490","wem/bandit_party_2","A1PIGZNLSQMGNW","either","3","82","","","","","","","0","1","0","","0.7679575172","0.4","0.2","0.8","0.6","0.7679575172","0.09670310095","0.6755041601","0.2921592604","","","","","","","","","","","","","","72","H","0","img/none_selected.jpg","","162","main_expt",""
"","bandit","242","590943","0.0-204.0-0.0","53963490","wem/bandit_party_2","A1PIGZNLSQMGNW","either","3","1","","","","","","","1","0","0","0.6461818487","","0.4","0.2","0.8","0.6","","","","","0.6877390752","0.1266359811","0.6461818487","0.2050535257","","","","","","","","","","75","K","2","","","163","main_expt",""
"","bandit","243","592457","0.0-205.0-0.0","53963490","wem/bandit_party_2","A1PIGZNLSQMGNW","either","3","3","","","","","","","1","0","0","0.6957575266","","0.4","0.2","0.8","0.6","","","","","0.6957575266","0.1212611996","0.76368027","0.1998759094","","","","","","","","","","72","H","0","img/none_selected.jpg","","164","main_expt",""
"","bandit","244","594185","0.0-206.0-0.0","53963490","wem/bandit_party_2","A1PIGZNLSQMGNW","either","3","217","","","","","","","1","0","0","0.8400099296","","0.4","0.2","0.8","0.6","","","","","0.6760148625","0.1917887173","0.8400099296","0.1821974317","","","","","","","","","","75","K","2","","","165","main_expt",""
"","bandit","245","595985","0.0-207.0-0.0","53963490","wem/bandit_party_2","A1PIGZNLSQMGNW","either","3","285","","","","","","","0","1","0","","0.6463317238","0.4","0.2","0.8","0.6","0.6463317238","0.1560613016","0.8573275969","0.2916844583","","","","","","","","","","","","","","72","H","0","img/none_selected.jpg","","166","main_expt",""
"","bandit","246","597761","0.0-208.0-0.0","53963490","wem/bandit_party_2","A1PIGZNLSQMGNW","either","3","266","","","","","","","0","1","0","","0.7735369509","0.4","0.2","0.8","0.6","0.5613055562","0.2214887095","0.7735369509","0.3087465624","","","","","","","","","","","","","","75","K","2","","","167","main_expt",""
"","bandit","247","599841","0.0-209.0-0.0","53963490","wem/bandit_party_2","A1PIGZNLSQMGNW","either","3","569","","","","","","","0","0","1","","0.3896626528","0.4","0.2","0.8","0.6","0.5586162784","0.3463453368","0.8091314607","0.3896626528","","","","","","","","","","","","","","76","L","3","","","168","main_expt",""
"","bandit","248","601584","0.0-210.0-0.0","53963490","wem/bandit_party_2","A1PIGZNLSQMGNW","either","3","233","","","","","","","0","1","0","","0.597448185","0.4","0.2","0.8","0.6","0.597448185","0.3222551453","0.8364166478","0.4458805252","","","","","","","","","","","","","","72","H","0","img/none_selected.jpg","","169","main_expt",""
"","bandit","249","603354","0.0-211.0-0.0","53963490","wem/bandit_party_2","A1PIGZNLSQMGNW","either","3","257","","","","","","","0","0","1","","0.2556410415","0.4","0.2","0.8","0.6","0.5351242352","0.2556410415","0.7867883415","0.4844269655","","","","","","","","","","","","","","74","J","1","","","170","main_expt",""
"","bandit","250","604912","0.0-212.0-0.0","53963490","wem/bandit_party_2","A1PIGZNLSQMGNW","either","3","48","","","","","","","0","0","1","0.4819966971","","0.4","0.2","0.8","0.6","","","","","0.4819966971","0.2248109201","0.8728822524","0.4858642724","","","","","","","","","","72","H","0","img/none_selected.jpg","","171","main_expt",""
"","bandit","251","606512","0.0-213.0-0.0","53963490","wem/bandit_party_2","A1PIGZNLSQMGNW","either","3","90","","","","","","","0","1","0","","0.7804912391","0.4","0.2","0.8","0.6","0.4038669266","0.3468742366","0.7804912391","0.5060245996","","","","","","","","","","","","","","75","K","2","","","172","main_expt",""
"","bandit","252","608170","0.0-214.0-0.0","53963490","wem/bandit_party_2","A1PIGZNLSQMGNW","either","3","146","","","","","","","0","0","1","","0.3102533384","0.4","0.2","0.8","0.6","0.3102533384","0.234408543","0.7728490534","0.5413528159","","","","","","","","","","","","","","72","H","0","img/none_selected.jpg","","173","main_expt",""
"","bandit","253","609728","0.0-215.0-0.0","53963490","wem/bandit_party_2","A1PIGZNLSQMGNW","either","3","47","","","","","","","0","1","0","","0.3818943333","0.4","0.2","0.8","0.6","0.3818943333","0.1404050277","0.814185781","0.6505326818","","","","","","","","","","","","","","72","H","0","img/none_selected.jpg","","174","main_expt",""
"","bandit","254","611536","0.0-216.0-0.0","53963490","wem/bandit_party_2","A1PIGZNLSQMGNW","either","3","296","","","","","","","0","0","1","0.8010682597","","0.4","0.2","0.8","0.6","","","","","0.2893198216","0.1081611795","0.8010682597","0.6470977149","","","","","","","","","","75","K","2","","","175","main_expt",""
"","bandit","255","614137","0.0-217.0-0.0","53963490","wem/bandit_party_2","A1PIGZNLSQMGNW","either","3","1089","","","","","","","0","0","1","0.7083228223","","0.4","0.2","0.8","0.6","","","","","0.226416223","0.0730283124","0.7083228223","0.6844229635","","","","","","","","","","75","K","2","","","176","main_expt",""
"","bandit","256","615665","0.0-218.0-0.0","53963490","wem/bandit_party_2","A1PIGZNLSQMGNW","either","3","16","","","","","","","0","0","1","","0.07044941978","0.4","0.2","0.8","0.6","0.2786676386","0.07044941978","0.7408938443","0.6883244284","","","","","","","","","","","","","","74","J","1","","","177","main_expt",""
"","bandit","257","617513","0.0-219.0-0.0","53963490","wem/bandit_party_2","A1PIGZNLSQMGNW","either","3","335","","","","","","","0","0","1","","0.06886985111","0.4","0.2","0.8","0.6","0.2279078815","0.06886985111","0.6621187214","0.6098590842","","","","","","","","","","","","","","74","J","1","","","178","main_expt",""
"","bandit","258","619490","0.0-220.0-0.0","53963490","wem/bandit_party_2","A1PIGZNLSQMGNW","either","3","465","","","","","","","0","0","1","","0.07254371148","0.4","0.2","0.8","0.6","0.1690126781","0.07254371148","0.6765487854","0.5924449164","","","","","","","","","","","","","","74","J","1","","","179","main_expt",""
"","bandit","259","621392","0.0-221.0-0.0","53963490","wem/bandit_party_2","A1PIGZNLSQMGNW","either","3","391","","","","","","","1","0","0","0.4915111467","","0.4","0.2","0.8","0.6","","","","","0.1356066944","0.055057054","0.7276027883","0.4915111467","","","","","","","","","","76","L","3","","","180","main_expt",""
"","bandit","260","623161","0.0-222.0-0.0","53963490","wem/bandit_party_2","A1PIGZNLSQMGNW","either","3","257","","","","","","","0","1","0","","0.1889441784","0.4","0.2","0.8","0.6","0.1889441784","0.1187845962","0.7083410305","0.4713933083","","","","","","","","","","","","","","72","H","0","img/none_selected.jpg","","181","main_expt",""
"","bandit","261","624920","0.0-223.0-0.0","53963490","wem/bandit_party_2","A1PIGZNLSQMGNW","either","3","248","","","","","","","0","0","1","","0.2163976064","0.4","0.2","0.8","0.6","0.2163976064","0.1304227184","0.6489729838","0.500114893","","","","","","","","","","","","","","72","H","0","img/none_selected.jpg","","182","main_expt",""
"","bandit","262","626904","0.0-224.0-0.0","53963490","wem/bandit_party_2","A1PIGZNLSQMGNW","either","3","473","","","","","","","0","0","1","0.4949273894","","0.4","0.2","0.8","0.6","","","","","0.1902524086","0.1374638341","0.6956751073","0.4949273894","","","","","","","","","","76","L","3","","","183","main_expt",""
"","bandit","263","628776","0.0-225.0-0.0","53963490","wem/bandit_party_2","A1PIGZNLSQMGNW","either","3","359","","","","","","","1","0","0","0.6066537109","","0.4","0.2","0.8","0.6","","","","","0.2265805791","0.1914365344","0.6066537109","0.4271361476","","","","","","","","","","75","K","2","","","184","main_expt",""
"","bandit","264","630610","0.0-226.0-0.0","53963490","wem/bandit_party_2","A1PIGZNLSQMGNW","either","3","321","","","","","","","0","0","1","","0.4558255176","0.4","0.2","0.8","0.6","0.1843452782","0.1939872458","0.6337362372","0.4558255176","","","","","","","","","","","","","","76","L","3","","","185","main_expt",""
"","bandit","265","632208","0.0-227.0-0.0","53963490","wem/bandit_party_2","A1PIGZNLSQMGNW","either","3","86","","","","","","","0","0","1","","0.2219937035","0.4","0.2","0.8","0.6","0.1898387663","0.2219937035","0.5908962551","0.4031301461","","","","","","","","","","","","","","74","J","1","","","186","main_expt",""
"","bandit","266","633913","0.0-228.0-0.0","53963490","wem/bandit_party_2","A1PIGZNLSQMGNW","either","3","192","","","","","","","1","0","0","0.7651761031","","0.4","0.2","0.8","0.6","","","","","0.210498268","0.2024523472","0.7651761031","0.3993697366","","","","","","","","","","75","K","2","","","187","main_expt",""
"","bandit","267","635633","0.0-229.0-0.0","53963490","wem/bandit_party_2","A1PIGZNLSQMGNW","either","3","206","","","","","","","0","0","1","0.2368649008","","0.4","0.2","0.8","0.6","","","","","0.2368649008","0.1930401344","0.7928336054","0.4478687375","","","","","","","","","","72","H","0","img/none_selected.jpg","","188","main_expt",""
"","bandit","268","637200","0.0-230.0-0.0","53963490","wem/bandit_party_2","A1PIGZNLSQMGNW","either","3","55","","","","","","","1","0","0","0.291591963","","0.4","0.2","0.8","0.6","","","","","0.291591963","0.3255404916","0.8917358491","0.3699601256","","","","","","","","","","72","H","0","img/none_selected.jpg","","189","main_expt",""
"","bandit","269","638808","0.0-231.0-0.0","53963490","wem/bandit_party_2","A1PIGZNLSQMGNW","either","3","96","","","","","","","0","0","1","0.898448025","","0.4","0.2","0.8","0.6","","","","","0.4411779124","0.2364063212","0.898448025","0.3723251068","","","","","","","","","","75","K","2","","","190","main_expt",""
"","bandit","270","640576","0.0-232.0-0.0","53963490","wem/bandit_party_2","A1PIGZNLSQMGNW","either","3","256","","","","","","","0","1","0","","0.3968704403","0.4","0.2","0.8","0.6","0.3968704403","0.2662767285","0.9186708851","0.3309849287","","","","","","","","","","","","","","72","H","0","img/none_selected.jpg","","191","main_expt",""
"","bandit","271","643346","0.0-233.0-0.0","53963490","wem/bandit_party_2","A1PIGZNLSQMGNW","either","3","1259","","","","","","","0","0","1","0.2865625263","","0.4","0.2","0.8","0.6","","","","","0.4512817608","0.2815174114","0.9314477517","0.2865625263","","","","","","","","","","76","L","3","","","192","main_expt",""
"","bandit","272","644889","0.0-234.0-0.0","53963490","wem/bandit_party_2","A1PIGZNLSQMGNW","either","3","30","","","","","","","0","0","1","0.2862811746","","0.4","0.2","0.8","0.6","","","","","0.4788006455","0.3461293965","0.9090465067","0.2862811746","","","","","","","","","","76","L","3","","","193","main_expt",""
"","bandit","273","647272","0.0-235.0-0.0","53963490","wem/bandit_party_2","A1PIGZNLSQMGNW","either","3","867","","","","","","","0","1","0","","0.2785288642","0.4","0.2","0.8","0.6","0.4651889587","0.3303735913","0.8762249788","0.2785288642","","","","","","","","","","","","","","76","L","3","","","194","main_expt",""
"","bandit","274","649088","0.0-236.0-0.0","53963490","wem/bandit_party_2","A1PIGZNLSQMGNW","either","3","303","","","","","","","0","1","0","","0.4718629942","0.4","0.2","0.8","0.6","0.4718629942","0.3194565039","0.8623185747","0.2283941808","","","","","","","","","","","","","","72","H","0","img/none_selected.jpg","","195","main_expt",""
"","bandit","275","651192","0.0-237.0-0.0","53963490","wem/bandit_party_2","A1PIGZNLSQMGNW","either","3","592","","","","","","","0","0","1","","0.214282227","0.4","0.2","0.8","0.6","0.3825708332","0.4103944464","0.7745977574","0.214282227","","","","","","","","","","","","","","76","L","3","","","196","main_expt",""
"","bandit","276","652889","0.0-238.0-0.0","53963490","wem/bandit_party_2","A1PIGZNLSQMGNW","either","3","184","","","","","","","0","0","1","0.1422959513","","0.4","0.2","0.8","0.6","","","","","0.4530864699","0.4445726534","0.7723069829","0.1422959513","","","","","","","","","","76","L","3","","","197","main_expt",""
"","bandit","277","654865","0.0-239.0-0.0","53963490","wem/bandit_party_2","A1PIGZNLSQMGNW","either","3","464","","","","","","","0","0","1","0.4337652667","","0.4","0.2","0.8","0.6","","","","","0.4337652667","0.4351718099","0.7084082875","0.1126324943","","","","","","","","","","72","H","0","img/none_selected.jpg","","198","main_expt",""
"","bandit","278","656512","0.0-240.0-0.0","53963490","wem/bandit_party_2","A1PIGZNLSQMGNW","either","3","135","","","","","","","1","0","0","0.4138332966","","0.4","0.2","0.8","0.6","","","","","0.4138332966","0.4641294157","0.7016883558","0.1144166609","","","","","","","","","","72","H","0","img/none_selected.jpg","","199","main_expt",""
"","bandit","279","658264","0.0-241.0-0.0","53963490","wem/bandit_party_2","A1PIGZNLSQMGNW","either","3","240","","","","","","","0","1","0","","0.4468687069","0.4","0.2","0.8","0.6","0.5005175686","0.4468687069","0.6504384346","0.1518003708","","","","","","","","","","","","","","74","J","1","","","200","main_expt",""
"","bandit","280","659864","0.0-242.0-0.0","53963490","wem/bandit_party_2","A1PIGZNLSQMGNW","either","3","87","","","","","","","0","0","1","","0.5087435212","0.4","0.2","0.8","0.6","0.5122642399","0.5087435212","0.7904945102","0.1974433607","","","","","","","","","","","","","","74","J","1","","","201","main_expt",""
"","bandit","281","661529","0.0-243.0-0.0","53963490","wem/bandit_party_2","A1PIGZNLSQMGNW","either","3","152","","","","","","","0","0","1","","0.4992132835","0.4","0.2","0.8","0.6","0.5414597976","0.4992132835","0.7039472437","0.2000842809","","","","","","","","","","","","","","74","J","1","","","202","main_expt",""
"","bandit","282","663274","0.0-244.0-0.0","53963490","wem/bandit_party_2","A1PIGZNLSQMGNW","either","3","230","","","","","","","0","0","1","0.4993649945","","0.4","0.2","0.8","0.6","","","","","0.4993649945","0.4859842053","0.7478807213","0.1715580826","","","","","","","","","","72","H","0","img/none_selected.jpg","","203","main_expt",""
"","bandit","283","664905","0.0-245.0-0.0","53963490","wem/bandit_party_2","A1PIGZNLSQMGNW","either","3","118","","","","","","","1","0","0","0.7346150791","","0.4","0.2","0.8","0.6","","","","","0.4056752737","0.6162755314","0.7346150791","0.3028604286","","","","","","","","","","75","K","2","","","204","main_expt",""
"","bandit","284","666496","0.0-246.0-0.0","53963490","wem/bandit_party_2","A1PIGZNLSQMGNW","either","3","79","","","","","","","0","1","0","","0.6204906845","0.4","0.2","0.8","0.6","0.4174768156","0.6204906845","0.7240623961","0.3714949669","","","","","","","","","","","","","","74","J","1","","","205","main_expt",""
"","bandit","285","668113","0.0-247.0-0.0","53963490","wem/bandit_party_2","A1PIGZNLSQMGNW","either","3","104","","","","","","","0","0","1","","0.733657826","0.4","0.2","0.8","0.6","0.4364097613","0.6390595606","0.733657826","0.3034865557","","","","","","","","","","","","","","75","K","2","","","206","main_expt",""
"","bandit","286","669776","0.0-248.0-0.0","53963490","wem/bandit_party_2","A1PIGZNLSQMGNW","either","3","150","","","","","","","0","0","1","","0.6022157482","0.4","0.2","0.8","0.6","0.4666062126","0.6022157482","0.6797091947","0.2688105372","","","","","","","","","","","","","","74","J","1","","","207","main_expt",""
"","bandit","287","671344","0.0-249.0-0.0","53963490","wem/bandit_party_2","A1PIGZNLSQMGNW","either","3","55","","","","","","","0","1","0","","0.6598502583","0.4","0.2","0.8","0.6","0.4594719295","0.6598502583","0.472157919","0.2240001326","","","","","","","","","","","","","","74","J","1","","","208","main_expt",""
"","bandit","288","672913","0.0-250.0-0.0","53963490","wem/bandit_party_2","A1PIGZNLSQMGNW","either","3","56","","","","","","","0","0","1","","0.3284172364","0.4","0.2","0.8","0.6","0.5415101973","0.6329069529","0.4993955773","0.3284172364","","","","","","","","","","","","","","76","L","3","","","209","main_expt",""
"","bandit","289","674553","0.0-251.0-0.0","53963490","wem/bandit_party_2","A1PIGZNLSQMGNW","either","3","126","","","","","","","0","0","1","","0.3178667136","0.4","0.2","0.8","0.6","0.5627952802","0.5418549626","0.3923888982","0.3178667136","","","","","","","","","","","","","","76","L","3","","","210","main_expt",""
"","bandit","290","676298","0.0-252.0-0.0","53963490","wem/bandit_party_2","A1PIGZNLSQMGNW","either","3","232","","","","","","","1","0","0","0.7265410197","","0.4","0.2","0.8","0.6","","","","","0.5779033475","0.7265410197","0.4183885941","0.278360526","","","","","","","","","","74","J","1","","","211","main_expt",""
"","bandit","291","677865","0.0-253.0-0.0","53963490","wem/bandit_party_2","A1PIGZNLSQMGNW","either","3","53","","","","","","","0","0","1","0.6169713091","","0.4","0.2","0.8","0.6","","","","","0.6169713091","0.6550819281","0.5367383083","0.2720231684","","","","","","","","","","72","H","0","img/none_selected.jpg","","212","main_expt",""
"","bandit","292","679664","0.0-254.0-0.0","53963490","wem/bandit_party_2","A1PIGZNLSQMGNW","either","3","287","","","","","","","1","0","0","0.5812500281","","0.4","0.2","0.8","0.6","","","","","0.5688165975","0.5812500281","0.5779451767","0.3445332441","","","","","","","","","","74","J","1","","","213","main_expt",""
"","bandit","293","681360","0.0-255.0-0.0","53963490","wem/bandit_party_2","A1PIGZNLSQMGNW","either","3","183","","","","","","","0","1","0","","0.6912727382","0.4","0.2","0.8","0.6","0.5354690829","0.6912727382","0.5615700258","0.331154659","","","","","","","","","","","","","","74","J","1","","","214","main_expt",""
"","bandit","294","683138","0.0-256.0-0.0","53963490","wem/bandit_party_2","A1PIGZNLSQMGNW","either","3","263","","","","","","","1","0","0","0.695573978","","0.4","0.2","0.8","0.6","","","","","0.4395706401","0.695573978","0.5361399643","0.3168016653","","","","","","","","","","74","J","1","","","215","main_expt",""
"","bandit","295","684937","0.0-257.0-0.0","53963490","wem/bandit_party_2","A1PIGZNLSQMGNW","either","3","285","","","","","","","0","0","1","","0.6531454011","0.4","0.2","0.8","0.6","0.4522294324","0.6531454011","0.620750855","0.2870858596","","","","","","","","","","","","","","74","J","1","","","216","main_expt",""
"","bandit","296","686761","0.0-258.0-0.0","53963490","wem/bandit_party_2","A1PIGZNLSQMGNW","either","3","310","","","","","","","0","1","0","","0.6459690495","0.4","0.2","0.8","0.6","0.4141575353","0.6459690495","0.4812239037","0.2877345098","","","","","","","","","","","","","","74","J","1","","","217","main_expt",""
"","bandit","297","688497","0.0-259.0-0.0","53963490","wem/bandit_party_2","A1PIGZNLSQMGNW","either","3","222","","","","","","","0","0","1","","0.6679944541","0.4","0.2","0.8","0.6","0.3009722504","0.6679944541","0.4028497994","0.3608492067","","","","","","","","","","","","","","74","J","1","","","218","main_expt",""
"","bandit","298","690224","0.0-260.0-0.0","53963490","wem/bandit_party_2","A1PIGZNLSQMGNW","either","3","214","","","","","","","0","0","1","0.4441021312","","0.4","0.2","0.8","0.6","","","","","0.2706893249","0.7159195147","0.4441021312","0.4380407461","","","","","","","","","","75","K","2","","","219","main_expt",""
"","bandit","299","692000","0.0-261.0-0.0","53963490","wem/bandit_party_2","A1PIGZNLSQMGNW","either","3","264","","","","","","","0","1","0","","0.4867825248","0.4","0.2","0.8","0.6","0.3821277721","0.6874484601","0.4867825248","0.4769938592","","","","","","","","","","","","","","75","K","2","","","220","main_expt",""
"","bandit","300","693840","0.0-262.0-0.0","53963490","wem/bandit_party_2","A1PIGZNLSQMGNW","either","3","328","","","","","","","0","0","1","","0.4534214389","0.4","0.2","0.8","0.6","0.4534214389","0.6528128226","0.5428062785","0.4612627877","","","","","","","","","","","","","","72","H","0","img/none_selected.jpg","","221","main_expt",""
"","bandit","301","695440","0.0-263.0-0.0","53963490","wem/bandit_party_2","A1PIGZNLSQMGNW","either","3","88","","","","","","","0","0","1","","0.6049712458","0.4","0.2","0.8","0.6","0.6049712458","0.6836467719","0.5993321864","0.4192901336","","","","","","","","","","","","","","72","H","0","img/none_selected.jpg","","222","main_expt",""
"","bandit","302","697417","0.0-264.0-0.0","53963490","wem/bandit_party_2","A1PIGZNLSQMGNW","either","3","464","","","","","","","0","0","1","","0.5559965486","0.4","0.2","0.8","0.6","0.6389506418","0.7820879334","0.4920604154","0.5559965486","","","","","","","","","","","","","","76","L","3","","","223","main_expt",""
"","bandit","303","699192","0.0-265.0-0.0","53963490","wem/bandit_party_2","A1PIGZNLSQMGNW","either","3","263","","","","","","","0","1","0","","0.763226653","0.4","0.2","0.8","0.6","0.6677375732","0.763226653","0.5344282052","0.6687933923","","","","","","","","","","","","","","74","J","1","","","224","main_expt",""
"","bandit","304","701016","0.0-266.0-0.0","53963490","wem/bandit_party_2","A1PIGZNLSQMGNW","either","3","312","","","","","","","0","1","0","","0.6931961842","0.4","0.2","0.8","0.6","0.7706853934","0.6931961842","0.5583452501","0.5954484576","","","","","","","","","","","","","","74","J","1","","","225","main_expt",""
"","bandit","305","702712","0.0-267.0-0.0","53963490","wem/bandit_party_2","A1PIGZNLSQMGNW","either","3","183","","","","","","","0","1","0","","0.6633974694","0.4","0.2","0.8","0.6","0.7624197083","0.6633974694","0.5126042404","0.6152447968","","","","","","","","","","","","","","74","J","1","","","226","main_expt",""
"","bandit","306","704536","0.0-268.0-0.0","53963490","wem/bandit_party_2","A1PIGZNLSQMGNW","either","3","311","","","","","","","1","0","0","0.6567175756","","0.4","0.2","0.8","0.6","","","","","0.7287840805","0.6567175756","0.5720595628","0.6597553912","","","","","","","","","","74","J","1","","","227","main_expt",""
"","bandit","307","706337","0.0-269.0-0.0","53963490","wem/bandit_party_2","A1PIGZNLSQMGNW","either","3","286","","","","","","","0","0","1","0.6134710885","","0.4","0.2","0.8","0.6","","","","","0.7993891034","0.6052730858","0.6134710885","0.594895186","","","","","","","","","","75","K","2","","","228","main_expt",""
"","bandit","308","708113","0.0-270.0-0.0","53963490","wem/bandit_party_2","A1PIGZNLSQMGNW","either","3","263","","","","","","","0","1","0","","0.5548990383","0.4","0.2","0.8","0.6","0.8374027748","0.5548990383","0.5669106804","0.5722559027","","","","","","","","","","","","","","74","J","1","","","229","main_expt",""
"","bandit","309","709672","0.0-271.0-0.0","53963490","wem/bandit_party_2","A1PIGZNLSQMGNW","either","3","47","","","","","","","0","1","0","","0.6017114108","0.4","0.2","0.8","0.6","0.8414873787","0.6017114108","0.6286782819","0.5409090622","","","","","","","","","","","","","","74","J","1","","","230","main_expt",""
"","bandit","310","711472","0.0-272.0-0.0","53963490","wem/bandit_party_2","A1PIGZNLSQMGNW","either","3","287","","","","","","","0","1","0","","0.5525336349","0.4","0.2","0.8","0.6","0.8531648874","0.5525336349","0.5594948871","0.518727512","","","","","","","","","","","","","","74","J","1","","","231","main_expt",""
"","bandit","311","713192","0.0-273.0-0.0","53963490","wem/bandit_party_2","A1PIGZNLSQMGNW","either","3","205","","","","","","","0","1","0","","0.4493361955","0.4","0.2","0.8","0.6","0.8813812612","0.4493361955","0.5817998964","0.5200298571","","","","","","","","","","","","","","74","J","1","","","232","main_expt",""
"","bandit","312","715008","0.0-274.0-0.0","53963490","wem/bandit_party_2","A1PIGZNLSQMGNW","either","3","303","","","","","","","1","0","0","0.5280832246","","0.4","0.2","0.8","0.6","","","","","0.8916766345","0.5280832246","0.5971875981","0.4564343731","","","","","","","","","","74","J","1","","","233","main_expt",""
"","bandit","313","716776","0.0-275.0-0.0","53963490","wem/bandit_party_2","A1PIGZNLSQMGNW","either","3","255","","","","","","","0","1","0","","0.842820862","0.4","0.2","0.8","0.6","0.842820862","0.6814540918","0.5227237997","0.4168065644","","","","","","","","","","","","","","72","H","0","img/none_selected.jpg","","234","main_expt",""
"","bandit","314","718546","0.0-276.0-0.0","53963490","wem/bandit_party_2","A1PIGZNLSQMGNW","either","3","255","","","","","","","0","0","1","","0.5518959403","0.4","0.2","0.8","0.6","0.7856269381","0.5518959403","0.6231997156","0.4340770274","","","","","","","","","","","","","","74","J","1","","","235","main_expt",""
"","bandit","315","720217","0.0-277.0-0.0","53963490","wem/bandit_party_2","A1PIGZNLSQMGNW","either","3","157","","","","","","","0","0","1","","0.4965619817","0.4","0.2","0.8","0.6","0.8092971262","0.4965619817","0.558272317","0.4489205242","","","","","","","","","","","","","","74","J","1","","","236","main_expt",""
"","bandit","316","721888","0.0-278.0-0.0","53963490","wem/bandit_party_2","A1PIGZNLSQMGNW","either","3","158","","","","","","","1","0","0","0.8125536838","","0.4","0.2","0.8","0.6","","","","","0.8125536838","0.4762879104","0.6118965497","0.4838648791","","","","","","","","","","72","H","0","img/none_selected.jpg","","237","main_expt",""
