"consent","trial_type","trial_index","time_elapsed","internal_node_id","subjID","study","MID","cond","drift","rt","responses","button_pressed","key_press","like","value","connected","gems","bombs","no_reward","GemPrChosen","BombPrChosen","GainOverPainPr_0","GainOverPainPr_1","GainOverPainPr_2","GainOverPainPr_3","LosePr_0","LosePr_1","LosePr_2","LosePr_3","WinPr_0","WinPr_1","WinPr_2","WinPr_3","Q0","Q1","Q2","gender","age","ethnicity","label","expt_phase","target","respCharCode","respKey","respChoiceNum","respChoice","practice","trial_counter","trial_label","Q0_index","view_history"
"GDM/GDM_behavioral_consent_30min_online.html","consent","0","12975","0.0-0.0","55016866","wem/bandit_party_2","A189V9652OVX56","either","5","","","","","","","","","","","","","","","","","","","","","","","","","","","","","","","","","","","","","","","","","",""
"","survey-text","1","31863","0.0-1.0","55016866","wem/bandit_party_2","A189V9652OVX56","either","5","17826","{""Q0"":""A189V9652OVX56""}","","","","","","","","","","","","","","","","","","","","","","","","","","","","","","","","","","","","","","","",""
"","button-response","2","36657","0.0-2.0","55016866","wem/bandit_party_2","A189V9652OVX56","either","5","3772","","1","","","","","","","","","","","","","","","","","","","","","","","","","","","","","","","","","","","","","","",""
"","text-replacement","3","56468","0.0-3.0","55016866","wem/bandit_party_2","A189V9652OVX56","either","5","18798","","","32","","","","","","","","","","","","","","","","","","","","","","","","","","","","","","","","","","","","","",""
"","text-replacement","4","75054","0.0-4.0","55016866","wem/bandit_party_2","A189V9652OVX56","either","5","18573","","","32","","","","","","","","","","","","","","","","","","","","","","","","","","","","","","","","","","","","","",""
"","identification","5","91456","0.0-6.0-0.0","55016866","wem/bandit_party_2","A189V9652OVX56","either","5","16323","","","","3","6","3","","","","","","","","","","","","","","","","","","","","","","","","pre","identification_pre","the Republican Party","","","","","","","","",""
"","identification","6","111245","0.0-6.0-1.0","55016866","wem/bandit_party_2","A189V9652OVX56","either","5","18716","","","","5","6","5","","","","","","","","","","","","","","","","","","","","","","","","pre","identification_pre","the Democratic Party","","","","","","","","",""
"","text-replacement","7","148118","0.0-7.0","55016866","wem/bandit_party_2","A189V9652OVX56","either","5","35846","","","32","","","","","","","","","","","","","","","","","","","","","","","","","","","","","","","","","","","","","",""
"","text-replacement","8","167412","0.0-8.0","55016866","wem/bandit_party_2","A189V9652OVX56","either","5","19274","","","32","","","","","","","","","","","","","","","","","","","","","","","","","","","","","","","","","","","","","",""
"","text-replacement","9","181665","0.0-9.0","55016866","wem/bandit_party_2","A189V9652OVX56","either","5","14243","","","32","","","","","","","","","","","","","","","","","","","","","","","","","","","","","","","","","","","","","",""
"","text-replacement","10","188967","0.0-10.0","55016866","wem/bandit_party_2","A189V9652OVX56","either","5","7290","","","32","","","","","","","","","","","","","","","","","","","","","","","","","","","","","","","","","","","","","",""
"","text-replacement","11","196109","0.0-11.0","55016866","wem/bandit_party_2","A189V9652OVX56","either","5","7134","","","32","","","","","","","","","","","","","","","","","","","","","","","","","","","","","","","","","","","","","",""
"","bandit","12","200713","0.0-12.0-0.0","55016866","wem/bandit_party_2","A189V9652OVX56","either","5","3016","","","","","","","0","0","1","0","0","","","","","0","","","","0","","","","","","","","","","","","","74","J","0","img/none_selected_demo.jpg","true","0","","",""
"","bandit","13","208382","0.0-13.0-0.0","55016866","wem/bandit_party_2","A189V9652OVX56","either","5","6080","","","","","","","0","0","1","0","0","","","","","0","","","","0","","","","","","","","","","","","","75","K","0","img/none_selected_demo.jpg","true","0","","",""
"","text-replacement","14","217394","0.0-14.0","55016866","wem/bandit_party_2","A189V9652OVX56","either","5","8999","","","32","","","","","","","","","","","","","","","","","","","","","","","","","","","","","","","","","","","","","",""
"","text-replacement","15","228108","0.0-15.0","55016866","wem/bandit_party_2","A189V9652OVX56","either","5","10699","","","32","","","","","","","","","","","","","","","","","","","","","","","","","","","","","","","","","","","","","",""
"","text-replacement","16","240847","0.0-16.0","55016866","wem/bandit_party_2","A189V9652OVX56","either","5","12724","","","32","","","","","","","","","","","","","","","","","","","","","","","","","","","","","","","","","","","","","",""
"","text-replacement","17","243828","0.0-17.0","55016866","wem/bandit_party_2","A189V9652OVX56","either","5","2975","","","32","","","","","","","","","","","","","","","","","","","","","","","","","","","","","","","","","","","","","",""
"","bandit","18","247371","0.0-18.0-0.0","55016866","wem/bandit_party_2","A189V9652OVX56","either","5","1972","","","","","","","0","1","0","","0.8","0.5","0.5","","","0.8","0.2","","","","","","","","","","","","","","","","74","J","0","img/none_selected_demo.jpg","true","0","80_20_practice","",""
"","bandit","19","252672","0.0-18.0-1.0","55016866","wem/bandit_party_2","A189V9652OVX56","either","5","3690","","","","","","","0","0","1","","0.8","0.5","0.5","","","0.8","0.2","","","","","","","","","","","","","","","","74","J","0","img/none_selected_demo.jpg","true","0","80_20_practice","",""
"","bandit","20","257762","0.0-18.0-2.0","55016866","wem/bandit_party_2","A189V9652OVX56","either","5","3544","","","","","","","0","1","0","","0.8","0.5","0.5","","","0.8","0.2","","","","","","","","","","","","","","","","74","J","0","img/none_selected_demo.jpg","true","0","80_20_practice","",""
"","bandit","21","260691","0.0-18.0-3.0","55016866","wem/bandit_party_2","A189V9652OVX56","either","5","1385","","","","","","","0","0","1","0.8","","0.5","0.5","","","","","","","0.8","0.2","","","","","","","","","","","","74","J","0","img/none_selected_demo.jpg","true","0","80_20_practice","",""
"","bandit","22","263309","0.0-18.0-4.0","55016866","wem/bandit_party_2","A189V9652OVX56","either","5","1067","","","","","","","0","1","0","","0.8","0.5","0.5","","","0.8","0.2","","","","","","","","","","","","","","","","74","J","0","img/none_selected_demo.jpg","true","0","80_20_practice","",""
"","bandit","23","265597","0.0-18.0-5.0","55016866","wem/bandit_party_2","A189V9652OVX56","either","5","734","","","","","","","1","0","0","0.8","","0.5","0.5","","","","","","","0.8","0.2","","","","","","","","","","","","74","J","0","img/none_selected_demo.jpg","true","0","80_20_practice","",""
"","bandit","24","267491","0.0-18.0-6.0","55016866","wem/bandit_party_2","A189V9652OVX56","either","5","325","","","","","","","0","1","0","","0.8","0.5","0.5","","","0.8","0.2","","","","","","","","","","","","","","","","74","J","0","img/none_selected_demo.jpg","true","0","80_20_practice","",""
"","bandit","25","269523","0.0-18.0-7.0","55016866","wem/bandit_party_2","A189V9652OVX56","either","5","420","","","","","","","1","0","0","0.8","","0.5","0.5","","","","","","","0.8","0.2","","","","","","","","","","","","74","J","0","img/none_selected_demo.jpg","true","0","80_20_practice","",""
"","bandit","26","271407","0.0-18.0-8.0","55016866","wem/bandit_party_2","A189V9652OVX56","either","5","311","","","","","","","0","0","1","0.2","","0.5","0.5","","","","","","","0.8","0.2","","","","","","","","","","","","75","K","1","","true","0","80_20_practice","",""
"","bandit","27","275315","0.0-18.0-9.0","55016866","wem/bandit_party_2","A189V9652OVX56","either","5","2323","","","","","","","1","0","0","0.8","","0.5","0.5","","","","","","","0.8","0.2","","","","","","","","","","","","74","J","0","img/none_selected_demo.jpg","true","0","80_20_practice","",""
"","bandit","28","277495","0.0-18.0-10.0","55016866","wem/bandit_party_2","A189V9652OVX56","either","5","598","","","","","","","0","1","0","","0.8","0.5","0.5","","","0.8","0.2","","","","","","","","","","","","","","","","74","J","0","img/none_selected_demo.jpg","true","0","80_20_practice","",""
"","bandit","29","279654","0.0-18.0-11.0","55016866","wem/bandit_party_2","A189V9652OVX56","either","5","605","","","","","","","0","1","0","","0.8","0.5","0.5","","","0.8","0.2","","","","","","","","","","","","","","","","74","J","0","img/none_selected_demo.jpg","true","0","80_20_practice","",""
"","bandit","30","281814","0.0-18.0-12.0","55016866","wem/bandit_party_2","A189V9652OVX56","either","5","615","","","","","","","1","0","0","0.8","","0.5","0.5","","","","","","","0.8","0.2","","","","","","","","","","","","74","J","0","img/none_selected_demo.jpg","true","0","80_20_practice","",""
"","bandit","31","283840","0.0-18.0-13.0","55016866","wem/bandit_party_2","A189V9652OVX56","either","5","463","","","","","","","0","0","1","0.8","","0.5","0.5","","","","","","","0.8","0.2","","","","","","","","","","","","74","J","0","img/none_selected_demo.jpg","true","0","80_20_practice","",""
"","bandit","32","285803","0.0-18.0-14.0","55016866","wem/bandit_party_2","A189V9652OVX56","either","5","403","","","","","","","0","1","0","","0.8","0.5","0.5","","","0.8","0.2","","","","","","","","","","","","","","","","74","J","0","img/none_selected_demo.jpg","true","0","80_20_practice","",""
"","bandit","33","287722","0.0-18.0-15.0","55016866","wem/bandit_party_2","A189V9652OVX56","either","5","365","","","","","","","0","1","0","","0.8","0.5","0.5","","","0.8","0.2","","","","","","","","","","","","","","","","74","J","0","img/none_selected_demo.jpg","true","0","80_20_practice","",""
"","bandit","34","289645","0.0-18.0-16.0","55016866","wem/bandit_party_2","A189V9652OVX56","either","5","364","","","","","","","0","0","1","0.8","","0.5","0.5","","","","","","","0.8","0.2","","","","","","","","","","","","74","J","0","img/none_selected_demo.jpg","true","0","80_20_practice","",""
"","bandit","35","291470","0.0-18.0-17.0","55016866","wem/bandit_party_2","A189V9652OVX56","either","5","265","","","","","","","1","0","0","0.8","","0.5","0.5","","","","","","","0.8","0.2","","","","","","","","","","","","74","J","0","img/none_selected_demo.jpg","true","0","80_20_practice","",""
"","bandit","36","293560","0.0-18.0-18.0","55016866","wem/bandit_party_2","A189V9652OVX56","either","5","539","","","","","","","0","1","0","","0.8","0.5","0.5","","","0.8","0.2","","","","","","","","","","","","","","","","74","J","0","img/none_selected_demo.jpg","true","0","80_20_practice","",""
"","bandit","37","295864","0.0-18.0-19.0","55016866","wem/bandit_party_2","A189V9652OVX56","either","5","734","","","","","","","0","1","0","","0.8","0.5","0.5","","","0.8","0.2","","","","","","","","","","","","","","","","74","J","0","img/none_selected_demo.jpg","true","0","80_20_practice","",""
"","text-replacement","38","300745","0.0-19.0","55016866","wem/bandit_party_2","A189V9652OVX56","either","5","4875","","","32","","","","","","","","","","","","","","","","","","","","","","","","","","","","","","","","","","","","","",""
"","bandit","39","304354","0.0-20.0-0.0","55016866","wem/bandit_party_2","A189V9652OVX56","either","5","2046","","","","","","","1","0","0","1","0","","","","","0","1","","","1","0","","","","","","","","","","","","74","J","0","img/none_selected_demo.jpg","true","0","","",""
"","text-replacement","40","324633","0.0-21.0","55016866","wem/bandit_party_2","A189V9652OVX56","either","5","20266","","","32","","","","","","","","","","","","","","","","","","","","","","","","","","","","","","","","","","","","","",""
"","text-replacement","41","326209","0.0-22.0","55016866","wem/bandit_party_2","A189V9652OVX56","either","5","1568","","","32","","","","","","","","","","","","","","","","","","","","","","","","","","","","","","","","","","","","","",""
"","text-replacement","42","332347","0.0-23.0","55016866","wem/bandit_party_2","A189V9652OVX56","either","5","6127","","","32","","","","","","","","","","","","","","","","","","","","","","","","","","","","","","","","","","","","","",""
"","text-replacement","43","337576","0.0-24.0","55016866","wem/bandit_party_2","A189V9652OVX56","either","5","5214","","","32","","","","","","","","","","","","","","","","","","","","","","","","","","","","","","","","","","","","","",""
"","text-replacement","44","345080","0.0-25.0","55016866","wem/bandit_party_2","A189V9652OVX56","either","5","7489","","","32","","","","","","","","","","","","","","","","","","","","","","","","","","","","","","","","","","","","","",""
"","text-replacement","45","347399","0.0-26.0","55016866","wem/bandit_party_2","A189V9652OVX56","either","5","2293","","","32","","","","","","","","","","","","","","","","","","","","","","","","","","","","","","","","","","","","","",""
"","text-replacement","46","348710","0.0-27.0","55016866","wem/bandit_party_2","A189V9652OVX56","either","5","1292","","","32","","","","","","","","","","","","","","","","","","","","","","","","","","","","","","","","","","","","","",""
"","text-replacement","47","351179","0.0-28.0","55016866","wem/bandit_party_2","A189V9652OVX56","either","5","2456","","","32","","","","","","","","","","","","","","","","","","","","","","","","","","","","","","","","","","","","","",""
"","text-replacement","48","368061","0.0-29.0","55016866","wem/bandit_party_2","A189V9652OVX56","either","5","16872","","","32","","","","","","","","","","","","","","","","","","","","","","","","","","","","","","","","","","","","","",""
"","text-replacement","49","371108","0.0-30.0","55016866","wem/bandit_party_2","A189V9652OVX56","either","5","3034","","","32","","","","","","","","","","","","","","","","","","","","","","","","","","","","","","","","","","","","","",""
"","text-replacement","50","375043","0.0-31.0","55016866","wem/bandit_party_2","A189V9652OVX56","either","5","3926","","","32","","","","","","","","","","","","","","","","","","","","","","","","","","","","","","","","","","","","","",""
"","bandit","51","378669","0.0-32.0-0.0","55016866","wem/bandit_party_2","A189V9652OVX56","either","5","2049","","","","","","","0","1","0","","0.8","0.5","0.5","0.5","0.5","0.8","0.2","0.6","0.2","","","","","","","","","","","","","","72","H","0","img/none_selected.jpg","true","0","full_practice","",""
"","bandit","52","387195","0.0-32.0-1.0","55016866","wem/bandit_party_2","A189V9652OVX56","either","5","6960","","","","","","","1","0","0","0.2","","0.5","0.5","0.5","0.5","","","","","0.8","0.2","0.6","0.2","","","","","","","","","","74","J","1","","true","0","full_practice","",""
"","bandit","53","389500","0.0-32.0-2.0","55016866","wem/bandit_party_2","A189V9652OVX56","either","5","736","","","","","","","0","1","0","","0.6","0.5","0.5","0.5","0.5","0.8","0.2","0.6","0.2","","","","","","","","","","","","","","75","K","2","","true","0","full_practice","",""
"","bandit","54","391676","0.0-32.0-3.0","55016866","wem/bandit_party_2","A189V9652OVX56","either","5","616","","","","","","","0","0","1","0.2","","0.5","0.5","0.5","0.5","","","","","0.8","0.2","0.6","0.2","","","","","","","","","","76","L","3","","true","0","full_practice","",""
"","bandit","55","395422","0.0-32.0-4.0","55016866","wem/bandit_party_2","A189V9652OVX56","either","5","2186","","","","","","","1","0","0","0.8","","0.5","0.5","0.5","0.5","","","","","0.8","0.2","0.6","0.2","","","","","","","","","","72","H","0","img/none_selected.jpg","true","0","full_practice","",""
"","bandit","56","397550","0.0-32.0-5.0","55016866","wem/bandit_party_2","A189V9652OVX56","either","5","503","","","","","","","0","0","1","","0.2","0.5","0.5","0.5","0.5","0.8","0.2","0.6","0.2","","","","","","","","","","","","","","74","J","1","","true","0","full_practice","",""
"","bandit","57","399670","0.0-32.0-6.0","55016866","wem/bandit_party_2","A189V9652OVX56","either","5","168","","","","","","","0","1","0","","0.6","0.5","0.5","0.5","0.5","0.8","0.2","0.6","0.2","","","","","","","","","","","","","","75","K","2","","true","0","full_practice","",""
"","bandit","58","401239","0.0-32.0-7.0","55016866","wem/bandit_party_2","A189V9652OVX56","either","5","9","","","","","","","0","1","0","","0.2","0.5","0.5","0.5","0.5","0.8","0.2","0.6","0.2","","","","","","","","","","","","","","76","L","3","","true","0","full_practice","",""
"","bandit","59","405150","0.0-32.0-8.0","55016866","wem/bandit_party_2","A189V9652OVX56","either","5","2340","","","","","","","1","0","0","0.8","","0.5","0.5","0.5","0.5","","","","","0.8","0.2","0.6","0.2","","","","","","","","","","72","H","0","img/none_selected.jpg","true","0","full_practice","",""
"","bandit","60","407382","0.0-32.0-9.0","55016866","wem/bandit_party_2","A189V9652OVX56","either","5","682","","","","","","","0","0","1","","0.2","0.5","0.5","0.5","0.5","0.8","0.2","0.6","0.2","","","","","","","","","","","","","","74","J","1","","true","0","full_practice","",""
"","bandit","61","409456","0.0-32.0-10.0","55016866","wem/bandit_party_2","A189V9652OVX56","either","5","506","","","","","","","1","0","0","0.6","","0.5","0.5","0.5","0.5","","","","","0.8","0.2","0.6","0.2","","","","","","","","","","75","K","2","","true","0","full_practice","",""
"","bandit","62","411581","0.0-32.0-11.0","55016866","wem/bandit_party_2","A189V9652OVX56","either","5","540","","","","","","","0","0","1","0.2","","0.5","0.5","0.5","0.5","","","","","0.8","0.2","0.6","0.2","","","","","","","","","","76","L","3","","true","0","full_practice","",""
"","bandit","63","416099","0.0-32.0-12.0","55016866","wem/bandit_party_2","A189V9652OVX56","either","5","2907","","","","","","","1","0","0","0.8","","0.5","0.5","0.5","0.5","","","","","0.8","0.2","0.6","0.2","","","","","","","","","","72","H","0","img/none_selected.jpg","true","0","full_practice","",""
"","bandit","64","417881","0.0-32.0-13.0","55016866","wem/bandit_party_2","A189V9652OVX56","either","5","203","","","","","","","0","0","1","0.2","","0.5","0.5","0.5","0.5","","","","","0.8","0.2","0.6","0.2","","","","","","","","","","74","J","1","","true","0","full_practice","",""
"","bandit","65","421660","0.0-32.0-14.0","55016866","wem/bandit_party_2","A189V9652OVX56","either","5","2220","","","","","","","0","0","1","0.6","","0.5","0.5","0.5","0.5","","","","","0.8","0.2","0.6","0.2","","","","","","","","","","75","K","2","","true","0","full_practice","",""
"","bandit","66","425251","0.0-32.0-15.0","55016866","wem/bandit_party_2","A189V9652OVX56","either","5","2021","","","","","","","0","0","1","0.2","","0.5","0.5","0.5","0.5","","","","","0.8","0.2","0.6","0.2","","","","","","","","","","76","L","3","","true","0","full_practice","",""
"","bandit","67","427977","0.0-32.0-16.0","55016866","wem/bandit_party_2","A189V9652OVX56","either","5","1157","","","","","","","1","0","0","0.8","","0.5","0.5","0.5","0.5","","","","","0.8","0.2","0.6","0.2","","","","","","","","","","72","H","0","img/none_selected.jpg","true","0","full_practice","",""
"","bandit","68","429957","0.0-32.0-17.0","55016866","wem/bandit_party_2","A189V9652OVX56","either","5","419","","","","","","","1","0","0","0.2","","0.5","0.5","0.5","0.5","","","","","0.8","0.2","0.6","0.2","","","","","","","","","","74","J","1","","true","0","full_practice","",""
"","bandit","69","431812","0.0-32.0-18.0","55016866","wem/bandit_party_2","A189V9652OVX56","either","5","291","","","","","","","1","0","0","0.6","","0.5","0.5","0.5","0.5","","","","","0.8","0.2","0.6","0.2","","","","","","","","","","75","K","2","","true","0","full_practice","",""
"","bandit","70","433704","0.0-32.0-19.0","55016866","wem/bandit_party_2","A189V9652OVX56","either","5","330","","","","","","","0","0","1","","0.2","0.5","0.5","0.5","0.5","0.8","0.2","0.6","0.2","","","","","","","","","","","","","","76","L","3","","true","0","full_practice","",""
"","text","71","439805","0.0-33.0","55016866","wem/bandit_party_2","A189V9652OVX56","either","5","6088","","","32","","","","","","","","","","","","","","","","","","","","","","","","","","","","","","","","","","","","","",""
"","text-replacement","72","455544","0.0-34.0","55016866","wem/bandit_party_2","A189V9652OVX56","either","5","14724","","","32","","","","","","","","","","","","","","","","","","","","","","","","","","","","","","","","","","","","","",""
"","text-replacement","73","460804","0.0-35.0","55016866","wem/bandit_party_2","A189V9652OVX56","either","5","5240","","","32","","","","","","","","","","","","","","","","","","","","","","","","","","","","","","","","","","","","","",""
"","text-replacement","74","462974","0.0-36.0","55016866","wem/bandit_party_2","A189V9652OVX56","either","5","2160","","","32","","","","","","","","","","","","","","","","","","","","","","","","","","","","","","","","","","","","","",""
"","text-replacement","75","465947","0.0-37.0","55016866","wem/bandit_party_2","A189V9652OVX56","either","5","2957","","","32","","","","","","","","","","","","","","","","","","","","","","","","","","","","","","","","","","","","","",""
"","text-replacement","76","467852","0.0-38.0","55016866","wem/bandit_party_2","A189V9652OVX56","either","5","1885","","","32","","","","","","","","","","","","","","","","","","","","","","","","","","","","","","","","","","","","","",""
"","survey-multi-choice-replacement","77","478570","0.0-39.0-0.0","55016866","wem/bandit_party_2","A189V9652OVX56","either","5","10675","","","","","","","","","","","","","","","","","","","","","","","","Money will be added to the pool for <span style='color:blue;'>DEMOCRATS</span>","","","","","","","attn_check","","","","","","","","","0",""
"","survey-multi-choice-replacement","78","481853","0.0-40.0-0.0","55016866","wem/bandit_party_2","A189V9652OVX56","either","5","2238","","","","","","","","","","","","","","","","","","","","","","","","Money will be subtracted from the pool for <span style='color:red;'>REPUBLICANS</span>","","","","","","","attn_check","","","","","","","","","1",""
"","instructions","79","501063","0.0-40.0-1.0-0.0","55016866","wem/bandit_party_2","A189V9652OVX56","either","5","18200","","","","","","","","","","","","","","","","","","","","","","","","","","","","","","","","","","","","","","","","","[{""page_index"":0,""viewing_time"":18199}]"
"","survey-multi-choice-replacement","80","504231","0.0-40.1-0.1","55016866","wem/bandit_party_2","A189V9652OVX56","either","5","2145","","","","","","","","","","","","","","","","","","","","","","","","Equal amounts of money will be added to the pool for <span style='color:blue;'>DEMOCRATS</span> and subtracted from the pool for <span style='color:red;'>REPUBLICANS</span>","","","","","","","attn_check","","","","","","","","","2",""
"","survey-multi-choice-replacement","81","508990","0.0-41.0-0.0","55016866","wem/bandit_party_2","A189V9652OVX56","either","5","3716","","","","","","","","","","","","","","","","","","","","","","","","No money will be added to either pool","","","","","","","attn_check","","","","","","","","","3",""
"","bandit","82","521883","0.0-42.0-0.0","55016866","wem/bandit_party_2","A189V9652OVX56","either","5","10299","","","","","","","1","0","0","0.4909711759","","0.6","0.2","0.8","0.4","","","","","0.4909711759","0.4253928501","0.32692793","0.6131215568","","","","","","","","","","72","H","0","img/none_selected.jpg","","1","main_expt","",""
"","bandit","83","524491","0.0-43.0-0.0","55016866","wem/bandit_party_2","A189V9652OVX56","either","5","1043","","","","","","","1","0","0","0.5447097682","","0.6","0.2","0.8","0.4","","","","","0.5514346198","0.5447097682","0.3068321923","0.6783759564","","","","","","","","","","74","J","1","","","2","main_expt","",""
"","bandit","84","526784","0.0-44.0-0.0","55016866","wem/bandit_party_2","A189V9652OVX56","either","5","723","","","","","","","0","0","1","0.2871808385","","0.6","0.2","0.8","0.4","","","","","0.5966913043","0.5631376832","0.2871808385","0.6535049038","","","","","","","","","","75","K","2","","","3","main_expt","",""
"","bandit","85","529620","0.0-45.0-0.0","55016866","wem/bandit_party_2","A189V9652OVX56","either","5","1248","","","","","","","1","0","0","0.5433476707","","0.6","0.2","0.8","0.4","","","","","0.6236804691","0.5889355808","0.3062311279","0.5433476707","","","","","","","","","","76","L","3","","","4","main_expt","",""
"","bandit","86","531799","0.0-46.0-0.0","55016866","wem/bandit_party_2","A189V9652OVX56","either","5","600","","","","","","","1","0","0","0.5844938386","","0.6","0.2","0.8","0.4","","","","","0.5844938386","0.6125363118","0.2453374439","0.4256320799","","","","","","","","","","72","H","0","img/none_selected.jpg","","5","main_expt","",""
"","bandit","87","533535","0.0-47.0-0.0","55016866","wem/bandit_party_2","A189V9652OVX56","either","5","61","","","","","","","1","0","0","0.5204159956","","0.6","0.2","0.8","0.4","","","","","0.4929788692","0.5204159956","0.2258644136","0.4097031487","","","","","","","","","","74","J","1","","","6","main_expt","",""
"","bandit","88","535907","0.0-48.0-0.0","55016866","wem/bandit_party_2","A189V9652OVX56","either","5","829","","","","","","","0","0","1","0.5949894572","","0.6","0.2","0.8","0.4","","","","","0.3978044106","0.5949894572","0.2251512132","0.4614862243","","","","","","","","","","74","J","1","","","7","main_expt","",""
"","bandit","89","537724","0.0-49.0-0.0","55016866","wem/bandit_party_2","A189V9652OVX56","either","5","265","","","","","","","0","0","1","0.1597376121","","0.6","0.2","0.8","0.4","","","","","0.5080346622","0.7043393759","0.1597376121","0.4305419438","","","","","","","","","","75","K","2","","","8","main_expt","",""
"","bandit","90","539326","0.0-50.0-0.0","55016866","wem/bandit_party_2","A189V9652OVX56","either","5","6","","","","","","","1","0","0","0.6000641755","","0.6","0.2","0.8","0.4","","","","","0.440708512","0.6866437556","0.1395884133","0.6000641755","","","","","","","","","","76","L","3","","","9","main_expt","",""
"","bandit","91","548145","0.0-51.0-0.0","55016866","wem/bandit_party_2","A189V9652OVX56","either","5","7191","","","","","","","0","1","0","","0.6743415364","0.6","0.2","0.8","0.4","0.4862198985","0.6743415364","0.1529628815","0.66675231","","","","","","","","","","","","","","74","J","1","","","10","main_expt","",""
"","bandit","92","550256","0.0-52.0-0.0","55016866","wem/bandit_party_2","A189V9652OVX56","either","5","513","","","","","","","1","0","0","0.6907290289","","0.6","0.2","0.8","0.4","","","","","0.4942886423","0.6907290289","0.1918890603","0.538431352","","","","","","","","","","74","J","1","","","11","main_expt","",""
"","bandit","93","552487","0.0-53.0-0.0","55016866","wem/bandit_party_2","A189V9652OVX56","either","5","668","","","","","","","1","0","0","0.1412308375","","0.6","0.2","0.8","0.4","","","","","0.4999864232","0.7254617755","0.1412308375","0.5683478731","","","","","","","","","","75","K","2","","","12","main_expt","",""
"","bandit","94","556137","0.0-54.0-0.0","55016866","wem/bandit_party_2","A189V9652OVX56","either","5","2070","","","","","","","0","1","0","","0.5870071372","0.6","0.2","0.8","0.4","0.3945724157","0.7533793381","0.1854965676","0.5870071372","","","","","","","","","","","","","","76","L","3","","","13","main_expt","",""
"","bandit","95","558808","0.0-55.0-0.0","55016866","wem/bandit_party_2","A189V9652OVX56","either","5","1115","","","","","","","0","1","0","","0.3389967741","0.6","0.2","0.8","0.4","0.458684297","0.6909187676","0.2200151947","0.3389967741","","","","","","","","","","","","","","76","L","3","","","14","main_expt","",""
"","bandit","96","560828","0.0-56.0-0.0","55016866","wem/bandit_party_2","A189V9652OVX56","either","5","414","","","","","","","0","0","1","0.1497743902","","0.6","0.2","0.8","0.4","","","","","0.5338449271","0.7916820586","0.1497743902","0.2927381815","","","","","","","","","","75","K","2","","","15","main_expt","",""
"","bandit","97","563016","0.0-57.0-0.0","55016866","wem/bandit_party_2","A189V9652OVX56","either","5","586","","","","","","","0","1","0","","0.7991661796","0.6","0.2","0.8","0.4","0.6821016448","0.7991661796","0.1767244745","0.2268478953","","","","","","","","","","","","","","74","J","1","","","16","main_expt","",""
"","bandit","98","564970","0.0-58.0-0.0","55016866","wem/bandit_party_2","A189V9652OVX56","either","5","377","","","","","","","0","1","0","","0.6963612506","0.6","0.2","0.8","0.4","0.6963612506","0.7352739439","0.1953364786","0.2364877179","","","","","","","","","","","","","","72","H","0","img/none_selected.jpg","","17","main_expt","",""
"","bandit","99","567177","0.0-59.0-0.0","55016866","wem/bandit_party_2","A189V9652OVX56","either","5","638","","","","","","","0","1","0","","0.7035779666","0.6","0.2","0.8","0.4","0.7035779666","0.6911569498","0.139355503","0.280777314","","","","","","","","","","","","","","72","H","0","img/none_selected.jpg","","18","main_expt","",""
"","bandit","100","569538","0.0-60.0-0.0","55016866","wem/bandit_party_2","A189V9652OVX56","either","5","775","","","","","","","1","0","0","0.6372159304","","0.6","0.2","0.8","0.4","","","","","0.677086514","0.6372159304","0.129677489","0.3280428268","","","","","","","","","","74","J","1","","","19","main_expt","",""
"","bandit","101","571141","0.0-61.0-0.0","55016866","wem/bandit_party_2","A189V9652OVX56","either","5","32","","","","","","","0","0","1","0.1584506979","","0.6","0.2","0.8","0.4","","","","","0.5211019236","0.5917564331","0.1584506979","0.213865824","","","","","","","","","","75","K","2","","","20","main_expt","",""
"","bandit","102","575788","0.0-62.0-0.0","55016866","wem/bandit_party_2","A189V9652OVX56","either","5","3089","","","","","","","0","0","1","","0.2755747612","0.6","0.2","0.8","0.4","0.6040081297","0.6351733259","0.1934985877","0.2755747612","","","","","","","","","","","","","","76","L","3","","","21","main_expt","",""
"","bandit","103","577414","0.0-63.0-0.0","55016866","wem/bandit_party_2","A189V9652OVX56","either","5","46","","","","","","","1","0","0","0.3096891892","","0.6","0.2","0.8","0.4","","","","","0.5276460007","0.57448168","0.1184813826","0.3096891892","","","","","","","","","","76","L","3","","","22","main_expt","",""
"","bandit","104","579457","0.0-64.0-0.0","55016866","wem/bandit_party_2","A189V9652OVX56","either","5","471","","","","","","","0","0","1","","0.532235281","0.6","0.2","0.8","0.4","0.4373756081","0.532235281","0.1387482349","0.1855444332","","","","","","","","","","","","","","74","J","1","","","23","main_expt","",""
"","bandit","105","581019","0.0-65.0-0.0","55016866","wem/bandit_party_2","A189V9652OVX56","either","5","10","","","","","","","1","0","0","0.1275075135","","0.6","0.2","0.8","0.4","","","","","0.4051577966","0.4695599312","0.1275075135","0.2026045625","","","","","","","","","","75","K","2","","","24","main_expt","",""
"","bandit","106","583460","0.0-66.0-0.0","55016866","wem/bandit_party_2","A189V9652OVX56","either","5","856","","","","","","","0","0","1","0.3583026632","","0.6","0.2","0.8","0.4","","","","","0.3583026632","0.3710761786","0.1324238285","0.2610081957","","","","","","","","","","72","H","0","img/none_selected.jpg","","25","main_expt","",""
"","bandit","107","585601","0.0-67.0-0.0","55016866","wem/bandit_party_2","A189V9652OVX56","either","5","556","","","","","","","0","0","1","","0.4070676783","0.6","0.2","0.8","0.4","0.4070676783","0.3104834237","0.2222282692","0.2068764453","","","","","","","","","","","","","","72","H","0","img/none_selected.jpg","","26","main_expt","",""
"","bandit","108","587653","0.0-68.0-0.0","55016866","wem/bandit_party_2","A189V9652OVX56","either","5","481","","","","","","","0","0","1","","0.4250638914","0.6","0.2","0.8","0.4","0.3962805628","0.4250638914","0.2367528544","0.1387354037","","","","","","","","","","","","","","74","J","1","","","27","main_expt","",""
"","bandit","109","589337","0.0-69.0-0.0","55016866","wem/bandit_party_2","A189V9652OVX56","either","5","137","","","","","","","0","0","1","0.1581712713","","0.6","0.2","0.8","0.4","","","","","0.3381264529","0.3738912408","0.1581712713","0.2065421522","","","","","","","","","","75","K","2","","","28","main_expt","",""
"","bandit","110","600440","0.0-70.0-0.0","55016866","wem/bandit_party_2","A189V9652OVX56","either","5","9525","","","","","","","0","0","1","0.3405446746","","0.6","0.2","0.8","0.4","","","","","0.3405446746","0.411092256","0.2361440946","0.2452437498","","","","","","","","","","72","H","0","img/none_selected.jpg","","29","main_expt","",""
"","bandit","111","602354","0.0-71.0-0.0","55016866","wem/bandit_party_2","A189V9652OVX56","either","5","331","","","","","","","0","0","1","0.3051502752","","0.6","0.2","0.8","0.4","","","","","0.3536414415","0.306262239","0.3051502752","0.3076129501","","","","","","","","","","75","K","2","","","30","main_expt","",""
"","bandit","112","604220","0.0-72.0-0.0","55016866","wem/bandit_party_2","A189V9652OVX56","either","5","293","","","","","","","0","0","1","0.2846857217","","0.6","0.2","0.8","0.4","","","","","0.3201297868","0.2846857217","0.3588845582","0.275744379","","","","","","","","","","74","J","1","","","31","main_expt","",""
"","bandit","113","606151","0.0-73.0-0.0","55016866","wem/bandit_party_2","A189V9652OVX56","either","5","369","","","","","","","0","0","1","0.1582224348","","0.6","0.2","0.8","0.4","","","","","0.414050106","0.260797537","0.3351264969","0.1582224348","","","","","","","","","","76","L","3","","","32","main_expt","",""
"","bandit","114","609442","0.0-74.0-0.0","55016866","wem/bandit_party_2","A189V9652OVX56","either","5","1701","","","","","","","0","0","1","0.07234251762","","0.6","0.2","0.8","0.4","","","","","0.4846208784","0.3108282978","0.3369799553","0.07234251762","","","","","","","","","","76","L","3","","","33","main_expt","",""
"","bandit","115","613213","0.0-75.0-0.0","55016866","wem/bandit_party_2","A189V9652OVX56","either","5","2207","","","","","","","0","0","1","0.3040676539","","0.6","0.2","0.8","0.4","","","","","0.4250330595","0.3996464291","0.3040676539","0.07244310326","","","","","","","","","","75","K","2","","","34","main_expt","",""
"","bandit","116","616772","0.0-76.0-0.0","55016866","wem/bandit_party_2","A189V9652OVX56","either","5","1987","","","","","","","0","0","1","0.4368131495","","0.6","0.2","0.8","0.4","","","","","0.499329675","0.4368131495","0.2974236485","0.07140094546","","","","","","","","","","74","J","1","","","35","main_expt","",""
"","bandit","117","618932","0.0-77.0-0.0","55016866","wem/bandit_party_2","A189V9652OVX56","either","5","560","","","","","","","0","1","0","","0.3396719642","0.6","0.2","0.8","0.4","0.3892953339","0.3396719642","0.310238309","0.08624361683","","","","","","","","","","","","","","74","J","1","","","36","main_expt","",""
"","bandit","118","622115","0.0-78.0-0.0","55016866","wem/bandit_party_2","A189V9652OVX56","either","5","1642","","","","","","","0","0","1","","0.4409026667","0.6","0.2","0.8","0.4","0.3680424748","0.4409026667","0.2818719109","0.07543251018","","","","","","","","","","","","","","74","J","1","","","37","main_expt","",""
"","bandit","119","624542","0.0-79.0-0.0","55016866","wem/bandit_party_2","A189V9652OVX56","either","5","875","","","","","","","0","0","1","","0.489392614","0.6","0.2","0.8","0.4","0.4909804269","0.489392614","0.2925765749","0.1324785543","","","","","","","","","","","","","","74","J","1","","","38","main_expt","",""
"","bandit","120","626552","0.0-80.0-0.0","55016866","wem/bandit_party_2","A189V9652OVX56","either","5","456","","","","","","","0","0","1","","0.4403114744","0.6","0.2","0.8","0.4","0.5165168671","0.4403114744","0.3033582507","0.1824024676","","","","","","","","","","","","","","74","J","1","","","39","main_expt","",""
"","bandit","121","628414","0.0-81.0-0.0","55016866","wem/bandit_party_2","A189V9652OVX56","either","5","320","","","","","","","0","1","0","","0.343221944","0.6","0.2","0.8","0.4","0.6036007873","0.343221944","0.2371445562","0.09861269436","","","","","","","","","","","","","","74","J","1","","","40","main_expt","",""
"","bandit","122","630624","0.0-82.0-0.0","55016866","wem/bandit_party_2","A189V9652OVX56","either","5","607","","","","","","","0","0","1","0.450343793","","0.6","0.2","0.8","0.4","","","","","0.6078828369","0.450343793","0.2072661203","0.1028082326","","","","","","","","","","74","J","1","","","41","main_expt","",""
"","bandit","123","632541","0.0-83.0-0.0","55016866","wem/bandit_party_2","A189V9652OVX56","either","5","350","","","","","","","0","0","1","","0.4422822993","0.6","0.2","0.8","0.4","0.5757077757","0.4422822993","0.1850700716","0.1326350751","","","","","","","","","","","","","","74","J","1","","","42","main_expt","",""
"","bandit","124","634680","0.0-84.0-0.0","55016866","wem/bandit_party_2","A189V9652OVX56","either","5","514","","","","","","","1","0","0","0.4755437476","","0.6","0.2","0.8","0.4","","","","","0.504524575","0.4755437476","0.1700345657","0.1591685393","","","","","","","","","","74","J","1","","","43","main_expt","",""
"","bandit","125","636783","0.0-85.0-0.0","55016866","wem/bandit_party_2","A189V9652OVX56","either","5","496","","","","","","","0","1","0","","0.6211160782","0.6","0.2","0.8","0.4","0.3354744533","0.6211160782","0.150922449","0.1558361793","","","","","","","","","","","","","","74","J","1","","","44","main_expt","",""
"","bandit","126","638753","0.0-86.0-0.0","55016866","wem/bandit_party_2","A189V9652OVX56","either","5","430","","","","","","","0","0","1","","0.5950963145","0.6","0.2","0.8","0.4","0.2259933845","0.5950963145","0.08792573626","0.08224127908","","","","","","","","","","","","","","74","J","1","","","45","main_expt","",""
"","bandit","127","640742","0.0-87.0-0.0","55016866","wem/bandit_party_2","A189V9652OVX56","either","5","437","","","","","","","1","0","0","0.600883672","","0.6","0.2","0.8","0.4","","","","","0.1991815266","0.600883672","0.05210962111","0.05681632526","","","","","","","","","","74","J","1","","","46","main_expt","",""
"","bandit","128","642769","0.0-88.0-0.0","55016866","wem/bandit_party_2","A189V9652OVX56","either","5","414","","","","","","","0","0","1","","0.6018426621","0.6","0.2","0.8","0.4","0.1821259253","0.6018426621","0.1658512007","0.02046531905","","","","","","","","","","","","","","74","J","1","","","47","main_expt","",""
"","bandit","129","644742","0.0-89.0-0.0","55016866","wem/bandit_party_2","A189V9652OVX56","either","5","416","","","","","","","0","0","1","","0.6719149388","0.6","0.2","0.8","0.4","0.1850219792","0.6719149388","0.2171730843","0.02793369594","","","","","","","","","","","","","","74","J","1","","","48","main_expt","",""
"","bandit","130","646609","0.0-90.0-0.0","55016866","wem/bandit_party_2","A189V9652OVX56","either","5","320","","","","","","","0","1","0","","0.5824093935","0.6","0.2","0.8","0.4","0.2843491098","0.5824093935","0.2545874694","0.01520235592","","","","","","","","","","","","","","74","J","1","","","49","main_expt","",""
"","bandit","131","648469","0.0-91.0-0.0","55016866","wem/bandit_party_2","A189V9652OVX56","either","5","292","","","","","","","0","1","0","","0.5697547833","0.6","0.2","0.8","0.4","0.2385085868","0.5697547833","0.1971443839","0.008868670712","","","","","","","","","","","","","","74","J","1","","","50","main_expt","",""
"","bandit","132","650326","0.0-92.0-0.0","55016866","wem/bandit_party_2","A189V9652OVX56","either","5","256","","","","","","","0","0","1","","0.5875551098","0.6","0.2","0.8","0.4","0.2762119933","0.5875551098","0.1743954459","0.004668439046","","","","","","","","","","","","","","74","J","1","","","51","main_expt","",""
"","bandit","133","652553","0.0-93.0-0.0","55016866","wem/bandit_party_2","A189V9652OVX56","either","5","688","","","","","","","0","0","1","","0.691822337","0.6","0.2","0.8","0.4","0.2350807626","0.691822337","0.1007451992","0.003090075005","","","","","","","","","","","","","","74","J","1","","","52","main_expt","",""
"","bandit","134","655153","0.0-94.0-0.0","55016866","wem/bandit_party_2","A189V9652OVX56","either","5","1023","","","","","","","0","0","1","","0.7363191169","0.6","0.2","0.8","0.4","0.2301492847","0.7363191169","0.1648918076","0.003474758773","","","","","","","","","","","","","","74","J","1","","","53","main_expt","",""
"","bandit","135","657164","0.0-95.0-0.0","55016866","wem/bandit_party_2","A189V9652OVX56","either","5","456","","","","","","","0","1","0","","0.7639548597","0.6","0.2","0.8","0.4","0.2779325162","0.7639548597","0.1761014763","0.003279238457","","","","","","","","","","","","","","74","J","1","","","54","main_expt","",""
"","bandit","136","659222","0.0-96.0-0.0","55016866","wem/bandit_party_2","A189V9652OVX56","either","5","489","","","","","","","0","1","0","","0.7264154962","0.6","0.2","0.8","0.4","0.2882189161","0.7264154962","0.1460392243","0.001847339967","","","","","","","","","","","","","","74","J","1","","","55","main_expt","",""
"","bandit","137","661297","0.0-97.0-0.0","55016866","wem/bandit_party_2","A189V9652OVX56","either","5","521","","","","","","","0","0","1","","0.7511403137","0.6","0.2","0.8","0.4","0.2646822794","0.7511403137","0.1882527018","0.001186331615","","","","","","","","","","","","","","74","J","1","","","56","main_expt","",""
"","bandit","138","663186","0.0-98.0-0.0","55016866","wem/bandit_party_2","A189V9652OVX56","either","5","325","","","","","","","0","0","1","0.6292194553","","0.6","0.2","0.8","0.4","","","","","0.3080117871","0.6292194553","0.1836596221","0.001917609755","","","","","","","","","","74","J","1","","","57","main_expt","",""
"","bandit","139","665136","0.0-99.0-0.0","55016866","wem/bandit_party_2","A189V9652OVX56","either","5","385","","","","","","","0","0","1","","0.5622591622","0.6","0.2","0.8","0.4","0.2609020091","0.5622591622","0.2259562874","0.004115025419","","","","","","","","","","","","","","74","J","1","","","58","main_expt","",""
"","bandit","140","667240","0.0-100.0-0.0","55016866","wem/bandit_party_2","A189V9652OVX56","either","5","542","","","","","","","0","1","0","","0.6394190939","0.6","0.2","0.8","0.4","0.3014652953","0.6394190939","0.1673227733","0.007083433589","","","","","","","","","","","","","","74","J","1","","","59","main_expt","",""
"","bandit","141","669745","0.0-101.0-0.0","55016866","wem/bandit_party_2","A189V9652OVX56","either","5","949","","","","","","","0","1","0","","0.502148976","0.6","0.2","0.8","0.4","0.2872544729","0.502148976","0.1404143731","0.0100473459","","","","","","","","","","","","","","74","J","1","","","60","main_expt","",""
"","bandit","142","671989","0.0-102.0-0.0","55016866","wem/bandit_party_2","A189V9652OVX56","either","5","685","","","","","","","0","0","1","","0.5541662771","0.6","0.2","0.8","0.4","0.2347068593","0.5541662771","0.1087230511","0.02288810402","","","","","","","","","","","","","","74","J","1","","","61","main_expt","",""
"","bandit","143","674488","0.0-103.0-0.0","55016866","wem/bandit_party_2","A189V9652OVX56","either","5","944","","","","","","","0","1","0","","0.6016144889","0.6","0.2","0.8","0.4","0.1786743828","0.6016144889","0.1173770395","0.04890713094","","","","","","","","","","","","","","74","J","1","","","62","main_expt","",""
"","bandit","144","677761","0.0-104.0-0.0","55016866","wem/bandit_party_2","A189V9652OVX56","either","5","1621","","","","","","","0","0","1","","0.6306423252","0.6","0.2","0.8","0.4","0.1627017484","0.6306423252","0.1173961002","0.06015841579","","","","","","","","","","","","","","74","J","1","","","63","main_expt","",""
"","bandit","145","679683","0.0-105.0-0.0","55016866","wem/bandit_party_2","A189V9652OVX56","either","5","380","","","","","","","1","0","0","0.5963496952","","0.6","0.2","0.8","0.4","","","","","0.2220220934","0.5963496952","0.1093057248","0.0697324588","","","","","","","","","","74","J","1","","","64","main_expt","",""
"","bandit","146","681790","0.0-106.0-0.0","55016866","wem/bandit_party_2","A189V9652OVX56","either","5","560","","","","","","","0","1","0","","0.5835424673","0.6","0.2","0.8","0.4","0.1387290973","0.5835424673","0.1437581537","0.03955641554","","","","","","","","","","","","","","74","J","1","","","65","main_expt","",""
"","bandit","147","686461","0.0-107.0-0.0","55016866","wem/bandit_party_2","A189V9652OVX56","either","5","3125","","","","","","","0","0","1","","0.5789137396","0.6","0.2","0.8","0.4","0.1481952943","0.5789137396","0.1321246006","0.04104317144","","","","","","","","","","","","","","74","J","1","","","66","main_expt","",""
"","bandit","148","690216","0.0-108.0-0.0","55016866","wem/bandit_party_2","A189V9652OVX56","either","5","2187","","","","","","","0","1","0","","0.6503196648","0.6","0.2","0.8","0.4","0.1354395346","0.6503196648","0.1441415222","0.07749417123","","","","","","","","","","","","","","74","J","1","","","67","main_expt","",""
"","bandit","149","694462","0.0-109.0-0.0","55016866","wem/bandit_party_2","A189V9652OVX56","either","5","2700","","","","","","","1","0","0","0.7295955131","","0.6","0.2","0.8","0.4","","","","","0.09431815687","0.7295955131","0.1794787892","0.1606162296","","","","","","","","","","74","J","1","","","68","main_expt","",""
"","bandit","150","698492","0.0-110.0-0.0","55016866","wem/bandit_party_2","A189V9652OVX56","either","5","2426","","","","","","","0","1","0","","0.7924649224","0.6","0.2","0.8","0.4","0.09491494314","0.7924649224","0.2467892919","0.1458723802","","","","","","","","","","","","","","74","J","1","","","69","main_expt","",""
"","bandit","151","701139","0.0-111.0-0.0","55016866","wem/bandit_party_2","A189V9652OVX56","either","5","1108","","","","","","","0","1","0","","0.7104550926","0.6","0.2","0.8","0.4","0.144379617","0.7104550926","0.2683381141","0.09936082334","","","","","","","","","","","","","","74","J","1","","","70","main_expt","",""
"","bandit","152","704787","0.0-112.0-0.0","55016866","wem/bandit_party_2","A189V9652OVX56","either","5","2076","","","","","","","1","0","0","0.6350436987","","0.6","0.2","0.8","0.4","","","","","0.1522740794","0.6350436987","0.3513633517","0.08487306657","","","","","","","","","","74","J","1","","","71","main_expt","",""
"","bandit","153","707051","0.0-113.0-0.0","55016866","wem/bandit_party_2","A189V9652OVX56","either","5","702","","","","","","","1","0","0","0.5987872161","","0.6","0.2","0.8","0.4","","","","","0.1668466162","0.5987872161","0.2914052368","0.08819471669","","","","","","","","","","74","J","1","","","72","main_expt","",""
"","bandit","154","710098","0.0-114.0-0.0","55016866","wem/bandit_party_2","A189V9652OVX56","either","5","1492","","","","","","","0","0","1","0.5985066563","","0.6","0.2","0.8","0.4","","","","","0.1896474075","0.5985066563","0.2877488323","0.1283432424","","","","","","","","","","74","J","1","","","73","main_expt","",""
"","bandit","155","712351","0.0-115.0-0.0","55016866","wem/bandit_party_2","A189V9652OVX56","either","5","680","","","","","","","0","1","0","","0.6384302553","0.6","0.2","0.8","0.4","0.2374421278","0.6384302553","0.2562899571","0.09379917772","","","","","","","","","","","","","","74","J","1","","","74","main_expt","",""
"","bandit","156","714568","0.0-116.0-0.0","55016866","wem/bandit_party_2","A189V9652OVX56","either","5","580","","","","","","","1","0","0","0.5658832615","","0.6","0.2","0.8","0.4","","","","","0.2083661751","0.5658832615","0.2733605005","0.09049970266","","","","","","","","","","74","J","1","","","75","main_expt","",""
"","bandit","157","716566","0.0-117.0-0.0","55016866","wem/bandit_party_2","A189V9652OVX56","either","5","459","","","","","","","0","0","1","","0.6242699585","0.6","0.2","0.8","0.4","0.2438220339","0.6242699585","0.3937912108","0.08721668036","","","","","","","","","","","","","","74","J","1","","","76","main_expt","",""
"","bandit","158","718902","0.0-118.0-0.0","55016866","wem/bandit_party_2","A189V9652OVX56","either","5","768","","","","","","","0","1","0","","0.5744400186","0.6","0.2","0.8","0.4","0.2688374605","0.5744400186","0.2317864895","0.06435523183","","","","","","","","","","","","","","74","J","1","","","77","main_expt","",""
"","bandit","159","721725","0.0-119.0-0.0","55016866","wem/bandit_party_2","A189V9652OVX56","either","5","1254","","","","","","","0","0","1","","0.5888420407","0.6","0.2","0.8","0.4","0.354885782","0.5888420407","0.1809738678","0.0482567949","","","","","","","","","","","","","","74","J","1","","","78","main_expt","",""
"","bandit","160","725023","0.0-120.0-0.0","55016866","wem/bandit_party_2","A189V9652OVX56","either","5","1730","","","","","","","0","0","1","0.6367332082","","0.6","0.2","0.8","0.4","","","","","0.3618930149","0.6367332082","0.1139783564","0.0437210955","","","","","","","","","","74","J","1","","","79","main_expt","",""
"","bandit","161","727685","0.0-121.0-0.0","55016866","wem/bandit_party_2","A189V9652OVX56","either","5","1101","","","","","","","0","1","0","","0.6870764151","0.6","0.2","0.8","0.4","0.2656346555","0.6870764151","0.08785846653","0.02877808334","","","","","","","","","","","","","","74","J","1","","","80","main_expt","",""
"","bandit","162","729853","0.0-122.0-0.0","55016866","wem/bandit_party_2","A189V9652OVX56","either","5","607","","","","","","","0","1","0","","0.594282643","0.6","0.2","0.8","0.4","0.4245431589","0.594282643","0.09113866108","0.01921293631","","","","","","","","","","","","","","74","J","1","","","81","main_expt","",""
"","bandit","163","731942","0.0-123.0-0.0","55016866","wem/bandit_party_2","A189V9652OVX56","either","5","545","","","","","","","0","0","1","","0.6134463007","0.6","0.2","0.8","0.4","0.4469352605","0.6134463007","0.1055231707","0.04933803159","","","","","","","","","","","","","","74","J","1","","","82","main_expt","",""
"","bandit","164","734050","0.0-124.0-0.0","55016866","wem/bandit_party_2","A189V9652OVX56","either","5","543","","","","","","","0","1","0","","0.573719985","0.6","0.2","0.8","0.4","0.4492602846","0.573719985","0.09865920741","0.03134335394","","","","","","","","","","","","","","74","J","1","","","83","main_expt","",""
"","bandit","165","736023","0.0-125.0-0.0","55016866","wem/bandit_party_2","A189V9652OVX56","either","5","403","","","","","","","0","1","0","","0.5666188995","0.6","0.2","0.8","0.4","0.4800113203","0.5666188995","0.06745845416","0.08181594064","","","","","","","","","","","","","","74","J","1","","","84","main_expt","",""
"","bandit","166","737917","0.0-126.0-0.0","55016866","wem/bandit_party_2","A189V9652OVX56","either","5","357","","","","","","","0","0","1","","0.5161506384","0.6","0.2","0.8","0.4","0.53417275","0.5161506384","0.05723787215","0.09326949564","","","","","","","","","","","","","","74","J","1","","","85","main_expt","",""
"","bandit","167","740036","0.0-127.0-0.0","55016866","wem/bandit_party_2","A189V9652OVX56","either","5","557","","","","","","","1","0","0","0.4408304524","","0.6","0.2","0.8","0.4","","","","","0.4431594274","0.4408304524","0.04283717318","0.1365856799","","","","","","","","","","74","J","1","","","86","main_expt","",""
"","bandit","168","742108","0.0-128.0-0.0","55016866","wem/bandit_party_2","A189V9652OVX56","either","5","504","","","","","","","0","0","1","","0.4926691315","0.6","0.2","0.8","0.4","0.4135642243","0.4926691315","0.04801612347","0.1845868617","","","","","","","","","","","","","","74","J","1","","","87","main_expt","",""
"","bandit","169","744334","0.0-129.0-0.0","55016866","wem/bandit_party_2","A189V9652OVX56","either","5","664","","","","","","","0","0","1","","0.6047228172","0.6","0.2","0.8","0.4","0.4785462387","0.6047228172","0.1154775412","0.2304222619","","","","","","","","","","","","","","74","J","1","","","88","main_expt","",""
"","bandit","170","746041","0.0-130.0-0.0","55016866","wem/bandit_party_2","A189V9652OVX56","either","5","157","","","","","","","0","1","0","","0.5311406509","0.6","0.2","0.8","0.4","0.6395163219","0.5311406509","0.1308375778","0.1408060154","","","","","","","","","","","","","","74","J","1","","","89","main_expt","",""
"","bandit","171","747891","0.0-131.0-0.0","55016866","wem/bandit_party_2","A189V9652OVX56","either","5","286","","","","","","","0","1","0","","0.6262376813","0.6","0.2","0.8","0.4","0.6143207643","0.6262376813","0.07282967421","0.1870966622","","","","","","","","","","","","","","74","J","1","","","90","main_expt","",""
"","bandit","172","749733","0.0-132.0-0.0","55016866","wem/bandit_party_2","A189V9652OVX56","either","5","270","","","","","","","1","0","0","0.690423555","","0.6","0.2","0.8","0.4","","","","","0.446485487","0.690423555","0.07599207753","0.192698437","","","","","","","","","","74","J","1","","","91","main_expt","",""
"","bandit","173","751670","0.0-133.0-0.0","55016866","wem/bandit_party_2","A189V9652OVX56","either","5","373","","","","","","","1","0","0","0.6517149298","","0.6","0.2","0.8","0.4","","","","","0.5169677416","0.6517149298","0.04323911508","0.1683480261","","","","","","","","","","74","J","1","","","92","main_expt","",""
"","bandit","174","753572","0.0-134.0-0.0","55016866","wem/bandit_party_2","A189V9652OVX56","either","5","345","","","","","","","0","1","0","","0.5656193004","0.6","0.2","0.8","0.4","0.4242737166","0.5656193004","0.04253576945","0.1330499919","","","","","","","","","","","","","","74","J","1","","","93","main_expt","",""
"","bandit","175","755752","0.0-135.0-0.0","55016866","wem/bandit_party_2","A189V9652OVX56","either","5","632","","","","","","","0","0","1","","0.4344563295","0.6","0.2","0.8","0.4","0.3479993201","0.4344563295","0.04534385772","0.1880917327","","","","","","","","","","","","","","74","J","1","","","94","main_expt","",""
"","bandit","176","757796","0.0-136.0-0.0","55016866","wem/bandit_party_2","A189V9652OVX56","either","5","474","","","","","","","0","0","1","","0.5651083109","0.6","0.2","0.8","0.4","0.3701135783","0.5651083109","0.03318992591","0.1867575465","","","","","","","","","","","","","","74","J","1","","","95","main_expt","",""
"","bandit","177","759737","0.0-137.0-0.0","55016866","wem/bandit_party_2","A189V9652OVX56","either","5","376","","","","","","","0","1","0","","0.5348041914","0.6","0.2","0.8","0.4","0.3430407586","0.5348041914","0.03408771876","0.2231999883","","","","","","","","","","","","","","74","J","1","","","96","main_expt","",""
"","bandit","178","761751","0.0-138.0-0.0","55016866","wem/bandit_party_2","A189V9652OVX56","either","5","420","","","","","","","0","1","0","","0.5627844697","0.6","0.2","0.8","0.4","0.2876443713","0.5627844697","0.05013144164","0.2149045243","","","","","","","","","","","","","","74","J","1","","","97","main_expt","",""
"","bandit","179","765417","0.0-139.0-0.0","55016866","wem/bandit_party_2","A189V9652OVX56","either","5","707","","","","","","","0","1","0","","0.6177525637","0.6","0.2","0.8","0.4","0.3310412313","0.6177525637","0.03739082544","0.1963416079","","","","","","","","","","","","","","74","J","1","","","98","main_expt","",""
"","bandit","180","768200","0.0-140.0-0.0","55016866","wem/bandit_party_2","A189V9652OVX56","either","5","439","","","","","","","0","1","0","","0.7429557604","0.6","0.2","0.8","0.4","0.3893078888","0.7429557604","0.1018336486","0.1659387142","","","","","","","","","","","","","","74","J","1","","","99","main_expt","",""
"","bandit","181","772877","0.0-141.0-0.0","55016866","wem/bandit_party_2","A189V9652OVX56","either","5","3096","","","","","","","0","1","0","","0.6717563967","0.6","0.2","0.8","0.4","0.4049224607","0.6717563967","0.1398961818","0.145948344","","","","","","","","","","","","","","74","J","1","","","100","main_expt","",""
"","bandit","182","774886","0.0-142.0-0.0","55016866","wem/bandit_party_2","A189V9652OVX56","either","5","426","","","","","","","0","0","1","","0.6929666651","0.6","0.2","0.8","0.4","0.3259939159","0.6929666651","0.1830356504","0.1366695263","","","","","","","","","","","","","","74","J","1","","","101","main_expt","",""
"","bandit","183","777225","0.0-143.0-0.0","55016866","wem/bandit_party_2","A189V9652OVX56","either","5","765","","","","","","","1","0","0","0.6827494989","","0.6","0.2","0.8","0.4","","","","","0.3598161211","0.6827494989","0.1396005595","0.1543059156","","","","","","","","","","74","J","1","","","102","main_expt","",""
"","bandit","184","779652","0.0-144.0-0.0","55016866","wem/bandit_party_2","A189V9652OVX56","either","5","860","","","","","","","0","1","0","","0.7315485361","0.6","0.2","0.8","0.4","0.3385951472","0.7315485361","0.0853830874","0.1484193465","","","","","","","","","","","","","","74","J","1","","","103","main_expt","",""
"","bandit","185","782005","0.0-145.0-0.0","55016866","wem/bandit_party_2","A189V9652OVX56","either","5","720","","","","","","","0","0","1","","0.6852971926","0.6","0.2","0.8","0.4","0.4881545817","0.6852971926","0.09317924201","0.1516288854","","","","","","","","","","","","","","74","J","1","","","104","main_expt","",""
"","bandit","186","784108","0.0-146.0-0.0","55016866","wem/bandit_party_2","A189V9652OVX56","either","5","536","","","","","","","0","1","0","","0.693594393","0.6","0.2","0.8","0.4","0.4790883063","0.693594393","0.08203708102","0.1283123627","","","","","","","","","","","","","","74","J","1","","","105","main_expt","",""
"","bandit","187","786502","0.0-147.0-0.0","55016866","wem/bandit_party_2","A189V9652OVX56","either","5","830","","","","","","","0","0","1","0.6101065231","","0.6","0.2","0.8","0.4","","","","","0.4354998123","0.6101065231","0.07160056992","0.2016068708","","","","","","","","","","74","J","1","","","106","main_expt","",""
"","bandit","188","788479","0.0-148.0-0.0","55016866","wem/bandit_party_2","A189V9652OVX56","either","5","423","","","","","","","0","1","0","","0.5549317608","0.6","0.2","0.8","0.4","0.4789065637","0.5549317608","0.09799112372","0.2344181992","","","","","","","","","","","","","","74","J","1","","","107","main_expt","",""
"","bandit","189","791933","0.0-149.0-0.0","55016866","wem/bandit_party_2","A189V9652OVX56","either","5","1851","","","","","","","0","1","0","","0.5753690117","0.6","0.2","0.8","0.4","0.2921896665","0.5753690117","0.1101799882","0.2234564856","","","","","","","","","","","","","","74","J","1","","","108","main_expt","",""
"","bandit","190","793637","0.0-150.0-0.0","55016866","wem/bandit_party_2","A189V9652OVX56","either","5","153","","","","","","","0","1","0","","0.5748544728","0.6","0.2","0.8","0.4","0.3545905428","0.5748544728","0.07189968831","0.2494485671","","","","","","","","","","","","","","74","J","1","","","109","main_expt","",""
"","bandit","191","795569","0.0-151.0-0.0","55016866","wem/bandit_party_2","A189V9652OVX56","either","5","357","","","","","","","0","0","1","0.6473038793","","0.6","0.2","0.8","0.4","","","","","0.3110769573","0.6473038793","0.06101418375","0.2804015825","","","","","","","","","","74","J","1","","","110","main_expt","",""
"","bandit","192","797254","0.0-152.0-0.0","55016866","wem/bandit_party_2","A189V9652OVX56","either","5","113","","","","","","","0","1","0","","0.6296147118","0.6","0.2","0.8","0.4","0.3673577619","0.6296147118","0.1032726654","0.254644275","","","","","","","","","","","","","","74","J","1","","","111","main_expt","",""
"","bandit","193","798895","0.0-153.0-0.0","55016866","wem/bandit_party_2","A189V9652OVX56","either","5","50","","","","","","","0","0","1","","0.6174722021","0.6","0.2","0.8","0.4","0.3439961468","0.6174722021","0.1061240248","0.2686709136","","","","","","","","","","","","","","74","J","1","","","112","main_expt","",""
"","bandit","194","800539","0.0-154.0-0.0","55016866","wem/bandit_party_2","A189V9652OVX56","either","5","91","","","","","","","0","0","1","","0.7467975424","0.6","0.2","0.8","0.4","0.3389202036","0.7467975424","0.1150632514","0.3211503982","","","","","","","","","","","","","","74","J","1","","","113","main_expt","",""
"","bandit","195","805149","0.0-155.0-0.0","55016866","wem/bandit_party_2","A189V9652OVX56","either","5","3051","","","","","","","0","0","1","","0.7797220863","0.6","0.2","0.8","0.4","0.3122185675","0.7797220863","0.1491479201","0.3067152309","","","","","","","","","","","","","","74","J","1","","","114","main_expt","",""
"","bandit","196","807415","0.0-156.0-0.0","55016866","wem/bandit_party_2","A189V9652OVX56","either","5","717","","","","","","","0","1","0","","0.8152411921","0.6","0.2","0.8","0.4","0.2431064996","0.8152411921","0.08304421353","0.3274584286","","","","","","","","","","","","","","74","J","1","","","115","main_expt","",""
"","bandit","197","809520","0.0-157.0-0.0","55016866","wem/bandit_party_2","A189V9652OVX56","either","5","530","","","","","","","1","0","0","0.7362727539","","0.6","0.2","0.8","0.4","","","","","0.2225404561","0.7362727539","0.1391191417","0.2491959293","","","","","","","","","","74","J","1","","","116","main_expt","",""
"","bandit","198","811424","0.0-158.0-0.0","55016866","wem/bandit_party_2","A189V9652OVX56","either","5","339","","","","","","","0","0","1","","0.7051771602","0.6","0.2","0.8","0.4","0.2891792411","0.7051771602","0.1689833708","0.1425156065","","","","","","","","","","","","","","74","J","1","","","117","main_expt","",""
"","bandit","199","813159","0.0-159.0-0.0","55016866","wem/bandit_party_2","A189V9652OVX56","either","5","163","","","","","","","0","1","0","","0.7099604309","0.6","0.2","0.8","0.4","0.3147139712","0.7099604309","0.1341186766","0.1550025764","","","","","","","","","","","","","","74","J","1","","","118","main_expt","",""
"","bandit","200","818363","0.0-160.0-0.0","55016866","wem/bandit_party_2","A189V9652OVX56","either","5","3643","","","","","","","0","1","0","","0.6633752461","0.6","0.2","0.8","0.4","0.4890071061","0.6633752461","0.1211065448","0.1733664784","","","","","","","","","","","","","","74","J","1","","","119","main_expt","",""
"","bandit","201","821279","0.0-161.0-0.0","55016866","wem/bandit_party_2","A189V9652OVX56","either","5","1247","","","","","","","0","0","1","","0.6748815414","0.6","0.2","0.8","0.4","0.5238994176","0.6748815414","0.1317257861","0.2091577514","","","","","","","","","","","","","","74","J","1","","","120","main_expt","",""
"","bandit","202","824290","0.0-162.0-0.0","55016866","wem/bandit_party_2","A189V9652OVX56","either","5","1352","","","","","","","0","0","1","","0.694041989","0.6","0.2","0.8","0.4","0.4821854017","0.694041989","0.08851148741","0.2038206067","","","","","","","","","","","","","","74","J","1","","","121","main_expt","",""
"","bandit","203","826221","0.0-163.0-0.0","55016866","wem/bandit_party_2","A189V9652OVX56","either","5","331","","","","","","","1","0","0","0.7808088803","","0.6","0.2","0.8","0.4","","","","","0.5695824443","0.7808088803","0.1313095228","0.1646827865","","","","","","","","","","74","J","1","","","122","main_expt","",""
"","bandit","204","828115","0.0-164.0-0.0","55016866","wem/bandit_party_2","A189V9652OVX56","either","5","328","","","","","","","0","1","0","","0.7513243775","0.6","0.2","0.8","0.4","0.5884468641","0.7513243775","0.1990721176","0.08951947698","","","","","","","","","","","","","","74","J","1","","","123","main_expt","",""
"","bandit","205","830254","0.0-165.0-0.0","55016866","wem/bandit_party_2","A189V9652OVX56","either","5","560","","","","","","","0","1","0","","0.7095593687","0.6","0.2","0.8","0.4","0.6578864121","0.7095593687","0.3510587203","0.09676311751","","","","","","","","","","","","","","74","J","1","","","124","main_expt","",""
"","bandit","206","832196","0.0-166.0-0.0","55016866","wem/bandit_party_2","A189V9652OVX56","either","5","345","","","","","","","0","1","0","","0.6464373278","0.6","0.2","0.8","0.4","0.6610648035","0.6464373278","0.2829787335","0.08914634913","","","","","","","","","","","","","","74","J","1","","","125","main_expt","",""
"","bandit","207","834310","0.0-167.0-0.0","55016866","wem/bandit_party_2","A189V9652OVX56","either","5","505","","","","","","","0","1","0","","0.69855693","0.6","0.2","0.8","0.4","0.6745370829","0.69855693","0.3253732313","0.1104844084","","","","","","","","","","","","","","74","J","1","","","126","main_expt","",""
"","bandit","208","836615","0.0-168.0-0.0","55016866","wem/bandit_party_2","A189V9652OVX56","either","5","750","","","","","","","0","1","0","","0.6394960802","0.6","0.2","0.8","0.4","0.6357656308","0.6394960802","0.2969307539","0.1302598269","","","","","","","","","","","","","","74","J","1","","","127","main_expt","",""
"","bandit","209","838820","0.0-169.0-0.0","55016866","wem/bandit_party_2","A189V9652OVX56","either","5","630","","","","","","","0","1","0","","0.5912569563","0.6","0.2","0.8","0.4","0.6746479632","0.5912569563","0.3862322559","0.1739983423","","","","","","","","","","","","","","74","J","1","","","128","main_expt","",""
"","bandit","210","841054","0.0-170.0-0.0","55016866","wem/bandit_party_2","A189V9652OVX56","either","5","599","","","","","","","0","0","1","","0.6408154383","0.6","0.2","0.8","0.4","0.609360971","0.6408154383","0.3399993615","0.2144078185","","","","","","","","","","","","","","74","J","1","","","129","main_expt","",""
"","bandit","211","844151","0.0-171.0-0.0","55016866","wem/bandit_party_2","A189V9652OVX56","either","5","1533","","","","","","","0","1","0","","0.6160079471","0.6","0.2","0.8","0.4","0.5791775941","0.6160079471","0.4343217783","0.2133227205","","","","","","","","","","","","","","74","J","1","","","130","main_expt","",""
"","bandit","212","846757","0.0-172.0-0.0","55016866","wem/bandit_party_2","A189V9652OVX56","either","5","1030","","","","","","","1","0","0","0.6639311205","","0.6","0.2","0.8","0.4","","","","","0.6039133906","0.6639311205","0.4116870082","0.3009586135","","","","","","","","","","74","J","1","","","131","main_expt","",""
"","bandit","213","849318","0.0-173.0-0.0","55016866","wem/bandit_party_2","A189V9652OVX56","either","5","963","","","","","","","0","0","1","","0.7314418876","0.6","0.2","0.8","0.4","0.5564977279","0.7314418876","0.3235444519","0.3257006372","","","","","","","","","","","","","","74","J","1","","","132","main_expt","",""
"","bandit","214","852380","0.0-174.0-0.0","55016866","wem/bandit_party_2","A189V9652OVX56","either","5","1476","","","","","","","1","0","0","0.7343064015","","0.6","0.2","0.8","0.4","","","","","0.5453182718","0.7343064015","0.4204005917","0.3286432436","","","","","","","","","","74","J","1","","","133","main_expt","",""
"","bandit","215","854775","0.0-175.0-0.0","55016866","wem/bandit_party_2","A189V9652OVX56","either","5","805","","","","","","","0","1","0","","0.6345074403","0.6","0.2","0.8","0.4","0.5557967555","0.6345074403","0.5326734174","0.3343575241","","","","","","","","","","","","","","74","J","1","","","134","main_expt","",""
"","bandit","216","857102","0.0-176.0-0.0","55016866","wem/bandit_party_2","A189V9652OVX56","either","5","740","","","","","","","0","1","0","","0.752921597","0.6","0.2","0.8","0.4","0.5719827955","0.752921597","0.6096825818","0.2917270645","","","","","","","","","","","","","","74","J","1","","","135","main_expt","",""
"","bandit","217","859280","0.0-177.0-0.0","55016866","wem/bandit_party_2","A189V9652OVX56","either","5","597","","","","","","","0","1","0","","0.7642539739","0.6","0.2","0.8","0.4","0.4756276611","0.7642539739","0.6827328332","0.3972485531","","","","","","","","","","","","","","74","J","1","","","136","main_expt","",""
"","bandit","218","861513","0.0-178.0-0.0","55016866","wem/bandit_party_2","A189V9652OVX56","either","5","649","","","","","","","0","1","0","","0.7166238274","0.6","0.2","0.8","0.4","0.5078949877","0.7166238274","0.6604068036","0.4294090248","","","","","","","","","","","","","","74","J","1","","","137","main_expt","",""
"","bandit","219","863938","0.0-179.0-0.0","55016866","wem/bandit_party_2","A189V9652OVX56","either","5","788","","","","","","","0","1","0","","0.713549589","0.6","0.2","0.8","0.4","0.4938131475","0.713549589","0.653661868","0.5009988565","","","","","","","","","","","","","","74","J","1","","","138","main_expt","",""
"","bandit","220","866481","0.0-180.0-0.0","55016866","wem/bandit_party_2","A189V9652OVX56","either","5","975","","","","","","","0","0","1","0.6905374229","","0.6","0.2","0.8","0.4","","","","","0.654612375","0.6905374229","0.6169918179","0.4993746949","","","","","","","","","","74","J","1","","","139","main_expt","",""
"","bandit","221","869201","0.0-181.0-0.0","55016866","wem/bandit_party_2","A189V9652OVX56","either","5","1148","","","","","","","0","1","0","","0.6614813372","0.6","0.2","0.8","0.4","0.52663091","0.6614813372","0.6657435074","0.5448973659","","","","","","","","","","","","","","74","J","1","","","140","main_expt","",""
"","bandit","222","874159","0.0-182.0-0.0","55016866","wem/bandit_party_2","A189V9652OVX56","either","5","3374","","","","","","","1","0","0","0.7024355817","","0.6","0.2","0.8","0.4","","","","","0.5976356642","0.7024355817","0.6349341703","0.4829720837","","","","","","","","","","74","J","1","","","141","main_expt","",""
"","bandit","223","879180","0.0-183.0-0.0","55016866","wem/bandit_party_2","A189V9652OVX56","either","5","3418","","","","","","","1","0","0","0.7185929435","","0.6","0.2","0.8","0.4","","","","","0.5956183516","0.7185929435","0.6379356982","0.5402580016","","","","","","","","","","74","J","1","","","142","main_expt","",""
"","bandit","224","881363","0.0-184.0-0.0","55016866","wem/bandit_party_2","A189V9652OVX56","either","5","556","","","","","","","0","0","1","0.6240660549","","0.6","0.2","0.8","0.4","","","","","0.6432894639","0.6240660549","0.6022688156","0.5478015274","","","","","","","","","","74","J","1","","","143","main_expt","",""
"","bandit","225","883396","0.0-185.0-0.0","55016866","wem/bandit_party_2","A189V9652OVX56","either","5","442","","","","","","","0","0","1","","0.5797935966","0.6","0.2","0.8","0.4","0.6691106198","0.5797935966","0.5806731621","0.5189832842","","","","","","","","","","","","","","74","J","1","","","144","main_expt","",""
"","bandit","226","885715","0.0-186.0-0.0","55016866","wem/bandit_party_2","A189V9652OVX56","either","5","721","","","","","","","0","0","1","","0.520403766","0.6","0.2","0.8","0.4","0.677031803","0.520403766","0.5512406412","0.4556604905","","","","","","","","","","","","","","74","J","1","","","145","main_expt","",""
"","bandit","227","887681","0.0-187.0-0.0","55016866","wem/bandit_party_2","A189V9652OVX56","either","5","402","","","","","","","0","1","0","","0.5330345992","0.6","0.2","0.8","0.4","0.6697886415","0.5330345992","0.6055708535","0.48011385","","","","","","","","","","","","","","74","J","1","","","146","main_expt","",""
"","bandit","228","889773","0.0-188.0-0.0","55016866","wem/bandit_party_2","A189V9652OVX56","either","5","518","","","","","","","0","0","1","","0.5692896821","0.6","0.2","0.8","0.4","0.7101623398","0.5692896821","0.5711328773","0.5363471167","","","","","","","","","","","","","","74","J","1","","","147","main_expt","",""
"","bandit","229","891978","0.0-189.0-0.0","55016866","wem/bandit_party_2","A189V9652OVX56","either","5","580","","","","","","","0","1","0","","0.4877368026","0.6","0.2","0.8","0.4","0.733230793","0.4877368026","0.4258462921","0.4929714004","","","","","","","","","","","","","","74","J","1","","","148","main_expt","",""
"","bandit","230","894000","0.0-190.0-0.0","55016866","wem/bandit_party_2","A189V9652OVX56","either","5","459","","","","","","","1","0","0","0.5936336812","","0.6","0.2","0.8","0.4","","","","","0.7010449773","0.5936336812","0.327967402","0.4356177925","","","","","","","","","","74","J","1","","","149","main_expt","",""
"","bandit","231","897003","0.0-191.0-0.0","55016866","wem/bandit_party_2","A189V9652OVX56","either","5","1418","","","","","","","0","1","0","","0.7027445866","0.6","0.2","0.8","0.4","0.6668672445","0.7027445866","0.4343474627","0.4054894896","","","","","","","","","","","","","","74","J","1","","","150","main_expt","",""
"","bandit","232","899952","0.0-192.0-0.0","55016866","wem/bandit_party_2","A189V9652OVX56","either","5","1357","","","","","","","0","1","0","","0.7690633033","0.6","0.2","0.8","0.4","0.5612636021","0.7690633033","0.5382828223","0.5283130311","","","","","","","","","","","","","","74","J","1","","","151","main_expt","",""
"","bandit","233","901929","0.0-193.0-0.0","55016866","wem/bandit_party_2","A189V9652OVX56","either","5","413","","","","","","","0","1","0","","0.5989969619","0.6","0.2","0.8","0.4","0.7032448324","0.5989969619","0.6572277468","0.6323123958","","","","","","","","","","","","","","74","J","1","","","152","main_expt","",""
"","bandit","234","903921","0.0-194.0-0.0","55016866","wem/bandit_party_2","A189V9652OVX56","either","5","412","","","","","","","0","1","0","","0.6126787421","0.6","0.2","0.8","0.4","0.6918543646","0.6126787421","0.668560183","0.5847243132","","","","","","","","","","","","","","74","J","1","","","153","main_expt","",""
"","bandit","235","905977","0.0-195.0-0.0","55016866","wem/bandit_party_2","A189V9652OVX56","either","5","495","","","","","","","0","1","0","","0.5461115941","0.6","0.2","0.8","0.4","0.647195156","0.5461115941","0.6954524596","0.4285456013","","","","","","","","","","","","","","74","J","1","","","154","main_expt","",""
"","bandit","236","907942","0.0-196.0-0.0","55016866","wem/bandit_party_2","A189V9652OVX56","either","5","393","","","","","","","0","1","0","","0.5456348337","0.6","0.2","0.8","0.4","0.6135998722","0.5456348337","0.5684527538","0.4772645207","","","","","","","","","","","","","","74","J","1","","","155","main_expt","",""
"","bandit","237","909941","0.0-197.0-0.0","55016866","wem/bandit_party_2","A189V9652OVX56","either","5","435","","","","","","","0","0","1","0.4782917504","","0.6","0.2","0.8","0.4","","","","","0.5591033916","0.4782917504","0.6034375159","0.4982711843","","","","","","","","","","74","J","1","","","156","main_expt","",""
"","bandit","238","911859","0.0-198.0-0.0","55016866","wem/bandit_party_2","A189V9652OVX56","either","5","343","","","","","","","0","0","1","0.4868537485","","0.6","0.2","0.8","0.4","","","","","0.5090787948","0.4868537485","0.5835723018","0.5275183668","","","","","","","","","","74","J","1","","","157","main_expt","",""
"","bandit","239","913736","0.0-199.0-0.0","55016866","wem/bandit_party_2","A189V9652OVX56","either","5","319","","","","","","","0","1","0","","0.5361642224","0.6","0.2","0.8","0.4","0.6087372924","0.5361642224","0.5234712835","0.4489423754","","","","","","","","","","","","","","74","J","1","","","158","main_expt","",""
"","bandit","240","915800","0.0-200.0-0.0","55016866","wem/bandit_party_2","A189V9652OVX56","either","5","504","","","","","","","0","0","1","0.4947944436","","0.6","0.2","0.8","0.4","","","","","0.6064578463","0.4947944436","0.5636881177","0.4933275403","","","","","","","","","","74","J","1","","","159","main_expt","",""
"","bandit","241","917719","0.0-201.0-0.0","55016866","wem/bandit_party_2","A189V9652OVX56","either","5","347","","","","","","","1","0","0","0.5106889885","","0.6","0.2","0.8","0.4","","","","","0.6951258233","0.5106889885","0.4785340868","0.4521998099","","","","","","","","","","74","J","1","","","160","main_expt","",""
"","bandit","242","919735","0.0-202.0-0.0","55016866","wem/bandit_party_2","A189V9652OVX56","either","5","437","","","","","","","0","1","0","","0.4566704777","0.6","0.2","0.8","0.4","0.7129510734","0.4566704777","0.5038962889","0.5114636712","","","","","","","","","","","","","","74","J","1","","","161","main_expt","",""
"","bandit","243","921744","0.0-203.0-0.0","55016866","wem/bandit_party_2","A189V9652OVX56","either","5","425","","","","","","","0","0","1","","0.3259271754","0.6","0.2","0.8","0.4","0.7028034005","0.3259271754","0.4448395692","0.5242674757","","","","","","","","","","","","","","74","J","1","","","162","main_expt","",""
"","bandit","244","923795","0.0-204.0-0.0","55016866","wem/bandit_party_2","A189V9652OVX56","either","5","480","","","","","","","0","0","1","","0.2806734392","0.6","0.2","0.8","0.4","0.6293758899","0.2806734392","0.471982621","0.5687322637","","","","","","","","","","","","","","74","J","1","","","163","main_expt","",""
"","bandit","245","925822","0.0-205.0-0.0","55016866","wem/bandit_party_2","A189V9652OVX56","either","5","465","","","","","","","0","0","1","0.2973163189","","0.6","0.2","0.8","0.4","","","","","0.6813427096","0.2973163189","0.6517066897","0.5635146256","","","","","","","","","","74","J","1","","","164","main_expt","",""
"","bandit","246","927990","0.0-206.0-0.0","55016866","wem/bandit_party_2","A189V9652OVX56","either","5","599","","","","","","","0","0","1","","0.2872552927","0.6","0.2","0.8","0.4","0.7231406025","0.2872552927","0.6339143586","0.6588968294","","","","","","","","","","","","","","74","J","1","","","165","main_expt","",""
"","bandit","247","930293","0.0-207.0-0.0","55016866","wem/bandit_party_2","A189V9652OVX56","either","5","742","","","","","","","0","0","1","","0.325395791","0.6","0.2","0.8","0.4","0.6274448994","0.325395791","0.6507743373","0.74872254","","","","","","","","","","","","","","74","J","1","","","166","main_expt","",""
"","bandit","248","932294","0.0-208.0-0.0","55016866","wem/bandit_party_2","A189V9652OVX56","either","5","435","","","","","","","0","1","0","","0.3307719744","0.6","0.2","0.8","0.4","0.6778384319","0.3307719744","0.6753437353","0.7741304825","","","","","","","","","","","","","","74","J","1","","","167","main_expt","",""
"","bandit","249","934334","0.0-209.0-0.0","55016866","wem/bandit_party_2","A189V9652OVX56","either","5","477","","","","","","","0","1","0","","0.4033689778","0.6","0.2","0.8","0.4","0.6928942004","0.4033689778","0.6308788189","0.8873722237","","","","","","","","","","","","","","74","J","1","","","168","main_expt","",""
"","bandit","250","936346","0.0-210.0-0.0","55016866","wem/bandit_party_2","A189V9652OVX56","either","5","446","","","","","","","0","1","0","","0.4089274666","0.6","0.2","0.8","0.4","0.6181376835","0.4089274666","0.6289357746","0.8649989169","","","","","","","","","","","","","","74","J","1","","","169","main_expt","",""
"","bandit","251","938569","0.0-211.0-0.0","55016866","wem/bandit_party_2","A189V9652OVX56","either","5","655","","","","","","","0","0","1","","0.4033631647","0.6","0.2","0.8","0.4","0.6539136718","0.4033631647","0.6308829817","0.8634323334","","","","","","","","","","","","","","74","J","1","","","170","main_expt","",""
"","bandit","252","940838","0.0-212.0-0.0","55016866","wem/bandit_party_2","A189V9652OVX56","either","5","689","","","","","","","0","0","1","0.3743415885","","0.6","0.2","0.8","0.4","","","","","0.7935188527","0.3743415885","0.6008061885","0.8050812792","","","","","","","","","","74","J","1","","","171","main_expt","",""
"","bandit","253","943100","0.0-213.0-0.0","55016866","wem/bandit_party_2","A189V9652OVX56","either","5","694","","","","","","","0","0","1","0.4145867416","","0.6","0.2","0.8","0.4","","","","","0.7959482017","0.4145867416","0.6498855282","0.7635000848","","","","","","","","","","74","J","1","","","172","main_expt","",""
"","bandit","254","946285","0.0-214.0-0.0","55016866","wem/bandit_party_2","A189V9652OVX56","either","5","1619","","","","","","","1","0","0","0.4421490518","","0.6","0.2","0.8","0.4","","","","","0.7720377381","0.4421490518","0.6361658802","0.7793560846","","","","","","","","","","74","J","1","","","173","main_expt","",""
"","bandit","255","948280","0.0-215.0-0.0","55016866","wem/bandit_party_2","A189V9652OVX56","either","5","426","","","","","","","0","0","1","","0.373112653","0.6","0.2","0.8","0.4","0.7751150559","0.373112653","0.5494915933","0.7290013271","","","","","","","","","","","","","","74","J","1","","","174","main_expt","",""
"","bandit","256","951742","0.0-216.0-0.0","55016866","wem/bandit_party_2","A189V9652OVX56","either","5","1892","","","","","","","0","1","0","","0.372221374","0.6","0.2","0.8","0.4","0.7699246652","0.372221374","0.6292002022","0.8353873757","","","","","","","","","","","","","","74","J","1","","","175","main_expt","",""
"","bandit","257","953825","0.0-217.0-0.0","55016866","wem/bandit_party_2","A189V9652OVX56","either","5","490","","","","","","","0","1","0","","0.3594456443","0.6","0.2","0.8","0.4","0.8092821718","0.3594456443","0.4999600136","0.8589437223","","","","","","","","","","","","","","74","J","1","","","176","main_expt","",""
"","bandit","258","955787","0.0-218.0-0.0","55016866","wem/bandit_party_2","A189V9652OVX56","either","5","301","","","","","","","0","0","1","","0.3705823864","0.6","0.2","0.8","0.4","0.7728258073","0.3705823864","0.4500304274","0.8824379228","","","","","","","","","","","","","","74","J","1","","","177","main_expt","",""
"","bandit","259","957640","0.0-219.0-0.0","55016866","wem/bandit_party_2","A189V9652OVX56","either","5","293","","","","","","","0","0","1","","0.3042584581","0.6","0.2","0.8","0.4","0.8128952128","0.3042584581","0.4626099748","0.8862787626","","","","","","","","","","","","","","74","J","1","","","178","main_expt","",""
"","bandit","260","960057","0.0-220.0-0.0","55016866","wem/bandit_party_2","A189V9652OVX56","either","5","863","","","","","","","0","0","1","","0.3056645996","0.6","0.2","0.8","0.4","0.7878088044","0.3056645996","0.3074659707","0.8851661012","","","","","","","","","","","","","","74","J","1","","","179","main_expt","",""
"","bandit","261","962455","0.0-221.0-0.0","55016866","wem/bandit_party_2","A189V9652OVX56","either","5","822","","","","","","","0","0","1","","0.3124458775","0.6","0.2","0.8","0.4","0.7626215198","0.3124458775","0.2445312817","0.8623840347","","","","","","","","","","","","","","74","J","1","","","180","main_expt","",""
"","bandit","262","964810","0.0-222.0-0.0","55016866","wem/bandit_party_2","A189V9652OVX56","either","5","732","","","","","","","0","0","1","0.2597333415","","0.6","0.2","0.8","0.4","","","","","0.7059637017","0.2597333415","0.2284870313","0.8815853427","","","","","","","","","","74","J","1","","","181","main_expt","",""
"","bandit","263","966996","0.0-223.0-0.0","55016866","wem/bandit_party_2","A189V9652OVX56","either","5","629","","","","","","","0","0","1","0.2117009826","","0.6","0.2","0.8","0.4","","","","","0.6691747745","0.2117009826","0.2195648065","0.8955826305","","","","","","","","","","74","J","1","","","182","main_expt","",""
"","bandit","264","968962","0.0-224.0-0.0","55016866","wem/bandit_party_2","A189V9652OVX56","either","5","388","","","","","","","0","0","1","","0.2327762041","0.6","0.2","0.8","0.4","0.5523838876","0.2327762041","0.2327716204","0.9362873759","","","","","","","","","","","","","","74","J","1","","","183","main_expt","",""
"","bandit","265","972304","0.0-225.0-0.0","55016866","wem/bandit_party_2","A189V9652OVX56","either","5","1787","","","","","","","0","0","1","","0.2750618684","0.6","0.2","0.8","0.4","0.5451875246","0.2750618684","0.3207903029","0.9484326647","","","","","","","","","","","","","","74","J","1","","","184","main_expt","",""
"","bandit","266","974411","0.0-226.0-0.0","55016866","wem/bandit_party_2","A189V9652OVX56","either","5","537","","","","","","","0","0","1","","0.2305846964","0.6","0.2","0.8","0.4","0.6090771744","0.2305846964","0.3609723674","0.9660783121","","","","","","","","","","","","","","74","J","1","","","185","main_expt","",""
"","bandit","267","976297","0.0-227.0-0.0","55016866","wem/bandit_party_2","A189V9652OVX56","either","5","318","","","","","","","0","0","1","","0.2597669424","0.6","0.2","0.8","0.4","0.5810996076","0.2597669424","0.4442397518","0.9665376101","","","","","","","","","","","","","","74","J","1","","","186","main_expt","",""
"","bandit","268","978281","0.0-228.0-0.0","55016866","wem/bandit_party_2","A189V9652OVX56","either","5","407","","","","","","","0","0","1","0.2143742246","","0.6","0.2","0.8","0.4","","","","","0.4445572548","0.2143742246","0.4478442549","0.9644184371","","","","","","","","","","74","J","1","","","187","main_expt","",""
"","bandit","269","980131","0.0-229.0-0.0","55016866","wem/bandit_party_2","A189V9652OVX56","either","5","290","","","","","","","0","0","1","","0.2294707647","0.6","0.2","0.8","0.4","0.4113554433","0.2294707647","0.4026396634","0.9731237162","","","","","","","","","","","","","","74","J","1","","","188","main_expt","",""
"","bandit","270","982315","0.0-230.0-0.0","55016866","wem/bandit_party_2","A189V9652OVX56","either","5","561","","","","","","","0","0","1","0.2469430613","","0.6","0.2","0.8","0.4","","","","","0.4053553249","0.2469430613","0.5072589837","0.9787475226","","","","","","","","","","74","J","1","","","189","main_expt","",""
"","bandit","271","984355","0.0-231.0-0.0","55016866","wem/bandit_party_2","A189V9652OVX56","either","5","448","","","","","","","0","0","1","","0.2437728268","0.6","0.2","0.8","0.4","0.4927633492","0.2437728268","0.5234843415","0.9847816181","","","","","","","","","","","","","","74","J","1","","","190","main_expt","",""
"","bandit","272","986270","0.0-232.0-0.0","55016866","wem/bandit_party_2","A189V9652OVX56","either","5","360","","","","","","","1","0","0","0.1655579887","","0.6","0.2","0.8","0.4","","","","","0.428678546","0.1655579887","0.5054414672","0.9713064587","","","","","","","","","","74","J","1","","","191","main_expt","",""
"","bandit","273","988421","0.0-233.0-0.0","55016866","wem/bandit_party_2","A189V9652OVX56","either","5","550","","","","","","","0","0","1","","0.1501427492","0.6","0.2","0.8","0.4","0.3358015867","0.1501427492","0.7037613703","0.9558555722","","","","","","","","","","","","","","74","J","1","","","192","main_expt","",""
"","bandit","274","990474","0.0-234.0-0.0","55016866","wem/bandit_party_2","A189V9652OVX56","either","5","486","","","","","","","0","0","1","0.2062706367","","0.6","0.2","0.8","0.4","","","","","0.2816430679","0.2062706367","0.5980286963","0.9443800135","","","","","","","","","","74","J","1","","","193","main_expt","",""
"","bandit","275","992432","0.0-235.0-0.0","55016866","wem/bandit_party_2","A189V9652OVX56","either","5","366","","","","","","","0","0","1","","0.2782937815","0.6","0.2","0.8","0.4","0.2951519504","0.2782937815","0.5607231578","0.947825408","","","","","","","","","","","","","","74","J","1","","","194","main_expt","",""
"","bandit","276","994288","0.0-236.0-0.0","55016866","wem/bandit_party_2","A189V9652OVX56","either","5","286","","","","","","","0","0","1","0.2393938873","","0.6","0.2","0.8","0.4","","","","","0.2482291913","0.2393938873","0.6222063369","0.9531013361","","","","","","","","","","74","J","1","","","195","main_expt","",""
"","bandit","277","996284","0.0-237.0-0.0","55016866","wem/bandit_party_2","A189V9652OVX56","either","5","442","","","","","","","0","0","1","","0.3385483064","0.6","0.2","0.8","0.4","0.2548661126","0.3385483064","0.7092042058","0.9653581558","","","","","","","","","","","","","","74","J","1","","","196","main_expt","",""
"","bandit","278","998640","0.0-238.0-0.0","55016866","wem/bandit_party_2","A189V9652OVX56","either","5","798","","","","","","","0","0","1","","0.3474357388","0.6","0.2","0.8","0.4","0.2789697966","0.3474357388","0.7397780251","0.9774234012","","","","","","","","","","","","","","74","J","1","","","197","main_expt","",""
"","bandit","279","1000681","0.0-239.0-0.0","55016866","wem/bandit_party_2","A189V9652OVX56","either","5","475","","","","","","","0","1","0","","0.4511600961","0.6","0.2","0.8","0.4","0.2893473624","0.4511600961","0.6977166648","0.9866112083","","","","","","","","","","","","","","74","J","1","","","198","main_expt","",""
"","bandit","280","1002694","0.0-240.0-0.0","55016866","wem/bandit_party_2","A189V9652OVX56","either","5","436","","","","","","","0","1","0","","0.4387406867","0.6","0.2","0.8","0.4","0.2499124536","0.4387406867","0.591703898","0.9889390623","","","","","","","","","","","","","","74","J","1","","","199","main_expt","",""
"","bandit","281","1005418","0.0-241.0-0.0","55016866","wem/bandit_party_2","A189V9652OVX56","either","5","1163","","","","","","","0","0","1","","0.4368135332","0.6","0.2","0.8","0.4","0.2643429758","0.4368135332","0.5107967375","0.9894921125","","","","","","","","","","","","","","74","J","1","","","200","main_expt","",""
"","bandit","282","1007578","0.0-242.0-0.0","55016866","wem/bandit_party_2","A189V9652OVX56","either","5","587","","","","","","","0","0","1","0.3070084091","","0.6","0.2","0.8","0.4","","","","","0.2382870841","0.3070084091","0.6528148869","0.989248002","","","","","","","","","","74","J","1","","","201","main_expt","",""
"","bandit","283","1009973","0.0-243.0-0.0","55016866","wem/bandit_party_2","A189V9652OVX56","either","5","842","","","","","","","0","1","0","","0.3603585946","0.6","0.2","0.8","0.4","0.1604624283","0.3603585946","0.6892998309","0.9957983392","","","","","","","","","","","","","","74","J","1","","","202","main_expt","",""
"","bandit","284","1012085","0.0-244.0-0.0","55016866","wem/bandit_party_2","A189V9652OVX56","either","5","532","","","","","","","0","0","1","","0.260320329","0.6","0.2","0.8","0.4","0.1407610566","0.260320329","0.6989476798","0.9958893","","","","","","","","","","","","","","74","J","1","","","203","main_expt","",""
"","bandit","285","1014308","0.0-245.0-0.0","55016866","wem/bandit_party_2","A189V9652OVX56","either","5","657","","","","","","","0","0","1","","0.2003029851","0.6","0.2","0.8","0.4","0.1343245238","0.2003029851","0.772264117","0.9955962674","","","","","","","","","","","","","","74","J","1","","","204","main_expt","",""
"","bandit","286","1016312","0.0-246.0-0.0","55016866","wem/bandit_party_2","A189V9652OVX56","either","5","386","","","","","","","0","0","1","","0.1922312923","0.6","0.2","0.8","0.4","0.1715400642","0.1922312923","0.7366863645","0.9943432705","","","","","","","","","","","","","","74","J","1","","","205","main_expt","",""
"","bandit","287","1019123","0.0-247.0-0.0","55016866","wem/bandit_party_2","A189V9652OVX56","either","5","1086","","","","","","","0","0","1","","0.1936085521","0.6","0.2","0.8","0.4","0.117617648","0.1936085521","0.7477287432","0.9982320458","","","","","","","","","","","","","","74","J","1","","","206","main_expt","",""
"","bandit","288","1022048","0.0-248.0-0.0","55016866","wem/bandit_party_2","A189V9652OVX56","either","5","1308","","","","","","","0","1","0","","0.1821705986","0.6","0.2","0.8","0.4","0.1182717864","0.1821705986","0.8185776196","0.9976530308","","","","","","","","","","","","","","74","J","1","","","207","main_expt","",""
"","bandit","289","1024803","0.0-249.0-0.0","55016866","wem/bandit_party_2","A189V9652OVX56","either","5","1083","","","","","","","0","0","1","","0.1145050302","0.6","0.2","0.8","0.4","0.1445047472","0.1145050302","0.8161769506","0.9961811318","","","","","","","","","","","","","","74","J","1","","","208","main_expt","",""
"","bandit","290","1028504","0.0-250.0-0.0","55016866","wem/bandit_party_2","A189V9652OVX56","either","5","2103","","","","","","","0","0","1","","0.1206637037","0.6","0.2","0.8","0.4","0.1264159314","0.1206637037","0.8224464957","0.9977639941","","","","","","","","","","","","","","74","J","1","","","209","main_expt","",""
"","bandit","291","1031236","0.0-251.0-0.0","55016866","wem/bandit_party_2","A189V9652OVX56","either","5","1142","","","","","","","0","0","1","0.1422927172","","0.6","0.2","0.8","0.4","","","","","0.1208777168","0.1422927172","0.7392866018","0.9953783407","","","","","","","","","","74","J","1","","","210","main_expt","",""
"","bandit","292","1034621","0.0-252.0-0.0","55016866","wem/bandit_party_2","A189V9652OVX56","either","5","1796","","","","","","","0","0","1","","0.1811219169","0.6","0.2","0.8","0.4","0.1733448518","0.1811219169","0.7125411919","0.9976351195","","","","","","","","","","","","","","74","J","1","","","211","main_expt","",""
"","bandit","293","1038443","0.0-253.0-0.0","55016866","wem/bandit_party_2","A189V9652OVX56","either","5","2253","","","","","","","0","0","1","","0.1982527665","0.6","0.2","0.8","0.4","0.1085262221","0.1982527665","0.7191881067","0.9983589292","","","","","","","","","","","","","","74","J","1","","","212","main_expt","",""
"","bandit","294","1043843","0.0-254.0-0.0","55016866","wem/bandit_party_2","A189V9652OVX56","either","5","3831","","","","","","","0","0","1","","0.124448309","0.6","0.2","0.8","0.4","0.08145678985","0.124448309","0.7523845147","0.9960427138","","","","","","","","","","","","","","74","J","1","","","213","main_expt","",""
"","bandit","295","1046044","0.0-255.0-0.0","55016866","wem/bandit_party_2","A189V9652OVX56","either","5","613","","","","","","","0","0","1","","0.1036015692","0.6","0.2","0.8","0.4","0.05725631888","0.1036015692","0.7193420906","0.9924650588","","","","","","","","","","","","","","74","J","1","","","214","main_expt","",""
"","bandit","296","1047997","0.0-256.0-0.0","55016866","wem/bandit_party_2","A189V9652OVX56","either","5","371","","","","","","","0","0","1","","0.14458031","0.6","0.2","0.8","0.4","0.04356988172","0.14458031","0.6784461291","0.9858211903","","","","","","","","","","","","","","74","J","1","","","215","main_expt","",""
"","bandit","297","1051439","0.0-257.0-0.0","55016866","wem/bandit_party_2","A189V9652OVX56","either","5","1858","","","","","","","0","0","1","0.2094876981","","0.6","0.2","0.8","0.4","","","","","0.04316154837","0.2094876981","0.5658185063","0.9915289077","","","","","","","","","","74","J","1","","","216","main_expt","",""
"","bandit","298","1054266","0.0-258.0-0.0","55016866","wem/bandit_party_2","A189V9652OVX56","either","5","1256","","","","","","","0","0","1","","0.24936904","0.6","0.2","0.8","0.4","0.03453558383","0.24936904","0.4886301847","0.9929544916","","","","","","","","","","","","","","74","J","1","","","217","main_expt","",""
"","bandit","299","1057782","0.0-259.0-0.0","55016866","wem/bandit_party_2","A189V9652OVX56","either","5","1952","","","","","","","0","0","1","","0.2006789107","0.6","0.2","0.8","0.4","0.03800932399","0.2006789107","0.5674985979","0.9741721496","","","","","","","","","","","","","","74","J","1","","","218","main_expt","",""
"","bandit","300","1060271","0.0-260.0-0.0","55016866","wem/bandit_party_2","A189V9652OVX56","either","5","912","","","","","","","0","1","0","","0.2118480588","0.6","0.2","0.8","0.4","0.07914639327","0.2118480588","0.6088772151","0.9413517393","","","","","","","","","","","","","","74","J","1","","","219","main_expt","",""
"","bandit","301","1062046","0.0-261.0-0.0","55016866","wem/bandit_party_2","A189V9652OVX56","either","5","196","","","","","","","0","0","1","","0.2159213458","0.6","0.2","0.8","0.4","0.07044987786","0.2159213458","0.5856238885","0.9230346446","","","","","","","","","","","","","","74","J","1","","","220","main_expt","",""
"","bandit","302","1064120","0.0-262.0-0.0","55016866","wem/bandit_party_2","A189V9652OVX56","either","5","511","","","","","","","0","0","1","","0.2097338805","0.6","0.2","0.8","0.4","0.1351506501","0.2097338805","0.6601978635","0.9216350241","","","","","","","","","","","","","","74","J","1","","","221","main_expt","",""
"","bandit","303","1066083","0.0-263.0-0.0","55016866","wem/bandit_party_2","A189V9652OVX56","either","5","377","","","","","","","0","0","1","","0.1468233299","0.6","0.2","0.8","0.4","0.2099108548","0.1468233299","0.6540659739","0.9093406134","","","","","","","","","","","","","","74","J","1","","","222","main_expt","",""
"","bandit","304","1068035","0.0-264.0-0.0","55016866","wem/bandit_party_2","A189V9652OVX56","either","5","400","","","","","","","0","0","1","","0.1379540926","0.6","0.2","0.8","0.4","0.2971693323","0.1379540926","0.7010542315","0.8361447498","","","","","","","","","","","","","","74","J","1","","","223","main_expt","",""
"","bandit","305","1070185","0.0-265.0-0.0","55016866","wem/bandit_party_2","A189V9652OVX56","either","5","466","","","","","","","0","0","1","","0.1943723139","0.6","0.2","0.8","0.4","0.2754671199","0.1943723139","0.7972730751","0.8626161161","","","","","","","","","","","","","","74","J","1","","","224","main_expt","",""
"","bandit","306","1072195","0.0-266.0-0.0","55016866","wem/bandit_party_2","A189V9652OVX56","either","5","442","","","","","","","1","0","0","0.2949344278","","0.6","0.2","0.8","0.4","","","","","0.2483133052","0.2949344278","0.8726314772","0.9176165053","","","","","","","","","","74","J","1","","","225","main_expt","",""
"","bandit","307","1074330","0.0-267.0-0.0","55016866","wem/bandit_party_2","A189V9652OVX56","either","5","549","","","","","","","0","1","0","","0.4040967375","0.6","0.2","0.8","0.4","0.2945032007","0.4040967375","0.8569150835","0.9516545376","","","","","","","","","","","","","","74","J","1","","","226","main_expt","",""
"","bandit","308","1076327","0.0-268.0-0.0","55016866","wem/bandit_party_2","A189V9652OVX56","either","5","410","","","","","","","0","0","1","0.4369809926","","0.6","0.2","0.8","0.4","","","","","0.2544933329","0.4369809926","0.8773762417","0.9448551655","","","","","","","","","","74","J","1","","","227","main_expt","",""
"","bandit","309","1078464","0.0-269.0-0.0","55016866","wem/bandit_party_2","A189V9652OVX56","either","5","553","","","","","","","0","0","1","","0.4228749262","0.6","0.2","0.8","0.4","0.22227057","0.4228749262","0.8514828757","0.9298030406","","","","","","","","","","","","","","74","J","1","","","228","main_expt","",""
"","bandit","310","1080399","0.0-270.0-0.0","55016866","wem/bandit_party_2","A189V9652OVX56","either","5","361","","","","","","","0","1","0","","0.4953143479","0.6","0.2","0.8","0.4","0.2319557967","0.4953143479","0.893786405","0.9022116856","","","","","","","","","","","","","","74","J","1","","","229","main_expt","",""
"","bandit","311","1083400","0.0-271.0-0.0","55016866","wem/bandit_party_2","A189V9652OVX56","either","5","1426","","","","","","","0","1","0","","0.4752889979","0.6","0.2","0.8","0.4","0.3107577299","0.4752889979","0.9350514117","0.8934587516","","","","","","","","","","","","","","74","J","1","","","230","main_expt","",""
"","bandit","312","1085472","0.0-272.0-0.0","55016866","wem/bandit_party_2","A189V9652OVX56","either","5","473","","","","","","","0","0","1","","0.4887049862","0.6","0.2","0.8","0.4","0.3046703461","0.4887049862","0.9139197991","0.8403693225","","","","","","","","","","","","","","74","J","1","","","231","main_expt","",""
"","bandit","313","1088594","0.0-273.0-0.0","55016866","wem/bandit_party_2","A189V9652OVX56","either","5","1551","","","","","","","0","1","0","","0.6065944358","0.6","0.2","0.8","0.4","0.4259459217","0.6065944358","0.8753904063","0.7373772703","","","","","","","","","","","","","","74","J","1","","","232","main_expt","",""
"","bandit","314","1090877","0.0-274.0-0.0","55016866","wem/bandit_party_2","A189V9652OVX56","either","5","677","","","","","","","0","1","0","","0.5320380184","0.6","0.2","0.8","0.4","0.3391655585","0.5320380184","0.807664976","0.7275490615","","","","","","","","","","","","","","74","J","1","","","233","main_expt","",""
"","bandit","315","1093170","0.0-275.0-0.0","55016866","wem/bandit_party_2","A189V9652OVX56","either","5","634","","","","","","","0","0","1","","0.5845689413","0.6","0.2","0.8","0.4","0.3380141995","0.5845689413","0.817303243","0.6910989812","","","","","","","","","","","","","","74","J","1","","","234","main_expt","",""
"","bandit","316","1095452","0.0-276.0-0.0","55016866","wem/bandit_party_2","A189V9652OVX56","either","5","713","","","","","","","0","1","0","","0.4424117598","0.6","0.2","0.8","0.4","0.2949514339","0.4424117598","0.8320050337","0.6506848601","","","","","","","","","","","","","","74","J","1","","","235","main_expt","",""
