"consent","trial_type","trial_index","time_elapsed","internal_node_id","subjID","study","MID","cond","drift","rt","responses","button_pressed","key_press","like","value","connected","gems","bombs","no_reward","GemPrChosen","BombPrChosen","GainOverPainPr_0","GainOverPainPr_1","GainOverPainPr_2","GainOverPainPr_3","LosePr_0","LosePr_1","LosePr_2","LosePr_3","WinPr_0","WinPr_1","WinPr_2","WinPr_3","Q0","Q1","Q2","gender","age","ethnicity","label","expt_phase","target","respCharCode","respKey","respChoiceNum","respChoice","practice","trial_counter","trial_label","Q0_index","view_history"
"GDM/GDM_behavioral_consent_30min_online.html","consent","0","25048","0.0-0.0","55804111","wem/bandit_party_2","A33VGSEJ44ORMF","either","6","","","","","","","","","","","","","","","","","","","","","","","","","","","","","","","","","","","","","","","","","",""
"","survey-text","1","34475","0.0-1.0","55804111","wem/bandit_party_2","A33VGSEJ44ORMF","either","6","8410","{""Q0"":""A33VGSEJ44ORMF""}","","","","","","","","","","","","","","","","","","","","","","","","","","","","","","","","","","","","","","","",""
"","button-response","2","39389","0.0-2.0","55804111","wem/bandit_party_2","A33VGSEJ44ORMF","either","6","3897","","2","","","","","","","","","","","","","","","","","","","","","","","","","","","","","","","","","","","","","","",""
"","text-replacement","3","98586","0.0-3.0","55804111","wem/bandit_party_2","A33VGSEJ44ORMF","either","6","58190","","","32","","","","","","","","","","","","","","","","","","","","","","","","","","","","","","","","","","","","","",""
"","text-replacement","4","107946","0.0-4.0","55804111","wem/bandit_party_2","A33VGSEJ44ORMF","either","6","9350","","","32","","","","","","","","","","","","","","","","","","","","","","","","","","","","","","","","","","","","","",""
"","text-replacement","5","115507","0.0-5.0-0.0","55804111","wem/bandit_party_2","A33VGSEJ44ORMF","either","6","7561","","","32","","","","","","","","","","","","","","","","","","","","","","","","","","","","","","","","","","","","","",""
"","identification","6","124346","0.0-6.0-0.0","55804111","wem/bandit_party_2","A33VGSEJ44ORMF","either","6","8797","","","","3","3","3","","","","","","","","","","","","","","","","","","","","","","","","pre","identification_pre","the Republican Party","","","","","","","","",""
"","identification","7","133089","0.0-6.0-1.0","55804111","wem/bandit_party_2","A33VGSEJ44ORMF","either","6","7720","","","","4","4","4","","","","","","","","","","","","","","","","","","","","","","","","pre","identification_pre","the Democratic Party","","","","","","","","",""
"","text-replacement","8","300531","0.0-7.0","55804111","wem/bandit_party_2","A33VGSEJ44ORMF","either","6","166431","","","32","","","","","","","","","","","","","","","","","","","","","","","","","","","","","","","","","","","","","",""
"","text-replacement","9","313939","0.0-8.0","55804111","wem/bandit_party_2","A33VGSEJ44ORMF","either","6","13398","","","32","","","","","","","","","","","","","","","","","","","","","","","","","","","","","","","","","","","","","",""
"","text-replacement","10","343572","0.0-9.0","55804111","wem/bandit_party_2","A33VGSEJ44ORMF","either","6","29623","","","32","","","","","","","","","","","","","","","","","","","","","","","","","","","","","","","","","","","","","",""
"","text-replacement","11","349791","0.0-10.0","55804111","wem/bandit_party_2","A33VGSEJ44ORMF","either","6","6219","","","32","","","","","","","","","","","","","","","","","","","","","","","","","","","","","","","","","","","","","",""
"","text-replacement","12","354051","0.0-11.0","55804111","wem/bandit_party_2","A33VGSEJ44ORMF","either","6","4260","","","32","","","","","","","","","","","","","","","","","","","","","","","","","","","","","","","","","","","","","",""
"","bandit","13","358249","0.0-12.0-0.0","55804111","wem/bandit_party_2","A33VGSEJ44ORMF","either","6","2680","","","","","","","0","0","1","0","0","","","","","0","","","","0","","","","","","","","","","","","","74","J","0","img/none_selected_demo.jpg","true","0","","",""
"","bandit","14","361602","0.0-13.0-0.0","55804111","wem/bandit_party_2","A33VGSEJ44ORMF","either","6","1834","","","","","","","0","0","1","0","0","","","","","0","","","","0","","","","","","","","","","","","","75","K","0","img/none_selected_demo.jpg","true","0","","",""
"","text-replacement","15","368742","0.0-14.0","55804111","wem/bandit_party_2","A33VGSEJ44ORMF","either","6","7140","","","32","","","","","","","","","","","","","","","","","","","","","","","","","","","","","","","","","","","","","",""
"","text-replacement","16","380342","0.0-15.0","55804111","wem/bandit_party_2","A33VGSEJ44ORMF","either","6","11590","","","32","","","","","","","","","","","","","","","","","","","","","","","","","","","","","","","","","","","","","",""
"","text-replacement","17","387253","0.0-16.0","55804111","wem/bandit_party_2","A33VGSEJ44ORMF","either","6","6910","","","32","","","","","","","","","","","","","","","","","","","","","","","","","","","","","","","","","","","","","",""
"","text-replacement","18","395118","0.0-17.0","55804111","wem/bandit_party_2","A33VGSEJ44ORMF","either","6","7864","","","32","","","","","","","","","","","","","","","","","","","","","","","","","","","","","","","","","","","","","",""
"","bandit","19","398374","0.0-18.0-0.0","55804111","wem/bandit_party_2","A33VGSEJ44ORMF","either","6","1743","","","","","","","0","1","0","","0.8","0.5","0.5","","","0.8","0.2","","","","","","","","","","","","","","","","74","J","0","img/none_selected_demo.jpg","true","0","80_20_practice","",""
"","bandit","20","401637","0.0-18.0-1.0","55804111","wem/bandit_party_2","A33VGSEJ44ORMF","either","6","1753","","","","","","","1","0","0","0.8","","0.5","0.5","","","","","","","0.8","0.2","","","","","","","","","","","","74","J","0","img/none_selected_demo.jpg","true","0","80_20_practice","",""
"","bandit","21","404917","0.0-18.0-2.0","55804111","wem/bandit_party_2","A33VGSEJ44ORMF","either","6","1761","","","","","","","0","0","1","","0.2","0.5","0.5","","","0.8","0.2","","","","","","","","","","","","","","","","75","K","1","","true","0","80_20_practice","",""
"","bandit","22","406865","0.0-18.0-3.0","55804111","wem/bandit_party_2","A33VGSEJ44ORMF","either","6","432","","","","","","","0","1","0","","0.8","0.5","0.5","","","0.8","0.2","","","","","","","","","","","","","","","","74","J","0","img/none_selected_demo.jpg","true","0","80_20_practice","",""
"","bandit","23","408857","0.0-18.0-4.0","55804111","wem/bandit_party_2","A33VGSEJ44ORMF","either","6","482","","","","","","","1","0","0","0.8","","0.5","0.5","","","","","","","0.8","0.2","","","","","","","","","","","","74","J","0","img/none_selected_demo.jpg","true","0","80_20_practice","",""
"","bandit","24","410432","0.0-18.0-5.0","55804111","wem/bandit_party_2","A33VGSEJ44ORMF","either","6","65","","","","","","","0","1","0","","0.8","0.5","0.5","","","0.8","0.2","","","","","","","","","","","","","","","","74","J","0","img/none_selected_demo.jpg","true","0","80_20_practice","",""
"","bandit","25","413015","0.0-18.0-6.0","55804111","wem/bandit_party_2","A33VGSEJ44ORMF","either","6","1054","","","","","","","0","1","0","","0.2","0.5","0.5","","","0.8","0.2","","","","","","","","","","","","","","","","75","K","1","","true","0","80_20_practice","",""
"","bandit","26","415247","0.0-18.0-7.0","55804111","wem/bandit_party_2","A33VGSEJ44ORMF","either","6","722","","","","","","","0","0","1","","0.8","0.5","0.5","","","0.8","0.2","","","","","","","","","","","","","","","","74","J","0","img/none_selected_demo.jpg","true","0","80_20_practice","",""
"","bandit","27","417460","0.0-18.0-8.0","55804111","wem/bandit_party_2","A33VGSEJ44ORMF","either","6","692","","","","","","","1","0","0","0.8","","0.5","0.5","","","","","","","0.8","0.2","","","","","","","","","","","","74","J","0","img/none_selected_demo.jpg","true","0","80_20_practice","",""
"","bandit","28","419794","0.0-18.0-9.0","55804111","wem/bandit_party_2","A33VGSEJ44ORMF","either","6","802","","","","","","","0","1","0","","0.2","0.5","0.5","","","0.8","0.2","","","","","","","","","","","","","","","","75","K","1","","true","0","80_20_practice","",""
"","bandit","29","422142","0.0-18.0-10.0","55804111","wem/bandit_party_2","A33VGSEJ44ORMF","either","6","843","","","","","","","1","0","0","0.8","","0.5","0.5","","","","","","","0.8","0.2","","","","","","","","","","","","74","J","0","img/none_selected_demo.jpg","true","0","80_20_practice","",""
"","bandit","30","424319","0.0-18.0-11.0","55804111","wem/bandit_party_2","A33VGSEJ44ORMF","either","6","667","","","","","","","0","0","1","0.2","","0.5","0.5","","","","","","","0.8","0.2","","","","","","","","","","","","75","K","1","","true","0","80_20_practice","",""
"","bandit","31","426420","0.0-18.0-12.0","55804111","wem/bandit_party_2","A33VGSEJ44ORMF","either","6","583","","","","","","","1","0","0","0.2","","0.5","0.5","","","","","","","0.8","0.2","","","","","","","","","","","","75","K","1","","true","0","80_20_practice","",""
"","bandit","32","428763","0.0-18.0-13.0","55804111","wem/bandit_party_2","A33VGSEJ44ORMF","either","6","833","","","","","","","0","0","1","","0.2","0.5","0.5","","","0.8","0.2","","","","","","","","","","","","","","","","75","K","1","","true","0","80_20_practice","",""
"","bandit","33","430730","0.0-18.0-14.0","55804111","wem/bandit_party_2","A33VGSEJ44ORMF","either","6","459","","","","","","","1","0","0","0.8","","0.5","0.5","","","","","","","0.8","0.2","","","","","","","","","","","","74","J","0","img/none_selected_demo.jpg","true","0","80_20_practice","",""
"","bandit","34","432838","0.0-18.0-15.0","55804111","wem/bandit_party_2","A33VGSEJ44ORMF","either","6","596","","","","","","","1","0","0","0.8","","0.5","0.5","","","","","","","0.8","0.2","","","","","","","","","","","","74","J","0","img/none_selected_demo.jpg","true","0","80_20_practice","",""
"","bandit","35","435547","0.0-18.0-16.0","55804111","wem/bandit_party_2","A33VGSEJ44ORMF","either","6","1200","","","","","","","0","1","0","","0.8","0.5","0.5","","","0.8","0.2","","","","","","","","","","","","","","","","74","J","0","img/none_selected_demo.jpg","true","0","80_20_practice","",""
"","bandit","36","437143","0.0-18.0-17.0","55804111","wem/bandit_party_2","A33VGSEJ44ORMF","either","6","86","","","","","","","0","0","1","0.8","","0.5","0.5","","","","","","","0.8","0.2","","","","","","","","","","","","74","J","0","img/none_selected_demo.jpg","true","0","80_20_practice","",""
"","bandit","37","439137","0.0-18.0-18.0","55804111","wem/bandit_party_2","A33VGSEJ44ORMF","either","6","481","","","","","","","0","1","0","","0.8","0.5","0.5","","","0.8","0.2","","","","","","","","","","","","","","","","74","J","0","img/none_selected_demo.jpg","true","0","80_20_practice","",""
"","bandit","38","441274","0.0-18.0-19.0","55804111","wem/bandit_party_2","A33VGSEJ44ORMF","either","6","623","","","","","","","0","0","1","0.2","","0.5","0.5","","","","","","","0.8","0.2","","","","","","","","","","","","75","K","1","","true","0","80_20_practice","",""
"","text-replacement","39","446025","0.0-19.0","55804111","wem/bandit_party_2","A33VGSEJ44ORMF","either","6","4749","","","32","","","","","","","","","","","","","","","","","","","","","","","","","","","","","","","","","","","","","",""
"","bandit","40","448951","0.0-20.0-0.0","55804111","wem/bandit_party_2","A33VGSEJ44ORMF","either","6","1417","","","","","","","1","0","0","1","0","","","","","0","1","","","1","0","","","","","","","","","","","","74","J","0","img/none_selected_demo.jpg","true","0","","",""
"","text-replacement","41","454546","0.0-21.0","55804111","wem/bandit_party_2","A33VGSEJ44ORMF","either","6","5592","","","32","","","","","","","","","","","","","","","","","","","","","","","","","","","","","","","","","","","","","",""
"","text-replacement","42","458292","0.0-22.0","55804111","wem/bandit_party_2","A33VGSEJ44ORMF","either","6","3735","","","32","","","","","","","","","","","","","","","","","","","","","","","","","","","","","","","","","","","","","",""
"","text-replacement","43","461457","0.0-23.0","55804111","wem/bandit_party_2","A33VGSEJ44ORMF","either","6","3162","","","32","","","","","","","","","","","","","","","","","","","","","","","","","","","","","","","","","","","","","",""
"","text-replacement","44","464659","0.0-24.0","55804111","wem/bandit_party_2","A33VGSEJ44ORMF","either","6","3202","","","32","","","","","","","","","","","","","","","","","","","","","","","","","","","","","","","","","","","","","",""
"","text-replacement","45","468457","0.0-25.0","55804111","wem/bandit_party_2","A33VGSEJ44ORMF","either","6","3798","","","32","","","","","","","","","","","","","","","","","","","","","","","","","","","","","","","","","","","","","",""
"","text-replacement","46","470459","0.0-26.0","55804111","wem/bandit_party_2","A33VGSEJ44ORMF","either","6","2001","","","32","","","","","","","","","","","","","","","","","","","","","","","","","","","","","","","","","","","","","",""
"","text-replacement","47","473031","0.0-27.0","55804111","wem/bandit_party_2","A33VGSEJ44ORMF","either","6","2568","","","32","","","","","","","","","","","","","","","","","","","","","","","","","","","","","","","","","","","","","",""
"","text-replacement","48","476402","0.0-28.0","55804111","wem/bandit_party_2","A33VGSEJ44ORMF","either","6","3367","","","32","","","","","","","","","","","","","","","","","","","","","","","","","","","","","","","","","","","","","",""
"","text-replacement","49","480181","0.0-29.0","55804111","wem/bandit_party_2","A33VGSEJ44ORMF","either","6","3778","","","32","","","","","","","","","","","","","","","","","","","","","","","","","","","","","","","","","","","","","",""
"","text-replacement","50","482712","0.0-30.0","55804111","wem/bandit_party_2","A33VGSEJ44ORMF","either","6","2529","","","32","","","","","","","","","","","","","","","","","","","","","","","","","","","","","","","","","","","","","",""
"","text-replacement","51","485659","0.0-31.0","55804111","wem/bandit_party_2","A33VGSEJ44ORMF","either","6","2947","","","32","","","","","","","","","","","","","","","","","","","","","","","","","","","","","","","","","","","","","",""
"","bandit","52","488192","0.0-32.0-0.0","55804111","wem/bandit_party_2","A33VGSEJ44ORMF","either","6","1027","","","","","","","0","1","0","","0.8","0.5","0.5","0.5","0.5","0.8","0.2","0.6","0.2","","","","","","","","","","","","","","72","H","0","img/none_selected.jpg","true","0","full_practice","",""
"","bandit","53","490611","0.0-32.0-1.0","55804111","wem/bandit_party_2","A33VGSEJ44ORMF","either","6","907","","","","","","","0","1","0","","0.8","0.5","0.5","0.5","0.5","0.8","0.2","0.6","0.2","","","","","","","","","","","","","","72","H","0","img/none_selected.jpg","true","0","full_practice","",""
"","bandit","54","492809","0.0-32.0-2.0","55804111","wem/bandit_party_2","A33VGSEJ44ORMF","either","6","675","","","","","","","0","0","1","0.8","","0.5","0.5","0.5","0.5","","","","","0.8","0.2","0.6","0.2","","","","","","","","","","72","H","0","img/none_selected.jpg","true","0","full_practice","",""
"","bandit","55","494776","0.0-32.0-3.0","55804111","wem/bandit_party_2","A33VGSEJ44ORMF","either","6","462","","","","","","","0","0","1","","0.2","0.5","0.5","0.5","0.5","0.8","0.2","0.6","0.2","","","","","","","","","","","","","","74","J","1","","true","0","full_practice","",""
"","bandit","56","496709","0.0-32.0-4.0","55804111","wem/bandit_party_2","A33VGSEJ44ORMF","either","6","410","","","","","","","0","0","1","","0.2","0.5","0.5","0.5","0.5","0.8","0.2","0.6","0.2","","","","","","","","","","","","","","74","J","1","","true","0","full_practice","",""
"","bandit","57","498720","0.0-32.0-5.0","55804111","wem/bandit_party_2","A33VGSEJ44ORMF","either","6","490","","","","","","","0","0","1","0.2","","0.5","0.5","0.5","0.5","","","","","0.8","0.2","0.6","0.2","","","","","","","","","","74","J","1","","true","0","full_practice","",""
"","bandit","58","500870","0.0-32.0-6.0","55804111","wem/bandit_party_2","A33VGSEJ44ORMF","either","6","634","","","","","","","0","0","1","0.6","","0.5","0.5","0.5","0.5","","","","","0.8","0.2","0.6","0.2","","","","","","","","","","75","K","2","","true","0","full_practice","",""
"","bandit","59","502750","0.0-32.0-7.0","55804111","wem/bandit_party_2","A33VGSEJ44ORMF","either","6","368","","","","","","","0","1","0","","0.6","0.5","0.5","0.5","0.5","0.8","0.2","0.6","0.2","","","","","","","","","","","","","","75","K","2","","true","0","full_practice","",""
"","bandit","60","504629","0.0-32.0-8.0","55804111","wem/bandit_party_2","A33VGSEJ44ORMF","either","6","368","","","","","","","0","0","1","","0.6","0.5","0.5","0.5","0.5","0.8","0.2","0.6","0.2","","","","","","","","","","","","","","75","K","2","","true","0","full_practice","",""
"","bandit","61","506738","0.0-32.0-9.0","55804111","wem/bandit_party_2","A33VGSEJ44ORMF","either","6","597","","","","","","","0","0","1","","0.2","0.5","0.5","0.5","0.5","0.8","0.2","0.6","0.2","","","","","","","","","","","","","","76","L","3","","true","0","full_practice","",""
"","bandit","62","508599","0.0-32.0-10.0","55804111","wem/bandit_party_2","A33VGSEJ44ORMF","either","6","338","","","","","","","0","0","1","0.2","","0.5","0.5","0.5","0.5","","","","","0.8","0.2","0.6","0.2","","","","","","","","","","76","L","3","","true","0","full_practice","",""
"","bandit","63","510599","0.0-32.0-11.0","55804111","wem/bandit_party_2","A33VGSEJ44ORMF","either","6","490","","","","","","","0","0","1","0.2","","0.5","0.5","0.5","0.5","","","","","0.8","0.2","0.6","0.2","","","","","","","","","","76","L","3","","true","0","full_practice","",""
"","bandit","64","512663","0.0-32.0-12.0","55804111","wem/bandit_party_2","A33VGSEJ44ORMF","either","6","559","","","","","","","0","1","0","","0.8","0.5","0.5","0.5","0.5","0.8","0.2","0.6","0.2","","","","","","","","","","","","","","72","H","0","img/none_selected.jpg","true","0","full_practice","",""
"","bandit","65","514791","0.0-32.0-13.0","55804111","wem/bandit_party_2","A33VGSEJ44ORMF","either","6","618","","","","","","","0","0","1","","0.2","0.5","0.5","0.5","0.5","0.8","0.2","0.6","0.2","","","","","","","","","","","","","","74","J","1","","true","0","full_practice","",""
"","bandit","66","516881","0.0-32.0-14.0","55804111","wem/bandit_party_2","A33VGSEJ44ORMF","either","6","578","","","","","","","0","0","1","","0.6","0.5","0.5","0.5","0.5","0.8","0.2","0.6","0.2","","","","","","","","","","","","","","75","K","2","","true","0","full_practice","",""
"","bandit","67","518779","0.0-32.0-15.0","55804111","wem/bandit_party_2","A33VGSEJ44ORMF","either","6","382","","","","","","","1","0","0","0.2","","0.5","0.5","0.5","0.5","","","","","0.8","0.2","0.6","0.2","","","","","","","","","","76","L","3","","true","0","full_practice","",""
"","bandit","68","521254","0.0-32.0-16.0","55804111","wem/bandit_party_2","A33VGSEJ44ORMF","either","6","963","","","","","","","1","0","0","0.8","","0.5","0.5","0.5","0.5","","","","","0.8","0.2","0.6","0.2","","","","","","","","","","72","H","0","img/none_selected.jpg","true","0","full_practice","",""
"","bandit","69","523272","0.0-32.0-17.0","55804111","wem/bandit_party_2","A33VGSEJ44ORMF","either","6","498","","","","","","","0","1","0","","0.8","0.5","0.5","0.5","0.5","0.8","0.2","0.6","0.2","","","","","","","","","","","","","","72","H","0","img/none_selected.jpg","true","0","full_practice","",""
"","bandit","70","525357","0.0-32.0-18.0","55804111","wem/bandit_party_2","A33VGSEJ44ORMF","either","6","572","","","","","","","0","1","0","","0.8","0.5","0.5","0.5","0.5","0.8","0.2","0.6","0.2","","","","","","","","","","","","","","72","H","0","img/none_selected.jpg","true","0","full_practice","",""
"","bandit","71","527336","0.0-32.0-19.0","55804111","wem/bandit_party_2","A33VGSEJ44ORMF","either","6","468","","","","","","","1","0","0","0.8","","0.5","0.5","0.5","0.5","","","","","0.8","0.2","0.6","0.2","","","","","","","","","","72","H","0","img/none_selected.jpg","true","0","full_practice","",""
"","text","72","534035","0.0-33.0","55804111","wem/bandit_party_2","A33VGSEJ44ORMF","either","6","6688","","","32","","","","","","","","","","","","","","","","","","","","","","","","","","","","","","","","","","","","","",""
"","text-replacement","73","546452","0.0-34.0","55804111","wem/bandit_party_2","A33VGSEJ44ORMF","either","6","11413","","","32","","","","","","","","","","","","","","","","","","","","","","","","","","","","","","","","","","","","","",""
"","text-replacement","74","558152","0.0-35.0","55804111","wem/bandit_party_2","A33VGSEJ44ORMF","either","6","11699","","","32","","","","","","","","","","","","","","","","","","","","","","","","","","","","","","","","","","","","","",""
"","text-replacement","75","563345","0.0-36.0","55804111","wem/bandit_party_2","A33VGSEJ44ORMF","either","6","5192","","","32","","","","","","","","","","","","","","","","","","","","","","","","","","","","","","","","","","","","","",""
"","text-replacement","76","572173","0.0-37.0","55804111","wem/bandit_party_2","A33VGSEJ44ORMF","either","6","8823","","","32","","","","","","","","","","","","","","","","","","","","","","","","","","","","","","","","","","","","","",""
"","text-replacement","77","576584","0.0-38.0","55804111","wem/bandit_party_2","A33VGSEJ44ORMF","either","6","4411","","","32","","","","","","","","","","","","","","","","","","","","","","","","","","","","","","","","","","","","","",""
"","survey-multi-choice-replacement","78","590064","0.0-39.0-0.0","55804111","wem/bandit_party_2","A33VGSEJ44ORMF","either","6","13470","","","","","","","","","","","","","","","","","","","","","","","","Equal amounts of money will be added to the pool for <span style='color:blue;'>DEMOCRATS</span> and subtracted from the pool for <span style='color:red;'>REPUBLICANS</span>","","","","","","","attn_check","","","","","","","","","2",""
"","instructions","79","593651","0.0-39.0-1.0-0.0","55804111","wem/bandit_party_2","A33VGSEJ44ORMF","either","6","2571","","","","","","","","","","","","","","","","","","","","","","","","","","","","","","","","","","","","","","","","","[{""page_index"":0,""viewing_time"":2570}]"
"","survey-multi-choice-replacement","80","599304","0.0-39.1-0.1","55804111","wem/bandit_party_2","A33VGSEJ44ORMF","either","6","4627","","","","","","","","","","","","","","","","","","","","","","","","Money will be added to the pool for <span style='color:blue;'>DEMOCRATS</span>","","","","","","","attn_check","","","","","","","","","0",""
"","survey-multi-choice-replacement","81","614650","0.0-40.0-0.0","55804111","wem/bandit_party_2","A33VGSEJ44ORMF","either","6","14321","","","","","","","","","","","","","","","","","","","","","","","","Equal amounts of money will be added to the pool for <span style='color:blue;'>DEMOCRATS</span> and subtracted from the pool for <span style='color:red;'>REPUBLICANS</span>","","","","","","","attn_check","","","","","","","","","2",""
"","survey-multi-choice-replacement","82","620836","0.0-41.0-0.0","55804111","wem/bandit_party_2","A33VGSEJ44ORMF","either","6","5167","","","","","","","","","","","","","","","","","","","","","","","","No money will be added to either pool","","","","","","","attn_check","","","","","","","","","3",""
"","bandit","83","626329","0.0-42.0-0.0","55804111","wem/bandit_party_2","A33VGSEJ44ORMF","either","6","2956","","","","","","","0","0","1","","0.2309914537","0.6","0.4","0.8","0.2","0.2309914537","0.1947351938","0.3049938501","0.7197236342","","","","","","","","","","","","","","72","H","0","img/none_selected.jpg","","1","main_expt","",""
"","bandit","84","628735","0.0-43.0-0.0","55804111","wem/bandit_party_2","A33VGSEJ44ORMF","either","6","891","","","","","","","0","0","1","","0.2351366282","0.6","0.4","0.8","0.2","0.2351366282","0.1865171684","0.3105507028","0.7453792406","","","","","","","","","","","","","","72","H","0","img/none_selected.jpg","","2","main_expt","",""
"","bandit","85","630642","0.0-44.0-0.0","55804111","wem/bandit_party_2","A33VGSEJ44ORMF","either","6","396","","","","","","","0","1","0","","0.1578482069","0.6","0.4","0.8","0.2","0.3338792953","0.1578482069","0.347932066","0.7422746785","","","","","","","","","","","","","","74","J","1","","","3","main_expt","",""
"","bandit","86","632541","0.0-45.0-0.0","55804111","wem/bandit_party_2","A33VGSEJ44ORMF","either","6","389","","","","","","","0","0","1","","0.1733557992","0.6","0.4","0.8","0.2","0.2578124611","0.1733557992","0.294099503","0.8152876082","","","","","","","","","","","","","","74","J","1","","","4","main_expt","",""
"","bandit","87","634445","0.0-46.0-0.0","55804111","wem/bandit_party_2","A33VGSEJ44ORMF","either","6","392","","","","","","","0","0","1","","0.256228135","0.6","0.4","0.8","0.2","0.152782507","0.1275681293","0.256228135","0.8494846052","","","","","","","","","","","","","","75","K","2","","","5","main_expt","",""
"","bandit","88","636367","0.0-47.0-0.0","55804111","wem/bandit_party_2","A33VGSEJ44ORMF","either","6","410","","","","","","","0","1","0","","0.8036792828","0.6","0.4","0.8","0.2","0.200224935","0.1776351543","0.3142053347","0.8036792828","","","","","","","","","","","","","","76","L","3","","","6","main_expt","",""
"","bandit","89","638343","0.0-48.0-0.0","55804111","wem/bandit_party_2","A33VGSEJ44ORMF","either","6","462","","","","","","","0","1","0","","0.8659664865","0.6","0.4","0.8","0.2","0.2200442108","0.1412615145","0.2382568898","0.8659664865","","","","","","","","","","","","","","76","L","3","","","7","main_expt","",""
"","bandit","90","640234","0.0-49.0-0.0","55804111","wem/bandit_party_2","A33VGSEJ44ORMF","either","6","372","","","","","","","0","1","0","","0.8475436228","0.6","0.4","0.8","0.2","0.1516915951","0.1508054742","0.220471749","0.8475436228","","","","","","","","","","","","","","76","L","3","","","8","main_expt","",""
"","bandit","91","642129","0.0-50.0-0.0","55804111","wem/bandit_party_2","A33VGSEJ44ORMF","either","6","377","","","","","","","0","0","1","","0.8034999265","0.6","0.4","0.8","0.2","0.1468829212","0.1882404854","0.2842820234","0.8034999265","","","","","","","","","","","","","","76","L","3","","","9","main_expt","",""
"","bandit","92","643729","0.0-51.0-0.0","55804111","wem/bandit_party_2","A33VGSEJ44ORMF","either","6","78","","","","","","","0","0","1","","0.1731305678","0.6","0.4","0.8","0.2","0.1507643719","0.1731305678","0.3392415315","0.7148412232","","","","","","","","","","","","","","74","J","1","","","10","main_expt","",""
"","bandit","93","645390","0.0-52.0-0.0","55804111","wem/bandit_party_2","A33VGSEJ44ORMF","either","6","140","","","","","","","0","0","1","","0.4470346709","0.6","0.4","0.8","0.2","0.18301","0.2475279461","0.4470346709","0.7213030285","","","","","","","","","","","","","","75","K","2","","","11","main_expt","",""
"","bandit","94","647339","0.0-53.0-0.0","55804111","wem/bandit_party_2","A33VGSEJ44ORMF","either","6","438","","","","","","","0","0","1","","0.209562337","0.6","0.4","0.8","0.2","0.209562337","0.2068792089","0.5143820195","0.7396148754","","","","","","","","","","","","","","72","H","0","img/none_selected.jpg","","12","main_expt","",""
"","bandit","95","648856","0.0-54.0-0.0","55804111","wem/bandit_party_2","A33VGSEJ44ORMF","either","6","4","","","","","","","0","1","0","","0.6870781676","0.6","0.4","0.8","0.2","0.2133897639","0.1594062408","0.4934308908","0.6870781676","","","","","","","","","","","","","","76","L","3","","","13","main_expt","",""
"","bandit","96","650786","0.0-55.0-0.0","55804111","wem/bandit_party_2","A33VGSEJ44ORMF","either","6","412","","","","","","","0","0","1","","0.6561171826","0.6","0.4","0.8","0.2","0.1865122749","0.1808320347","0.5884397519","0.6561171826","","","","","","","","","","","","","","76","L","3","","","14","main_expt","",""
"","bandit","97","652744","0.0-56.0-0.0","55804111","wem/bandit_party_2","A33VGSEJ44ORMF","either","6","448","","","","","","","0","1","0","","0.6255101569","0.6","0.4","0.8","0.2","0.3169691733","0.2401125286","0.425765204","0.6255101569","","","","","","","","","","","","","","76","L","3","","","15","main_expt","",""
"","bandit","98","654606","0.0-57.0-0.0","55804111","wem/bandit_party_2","A33VGSEJ44ORMF","either","6","345","","","","","","","0","1","0","","0.6101220295","0.6","0.4","0.8","0.2","0.3927767979","0.1823220599","0.4458974369","0.6101220295","","","","","","","","","","","","","","76","L","3","","","16","main_expt","",""
"","bandit","99","656664","0.0-58.0-0.0","55804111","wem/bandit_party_2","A33VGSEJ44ORMF","either","6","546","","","","","","","0","1","0","","0.6233337625","0.6","0.4","0.8","0.2","0.2882183284","0.2076179308","0.4907358526","0.6233337625","","","","","","","","","","","","","","76","L","3","","","17","main_expt","",""
"","bandit","100","658646","0.0-59.0-0.0","55804111","wem/bandit_party_2","A33VGSEJ44ORMF","either","6","474","","","","","","","0","1","0","","0.598865074","0.6","0.4","0.8","0.2","0.3212622409","0.2310064443","0.4895096529","0.598865074","","","","","","","","","","","","","","76","L","3","","","18","main_expt","",""
"","bandit","101","660584","0.0-60.0-0.0","55804111","wem/bandit_party_2","A33VGSEJ44ORMF","either","6","424","","","","","","","0","0","1","","0.6318918302","0.6","0.4","0.8","0.2","0.3678238944","0.1919199612","0.5437378015","0.6318918302","","","","","","","","","","","","","","76","L","3","","","19","main_expt","",""
"","bandit","102","662429","0.0-61.0-0.0","55804111","wem/bandit_party_2","A33VGSEJ44ORMF","either","6","320","","","","","","","0","1","0","","0.5667690756","0.6","0.4","0.8","0.2","0.4357360734","0.2150176637","0.543071052","0.5667690756","","","","","","","","","","","","","","76","L","3","","","20","main_expt","",""
"","bandit","103","664345","0.0-62.0-0.0","55804111","wem/bandit_party_2","A33VGSEJ44ORMF","either","6","405","","","","","","","0","0","1","0.6364396753","","0.6","0.4","0.8","0.2","","","","","0.4486518506","0.2980309021","0.5457928974","0.6364396753","","","","","","","","","","76","L","3","","","21","main_expt","",""
"","bandit","104","666266","0.0-63.0-0.0","55804111","wem/bandit_party_2","A33VGSEJ44ORMF","either","6","404","","","","","","","0","0","1","0.5563436533","","0.6","0.4","0.8","0.2","","","","","0.5145372488","0.3238742104","0.4531799458","0.5563436533","","","","","","","","","","76","L","3","","","22","main_expt","",""
"","bandit","105","668335","0.0-64.0-0.0","55804111","wem/bandit_party_2","A33VGSEJ44ORMF","either","6","551","","","","","","","0","0","1","0.4158928209","","0.6","0.4","0.8","0.2","","","","","0.6324996067","0.4158928209","0.4321579995","0.4555064456","","","","","","","","","","74","J","1","","","23","main_expt","",""
"","bandit","106","670267","0.0-65.0-0.0","55804111","wem/bandit_party_2","A33VGSEJ44ORMF","either","6","422","","","","","","","1","0","0","0.3892872195","","0.6","0.4","0.8","0.2","","","","","0.6665025749","0.2798670784","0.3892872195","0.4398961724","","","","","","","","","","75","K","2","","","24","main_expt","",""
"","bandit","107","672177","0.0-66.0-0.0","55804111","wem/bandit_party_2","A33VGSEJ44ORMF","either","6","388","","","","","","","0","0","1","0.4322880781","","0.6","0.4","0.8","0.2","","","","","0.5316582614","0.3932164435","0.4322880781","0.3810464824","","","","","","","","","","75","K","2","","","25","main_expt","",""
"","bandit","108","674099","0.0-67.0-0.0","55804111","wem/bandit_party_2","A33VGSEJ44ORMF","either","6","418","","","","","","","0","1","0","","0.451695138","0.6","0.4","0.8","0.2","0.4282094451","0.3243459504","0.4560392573","0.451695138","","","","","","","","","","","","","","76","L","3","","","26","main_expt","",""
"","bandit","109","676063","0.0-68.0-0.0","55804111","wem/bandit_party_2","A33VGSEJ44ORMF","either","6","447","","","","","","","0","1","0","","0.5372901799","0.6","0.4","0.8","0.2","0.4711380508","0.4266302179","0.5372901799","0.4423729324","","","","","","","","","","","","","","75","K","2","","","27","main_expt","",""
"","bandit","110","677965","0.0-69.0-0.0","55804111","wem/bandit_party_2","A33VGSEJ44ORMF","either","6","382","","","","","","","1","0","0","0.4221124674","","0.6","0.4","0.8","0.2","","","","","0.4539290932","0.4206607535","0.6619872032","0.4221124674","","","","","","","","","","76","L","3","","","28","main_expt","",""
"","bandit","111","679958","0.0-70.0-0.0","55804111","wem/bandit_party_2","A33VGSEJ44ORMF","either","6","476","","","","","","","1","0","0","0.5939885142","","0.6","0.4","0.8","0.2","","","","","0.4378511583","0.440099583","0.5939885142","0.489207998","","","","","","","","","","75","K","2","","","29","main_expt","",""
"","bandit","112","681889","0.0-71.0-0.0","55804111","wem/bandit_party_2","A33VGSEJ44ORMF","either","6","413","","","","","","","0","0","1","0.4406356357","","0.6","0.4","0.8","0.2","","","","","0.3425428874","0.3982168329","0.5602145404","0.4406356357","","","","","","","","","","76","L","3","","","30","main_expt","",""
"","bandit","113","683909","0.0-72.0-0.0","55804111","wem/bandit_party_2","A33VGSEJ44ORMF","either","6","494","","","","","","","0","0","1","0.5376870091","","0.6","0.4","0.8","0.2","","","","","0.2354865125","0.3573437221","0.5376870091","0.484130952","","","","","","","","","","75","K","2","","","31","main_expt","",""
"","bandit","114","685757","0.0-73.0-0.0","55804111","wem/bandit_party_2","A33VGSEJ44ORMF","either","6","333","","","","","","","0","0","1","","0.432294219","0.6","0.4","0.8","0.2","0.2552437171","0.3712986889","0.6346195819","0.432294219","","","","","","","","","","","","","","76","L","3","","","32","main_expt","",""
"","bandit","115","687899","0.0-74.0-0.0","55804111","wem/bandit_party_2","A33VGSEJ44ORMF","either","6","628","","","","","","","0","0","1","","0.45096985","0.6","0.4","0.8","0.2","0.2470382599","0.45096985","0.7540961955","0.4821309474","","","","","","","","","","","","","","74","J","1","","","33","main_expt","",""
"","bandit","116","690133","0.0-75.0-0.0","55804111","wem/bandit_party_2","A33VGSEJ44ORMF","either","6","720","","","","","","","0","0","1","","0.2951894024","0.6","0.4","0.8","0.2","0.2951894024","0.5559331637","0.699797925","0.4702474349","","","","","","","","","","","","","","72","H","0","img/none_selected.jpg","","34","main_expt","",""
"","bandit","117","691765","0.0-76.0-0.0","55804111","wem/bandit_party_2","A33VGSEJ44ORMF","either","6","107","","","","","","","1","0","0","0.5363697359","","0.6","0.4","0.8","0.2","","","","","0.2596626779","0.7354386419","0.7410295452","0.5363697359","","","","","","","","","","76","L","3","","","35","main_expt","",""
"","bandit","118","693701","0.0-77.0-0.0","55804111","wem/bandit_party_2","A33VGSEJ44ORMF","either","6","427","","","","","","","1","0","0","0.602250539","","0.6","0.4","0.8","0.2","","","","","0.3164764808","0.6934166837","0.7332281969","0.602250539","","","","","","","","","","76","L","3","","","36","main_expt","",""
"","bandit","119","695613","0.0-78.0-0.0","55804111","wem/bandit_party_2","A33VGSEJ44ORMF","either","6","390","","","","","","","0","1","0","","0.5337433964","0.6","0.4","0.8","0.2","0.3672962009","0.6311869688","0.736713329","0.5337433964","","","","","","","","","","","","","","76","L","3","","","37","main_expt","",""
"","bandit","120","697499","0.0-79.0-0.0","55804111","wem/bandit_party_2","A33VGSEJ44ORMF","either","6","373","","","","","","","0","1","0","","0.5970413872","0.6","0.4","0.8","0.2","0.4056598401","0.6583504975","0.6860808007","0.5970413872","","","","","","","","","","","","","","76","L","3","","","38","main_expt","",""
"","bandit","121","699367","0.0-80.0-0.0","55804111","wem/bandit_party_2","A33VGSEJ44ORMF","either","6","360","","","","","","","0","1","0","","0.6529448079","0.6","0.4","0.8","0.2","0.4236995386","0.5861321806","0.7498761973","0.6529448079","","","","","","","","","","","","","","76","L","3","","","39","main_expt","",""
"","bandit","122","701262","0.0-81.0-0.0","55804111","wem/bandit_party_2","A33VGSEJ44ORMF","either","6","383","","","","","","","0","0","1","","0.6612991154","0.6","0.4","0.8","0.2","0.4365163158","0.4892836735","0.7043283504","0.6612991154","","","","","","","","","","","","","","76","L","3","","","40","main_expt","",""
"","bandit","123","703185","0.0-82.0-0.0","55804111","wem/bandit_party_2","A33VGSEJ44ORMF","either","6","400","","","","","","","0","0","1","","0.7390431107","0.6","0.4","0.8","0.2","0.4854269132","0.3479900608","0.6469690382","0.7390431107","","","","","","","","","","","","","","76","L","3","","","41","main_expt","",""
"","bandit","124","705837","0.0-83.0-0.0","55804111","wem/bandit_party_2","A33VGSEJ44ORMF","either","6","1131","","","","","","","1","0","0","0.6388905256","","0.6","0.4","0.8","0.2","","","","","0.4753587859","0.376709287","0.6388905256","0.7609423287","","","","","","","","","","75","K","2","","","42","main_expt","",""
"","bandit","125","707754","0.0-84.0-0.0","55804111","wem/bandit_party_2","A33VGSEJ44ORMF","either","6","402","","","","","","","0","0","1","0.6383372244","","0.6","0.4","0.8","0.2","","","","","0.452202747","0.4319300722","0.6383372244","0.8039673949","","","","","","","","","","75","K","2","","","43","main_expt","",""
"","bandit","126","710023","0.0-85.0-0.0","55804111","wem/bandit_party_2","A33VGSEJ44ORMF","either","6","750","","","","","","","0","0","1","0.6247854939","","0.6","0.4","0.8","0.2","","","","","0.5522191005","0.4458636389","0.6247854939","0.8216753652","","","","","","","","","","75","K","2","","","44","main_expt","",""
"","bandit","127","711626","0.0-86.0-0.0","55804111","wem/bandit_party_2","A33VGSEJ44ORMF","either","6","88","","","","","","","1","0","0","0.7636866317","","0.6","0.4","0.8","0.2","","","","","0.4878962787","0.4323480181","0.6341880498","0.7636866317","","","","","","","","","","76","L","3","","","45","main_expt","",""
"","bandit","128","719264","0.0-87.0-0.0","55804111","wem/bandit_party_2","A33VGSEJ44ORMF","either","6","6111","","","","","","","0","1","0","","0.8203755575","0.6","0.4","0.8","0.2","0.487595293","0.4348202433","0.5081310512","0.8203755575","","","","","","","","","","","","","","76","L","3","","","46","main_expt","",""
"","bandit","129","721345","0.0-88.0-0.0","55804111","wem/bandit_party_2","A33VGSEJ44ORMF","either","6","571","","","","","","","0","1","0","","0.8706375764","0.6","0.4","0.8","0.2","0.444754188","0.3430847618","0.4202927251","0.8706375764","","","","","","","","","","","","","","76","L","3","","","47","main_expt","",""
"","bandit","130","723206","0.0-89.0-0.0","55804111","wem/bandit_party_2","A33VGSEJ44ORMF","either","6","348","","","","","","","0","1","0","","0.8019506245","0.6","0.4","0.8","0.2","0.5044276746","0.2601977795","0.4767868938","0.8019506245","","","","","","","","","","","","","","76","L","3","","","48","main_expt","",""
"","bandit","131","725110","0.0-90.0-0.0","55804111","wem/bandit_party_2","A33VGSEJ44ORMF","either","6","386","","","","","","","1","0","0","0.7331224435","","0.6","0.4","0.8","0.2","","","","","0.3766714482","0.2368144698","0.3749468019","0.7331224435","","","","","","","","","","76","L","3","","","49","main_expt","",""
"","bandit","132","727175","0.0-91.0-0.0","55804111","wem/bandit_party_2","A33VGSEJ44ORMF","either","6","547","","","","","","","0","1","0","","0.7908344101","0.6","0.4","0.8","0.2","0.406992786","0.2484527115","0.3532902347","0.7908344101","","","","","","","","","","","","","","76","L","3","","","50","main_expt","",""
"","bandit","133","729087","0.0-92.0-0.0","55804111","wem/bandit_party_2","A33VGSEJ44ORMF","either","6","390","","","","","","","0","0","1","","0.7922828235","0.6","0.4","0.8","0.2","0.3854505747","0.230268934","0.2413466802","0.7922828235","","","","","","","","","","","","","","76","L","3","","","51","main_expt","",""
"","bandit","134","730976","0.0-93.0-0.0","55804111","wem/bandit_party_2","A33VGSEJ44ORMF","either","6","369","","","","","","","1","0","0","0.2673723166","","0.6","0.4","0.8","0.2","","","","","0.3956915145","0.3429002399","0.2673723166","0.7485378942","","","","","","","","","","75","K","2","","","52","main_expt","",""
"","bandit","135","732849","0.0-94.0-0.0","55804111","wem/bandit_party_2","A33VGSEJ44ORMF","either","6","357","","","","","","","0","0","1","0.2806035608","","0.6","0.4","0.8","0.2","","","","","0.3062348001","0.2871029552","0.2806035608","0.6603794952","","","","","","","","","","75","K","2","","","53","main_expt","",""
"","bandit","136","734626","0.0-95.0-0.0","55804111","wem/bandit_party_2","A33VGSEJ44ORMF","either","6","260","","","","","","","0","1","0","","0.6931449795","0.6","0.4","0.8","0.2","0.2996500993","0.2594444468","0.2544312064","0.6931449795","","","","","","","","","","","","","","76","L","3","","","54","main_expt","",""
"","bandit","137","736419","0.0-96.0-0.0","55804111","wem/bandit_party_2","A33VGSEJ44ORMF","either","6","276","","","","","","","0","1","0","","0.7553272845","0.6","0.4","0.8","0.2","0.2518247787","0.3333749245","0.3362815808","0.7553272845","","","","","","","","","","","","","","76","L","3","","","55","main_expt","",""
"","bandit","138","738485","0.0-97.0-0.0","55804111","wem/bandit_party_2","A33VGSEJ44ORMF","either","6","542","","","","","","","0","0","1","0.7231548626","","0.6","0.4","0.8","0.2","","","","","0.3014763065","0.3049104067","0.3798256012","0.7231548626","","","","","","","","","","76","L","3","","","56","main_expt","",""
"","bandit","139","740316","0.0-98.0-0.0","55804111","wem/bandit_party_2","A33VGSEJ44ORMF","either","6","320","","","","","","","0","0","1","","0.7485901337","0.6","0.4","0.8","0.2","0.2730843718","0.3623273811","0.3989549393","0.7485901337","","","","","","","","","","","","","","76","L","3","","","57","main_expt","",""
"","bandit","140","742941","0.0-99.0-0.0","55804111","wem/bandit_party_2","A33VGSEJ44ORMF","either","6","1101","","","","","","","1","0","0","0.3373398956","","0.6","0.4","0.8","0.2","","","","","0.367239041","0.3621169042","0.3373398956","0.797082508","","","","","","","","","","75","K","2","","","58","main_expt","",""
"","bandit","141","744822","0.0-100.0-0.0","55804111","wem/bandit_party_2","A33VGSEJ44ORMF","either","6","347","","","","","","","0","1","0","","0.7466963627","0.6","0.4","0.8","0.2","0.4005220403","0.3672848169","0.3381045731","0.7466963627","","","","","","","","","","","","","","76","L","3","","","59","main_expt","",""
"","bandit","142","746690","0.0-101.0-0.0","55804111","wem/bandit_party_2","A33VGSEJ44ORMF","either","6","354","","","","","","","0","1","0","","0.6359615323","0.6","0.4","0.8","0.2","0.4863912708","0.5123874715","0.4838111383","0.6359615323","","","","","","","","","","","","","","76","L","3","","","60","main_expt","",""
"","bandit","143","748591","0.0-102.0-0.0","55804111","wem/bandit_party_2","A33VGSEJ44ORMF","either","6","385","","","","","","","0","1","0","","0.7125939799","0.6","0.4","0.8","0.2","0.5220595343","0.5218319631","0.4290776342","0.7125939799","","","","","","","","","","","","","","76","L","3","","","61","main_expt","",""
"","bandit","144","750519","0.0-103.0-0.0","55804111","wem/bandit_party_2","A33VGSEJ44ORMF","either","6","412","","","","","","","0","0","1","0.5978650666","","0.6","0.4","0.8","0.2","","","","","0.5447889898","0.6482151027","0.4387439774","0.5978650666","","","","","","","","","","76","L","3","","","62","main_expt","",""
"","bandit","145","752438","0.0-104.0-0.0","55804111","wem/bandit_party_2","A33VGSEJ44ORMF","either","6","383","","","","","","","1","0","0","0.3670418014","","0.6","0.4","0.8","0.2","","","","","0.5517390004","0.6966290852","0.3670418014","0.5166338879","","","","","","","","","","75","K","2","","","63","main_expt","",""
"","bandit","146","754302","0.0-105.0-0.0","55804111","wem/bandit_party_2","A33VGSEJ44ORMF","either","6","341","","","","","","","0","0","1","","0.4901650138","0.6","0.4","0.8","0.2","0.6576188384","0.6497033777","0.3470393933","0.4901650138","","","","","","","","","","","","","","76","L","3","","","64","main_expt","",""
"","bandit","147","756144","0.0-106.0-0.0","55804111","wem/bandit_party_2","A33VGSEJ44ORMF","either","6","327","","","","","","","0","0","1","0.3361574661","","0.6","0.4","0.8","0.2","","","","","0.5156176703","0.6925184903","0.3361574661","0.459365688","","","","","","","","","","75","K","2","","","65","main_expt","",""
"","bandit","148","758065","0.0-107.0-0.0","55804111","wem/bandit_party_2","A33VGSEJ44ORMF","either","6","401","","","","","","","0","1","0","","0.4666104807","0.6","0.4","0.8","0.2","0.3851410914","0.8298767513","0.34308242","0.4666104807","","","","","","","","","","","","","","76","L","3","","","66","main_expt","",""
"","bandit","149","759949","0.0-108.0-0.0","55804111","wem/bandit_party_2","A33VGSEJ44ORMF","either","6","377","","","","","","","0","1","0","","0.5547259005","0.6","0.4","0.8","0.2","0.3925250542","0.8506596021","0.3730603492","0.5547259005","","","","","","","","","","","","","","76","L","3","","","67","main_expt","",""
"","bandit","150","761906","0.0-109.0-0.0","55804111","wem/bandit_party_2","A33VGSEJ44ORMF","either","6","436","","","","","","","0","1","0","","0.6038719492","0.6","0.4","0.8","0.2","0.3884113518","0.8536910832","0.4089949532","0.6038719492","","","","","","","","","","","","","","76","L","3","","","68","main_expt","",""
"","bandit","151","763840","0.0-110.0-0.0","55804111","wem/bandit_party_2","A33VGSEJ44ORMF","either","6","419","","","","","","","0","0","1","","0.6148283845","0.6","0.4","0.8","0.2","0.3434478979","0.8642538991","0.3749002533","0.6148283845","","","","","","","","","","","","","","76","L","3","","","69","main_expt","",""
"","bandit","152","766106","0.0-111.0-0.0","55804111","wem/bandit_party_2","A33VGSEJ44ORMF","either","6","740","","","","","","","0","1","0","","0.4133869845","0.6","0.4","0.8","0.2","0.4426642051","0.8073802352","0.4133869845","0.6683283761","","","","","","","","","","","","","","75","K","2","","","70","main_expt","",""
"","bandit","153","768552","0.0-112.0-0.0","55804111","wem/bandit_party_2","A33VGSEJ44ORMF","either","6","929","","","","","","","0","0","1","","0.3302164541","0.6","0.4","0.8","0.2","0.4518046004","0.8059201048","0.3302164541","0.738459761","","","","","","","","","","","","","","75","K","2","","","71","main_expt","",""
"","bandit","154","770451","0.0-113.0-0.0","55804111","wem/bandit_party_2","A33VGSEJ44ORMF","either","6","383","","","","","","","0","1","0","","0.6525166508","0.6","0.4","0.8","0.2","0.4903223245","0.8262275011","0.2570952275","0.6525166508","","","","","","","","","","","","","","76","L","3","","","72","main_expt","",""
"","bandit","155","772484","0.0-114.0-0.0","55804111","wem/bandit_party_2","A33VGSEJ44ORMF","either","6","515","","","","","","","0","1","0","","0.5715134512","0.6","0.4","0.8","0.2","0.5296083002","0.7334390718","0.2042885023","0.5715134512","","","","","","","","","","","","","","76","L","3","","","73","main_expt","",""
"","bandit","156","774445","0.0-115.0-0.0","55804111","wem/bandit_party_2","A33VGSEJ44ORMF","either","6","448","","","","","","","0","1","0","","0.6228045854","0.6","0.4","0.8","0.2","0.4883026933","0.7490977197","0.2152837516","0.6228045854","","","","","","","","","","","","","","76","L","3","","","74","main_expt","",""
"","bandit","157","776419","0.0-116.0-0.0","55804111","wem/bandit_party_2","A33VGSEJ44ORMF","either","6","453","","","","","","","0","0","1","0.613630376","","0.6","0.4","0.8","0.2","","","","","0.4914171484","0.7554087461","0.2044775694","0.613630376","","","","","","","","","","76","L","3","","","75","main_expt","",""
"","bandit","158","778277","0.0-117.0-0.0","55804111","wem/bandit_party_2","A33VGSEJ44ORMF","either","6","339","","","","","","","0","1","0","","0.7047266053","0.6","0.4","0.8","0.2","0.6059218973","0.804443878","0.2247613499","0.7047266053","","","","","","","","","","","","","","76","L","3","","","76","main_expt","",""
"","bandit","159","780164","0.0-118.0-0.0","55804111","wem/bandit_party_2","A33VGSEJ44ORMF","either","6","373","","","","","","","0","1","0","","0.6910360943","0.6","0.4","0.8","0.2","0.553792366","0.6656620098","0.2266335256","0.6910360943","","","","","","","","","","","","","","76","L","3","","","77","main_expt","",""
"","bandit","160","782069","0.0-119.0-0.0","55804111","wem/bandit_party_2","A33VGSEJ44ORMF","either","6","388","","","","","","","0","0","1","","0.5515992215","0.6","0.4","0.8","0.2","0.6884193839","0.5898140708","0.1659731505","0.5515992215","","","","","","","","","","","","","","76","L","3","","","78","main_expt","",""
"","bandit","161","783835","0.0-120.0-0.0","55804111","wem/bandit_party_2","A33VGSEJ44ORMF","either","6","246","","","","","","","0","0","1","0.2343921172","","0.6","0.4","0.8","0.2","","","","","0.7214277645","0.613215191","0.2343921172","0.6448399581","","","","","","","","","","75","K","2","","","79","main_expt","",""
"","bandit","162","785811","0.0-121.0-0.0","55804111","wem/bandit_party_2","A33VGSEJ44ORMF","either","6","460","","","","","","","0","0","1","0.2164054515","","0.6","0.4","0.8","0.2","","","","","0.7328142644","0.4605925783","0.2164054515","0.739479497","","","","","","","","","","75","K","2","","","80","main_expt","",""
"","bandit","163","787747","0.0-122.0-0.0","55804111","wem/bandit_party_2","A33VGSEJ44ORMF","either","6","428","","","","","","","0","1","0","","0.6956071838","0.6","0.4","0.8","0.2","0.7101675561","0.5390789087","0.1361232007","0.6956071838","","","","","","","","","","","","","","76","L","3","","","81","main_expt","",""
"","bandit","164","790095","0.0-123.0-0.0","55804111","wem/bandit_party_2","A33VGSEJ44ORMF","either","6","833","","","","","","","0","0","1","","0.5886517937","0.6","0.4","0.8","0.2","0.6984384541","0.621290364","0.2275447725","0.5886517937","","","","","","","","","","","","","","76","L","3","","","82","main_expt","",""
"","bandit","165","792088","0.0-124.0-0.0","55804111","wem/bandit_party_2","A33VGSEJ44ORMF","either","6","469","","","","","","","0","0","1","","0.4764182235","0.6","0.4","0.8","0.2","0.7447883659","0.6359424421","0.1900607051","0.4764182235","","","","","","","","","","","","","","76","L","3","","","83","main_expt","",""
"","bandit","166","794044","0.0-125.0-0.0","55804111","wem/bandit_party_2","A33VGSEJ44ORMF","either","6","436","","","","","","","0","1","0","","0.6133664729","0.6","0.4","0.8","0.2","0.6900592863","0.6133664729","0.1306868958","0.5149027494","","","","","","","","","","","","","","74","J","1","","","84","main_expt","",""
"","bandit","167","796441","0.0-126.0-0.0","55804111","wem/bandit_party_2","A33VGSEJ44ORMF","either","6","881","","","","","","","0","1","0","","0.7010597455","0.6","0.4","0.8","0.2","0.7010597455","0.7815463305","0.1683201849","0.4908067213","","","","","","","","","","","","","","72","H","0","img/none_selected.jpg","","85","main_expt","",""
"","bandit","168","798350","0.0-127.0-0.0","55804111","wem/bandit_party_2","A33VGSEJ44ORMF","either","6","396","","","","","","","0","0","1","","0.7355789231","0.6","0.4","0.8","0.2","0.6171062652","0.7355789231","0.1290314955","0.4139472458","","","","","","","","","","","","","","74","J","1","","","86","main_expt","",""
"","bandit","169","800241","0.0-128.0-0.0","55804111","wem/bandit_party_2","A33VGSEJ44ORMF","either","6","377","","","","","","","1","0","0","0.5629375242","","0.6","0.4","0.8","0.2","","","","","0.5629375242","0.7267399876","0.2297537383","0.4253818619","","","","","","","","","","72","H","0","img/none_selected.jpg","","87","main_expt","",""
"","bandit","170","802363","0.0-129.0-0.0","55804111","wem/bandit_party_2","A33VGSEJ44ORMF","either","6","602","","","","","","","0","1","0","","0.6434443074","0.6","0.4","0.8","0.2","0.6434443074","0.7703195612","0.1878263516","0.4448862761","","","","","","","","","","","","","","72","H","0","img/none_selected.jpg","","88","main_expt","",""
"","bandit","171","804320","0.0-130.0-0.0","55804111","wem/bandit_party_2","A33VGSEJ44ORMF","either","6","430","","","","","","","1","0","0","0.7296698787","","0.6","0.4","0.8","0.2","","","","","0.7296698787","0.81872988","0.1896964823","0.4295642349","","","","","","","","","","72","H","0","img/none_selected.jpg","","89","main_expt","",""
"","bandit","172","806280","0.0-131.0-0.0","55804111","wem/bandit_party_2","A33VGSEJ44ORMF","either","6","444","","","","","","","1","0","0","0.7042864347","","0.6","0.4","0.8","0.2","","","","","0.7042864347","0.8032570632","0.1614970172","0.3655203192","","","","","","","","","","72","H","0","img/none_selected.jpg","","90","main_expt","",""
"","bandit","173","808292","0.0-132.0-0.0","55804111","wem/bandit_party_2","A33VGSEJ44ORMF","either","6","498","","","","","","","0","1","0","","0.7606559624","0.6","0.4","0.8","0.2","0.7606559624","0.8257352781","0.2107705911","0.402428746","","","","","","","","","","","","","","72","H","0","img/none_selected.jpg","","91","main_expt","",""
"","bandit","174","811036","0.0-133.0-0.0","55804111","wem/bandit_party_2","A33VGSEJ44ORMF","either","6","1222","","","","","","","1","0","0","0.8466818248","","0.6","0.4","0.8","0.2","","","","","0.8466818248","0.7762210657","0.1317951273","0.452733603","","","","","","","","","","72","H","0","img/none_selected.jpg","","92","main_expt","",""
"","bandit","175","814043","0.0-134.0-0.0","55804111","wem/bandit_party_2","A33VGSEJ44ORMF","either","6","1497","","","","","","","1","0","0","0.8181600593","","0.6","0.4","0.8","0.2","","","","","0.8181600593","0.8293629201","0.09268613222","0.5416456901","","","","","","","","","","72","H","0","img/none_selected.jpg","","93","main_expt","",""
"","bandit","176","817034","0.0-135.0-0.0","55804111","wem/bandit_party_2","A33VGSEJ44ORMF","either","6","1471","","","","","","","1","0","0","0.7259749053","","0.6","0.4","0.8","0.2","","","","","0.7259749053","0.7849393417","0.06418168538","0.5246039132","","","","","","","","","","72","H","0","img/none_selected.jpg","","94","main_expt","",""
"","bandit","177","818996","0.0-136.0-0.0","55804111","wem/bandit_party_2","A33VGSEJ44ORMF","either","6","446","","","","","","","1","0","0","0.6538641892","","0.6","0.4","0.8","0.2","","","","","0.6538641892","0.7850226125","0.100072779","0.606801291","","","","","","","","","","72","H","0","img/none_selected.jpg","","95","main_expt","",""
"","bandit","178","821015","0.0-137.0-0.0","55804111","wem/bandit_party_2","A33VGSEJ44ORMF","either","6","508","","","","","","","0","0","1","","0.6384360591","0.6","0.4","0.8","0.2","0.6384360591","0.8013150942","0.09628221604","0.7175242067","","","","","","","","","","","","","","72","H","0","img/none_selected.jpg","","96","main_expt","",""
"","bandit","179","822895","0.0-138.0-0.0","55804111","wem/bandit_party_2","A33VGSEJ44ORMF","either","6","363","","","","","","","1","0","0","0.70340399","","0.6","0.4","0.8","0.2","","","","","0.6836118029","0.70340399","0.1335622201","0.7706560561","","","","","","","","","","74","J","1","","","97","main_expt","",""
"","bandit","180","824892","0.0-139.0-0.0","55804111","wem/bandit_party_2","A33VGSEJ44ORMF","either","6","470","","","","","","","0","1","0","","0.659457158","0.6","0.4","0.8","0.2","0.659457158","0.7562517051","0.167202632","0.7234704616","","","","","","","","","","","","","","72","H","0","img/none_selected.jpg","","98","main_expt","",""
"","bandit","181","826998","0.0-140.0-0.0","55804111","wem/bandit_party_2","A33VGSEJ44ORMF","either","6","590","","","","","","","1","0","0","0.7726162223","","0.6","0.4","0.8","0.2","","","","","0.7726162223","0.6514659141","0.1216125457","0.6582042781","","","","","","","","","","72","H","0","img/none_selected.jpg","","99","main_expt","",""
"","bandit","182","828951","0.0-141.0-0.0","55804111","wem/bandit_party_2","A33VGSEJ44ORMF","either","6","428","","","","","","","1","0","0","0.8446518706","","0.6","0.4","0.8","0.2","","","","","0.8446518706","0.7112237606","0.1163239148","0.6530973887","","","","","","","","","","72","H","0","img/none_selected.jpg","","100","main_expt","",""
"","bandit","183","830861","0.0-142.0-0.0","55804111","wem/bandit_party_2","A33VGSEJ44ORMF","either","6","396","","","","","","","1","0","0","0.8784151442","","0.6","0.4","0.8","0.2","","","","","0.8784151442","0.6865981462","0.1037928869","0.6690961394","","","","","","","","","","72","H","0","img/none_selected.jpg","","101","main_expt","",""
"","bandit","184","832908","0.0-143.0-0.0","55804111","wem/bandit_party_2","A33VGSEJ44ORMF","either","6","526","","","","","","","1","0","0","0.8781202538","","0.6","0.4","0.8","0.2","","","","","0.8781202538","0.6663704066","0.0991068806","0.6268844929","","","","","","","","","","72","H","0","img/none_selected.jpg","","102","main_expt","",""
"","bandit","185","834847","0.0-144.0-0.0","55804111","wem/bandit_party_2","A33VGSEJ44ORMF","either","6","419","","","","","","","0","0","1","0.8123732176","","0.6","0.4","0.8","0.2","","","","","0.8123732176","0.6006744832","0.1226752409","0.6657789595","","","","","","","","","","72","H","0","img/none_selected.jpg","","103","main_expt","",""
"","bandit","186","836726","0.0-145.0-0.0","55804111","wem/bandit_party_2","A33VGSEJ44ORMF","either","6","346","","","","","","","0","0","1","0.518723913","","0.6","0.4","0.8","0.2","","","","","0.8461937008","0.518723913","0.1552466415","0.6951589836","","","","","","","","","","74","J","1","","","104","main_expt","",""
"","bandit","187","838743","0.0-146.0-0.0","55804111","wem/bandit_party_2","A33VGSEJ44ORMF","either","6","487","","","","","","","0","1","0","","0.8664825842","0.6","0.4","0.8","0.2","0.8664825842","0.5343999165","0.1702138509","0.6382729445","","","","","","","","","","","","","","72","H","0","img/none_selected.jpg","","105","main_expt","",""
"","bandit","188","840670","0.0-147.0-0.0","55804111","wem/bandit_party_2","A33VGSEJ44ORMF","either","6","395","","","","","","","0","0","1","","0.8703997655","0.6","0.4","0.8","0.2","0.8703997655","0.4959998489","0.2021425125","0.7139624249","","","","","","","","","","","","","","72","H","0","img/none_selected.jpg","","106","main_expt","",""
"","bandit","189","843016","0.0-148.0-0.0","55804111","wem/bandit_party_2","A33VGSEJ44ORMF","either","6","816","","","","","","","0","0","1","0.2196373816","","0.6","0.4","0.8","0.2","","","","","0.8964314806","0.5052663648","0.2196373816","0.7718136471","","","","","","","","","","75","K","2","","","107","main_expt","",""
"","bandit","190","844958","0.0-149.0-0.0","55804111","wem/bandit_party_2","A33VGSEJ44ORMF","either","6","416","","","","","","","0","1","0","","0.8818715302","0.6","0.4","0.8","0.2","0.9080126319","0.4859582203","0.2393661099","0.8818715302","","","","","","","","","","","","","","76","L","3","","","108","main_expt","",""
"","bandit","191","846946","0.0-150.0-0.0","55804111","wem/bandit_party_2","A33VGSEJ44ORMF","either","6","470","","","","","","","0","1","0","","0.8757741924","0.6","0.4","0.8","0.2","0.8880845243","0.523617738","0.2516352594","0.8757741924","","","","","","","","","","","","","","76","L","3","","","109","main_expt","",""
"","bandit","192","849034","0.0-151.0-0.0","55804111","wem/bandit_party_2","A33VGSEJ44ORMF","either","6","570","","","","","","","1","0","0","0.8657151097","","0.6","0.4","0.8","0.2","","","","","0.899251136","0.5492010791","0.2424291788","0.8657151097","","","","","","","","","","76","L","3","","","110","main_expt","",""
"","bandit","193","850992","0.0-152.0-0.0","55804111","wem/bandit_party_2","A33VGSEJ44ORMF","either","6","435","","","","","","","0","1","0","","0.8457624762","0.6","0.4","0.8","0.2","0.9019514556","0.5467154696","0.2033086481","0.8457624762","","","","","","","","","","","","","","76","L","3","","","111","main_expt","",""
"","bandit","194","852886","0.0-153.0-0.0","55804111","wem/bandit_party_2","A33VGSEJ44ORMF","either","6","381","","","","","","","0","1","0","","0.8756116827","0.6","0.4","0.8","0.2","0.9315537639","0.5396215981","0.208613213","0.8756116827","","","","","","","","","","","","","","76","L","3","","","112","main_expt","",""
"","bandit","195","855870","0.0-154.0-0.0","55804111","wem/bandit_party_2","A33VGSEJ44ORMF","either","6","1458","","","","","","","0","1","0","","0.8773181328","0.6","0.4","0.8","0.2","0.9254394702","0.5542875214","0.2743958833","0.8773181328","","","","","","","","","","","","","","76","L","3","","","113","main_expt","",""
"","bandit","196","857817","0.0-155.0-0.0","55804111","wem/bandit_party_2","A33VGSEJ44ORMF","either","6","422","","","","","","","0","0","1","","0.8842236373","0.6","0.4","0.8","0.2","0.9394904604","0.6411428718","0.2657329006","0.8842236373","","","","","","","","","","","","","","76","L","3","","","114","main_expt","",""
"","bandit","197","860046","0.0-156.0-0.0","55804111","wem/bandit_party_2","A33VGSEJ44ORMF","either","6","712","","","","","","","0","1","0","","0.9533355239","0.6","0.4","0.8","0.2","0.9533355239","0.7261400339","0.3234316928","0.8499121835","","","","","","","","","","","","","","72","H","0","img/none_selected.jpg","","115","main_expt","",""
"","bandit","198","862205","0.0-157.0-0.0","55804111","wem/bandit_party_2","A33VGSEJ44ORMF","either","6","639","","","","","","","1","0","0","0.960842596","","0.6","0.4","0.8","0.2","","","","","0.960842596","0.7395407697","0.3625587123","0.7890056153","","","","","","","","","","72","H","0","img/none_selected.jpg","","116","main_expt","",""
"","bandit","199","864254","0.0-158.0-0.0","55804111","wem/bandit_party_2","A33VGSEJ44ORMF","either","6","528","","","","","","","0","1","0","","0.937733065","0.6","0.4","0.8","0.2","0.937733065","0.8231731708","0.4946904956","0.7709890197","","","","","","","","","","","","","","72","H","0","img/none_selected.jpg","","117","main_expt","",""
"","bandit","200","866219","0.0-159.0-0.0","55804111","wem/bandit_party_2","A33VGSEJ44ORMF","either","6","445","","","","","","","0","1","0","","0.9561499645","0.6","0.4","0.8","0.2","0.9561499645","0.8278750807","0.6246330079","0.7459937787","","","","","","","","","","","","","","72","H","0","img/none_selected.jpg","","118","main_expt","",""
"","bandit","201","868340","0.0-160.0-0.0","55804111","wem/bandit_party_2","A33VGSEJ44ORMF","either","6","589","","","","","","","1","0","0","0.9595118281","","0.6","0.4","0.8","0.2","","","","","0.9595118281","0.8715827524","0.5818097722","0.716881491","","","","","","","","","","72","H","0","img/none_selected.jpg","","119","main_expt","",""
"","bandit","202","870475","0.0-161.0-0.0","55804111","wem/bandit_party_2","A33VGSEJ44ORMF","either","6","604","","","","","","","0","1","0","","0.9548463758","0.6","0.4","0.8","0.2","0.9548463758","0.8522670476","0.5990025551","0.6595649419","","","","","","","","","","","","","","72","H","0","img/none_selected.jpg","","120","main_expt","",""
"","bandit","203","873136","0.0-162.0-0.0","55804111","wem/bandit_party_2","A33VGSEJ44ORMF","either","6","1146","","","","","","","1","0","0","0.958085665","","0.6","0.4","0.8","0.2","","","","","0.958085665","0.8266542562","0.6534424477","0.6576447048","","","","","","","","","","72","H","0","img/none_selected.jpg","","121","main_expt","",""
"","bandit","204","875947","0.0-163.0-0.0","55804111","wem/bandit_party_2","A33VGSEJ44ORMF","either","6","1294","","","","","","","0","1","0","","0.9630601427","0.6","0.4","0.8","0.2","0.9630601427","0.81688531","0.5952731017","0.6391957719","","","","","","","","","","","","","","72","H","0","img/none_selected.jpg","","122","main_expt","",""
"","bandit","205","879082","0.0-164.0-0.0","55804111","wem/bandit_party_2","A33VGSEJ44ORMF","either","6","1613","","","","","","","1","0","0","0.9790283764","","0.6","0.4","0.8","0.2","","","","","0.9790283764","0.8307363081","0.6469086187","0.5873908865","","","","","","","","","","72","H","0","img/none_selected.jpg","","123","main_expt","",""
"","bandit","206","881060","0.0-165.0-0.0","55804111","wem/bandit_party_2","A33VGSEJ44ORMF","either","6","464","","","","","","","1","0","0","0.9718765302","","0.6","0.4","0.8","0.2","","","","","0.9718765302","0.6943824695","0.6911454426","0.6592760984","","","","","","","","","","72","H","0","img/none_selected.jpg","","124","main_expt","",""
"","bandit","207","883018","0.0-166.0-0.0","55804111","wem/bandit_party_2","A33VGSEJ44ORMF","either","6","439","","","","","","","1","0","0","0.9845173964","","0.6","0.4","0.8","0.2","","","","","0.9845173964","0.7137568944","0.750572215","0.6012083746","","","","","","","","","","72","H","0","img/none_selected.jpg","","125","main_expt","",""
"","bandit","208","884922","0.0-167.0-0.0","55804111","wem/bandit_party_2","A33VGSEJ44ORMF","either","6","382","","","","","","","1","0","0","0.9804670004","","0.6","0.4","0.8","0.2","","","","","0.9804670004","0.6878742658","0.8108432581","0.6043440275","","","","","","","","","","72","H","0","img/none_selected.jpg","","126","main_expt","",""
"","bandit","209","886763","0.0-168.0-0.0","55804111","wem/bandit_party_2","A33VGSEJ44ORMF","either","6","322","","","","","","","1","0","0","0.9792667249","","0.6","0.4","0.8","0.2","","","","","0.9792667249","0.6175454059","0.8338196277","0.5043142332","","","","","","","","","","72","H","0","img/none_selected.jpg","","127","main_expt","",""
"","bandit","210","889398","0.0-169.0-0.0","55804111","wem/bandit_party_2","A33VGSEJ44ORMF","either","6","1112","","","","","","","0","1","0","","0.9853815399","0.6","0.4","0.8","0.2","0.9853815399","0.5556505876","0.8624128669","0.5778209799","","","","","","","","","","","","","","72","H","0","img/none_selected.jpg","","128","main_expt","",""
"","bandit","211","892309","0.0-170.0-0.0","55804111","wem/bandit_party_2","A33VGSEJ44ORMF","either","6","1391","","","","","","","0","1","0","","0.9838319732","0.6","0.4","0.8","0.2","0.9838319732","0.5948532478","0.9026068167","0.5806273004","","","","","","","","","","","","","","72","H","0","img/none_selected.jpg","","129","main_expt","",""
"","bandit","212","894175","0.0-171.0-0.0","55804111","wem/bandit_party_2","A33VGSEJ44ORMF","either","6","336","","","","","","","1","0","0","0.9798768453","","0.6","0.4","0.8","0.2","","","","","0.9798768453","0.6646968067","0.8983636673","0.4152233618","","","","","","","","","","72","H","0","img/none_selected.jpg","","130","main_expt","",""
"","bandit","213","896092","0.0-172.0-0.0","55804111","wem/bandit_party_2","A33VGSEJ44ORMF","either","6","391","","","","","","","1","0","0","0.9628017066","","0.6","0.4","0.8","0.2","","","","","0.9628017066","0.6676177377","0.888478962","0.4527057242","","","","","","","","","","72","H","0","img/none_selected.jpg","","131","main_expt","",""
"","bandit","214","898043","0.0-173.0-0.0","55804111","wem/bandit_party_2","A33VGSEJ44ORMF","either","6","427","","","","","","","0","1","0","","0.9723970119","0.6","0.4","0.8","0.2","0.9723970119","0.7638630926","0.8470567254","0.5185753891","","","","","","","","","","","","","","72","H","0","img/none_selected.jpg","","132","main_expt","",""
"","bandit","215","899976","0.0-174.0-0.0","55804111","wem/bandit_party_2","A33VGSEJ44ORMF","either","6","407","","","","","","","1","0","0","0.9754432393","","0.6","0.4","0.8","0.2","","","","","0.9754432393","0.726350598","0.8852081265","0.4567386081","","","","","","","","","","72","H","0","img/none_selected.jpg","","133","main_expt","",""
"","bandit","216","901763","0.0-175.0-0.0","55804111","wem/bandit_party_2","A33VGSEJ44ORMF","either","6","271","","","","","","","0","1","0","","0.9635376407","0.6","0.4","0.8","0.2","0.9635376407","0.7638059904","0.8317422298","0.4494056808","","","","","","","","","","","","","","72","H","0","img/none_selected.jpg","","134","main_expt","",""
"","bandit","217","904150","0.0-176.0-0.0","55804111","wem/bandit_party_2","A33VGSEJ44ORMF","either","6","869","","","","","","","0","1","0","","0.9304273523","0.6","0.4","0.8","0.2","0.9304273523","0.7337835984","0.8121858422","0.4608562393","","","","","","","","","","","","","","72","H","0","img/none_selected.jpg","","135","main_expt","",""
"","bandit","218","906102","0.0-177.0-0.0","55804111","wem/bandit_party_2","A33VGSEJ44ORMF","either","6","432","","","","","","","0","1","0","","0.9295592062","0.6","0.4","0.8","0.2","0.9295592062","0.7869055623","0.8473276522","0.6684020244","","","","","","","","","","","","","","72","H","0","img/none_selected.jpg","","136","main_expt","",""
"","bandit","219","908067","0.0-178.0-0.0","55804111","wem/bandit_party_2","A33VGSEJ44ORMF","either","6","434","","","","","","","0","1","0","","0.9343332129","0.6","0.4","0.8","0.2","0.9343332129","0.8033651193","0.8251243182","0.614137061","","","","","","","","","","","","","","72","H","0","img/none_selected.jpg","","137","main_expt","",""
"","bandit","220","910775","0.0-179.0-0.0","55804111","wem/bandit_party_2","A33VGSEJ44ORMF","either","6","1193","","","","","","","1","0","0","0.9325781127","","0.6","0.4","0.8","0.2","","","","","0.9325781127","0.7620089345","0.7892590299","0.711021659","","","","","","","","","","72","H","0","img/none_selected.jpg","","138","main_expt","",""
"","bandit","221","912887","0.0-180.0-0.0","55804111","wem/bandit_party_2","A33VGSEJ44ORMF","either","6","592","","","","","","","1","0","0","0.9687763229","","0.6","0.4","0.8","0.2","","","","","0.9687763229","0.8098853196","0.753698647","0.5731932267","","","","","","","","","","72","H","0","img/none_selected.jpg","","139","main_expt","",""
"","bandit","222","914838","0.0-181.0-0.0","55804111","wem/bandit_party_2","A33VGSEJ44ORMF","either","6","422","","","","","","","1","0","0","0.9520204639","","0.6","0.4","0.8","0.2","","","","","0.9520204639","0.8737133651","0.7281837229","0.6553783698","","","","","","","","","","72","H","0","img/none_selected.jpg","","140","main_expt","",""
"","bandit","223","916744","0.0-182.0-0.0","55804111","wem/bandit_party_2","A33VGSEJ44ORMF","either","6","375","","","","","","","0","1","0","","0.9615613541","0.6","0.4","0.8","0.2","0.9615613541","0.8464817719","0.7913145473","0.5665224918","","","","","","","","","","","","","","72","H","0","img/none_selected.jpg","","141","main_expt","",""
"","bandit","224","918635","0.0-183.0-0.0","55804111","wem/bandit_party_2","A33VGSEJ44ORMF","either","6","374","","","","","","","0","1","0","","0.9438722422","0.6","0.4","0.8","0.2","0.9438722422","0.8457688645","0.7498898283","0.5230460729","","","","","","","","","","","","","","72","H","0","img/none_selected.jpg","","142","main_expt","",""
"","bandit","225","920553","0.0-184.0-0.0","55804111","wem/bandit_party_2","A33VGSEJ44ORMF","either","6","394","","","","","","","1","0","0","0.9419241064","","0.6","0.4","0.8","0.2","","","","","0.9419241064","0.8801682128","0.723110339","0.5401897842","","","","","","","","","","72","H","0","img/none_selected.jpg","","143","main_expt","",""
"","bandit","226","922554","0.0-185.0-0.0","55804111","wem/bandit_party_2","A33VGSEJ44ORMF","either","6","481","","","","","","","0","1","0","","0.9383966058","0.6","0.4","0.8","0.2","0.9383966058","0.7806105972","0.7697142539","0.5495292383","","","","","","","","","","","","","","72","H","0","img/none_selected.jpg","","144","main_expt","",""
"","bandit","227","924222","0.0-186.0-0.0","55804111","wem/bandit_party_2","A33VGSEJ44ORMF","either","6","136","","","","","","","1","0","0","0.9442204223","","0.6","0.4","0.8","0.2","","","","","0.9442204223","0.7384744451","0.8279494337","0.4718854897","","","","","","","","","","72","H","0","img/none_selected.jpg","","145","main_expt","",""
"","bandit","228","926154","0.0-187.0-0.0","55804111","wem/bandit_party_2","A33VGSEJ44ORMF","either","6","415","","","","","","","1","0","0","0.9461270134","","0.6","0.4","0.8","0.2","","","","","0.9461270134","0.7078417075","0.747104877","0.3790577705","","","","","","","","","","72","H","0","img/none_selected.jpg","","146","main_expt","",""
"","bandit","229","928026","0.0-188.0-0.0","55804111","wem/bandit_party_2","A33VGSEJ44ORMF","either","6","346","","","","","","","0","1","0","","0.9677113618","0.6","0.4","0.8","0.2","0.9677113618","0.7671729372","0.7635883185","0.3671333747","","","","","","","","","","","","","","72","H","0","img/none_selected.jpg","","147","main_expt","",""
"","bandit","230","929967","0.0-189.0-0.0","55804111","wem/bandit_party_2","A33VGSEJ44ORMF","either","6","415","","","","","","","0","1","0","","0.9603287673","0.6","0.4","0.8","0.2","0.9603287673","0.7515071201","0.6650729927","0.4462771912","","","","","","","","","","","","","","72","H","0","img/none_selected.jpg","","148","main_expt","",""
"","bandit","231","931835","0.0-190.0-0.0","55804111","wem/bandit_party_2","A33VGSEJ44ORMF","either","6","338","","","","","","","0","1","0","","0.9256305183","0.6","0.4","0.8","0.2","0.9256305183","0.7582160768","0.594527628","0.3929125452","","","","","","","","","","","","","","72","H","0","img/none_selected.jpg","","149","main_expt","",""
"","bandit","232","933735","0.0-191.0-0.0","55804111","wem/bandit_party_2","A33VGSEJ44ORMF","either","6","375","","","","","","","0","1","0","","0.9222609783","0.6","0.4","0.8","0.2","0.9222609783","0.6843302658","0.5101412162","0.3825194633","","","","","","","","","","","","","","72","H","0","img/none_selected.jpg","","150","main_expt","",""
"","bandit","233","935548","0.0-192.0-0.0","55804111","wem/bandit_party_2","A33VGSEJ44ORMF","either","6","291","","","","","","","1","0","0","0.9522131909","","0.6","0.4","0.8","0.2","","","","","0.9522131909","0.4980827124","0.5755011036","0.3889652011","","","","","","","","","","72","H","0","img/none_selected.jpg","","151","main_expt","",""
"","bandit","234","937363","0.0-193.0-0.0","55804111","wem/bandit_party_2","A33VGSEJ44ORMF","either","6","293","","","","","","","0","1","0","","0.9351777179","0.6","0.4","0.8","0.2","0.9351777179","0.5418861514","0.5415628766","0.372169082","","","","","","","","","","","","","","72","H","0","img/none_selected.jpg","","152","main_expt","",""
"","bandit","235","939145","0.0-194.0-0.0","55804111","wem/bandit_party_2","A33VGSEJ44ORMF","either","6","252","","","","","","","0","1","0","","0.9526549669","0.6","0.4","0.8","0.2","0.9526549669","0.6424708626","0.6392888902","0.4275919172","","","","","","","","","","","","","","72","H","0","img/none_selected.jpg","","153","main_expt","",""
"","bandit","236","940733","0.0-195.0-0.0","55804111","wem/bandit_party_2","A33VGSEJ44ORMF","either","6","66","","","","","","","0","1","0","","0.944677936","0.6","0.4","0.8","0.2","0.944677936","0.6200403258","0.6798835142","0.3978897223","","","","","","","","","","","","","","72","H","0","img/none_selected.jpg","","154","main_expt","",""
"","bandit","237","942613","0.0-196.0-0.0","55804111","wem/bandit_party_2","A33VGSEJ44ORMF","either","6","358","","","","","","","0","1","0","","0.4922143253","0.6","0.4","0.8","0.2","0.9443948233","0.5087788092","0.7376683638","0.4922143253","","","","","","","","","","","","","","76","L","3","","","155","main_expt","",""
"","bandit","238","944535","0.0-197.0-0.0","55804111","wem/bandit_party_2","A33VGSEJ44ORMF","either","6","392","","","","","","","0","1","0","","0.5060601407","0.6","0.4","0.8","0.2","0.9312029685","0.4397360723","0.7740838489","0.5060601407","","","","","","","","","","","","","","76","L","3","","","156","main_expt","",""
"","bandit","239","946407","0.0-198.0-0.0","55804111","wem/bandit_party_2","A33VGSEJ44ORMF","either","6","345","","","","","","","0","1","0","","0.56460533","0.6","0.4","0.8","0.2","0.9009413449","0.4529934193","0.7526352547","0.56460533","","","","","","","","","","","","","","76","L","3","","","157","main_expt","",""
"","bandit","240","948285","0.0-199.0-0.0","55804111","wem/bandit_party_2","A33VGSEJ44ORMF","either","6","349","","","","","","","0","1","0","","0.5551408743","0.6","0.4","0.8","0.2","0.8799225656","0.522014142","0.807066173","0.5551408743","","","","","","","","","","","","","","76","L","3","","","158","main_expt","",""
"","bandit","241","950101","0.0-200.0-0.0","55804111","wem/bandit_party_2","A33VGSEJ44ORMF","either","6","298","","","","","","","0","1","0","","0.6362487126","0.6","0.4","0.8","0.2","0.9103166083","0.447178695","0.8348587906","0.6362487126","","","","","","","","","","","","","","76","L","3","","","159","main_expt","",""
"","bandit","242","951983","0.0-201.0-0.0","55804111","wem/bandit_party_2","A33VGSEJ44ORMF","either","6","343","","","","","","","0","0","1","","0.5818198138","0.6","0.4","0.8","0.2","0.9575168601","0.4293784973","0.8054329593","0.5818198138","","","","","","","","","","","","","","76","L","3","","","160","main_expt","",""
"","bandit","243","953618","0.0-202.0-0.0","55804111","wem/bandit_party_2","A33VGSEJ44ORMF","either","6","116","","","","","","","0","0","1","0.9323430526","","0.6","0.4","0.8","0.2","","","","","0.9323430526","0.4263694152","0.8263011938","0.5079421761","","","","","","","","","","72","H","0","img/none_selected.jpg","","161","main_expt","",""
"","bandit","244","955698","0.0-203.0-0.0","55804111","wem/bandit_party_2","A33VGSEJ44ORMF","either","6","554","","","","","","","0","0","1","","0.8468561623","0.6","0.4","0.8","0.2","0.8731035433","0.4394756583","0.8468561623","0.3944353318","","","","","","","","","","","","","","75","K","2","","","162","main_expt","",""
"","bandit","245","957913","0.0-204.0-0.0","55804111","wem/bandit_party_2","A33VGSEJ44ORMF","either","6","700","","","","","","","0","0","1","0.4632532181","","0.6","0.4","0.8","0.2","","","","","0.860239847","0.4632532181","0.866861138","0.4560534757","","","","","","","","","","74","J","1","","","163","main_expt","",""
"","bandit","246","960263","0.0-205.0-0.0","55804111","wem/bandit_party_2","A33VGSEJ44ORMF","either","6","831","","","","","","","1","0","0","0.8327160304","","0.6","0.4","0.8","0.2","","","","","0.8327160304","0.469091439","0.8621839131","0.4338988853","","","","","","","","","","72","H","0","img/none_selected.jpg","","164","main_expt","",""
"","bandit","247","962155","0.0-206.0-0.0","55804111","wem/bandit_party_2","A33VGSEJ44ORMF","either","6","367","","","","","","","0","0","1","","0.3640020004","0.6","0.4","0.8","0.2","0.8780399083","0.4691854483","0.8368369455","0.3640020004","","","","","","","","","","","","","","76","L","3","","","165","main_expt","",""
"","bandit","248","964552","0.0-207.0-0.0","55804111","wem/bandit_party_2","A33VGSEJ44ORMF","either","6","879","","","","","","","0","0","1","","0.8659509199","0.6","0.4","0.8","0.2","0.8659509199","0.424594696","0.8543831227","0.4433911144","","","","","","","","","","","","","","72","H","0","img/none_selected.jpg","","166","main_expt","",""
"","bandit","249","966517","0.0-208.0-0.0","55804111","wem/bandit_party_2","A33VGSEJ44ORMF","either","6","445","","","","","","","0","0","1","","0.4691217736","0.6","0.4","0.8","0.2","0.8458676595","0.4691217736","0.8444257961","0.4852122499","","","","","","","","","","","","","","74","J","1","","","167","main_expt","",""
"","bandit","250","968406","0.0-209.0-0.0","55804111","wem/bandit_party_2","A33VGSEJ44ORMF","either","6","363","","","","","","","1","0","0","0.8895061166","","0.6","0.4","0.8","0.2","","","","","0.7368025647","0.4605946041","0.8895061166","0.4829488348","","","","","","","","","","75","K","2","","","168","main_expt","",""
"","bandit","251","970288","0.0-210.0-0.0","55804111","wem/bandit_party_2","A33VGSEJ44ORMF","either","6","363","","","","","","","0","0","1","0.8980662015","","0.6","0.4","0.8","0.2","","","","","0.6811301937","0.4302520818","0.8980662015","0.467087579","","","","","","","","","","75","K","2","","","169","main_expt","",""
"","bandit","252","972306","0.0-211.0-0.0","55804111","wem/bandit_party_2","A33VGSEJ44ORMF","either","6","499","","","","","","","0","0","1","","0.3575164989","0.6","0.4","0.8","0.2","0.6781719117","0.3846086554","0.9399190154","0.3575164989","","","","","","","","","","","","","","76","L","3","","","170","main_expt","",""
"","bandit","253","974225","0.0-212.0-0.0","55804111","wem/bandit_party_2","A33VGSEJ44ORMF","either","6","395","","","","","","","1","0","0","0.5779776893","","0.6","0.4","0.8","0.2","","","","","0.5779776893","0.4938912128","0.9199626721","0.3433755155","","","","","","","","","","72","H","0","img/none_selected.jpg","","171","main_expt","",""
"","bandit","254","976629","0.0-213.0-0.0","55804111","wem/bandit_party_2","A33VGSEJ44ORMF","either","6","889","","","","","","","0","0","1","0.2921203137","","0.6","0.4","0.8","0.2","","","","","0.5461867433","0.5409242696","0.8885959212","0.2921203137","","","","","","","","","","76","L","3","","","172","main_expt","",""
"","bandit","255","978584","0.0-214.0-0.0","55804111","wem/bandit_party_2","A33VGSEJ44ORMF","either","6","431","","","","","","","0","0","1","","0.5898781272","0.6","0.4","0.8","0.2","0.5898781272","0.4899310385","0.8502068985","0.3237382503","","","","","","","","","","","","","","72","H","0","img/none_selected.jpg","","173","main_expt","",""
"","bandit","256","980480","0.0-215.0-0.0","55804111","wem/bandit_party_2","A33VGSEJ44ORMF","either","6","368","","","","","","","0","0","1","0.4464532747","","0.6","0.4","0.8","0.2","","","","","0.5990225055","0.4464532747","0.9054067092","0.2935635685","","","","","","","","","","74","J","1","","","174","main_expt","",""
"","bandit","257","982389","0.0-216.0-0.0","55804111","wem/bandit_party_2","A33VGSEJ44ORMF","either","6","388","","","","","","","1","0","0","0.9096893241","","0.6","0.4","0.8","0.2","","","","","0.6129624105","0.4363040476","0.9096893241","0.2797951809","","","","","","","","","","75","K","2","","","175","main_expt","",""
"","bandit","258","984242","0.0-217.0-0.0","55804111","wem/bandit_party_2","A33VGSEJ44ORMF","either","6","334","","","","","","","0","1","0","","0.9081003197","0.6","0.4","0.8","0.2","0.5434192492","0.4198776974","0.9081003197","0.2067270565","","","","","","","","","","","","","","75","K","2","","","176","main_expt","",""
"","bandit","259","986142","0.0-218.0-0.0","55804111","wem/bandit_party_2","A33VGSEJ44ORMF","either","6","380","","","","","","","0","1","0","","0.8417535431","0.6","0.4","0.8","0.2","0.5893108522","0.4001478854","0.8417535431","0.19266164","","","","","","","","","","","","","","75","K","2","","","177","main_expt","",""
"","bandit","260","988039","0.0-219.0-0.0","55804111","wem/bandit_party_2","A33VGSEJ44ORMF","either","6","382","","","","","","","0","0","1","0.8045518304","","0.6","0.4","0.8","0.2","","","","","0.4862463398","0.3015477047","0.8045518304","0.1393448617","","","","","","","","","","75","K","2","","","178","main_expt","",""
"","bandit","261","991147","0.0-220.0-0.0","55804111","wem/bandit_party_2","A33VGSEJ44ORMF","either","6","1585","","","","","","","0","0","1","","0.1149816072","0.6","0.4","0.8","0.2","0.4227787996","0.2700131006","0.8250115846","0.1149816072","","","","","","","","","","","","","","76","L","3","","","179","main_expt","",""
"","bandit","262","992979","0.0-221.0-0.0","55804111","wem/bandit_party_2","A33VGSEJ44ORMF","either","6","310","","","","","","","0","1","0","","0.7418096358","0.6","0.4","0.8","0.2","0.3583368423","0.3473069","0.7418096358","0.1231561222","","","","","","","","","","","","","","75","K","2","","","180","main_expt","",""
"","bandit","263","995275","0.0-222.0-0.0","55804111","wem/bandit_party_2","A33VGSEJ44ORMF","either","6","776","","","","","","","0","1","0","","0.3478804011","0.6","0.4","0.8","0.2","0.3820052134","0.3478804011","0.7180260456","0.1134989143","","","","","","","","","","","","","","74","J","1","","","181","main_expt","",""
"","bandit","264","997196","0.0-223.0-0.0","55804111","wem/bandit_party_2","A33VGSEJ44ORMF","either","6","403","","","","","","","1","0","0","0.6777378447","","0.6","0.4","0.8","0.2","","","","","0.437769555","0.3304981007","0.6777378447","0.07317944644","","","","","","","","","","75","K","2","","","182","main_expt","",""
"","bandit","265","999148","0.0-224.0-0.0","55804111","wem/bandit_party_2","A33VGSEJ44ORMF","either","6","430","","","","","","","0","0","1","","0.2578466268","0.6","0.4","0.8","0.2","0.3951330089","0.2578466268","0.6331465848","0.05085611098","","","","","","","","","","","","","","74","J","1","","","183","main_expt","",""
"","bandit","266","1001015","0.0-225.0-0.0","55804111","wem/bandit_party_2","A33VGSEJ44ORMF","either","6","343","","","","","","","0","0","1","0.3550464129","","0.6","0.4","0.8","0.2","","","","","0.4062376343","0.3550464129","0.6578519513","0.07152820202","","","","","","","","","","74","J","1","","","184","main_expt","",""
"","bandit","267","1003308","0.0-226.0-0.0","55804111","wem/bandit_party_2","A33VGSEJ44ORMF","either","6","770","","","","","","","0","0","1","0.4035727276","","0.6","0.4","0.8","0.2","","","","","0.4035727276","0.2993299556","0.7160298793","0.08814522307","","","","","","","","","","72","H","0","img/none_selected.jpg","","185","main_expt","",""
"","bandit","268","1005198","0.0-227.0-0.0","55804111","wem/bandit_party_2","A33VGSEJ44ORMF","either","6","374","","","","","","","1","0","0","0.7081703269","","0.6","0.4","0.8","0.2","","","","","0.4595565904","0.3985972224","0.7081703269","0.0931487442","","","","","","","","","","75","K","2","","","186","main_expt","",""
"","bandit","269","1007127","0.0-228.0-0.0","55804111","wem/bandit_party_2","A33VGSEJ44ORMF","either","6","403","","","","","","","0","0","1","","0.7670757258","0.6","0.4","0.8","0.2","0.4956959756","0.4563810555","0.7670757258","0.05847154344","","","","","","","","","","","","","","75","K","2","","","187","main_expt","",""
"","bandit","270","1009026","0.0-229.0-0.0","55804111","wem/bandit_party_2","A33VGSEJ44ORMF","either","6","369","","","","","","","0","1","0","","0.7986884496","0.6","0.4","0.8","0.2","0.4295585103","0.4621092719","0.7986884496","0.05005107021","","","","","","","","","","","","","","75","K","2","","","188","main_expt","",""
"","bandit","271","1011652","0.0-230.0-0.0","55804111","wem/bandit_party_2","A33VGSEJ44ORMF","either","6","1097","","","","","","","1","0","0","0.8113194514","","0.6","0.4","0.8","0.2","","","","","0.4121259827","0.4214675273","0.8113194514","0.05158958255","","","","","","","","","","75","K","2","","","189","main_expt","",""
"","bandit","272","1013926","0.0-231.0-0.0","55804111","wem/bandit_party_2","A33VGSEJ44ORMF","either","6","750","","","","","","","0","0","1","0.8311477635","","0.6","0.4","0.8","0.2","","","","","0.40505342","0.4445162903","0.8311477635","0.0530996007","","","","","","","","","","75","K","2","","","190","main_expt","",""
"","bandit","273","1015757","0.0-232.0-0.0","55804111","wem/bandit_party_2","A33VGSEJ44ORMF","either","6","315","","","","","","","1","0","0","0.05342003941","","0.6","0.4","0.8","0.2","","","","","0.3671493273","0.4077799102","0.7941336253","0.05342003941","","","","","","","","","","76","L","3","","","191","main_expt","",""
"","bandit","274","1017677","0.0-233.0-0.0","55804111","wem/bandit_party_2","A33VGSEJ44ORMF","either","6","368","","","","","","","1","0","0","0.841847859","","0.6","0.4","0.8","0.2","","","","","0.3367263454","0.413117206","0.841847859","0.05264216412","","","","","","","","","","75","K","2","","","192","main_expt","",""
"","bandit","275","1019602","0.0-234.0-0.0","55804111","wem/bandit_party_2","A33VGSEJ44ORMF","either","6","406","","","","","","","0","0","1","","0.07418965368","0.6","0.4","0.8","0.2","0.2587514209","0.374663265","0.865127625","0.07418965368","","","","","","","","","","","","","","76","L","3","","","193","main_expt","",""
"","bandit","276","1021778","0.0-235.0-0.0","55804111","wem/bandit_party_2","A33VGSEJ44ORMF","either","6","653","","","","","","","1","0","0","0.8369883383","","0.6","0.4","0.8","0.2","","","","","0.2123696513","0.2792309937","0.8369883383","0.1148515542","","","","","","","","","","75","K","2","","","194","main_expt","",""
"","bandit","277","1025899","0.0-236.0-0.0","55804111","wem/bandit_party_2","A33VGSEJ44ORMF","either","6","2601","","","","","","","1","0","0","0.8226177272","","0.6","0.4","0.8","0.2","","","","","0.2551117677","0.3090424304","0.8226177272","0.1102075851","","","","","","","","","","75","K","2","","","195","main_expt","",""
"","bandit","278","1028701","0.0-237.0-0.0","55804111","wem/bandit_party_2","A33VGSEJ44ORMF","either","6","1275","","","","","","","0","1","0","","0.8759919892","0.6","0.4","0.8","0.2","0.2948177706","0.2254203465","0.8759919892","0.09307195637","","","","","","","","","","","","","","75","K","2","","","196","main_expt","",""
"","bandit","279","1030684","0.0-238.0-0.0","55804111","wem/bandit_party_2","A33VGSEJ44ORMF","either","6","459","","","","","","","1","0","0","0.9413038234","","0.6","0.4","0.8","0.2","","","","","0.2864074111","0.2104085952","0.9413038234","0.08341332984","","","","","","","","","","75","K","2","","","197","main_expt","",""
"","bandit","280","1032837","0.0-239.0-0.0","55804111","wem/bandit_party_2","A33VGSEJ44ORMF","either","6","623","","","","","","","1","0","0","0.9384937307","","0.6","0.4","0.8","0.2","","","","","0.3044962429","0.1686499416","0.9384937307","0.06206278739","","","","","","","","","","75","K","2","","","198","main_expt","",""
"","bandit","281","1035537","0.0-240.0-0.0","55804111","wem/bandit_party_2","A33VGSEJ44ORMF","either","6","1168","","","","","","","0","0","1","","0.927250614","0.6","0.4","0.8","0.2","0.2804127106","0.1696058054","0.927250614","0.1015706687","","","","","","","","","","","","","","75","K","2","","","199","main_expt","",""
"","bandit","282","1037428","0.0-241.0-0.0","55804111","wem/bandit_party_2","A33VGSEJ44ORMF","either","6","364","","","","","","","1","0","0","0.8840406778","","0.6","0.4","0.8","0.2","","","","","0.3151112274","0.1940139532","0.8840406778","0.07348353789","","","","","","","","","","75","K","2","","","200","main_expt","",""
"","bandit","283","1040668","0.0-242.0-0.0","55804111","wem/bandit_party_2","A33VGSEJ44ORMF","either","6","1714","","","","","","","1","0","0","0.8866639954","","0.6","0.4","0.8","0.2","","","","","0.3124471347","0.2384341862","0.8866639954","0.09218994405","","","","","","","","","","75","K","2","","","201","main_expt","",""
"","bandit","284","1042539","0.0-243.0-0.0","55804111","wem/bandit_party_2","A33VGSEJ44ORMF","either","6","345","","","","","","","0","0","1","0.8188103646","","0.6","0.4","0.8","0.2","","","","","0.3418115628","0.2069173963","0.8188103646","0.1662378481","","","","","","","","","","75","K","2","","","202","main_expt","",""
"","bandit","285","1044388","0.0-244.0-0.0","55804111","wem/bandit_party_2","A33VGSEJ44ORMF","either","6","314","","","","","","","0","0","1","0.1808123801","","0.6","0.4","0.8","0.2","","","","","0.2676578736","0.2502389624","0.8026106274","0.1808123801","","","","","","","","","","76","L","3","","","203","main_expt","",""
"","bandit","286","1046401","0.0-245.0-0.0","55804111","wem/bandit_party_2","A33VGSEJ44ORMF","either","6","479","","","","","","","0","0","1","","0.2226806","0.6","0.4","0.8","0.2","0.2513587973","0.2226806","0.6613987003","0.2011980288","","","","","","","","","","","","","","74","J","1","","","204","main_expt","",""
"","bandit","287","1048651","0.0-246.0-0.0","55804111","wem/bandit_party_2","A33VGSEJ44ORMF","either","6","722","","","","","","","0","0","1","","0.1877492959","0.6","0.4","0.8","0.2","0.2733703365","0.2327973494","0.7402115251","0.1877492959","","","","","","","","","","","","","","76","L","3","","","205","main_expt","",""
"","bandit","288","1050190","0.0-247.0-0.0","55804111","wem/bandit_party_2","A33VGSEJ44ORMF","either","6","3","","","","","","","1","0","0","0.6792505986","","0.6","0.4","0.8","0.2","","","","","0.3212331514","0.3134624789","0.6792505986","0.1891298069","","","","","","","","","","75","K","2","","","206","main_expt","",""
"","bandit","289","1052518","0.0-248.0-0.0","55804111","wem/bandit_party_2","A33VGSEJ44ORMF","either","6","812","","","","","","","1","0","0","0.3381772831","","0.6","0.4","0.8","0.2","","","","","0.3381772831","0.3808856429","0.6510378203","0.2092890992","","","","","","","","","","72","H","0","img/none_selected.jpg","","207","main_expt","",""
"","bandit","290","1054588","0.0-249.0-0.0","55804111","wem/bandit_party_2","A33VGSEJ44ORMF","either","6","541","","","","","","","0","0","1","0.2370260631","","0.6","0.4","0.8","0.2","","","","","0.2370260631","0.318509643","0.5971377862","0.2563161799","","","","","","","","","","72","H","0","img/none_selected.jpg","","208","main_expt","",""
"","bandit","291","1056421","0.0-250.0-0.0","55804111","wem/bandit_party_2","A33VGSEJ44ORMF","either","6","308","","","","","","","1","0","0","0.6040603887","","0.6","0.4","0.8","0.2","","","","","0.2157004535","0.2932847295","0.6040603887","0.2643940457","","","","","","","","","","75","K","2","","","209","main_expt","",""
"","bandit","292","1059650","0.0-251.0-0.0","55804111","wem/bandit_party_2","A33VGSEJ44ORMF","either","6","1695","","","","","","","0","0","1","","0.7794442159","0.6","0.4","0.8","0.2","0.2655169153","0.2230023122","0.7794442159","0.2710870001","","","","","","","","","","","","","","75","K","2","","","210","main_expt","",""
"","bandit","293","1061532","0.0-252.0-0.0","55804111","wem/bandit_party_2","A33VGSEJ44ORMF","either","6","353","","","","","","","0","0","1","","0.1899351836","0.6","0.4","0.8","0.2","0.2359505063","0.1899351836","0.8397026392","0.2056380183","","","","","","","","","","","","","","74","J","1","","","211","main_expt","",""
"","bandit","294","1063493","0.0-253.0-0.0","55804111","wem/bandit_party_2","A33VGSEJ44ORMF","either","6","437","","","","","","","0","0","1","0.2431981852","","0.6","0.4","0.8","0.2","","","","","0.2431981852","0.2593929449","0.7883870126","0.2487045614","","","","","","","","","","72","H","0","img/none_selected.jpg","","212","main_expt","",""
"","bandit","295","1065255","0.0-254.0-0.0","55804111","wem/bandit_party_2","A33VGSEJ44ORMF","either","6","241","","","","","","","0","0","1","","0.3520378668","0.6","0.4","0.8","0.2","0.3385658967","0.2304425673","0.7160446845","0.3520378668","","","","","","","","","","","","","","76","L","3","","","213","main_expt","",""
"","bandit","296","1068471","0.0-255.0-0.0","55804111","wem/bandit_party_2","A33VGSEJ44ORMF","either","6","1697","","","","","","","0","0","1","","0.2849244028","0.6","0.4","0.8","0.2","0.445002088","0.2849244028","0.7501162241","0.3455661114","","","","","","","","","","","","","","74","J","1","","","214","main_expt","",""
"","bandit","297","1070513","0.0-256.0-0.0","55804111","wem/bandit_party_2","A33VGSEJ44ORMF","either","6","532","","","","","","","0","1","0","","0.7574589115","0.6","0.4","0.8","0.2","0.4340580748","0.3184819088","0.7574589115","0.3290646698","","","","","","","","","","","","","","75","K","2","","","215","main_expt","",""
"","bandit","298","1072470","0.0-257.0-0.0","55804111","wem/bandit_party_2","A33VGSEJ44ORMF","either","6","430","","","","","","","1","0","0","0.7376674805","","0.6","0.4","0.8","0.2","","","","","0.3996931216","0.2989728513","0.7376674805","0.2737258078","","","","","","","","","","75","K","2","","","216","main_expt","",""
"","bandit","299","1074423","0.0-258.0-0.0","55804111","wem/bandit_party_2","A33VGSEJ44ORMF","either","6","426","","","","","","","0","0","1","0.67262171","","0.6","0.4","0.8","0.2","","","","","0.453570069","0.5538830624","0.67262171","0.2401291484","","","","","","","","","","75","K","2","","","217","main_expt","",""
"","bandit","300","1076281","0.0-259.0-0.0","55804111","wem/bandit_party_2","A33VGSEJ44ORMF","either","6","334","","","","","","","0","0","1","0.6309662891","","0.6","0.4","0.8","0.2","","","","","0.3566620654","0.5331458927","0.6309662891","0.2395298113","","","","","","","","","","75","K","2","","","218","main_expt","",""
"","bandit","301","1078441","0.0-260.0-0.0","55804111","wem/bandit_party_2","A33VGSEJ44ORMF","either","6","634","","","","","","","0","0","1","","0.2333127667","0.6","0.4","0.8","0.2","0.3114207129","0.409279481","0.610488243","0.2333127667","","","","","","","","","","","","","","76","L","3","","","219","main_expt","",""
"","bandit","302","1080103","0.0-261.0-0.0","55804111","wem/bandit_party_2","A33VGSEJ44ORMF","either","6","138","","","","","","","0","0","1","0.348491043","","0.6","0.4","0.8","0.2","","","","","0.348491043","0.3910907299","0.6741838821","0.2097963002","","","","","","","","","","72","H","0","img/none_selected.jpg","","220","main_expt","",""
"","bandit","303","1082003","0.0-262.0-0.0","55804111","wem/bandit_party_2","A33VGSEJ44ORMF","either","6","355","","","","","","","0","0","1","","0.325682353","0.6","0.4","0.8","0.2","0.325682353","0.37386253","0.6938787555","0.1761429423","","","","","","","","","","","","","","72","H","0","img/none_selected.jpg","","221","main_expt","",""
"","bandit","304","1083926","0.0-263.0-0.0","55804111","wem/bandit_party_2","A33VGSEJ44ORMF","either","6","394","","","","","","","0","0","1","","0.5460784034","0.6","0.4","0.8","0.2","0.3582518194","0.5460784034","0.622086605","0.1770547834","","","","","","","","","","","","","","74","J","1","","","222","main_expt","",""
"","bandit","305","1085841","0.0-264.0-0.0","55804111","wem/bandit_party_2","A33VGSEJ44ORMF","either","6","393","","","","","","","0","0","1","","0.5484594206","0.6","0.4","0.8","0.2","0.3596631187","0.5484594206","0.6190419158","0.1494166006","","","","","","","","","","","","","","74","J","1","","","223","main_expt","",""
"","bandit","306","1088290","0.0-265.0-0.0","55804111","wem/bandit_party_2","A33VGSEJ44ORMF","either","6","923","","","","","","","0","0","1","0.6525227655","","0.6","0.4","0.8","0.2","","","","","0.4757784632","0.5156266917","0.6525227655","0.1444184755","","","","","","","","","","75","K","2","","","224","main_expt","",""
"","bandit","307","1090248","0.0-266.0-0.0","55804111","wem/bandit_party_2","A33VGSEJ44ORMF","either","6","424","","","","","","","1","0","0","0.5739960468","","0.6","0.4","0.8","0.2","","","","","0.5384710229","0.5120039273","0.5739960468","0.2381889698","","","","","","","","","","75","K","2","","","225","main_expt","",""
"","bandit","308","1092209","0.0-267.0-0.0","55804111","wem/bandit_party_2","A33VGSEJ44ORMF","either","6","436","","","","","","","0","0","1","0.6038380469","","0.6","0.4","0.8","0.2","","","","","0.5308581489","0.5568413113","0.6038380469","0.1429230379","","","","","","","","","","75","K","2","","","226","main_expt","",""
"","bandit","309","1094150","0.0-268.0-0.0","55804111","wem/bandit_party_2","A33VGSEJ44ORMF","either","6","417","","","","","","","0","0","1","","0.124100867","0.6","0.4","0.8","0.2","0.488482713","0.5277183188","0.5203417309","0.124100867","","","","","","","","","","","","","","76","L","3","","","227","main_expt","",""
"","bandit","310","1095740","0.0-269.0-0.0","55804111","wem/bandit_party_2","A33VGSEJ44ORMF","either","6","74","","","","","","","0","0","1","","0.1762219884","0.6","0.4","0.8","0.2","0.4406219513","0.5041270258","0.4263922038","0.1762219884","","","","","","","","","","","","","","76","L","3","","","228","main_expt","",""
"","bandit","311","1098251","0.0-270.0-0.0","55804111","wem/bandit_party_2","A33VGSEJ44ORMF","either","6","979","","","","","","","1","0","0","0.3475105047","","0.6","0.4","0.8","0.2","","","","","0.4892119921","0.4541369304","0.3475105047","0.1910325121","","","","","","","","","","75","K","2","","","229","main_expt","",""
"","bandit","312","1100152","0.0-271.0-0.0","55804111","wem/bandit_party_2","A33VGSEJ44ORMF","either","6","374","","","","","","","0","0","1","0.3353007417","","0.6","0.4","0.8","0.2","","","","","0.5129573662","0.4504381994","0.3353007417","0.2571549068","","","","","","","","","","75","K","2","","","230","main_expt","",""
