"consent","trial_type","trial_index","time_elapsed","internal_node_id","subjID","study","MID","cond","drift","rt","responses","button_pressed","key_press","like","value","connected","gems","bombs","no_reward","GemPrChosen","BombPrChosen","GainOverPainPr_0","GainOverPainPr_1","GainOverPainPr_2","GainOverPainPr_3","LosePr_0","LosePr_1","LosePr_2","LosePr_3","WinPr_0","WinPr_1","WinPr_2","WinPr_3","Q0","Q1","Q2","gender","age","ethnicity","label","expt_phase","target","respCharCode","respKey","respChoiceNum","respChoice","practice","trial_counter","trial_label","Q0_index"
"GDM/GDM_behavioral_consent_30min_online.html","consent","0","5743","0.0-0.0","55942396","wem/bandit_party_2","A23UVI0SKMIXJX","either","7","","","","","","","","","","","","","","","","","","","","","","","","","","","","","","","","","","","","","","","","",""
"","survey-text","1","12391","0.0-1.0","55942396","wem/bandit_party_2","A23UVI0SKMIXJX","either","7","5639","{""Q0"":""A23UVI0SKMIXJX""}","","","","","","","","","","","","","","","","","","","","","","","","","","","","","","","","","","","","","","",""
"","button-response","2","14894","0.0-2.0","55942396","wem/bandit_party_2","A23UVI0SKMIXJX","either","7","1496","","1","","","","","","","","","","","","","","","","","","","","","","","","","","","","","","","","","","","","","",""
"","text-replacement","3","29244","0.0-3.0","55942396","wem/bandit_party_2","A23UVI0SKMIXJX","either","7","13345","","","32","","","","","","","","","","","","","","","","","","","","","","","","","","","","","","","","","","","","",""
"","text-replacement","4","39063","0.0-4.0","55942396","wem/bandit_party_2","A23UVI0SKMIXJX","either","7","9816","","","32","","","","","","","","","","","","","","","","","","","","","","","","","","","","","","","","","","","","",""
"","identification","5","46024","0.0-6.0-0.0","55942396","wem/bandit_party_2","A23UVI0SKMIXJX","either","7","6939","","","","3","3","3","","","","","","","","","","","","","","","","","","","","","","","","pre","identification_pre","the Democratic Party","","","","","","","",""
"","identification","6","52254","0.0-6.0-1.0","55942396","wem/bandit_party_2","A23UVI0SKMIXJX","either","7","5210","","","","2","2","2","","","","","","","","","","","","","","","","","","","","","","","","pre","identification_pre","the Republican Party","","","","","","","",""
"","text-replacement","7","63178","0.0-7.0","55942396","wem/bandit_party_2","A23UVI0SKMIXJX","either","7","9921","","","32","","","","","","","","","","","","","","","","","","","","","","","","","","","","","","","","","","","","",""
"","text-replacement","8","69961","0.0-8.0","55942396","wem/bandit_party_2","A23UVI0SKMIXJX","either","7","6780","","","32","","","","","","","","","","","","","","","","","","","","","","","","","","","","","","","","","","","","",""
"","text-replacement","9","79434","0.0-9.0","55942396","wem/bandit_party_2","A23UVI0SKMIXJX","either","7","9469","","","32","","","","","","","","","","","","","","","","","","","","","","","","","","","","","","","","","","","","",""
"","text-replacement","10","83800","0.0-10.0","55942396","wem/bandit_party_2","A23UVI0SKMIXJX","either","7","4363","","","32","","","","","","","","","","","","","","","","","","","","","","","","","","","","","","","","","","","","",""
"","text-replacement","11","88647","0.0-11.0","55942396","wem/bandit_party_2","A23UVI0SKMIXJX","either","7","4845","","","32","","","","","","","","","","","","","","","","","","","","","","","","","","","","","","","","","","","","",""
"","bandit","12","91818","0.0-12.0-0.0","55942396","wem/bandit_party_2","A23UVI0SKMIXJX","either","7","1658","","","","","","","0","0","1","0","0","","","","","0","","","","0","","","","","","","","","","","","","74","J","0","img/none_selected_demo.jpg","true","0","",""
"","bandit","13","93686","0.0-13.0-0.0","55942396","wem/bandit_party_2","A23UVI0SKMIXJX","either","7","359","","","","","","","0","0","1","0","0","","","","","0","","","","0","","","","","","","","","","","","","75","K","0","img/none_selected_demo.jpg","true","0","",""
"","text-replacement","14","98488","0.0-14.0","55942396","wem/bandit_party_2","A23UVI0SKMIXJX","either","7","4799","","","32","","","","","","","","","","","","","","","","","","","","","","","","","","","","","","","","","","","","",""
"","text-replacement","15","99943","0.0-15.0","55942396","wem/bandit_party_2","A23UVI0SKMIXJX","either","7","1453","","","32","","","","","","","","","","","","","","","","","","","","","","","","","","","","","","","","","","","","",""
"","text-replacement","16","105337","0.0-16.0","55942396","wem/bandit_party_2","A23UVI0SKMIXJX","either","7","5391","","","32","","","","","","","","","","","","","","","","","","","","","","","","","","","","","","","","","","","","",""
"","text-replacement","17","108584","0.0-17.0","55942396","wem/bandit_party_2","A23UVI0SKMIXJX","either","7","3244","","","32","","","","","","","","","","","","","","","","","","","","","","","","","","","","","","","","","","","","",""
"","bandit","18","111350","0.0-18.0-0.0","55942396","wem/bandit_party_2","A23UVI0SKMIXJX","either","7","1258","","","","","","","0","1","0","","0.8","0.5","0.5","","","0.8","0.2","","","","","","","","","","","","","","","","74","J","0","img/none_selected_demo.jpg","true","0","80_20_practice",""
"","bandit","19","113303","0.0-18.0-1.0","55942396","wem/bandit_party_2","A23UVI0SKMIXJX","either","7","443","","","","","","","0","1","0","","0.8","0.5","0.5","","","0.8","0.2","","","","","","","","","","","","","","","","74","J","0","img/none_selected_demo.jpg","true","0","80_20_practice",""
"","bandit","20","115141","0.0-18.0-2.0","55942396","wem/bandit_party_2","A23UVI0SKMIXJX","either","7","330","","","","","","","0","1","0","","0.8","0.5","0.5","","","0.8","0.2","","","","","","","","","","","","","","","","74","J","0","img/none_selected_demo.jpg","true","0","80_20_practice",""
"","bandit","21","116904","0.0-18.0-3.0","55942396","wem/bandit_party_2","A23UVI0SKMIXJX","either","7","255","","","","","","","1","0","0","0.8","","0.5","0.5","","","","","","","0.8","0.2","","","","","","","","","","","","74","J","0","img/none_selected_demo.jpg","true","0","80_20_practice",""
"","bandit","22","118694","0.0-18.0-4.0","55942396","wem/bandit_party_2","A23UVI0SKMIXJX","either","7","281","","","","","","","1","0","0","0.2","","0.5","0.5","","","","","","","0.8","0.2","","","","","","","","","","","","75","K","1","","true","0","80_20_practice",""
"","bandit","23","120453","0.0-18.0-5.0","55942396","wem/bandit_party_2","A23UVI0SKMIXJX","either","7","251","","","","","","","0","0","1","","0.2","0.5","0.5","","","0.8","0.2","","","","","","","","","","","","","","","","75","K","1","","true","0","80_20_practice",""
"","bandit","24","122213","0.0-18.0-6.0","55942396","wem/bandit_party_2","A23UVI0SKMIXJX","either","7","253","","","","","","","0","0","1","","0.2","0.5","0.5","","","0.8","0.2","","","","","","","","","","","","","","","","75","K","1","","true","0","80_20_practice",""
"","bandit","25","123926","0.0-18.0-7.0","55942396","wem/bandit_party_2","A23UVI0SKMIXJX","either","7","204","","","","","","","0","1","0","","0.8","0.5","0.5","","","0.8","0.2","","","","","","","","","","","","","","","","74","J","0","img/none_selected_demo.jpg","true","0","80_20_practice",""
"","bandit","26","126070","0.0-18.0-8.0","55942396","wem/bandit_party_2","A23UVI0SKMIXJX","either","7","636","","","","","","","0","1","0","","0.8","0.5","0.5","","","0.8","0.2","","","","","","","","","","","","","","","","74","J","0","img/none_selected_demo.jpg","true","0","80_20_practice",""
"","bandit","27","127720","0.0-18.0-9.0","55942396","wem/bandit_party_2","A23UVI0SKMIXJX","either","7","143","","","","","","","1","0","0","0.8","","0.5","0.5","","","","","","","0.8","0.2","","","","","","","","","","","","74","J","0","img/none_selected_demo.jpg","true","0","80_20_practice",""
"","bandit","28","129365","0.0-18.0-10.0","55942396","wem/bandit_party_2","A23UVI0SKMIXJX","either","7","137","","","","","","","1","0","0","0.8","","0.5","0.5","","","","","","","0.8","0.2","","","","","","","","","","","","74","J","0","img/none_selected_demo.jpg","true","0","80_20_practice",""
"","bandit","29","130885","0.0-18.0-11.0","55942396","wem/bandit_party_2","A23UVI0SKMIXJX","either","7","12","","","","","","","0","1","0","","0.8","0.5","0.5","","","0.8","0.2","","","","","","","","","","","","","","","","74","J","0","img/none_selected_demo.jpg","true","0","80_20_practice",""
"","bandit","30","133848","0.0-18.0-12.0","55942396","wem/bandit_party_2","A23UVI0SKMIXJX","either","7","1452","","","","","","","0","1","0","","0.8","0.5","0.5","","","0.8","0.2","","","","","","","","","","","","","","","","74","J","0","img/none_selected_demo.jpg","true","0","80_20_practice",""
"","bandit","31","137976","0.0-18.0-13.0","55942396","wem/bandit_party_2","A23UVI0SKMIXJX","either","7","2620","","","","","","","0","1","0","","0.8","0.5","0.5","","","0.8","0.2","","","","","","","","","","","","","","","","74","J","0","img/none_selected_demo.jpg","true","0","80_20_practice",""
"","bandit","32","139734","0.0-18.0-14.0","55942396","wem/bandit_party_2","A23UVI0SKMIXJX","either","7","250","","","","","","","0","0","1","","0.8","0.5","0.5","","","0.8","0.2","","","","","","","","","","","","","","","","74","J","0","img/none_selected_demo.jpg","true","0","80_20_practice",""
"","bandit","33","142181","0.0-18.0-15.0","55942396","wem/bandit_party_2","A23UVI0SKMIXJX","either","7","939","","","","","","","0","1","0","","0.8","0.5","0.5","","","0.8","0.2","","","","","","","","","","","","","","","","74","J","0","img/none_selected_demo.jpg","true","0","80_20_practice",""
"","bandit","34","143830","0.0-18.0-16.0","55942396","wem/bandit_party_2","A23UVI0SKMIXJX","either","7","140","","","","","","","1","0","0","0.8","","0.5","0.5","","","","","","","0.8","0.2","","","","","","","","","","","","74","J","0","img/none_selected_demo.jpg","true","0","80_20_practice",""
"","bandit","35","145559","0.0-18.0-17.0","55942396","wem/bandit_party_2","A23UVI0SKMIXJX","either","7","221","","","","","","","1","0","0","0.8","","0.5","0.5","","","","","","","0.8","0.2","","","","","","","","","","","","74","J","0","img/none_selected_demo.jpg","true","0","80_20_practice",""
"","bandit","36","147334","0.0-18.0-18.0","55942396","wem/bandit_party_2","A23UVI0SKMIXJX","either","7","266","","","","","","","0","1","0","","0.8","0.5","0.5","","","0.8","0.2","","","","","","","","","","","","","","","","74","J","0","img/none_selected_demo.jpg","true","0","80_20_practice",""
"","bandit","37","148969","0.0-18.0-19.0","55942396","wem/bandit_party_2","A23UVI0SKMIXJX","either","7","125","","","","","","","0","1","0","","0.8","0.5","0.5","","","0.8","0.2","","","","","","","","","","","","","","","","74","J","0","img/none_selected_demo.jpg","true","0","80_20_practice",""
"","text-replacement","38","154535","0.0-19.0","55942396","wem/bandit_party_2","A23UVI0SKMIXJX","either","7","5563","","","32","","","","","","","","","","","","","","","","","","","","","","","","","","","","","","","","","","","","",""
"","bandit","39","156966","0.0-20.0-0.0","55942396","wem/bandit_party_2","A23UVI0SKMIXJX","either","7","922","","","","","","","1","0","0","1","0","","","","","0","1","","","1","0","","","","","","","","","","","","74","J","0","img/none_selected_demo.jpg","true","0","",""
"","text-replacement","40","162522","0.0-21.0","55942396","wem/bandit_party_2","A23UVI0SKMIXJX","either","7","5551","","","32","","","","","","","","","","","","","","","","","","","","","","","","","","","","","","","","","","","","",""
"","text-replacement","41","165351","0.0-22.0","55942396","wem/bandit_party_2","A23UVI0SKMIXJX","either","7","2826","","","32","","","","","","","","","","","","","","","","","","","","","","","","","","","","","","","","","","","","",""
"","text-replacement","42","167799","0.0-23.0","55942396","wem/bandit_party_2","A23UVI0SKMIXJX","either","7","2445","","","32","","","","","","","","","","","","","","","","","","","","","","","","","","","","","","","","","","","","",""
"","text-replacement","43","170775","0.0-24.0","55942396","wem/bandit_party_2","A23UVI0SKMIXJX","either","7","2972","","","32","","","","","","","","","","","","","","","","","","","","","","","","","","","","","","","","","","","","",""
"","text-replacement","44","176441","0.0-25.0","55942396","wem/bandit_party_2","A23UVI0SKMIXJX","either","7","5663","","","32","","","","","","","","","","","","","","","","","","","","","","","","","","","","","","","","","","","","",""
"","text-replacement","45","180055","0.0-26.0","55942396","wem/bandit_party_2","A23UVI0SKMIXJX","either","7","3610","","","32","","","","","","","","","","","","","","","","","","","","","","","","","","","","","","","","","","","","",""
"","text-replacement","46","183783","0.0-27.0","55942396","wem/bandit_party_2","A23UVI0SKMIXJX","either","7","3724","","","32","","","","","","","","","","","","","","","","","","","","","","","","","","","","","","","","","","","","",""
"","text-replacement","47","187417","0.0-28.0","55942396","wem/bandit_party_2","A23UVI0SKMIXJX","either","7","3630","","","32","","","","","","","","","","","","","","","","","","","","","","","","","","","","","","","","","","","","",""
"","text-replacement","48","194583","0.0-29.0","55942396","wem/bandit_party_2","A23UVI0SKMIXJX","either","7","7162","","","32","","","","","","","","","","","","","","","","","","","","","","","","","","","","","","","","","","","","",""
"","text-replacement","49","196343","0.0-30.0","55942396","wem/bandit_party_2","A23UVI0SKMIXJX","either","7","1757","","","32","","","","","","","","","","","","","","","","","","","","","","","","","","","","","","","","","","","","",""
"","text-replacement","50","198919","0.0-31.0","55942396","wem/bandit_party_2","A23UVI0SKMIXJX","either","7","2572","","","32","","","","","","","","","","","","","","","","","","","","","","","","","","","","","","","","","","","","",""
"","bandit","51","201013","0.0-32.0-0.0","55942396","wem/bandit_party_2","A23UVI0SKMIXJX","either","7","586","","","","","","","1","0","0","0.8","","0.5","0.5","0.5","0.5","","","","","0.8","0.2","0.6","0.2","","","","","","","","","","72","H","0","img/none_selected.jpg","true","0","full_practice",""
"","bandit","52","202694","0.0-32.0-1.0","55942396","wem/bandit_party_2","A23UVI0SKMIXJX","either","7","171","","","","","","","1","0","0","0.8","","0.5","0.5","0.5","0.5","","","","","0.8","0.2","0.6","0.2","","","","","","","","","","72","H","0","img/none_selected.jpg","true","0","full_practice",""
"","bandit","53","204438","0.0-32.0-2.0","55942396","wem/bandit_party_2","A23UVI0SKMIXJX","either","7","235","","","","","","","0","1","0","","0.8","0.5","0.5","0.5","0.5","0.8","0.2","0.6","0.2","","","","","","","","","","","","","","72","H","0","img/none_selected.jpg","true","0","full_practice",""
"","bandit","54","206150","0.0-32.0-3.0","55942396","wem/bandit_party_2","A23UVI0SKMIXJX","either","7","203","","","","","","","0","1","0","","0.8","0.5","0.5","0.5","0.5","0.8","0.2","0.6","0.2","","","","","","","","","","","","","","72","H","0","img/none_selected.jpg","true","0","full_practice",""
"","bandit","55","207878","0.0-32.0-4.0","55942396","wem/bandit_party_2","A23UVI0SKMIXJX","either","7","218","","","","","","","0","0","1","","0.2","0.5","0.5","0.5","0.5","0.8","0.2","0.6","0.2","","","","","","","","","","","","","","74","J","1","","true","0","full_practice",""
"","bandit","56","210137","0.0-32.0-5.0","55942396","wem/bandit_party_2","A23UVI0SKMIXJX","either","7","749","","","","","","","0","0","1","0.2","","0.5","0.5","0.5","0.5","","","","","0.8","0.2","0.6","0.2","","","","","","","","","","74","J","1","","true","0","full_practice",""
"","bandit","57","211861","0.0-32.0-6.0","55942396","wem/bandit_party_2","A23UVI0SKMIXJX","either","7","216","","","","","","","0","0","1","","0.2","0.5","0.5","0.5","0.5","0.8","0.2","0.6","0.2","","","","","","","","","","","","","","74","J","1","","true","0","full_practice",""
"","bandit","58","213398","0.0-32.0-7.0","55942396","wem/bandit_party_2","A23UVI0SKMIXJX","either","7","28","","","","","","","0","0","1","0.6","","0.5","0.5","0.5","0.5","","","","","0.8","0.2","0.6","0.2","","","","","","","","","","75","K","2","","true","0","full_practice",""
"","bandit","59","215045","0.0-32.0-8.0","55942396","wem/bandit_party_2","A23UVI0SKMIXJX","either","7","138","","","","","","","0","1","0","","0.6","0.5","0.5","0.5","0.5","0.8","0.2","0.6","0.2","","","","","","","","","","","","","","75","K","2","","true","0","full_practice",""
"","bandit","60","216614","0.0-32.0-9.0","55942396","wem/bandit_party_2","A23UVI0SKMIXJX","either","7","58","","","","","","","1","0","0","0.6","","0.5","0.5","0.5","0.5","","","","","0.8","0.2","0.6","0.2","","","","","","","","","","75","K","2","","true","0","full_practice",""
"","bandit","61","218277","0.0-32.0-10.0","55942396","wem/bandit_party_2","A23UVI0SKMIXJX","either","7","154","","","","","","","1","0","0","0.6","","0.5","0.5","0.5","0.5","","","","","0.8","0.2","0.6","0.2","","","","","","","","","","75","K","2","","true","0","full_practice",""
"","bandit","62","219790","0.0-32.0-11.0","55942396","wem/bandit_party_2","A23UVI0SKMIXJX","either","7","1","","","","","","","0","1","0","","0.6","0.5","0.5","0.5","0.5","0.8","0.2","0.6","0.2","","","","","","","","","","","","","","75","K","2","","true","0","full_practice",""
"","bandit","63","221572","0.0-32.0-12.0","55942396","wem/bandit_party_2","A23UVI0SKMIXJX","either","7","274","","","","","","","0","0","1","0.2","","0.5","0.5","0.5","0.5","","","","","0.8","0.2","0.6","0.2","","","","","","","","","","76","L","3","","true","0","full_practice",""
"","bandit","64","223253","0.0-32.0-13.0","55942396","wem/bandit_party_2","A23UVI0SKMIXJX","either","7","170","","","","","","","0","0","1","0.2","","0.5","0.5","0.5","0.5","","","","","0.8","0.2","0.6","0.2","","","","","","","","","","76","L","3","","true","0","full_practice",""
"","bandit","65","225030","0.0-32.0-14.0","55942396","wem/bandit_party_2","A23UVI0SKMIXJX","either","7","267","","","","","","","0","0","1","0.2","","0.5","0.5","0.5","0.5","","","","","0.8","0.2","0.6","0.2","","","","","","","","","","76","L","3","","true","0","full_practice",""
"","bandit","66","226931","0.0-32.0-15.0","55942396","wem/bandit_party_2","A23UVI0SKMIXJX","either","7","391","","","","","","","1","0","0","0.8","","0.5","0.5","0.5","0.5","","","","","0.8","0.2","0.6","0.2","","","","","","","","","","72","H","0","img/none_selected.jpg","true","0","full_practice",""
"","bandit","67","228708","0.0-32.0-16.0","55942396","wem/bandit_party_2","A23UVI0SKMIXJX","either","7","268","","","","","","","0","1","0","","0.8","0.5","0.5","0.5","0.5","0.8","0.2","0.6","0.2","","","","","","","","","","","","","","72","H","0","img/none_selected.jpg","true","0","full_practice",""
"","bandit","68","230456","0.0-32.0-17.0","55942396","wem/bandit_party_2","A23UVI0SKMIXJX","either","7","238","","","","","","","1","0","0","0.8","","0.5","0.5","0.5","0.5","","","","","0.8","0.2","0.6","0.2","","","","","","","","","","72","H","0","img/none_selected.jpg","true","0","full_practice",""
"","bandit","69","232181","0.0-32.0-18.0","55942396","wem/bandit_party_2","A23UVI0SKMIXJX","either","7","215","","","","","","","0","0","1","","0.8","0.5","0.5","0.5","0.5","0.8","0.2","0.6","0.2","","","","","","","","","","","","","","72","H","0","img/none_selected.jpg","true","0","full_practice",""
"","bandit","70","233733","0.0-32.0-19.0","55942396","wem/bandit_party_2","A23UVI0SKMIXJX","either","7","41","","","","","","","0","0","1","0.8","","0.5","0.5","0.5","0.5","","","","","0.8","0.2","0.6","0.2","","","","","","","","","","72","H","0","img/none_selected.jpg","true","0","full_practice",""
"","text","71","238358","0.0-33.0","55942396","wem/bandit_party_2","A23UVI0SKMIXJX","either","7","4606","","","32","","","","","","","","","","","","","","","","","","","","","","","","","","","","","","","","","","","","",""
"","text-replacement","72","250185","0.0-34.0","55942396","wem/bandit_party_2","A23UVI0SKMIXJX","either","7","10822","","","32","","","","","","","","","","","","","","","","","","","","","","","","","","","","","","","","","","","","",""
"","text-replacement","73","256470","0.0-35.0","55942396","wem/bandit_party_2","A23UVI0SKMIXJX","either","7","6281","","","32","","","","","","","","","","","","","","","","","","","","","","","","","","","","","","","","","","","","",""
"","text-replacement","74","262425","0.0-36.0","55942396","wem/bandit_party_2","A23UVI0SKMIXJX","either","7","5951","","","32","","","","","","","","","","","","","","","","","","","","","","","","","","","","","","","","","","","","",""
"","text-replacement","75","268374","0.0-37.0","55942396","wem/bandit_party_2","A23UVI0SKMIXJX","either","7","5945","","","32","","","","","","","","","","","","","","","","","","","","","","","","","","","","","","","","","","","","",""
"","text-replacement","76","269942","0.0-38.0","55942396","wem/bandit_party_2","A23UVI0SKMIXJX","either","7","1564","","","32","","","","","","","","","","","","","","","","","","","","","","","","","","","","","","","","","","","","",""
"","survey-multi-choice-replacement","77","274271","0.0-39.0-0.0","55942396","wem/bandit_party_2","A23UVI0SKMIXJX","either","7","4318","","","","","","","","","","","","","","","","","","","","","","","","Money will be added to the pool for <span style='color:blue;'>DEMOCRATS</span>","","","","","","","attn_check","","","","","","","","","0"
"","survey-multi-choice-replacement","78","279054","0.0-40.0-0.0","55942396","wem/bandit_party_2","A23UVI0SKMIXJX","either","7","3770","","","","","","","","","","","","","","","","","","","","","","","","Equal amounts of money will be added to the pool for <span style='color:blue;'>DEMOCRATS</span> and subtracted from the pool for <span style='color:red;'>REPUBLICANS</span>","","","","","","","attn_check","","","","","","","","","2"
"","survey-multi-choice-replacement","79","283862","0.0-41.0-0.0","55942396","wem/bandit_party_2","A23UVI0SKMIXJX","either","7","3794","","","","","","","","","","","","","","","","","","","","","","","","No money will be added to either pool","","","","","","","attn_check","","","","","","","","","3"
"","bandit","80","287975","0.0-42.0-0.0","55942396","wem/bandit_party_2","A23UVI0SKMIXJX","either","7","1597","","","","","","","0","1","0","","0.2888626749","0.4","0.2","0.6","0.8","0.2888626749","0.7088318221","0.1731741302","0.5514722813","","","","","","","","","","","","","","72","H","0","img/none_selected.jpg","","1","main_expt",""
"","bandit","81","289845","0.0-43.0-0.0","55942396","wem/bandit_party_2","A23UVI0SKMIXJX","either","7","360","","","","","","","0","0","1","","0.3999538902","0.4","0.2","0.6","0.8","0.3999538902","0.6292935488","0.2874485847","0.5039303977","","","","","","","","","","","","","","72","H","0","img/none_selected.jpg","","2","main_expt",""
"","bandit","82","291366","0.0-44.0-0.0","55942396","wem/bandit_party_2","A23UVI0SKMIXJX","either","7","11","","","","","","","1","0","0","0.4126831114","","0.4","0.2","0.6","0.8","","","","","0.4126831114","0.5285482983","0.2683250969","0.5527877924","","","","","","","","","","72","H","0","img/none_selected.jpg","","3","main_expt",""
"","bandit","83","293318","0.0-45.0-0.0","55942396","wem/bandit_party_2","A23UVI0SKMIXJX","either","7","440","","","","","","","0","0","1","0.3923803367","","0.4","0.2","0.6","0.8","","","","","0.3923803367","0.6744491701","0.3988631097","0.6336700584","","","","","","","","","","72","H","0","img/none_selected.jpg","","4","main_expt",""
"","bandit","84","295205","0.0-46.0-0.0","55942396","wem/bandit_party_2","A23UVI0SKMIXJX","either","7","380","","","","","","","0","0","1","","0.7922285807","0.4","0.2","0.6","0.8","0.3803283439","0.7922285807","0.3568799457","0.6340088104","","","","","","","","","","","","","","74","J","1","","","5","main_expt",""
"","bandit","85","296920","0.0-47.0-0.0","55942396","wem/bandit_party_2","A23UVI0SKMIXJX","either","7","205","","","","","","","0","1","0","","0.7459441126","0.4","0.2","0.6","0.8","0.4214296899","0.7459441126","0.3188731731","0.5784181907","","","","","","","","","","","","","","74","J","1","","","6","main_expt",""
"","bandit","86","298614","0.0-48.0-0.0","55942396","wem/bandit_party_2","A23UVI0SKMIXJX","either","7","184","","","","","","","1","0","0","0.7681481668","","0.4","0.2","0.6","0.8","","","","","0.4755968838","0.7681481668","0.4574196012","0.6727083857","","","","","","","","","","74","J","1","","","7","main_expt",""
"","bandit","87","300215","0.0-49.0-0.0","55942396","wem/bandit_party_2","A23UVI0SKMIXJX","either","7","89","","","","","","","0","0","1","","0.7251609313","0.4","0.2","0.6","0.8","0.5353568537","0.7251609313","0.5037884951","0.7574508858","","","","","","","","","","","","","","74","J","1","","","8","main_expt",""
"","bandit","88","301812","0.0-50.0-0.0","55942396","wem/bandit_party_2","A23UVI0SKMIXJX","either","7","91","","","","","","","0","1","0","","0.7403055102","0.4","0.2","0.6","0.8","0.6246831942","0.7403055102","0.5750013994","0.8280759311","","","","","","","","","","","","","","74","J","1","","","9","main_expt",""
"","bandit","89","303571","0.0-51.0-0.0","55942396","wem/bandit_party_2","A23UVI0SKMIXJX","either","7","253","","","","","","","0","1","0","","0.722944265","0.4","0.2","0.6","0.8","0.4475954046","0.722944265","0.5399040382","0.859726102","","","","","","","","","","","","","","74","J","1","","","10","main_expt",""
"","bandit","90","305301","0.0-52.0-0.0","55942396","wem/bandit_party_2","A23UVI0SKMIXJX","either","7","224","","","","","","","0","1","0","","0.6833847698","0.4","0.2","0.6","0.8","0.4514702697","0.6833847698","0.5181098662","0.877956501","","","","","","","","","","","","","","74","J","1","","","11","main_expt",""
"","bandit","91","307045","0.0-53.0-0.0","55942396","wem/bandit_party_2","A23UVI0SKMIXJX","either","7","233","","","","","","","0","1","0","","0.689227163","0.4","0.2","0.6","0.8","0.4873058782","0.689227163","0.5489165229","0.8883669707","","","","","","","","","","","","","","74","J","1","","","12","main_expt",""
"","bandit","92","308710","0.0-54.0-0.0","55942396","wem/bandit_party_2","A23UVI0SKMIXJX","either","7","153","","","","","","","0","0","1","","0.5178623456","0.4","0.2","0.6","0.8","0.4862469224","0.5178623456","0.6186986429","0.817149195","","","","","","","","","","","","","","74","J","1","","","13","main_expt",""
"","bandit","93","310694","0.0-55.0-0.0","55942396","wem/bandit_party_2","A23UVI0SKMIXJX","either","7","472","","","","","","","0","0","1","","0.4944095791","0.4","0.2","0.6","0.8","0.360908092","0.4768489018","0.4944095791","0.8589139609","","","","","","","","","","","","","","75","K","2","","","14","main_expt",""
"","bandit","94","312372","0.0-56.0-0.0","55942396","wem/bandit_party_2","A23UVI0SKMIXJX","either","7","173","","","","","","","0","1","0","","0.4820951366","0.4","0.2","0.6","0.8","0.4126647893","0.5201849276","0.4820951366","0.7955781648","","","","","","","","","","","","","","75","K","2","","","15","main_expt",""
"","bandit","95","314213","0.0-57.0-0.0","55942396","wem/bandit_party_2","A23UVI0SKMIXJX","either","7","336","","","","","","","1","0","0","0.4888848296","","0.4","0.2","0.6","0.8","","","","","0.4930686601","0.6862231469","0.4888848296","0.8864445785","","","","","","","","","","75","K","2","","","16","main_expt",""
"","bandit","96","315876","0.0-58.0-0.0","55942396","wem/bandit_party_2","A23UVI0SKMIXJX","either","7","158","","","","","","","0","0","1","0.381306026","","0.4","0.2","0.6","0.8","","","","","0.5162343008","0.7297328357","0.381306026","0.8746062981","","","","","","","","","","75","K","2","","","17","main_expt",""
"","bandit","97","317540","0.0-59.0-0.0","55942396","wem/bandit_party_2","A23UVI0SKMIXJX","either","7","155","","","","","","","1","0","0","0.3537135189","","0.4","0.2","0.6","0.8","","","","","0.5627456494","0.6686287009","0.3537135189","0.8910236512","","","","","","","","","","75","K","2","","","18","main_expt",""
"","bandit","98","319269","0.0-60.0-0.0","55942396","wem/bandit_party_2","A23UVI0SKMIXJX","either","7","223","","","","","","","0","0","1","0.4891458502","","0.4","0.2","0.6","0.8","","","","","0.4478227807","0.7885428456","0.4891458502","0.8932054573","","","","","","","","","","75","K","2","","","19","main_expt",""
"","bandit","99","320917","0.0-61.0-0.0","55942396","wem/bandit_party_2","A23UVI0SKMIXJX","either","7","138","","","","","","","0","1","0","","0.8900063933","0.4","0.2","0.6","0.8","0.5306796692","0.7442236049","0.5440957398","0.8900063933","","","","","","","","","","","","","","76","L","3","","","20","main_expt",""
"","bandit","100","322678","0.0-62.0-0.0","55942396","wem/bandit_party_2","A23UVI0SKMIXJX","either","7","250","","","","","","","1","0","0","0.8748704397","","0.4","0.2","0.6","0.8","","","","","0.5423611418","0.7908218503","0.5621313733","0.8748704397","","","","","","","","","","76","L","3","","","21","main_expt",""
"","bandit","101","324406","0.0-63.0-0.0","55942396","wem/bandit_party_2","A23UVI0SKMIXJX","either","7","217","","","","","","","1","0","0","0.8498769136","","0.4","0.2","0.6","0.8","","","","","0.4190568807","0.7163236006","0.5296345876","0.8498769136","","","","","","","","","","76","L","3","","","22","main_expt",""
"","bandit","102","326149","0.0-64.0-0.0","55942396","wem/bandit_party_2","A23UVI0SKMIXJX","either","7","233","","","","","","","0","1","0","","0.8357449374","0.4","0.2","0.6","0.8","0.4329937009","0.7061190667","0.5187107172","0.8357449374","","","","","","","","","","","","","","76","L","3","","","23","main_expt",""
"","bandit","103","327960","0.0-65.0-0.0","55942396","wem/bandit_party_2","A23UVI0SKMIXJX","either","7","300","","","","","","","1","0","0","0.8431908073","","0.4","0.2","0.6","0.8","","","","","0.4298879426","0.7470556917","0.6000521927","0.8431908073","","","","","","","","","","76","L","3","","","24","main_expt",""
"","bandit","104","329846","0.0-66.0-0.0","55942396","wem/bandit_party_2","A23UVI0SKMIXJX","either","7","374","","","","","","","1","0","0","0.8741885854","","0.4","0.2","0.6","0.8","","","","","0.2992323157","0.8154180688","0.5443047256","0.8741885854","","","","","","","","","","76","L","3","","","25","main_expt",""
"","bandit","105","331733","0.0-67.0-0.0","55942396","wem/bandit_party_2","A23UVI0SKMIXJX","either","7","377","","","","","","","1","0","0","0.8940719671","","0.4","0.2","0.6","0.8","","","","","0.3857263224","0.8395379789","0.592493964","0.8940719671","","","","","","","","","","76","L","3","","","26","main_expt",""
"","bandit","106","333545","0.0-68.0-0.0","55942396","wem/bandit_party_2","A23UVI0SKMIXJX","either","7","299","","","","","","","1","0","0","0.8733378856","","0.4","0.2","0.6","0.8","","","","","0.3715251318","0.8023078409","0.5779569403","0.8733378856","","","","","","","","","","76","L","3","","","27","main_expt",""
"","bandit","107","335429","0.0-69.0-0.0","55942396","wem/bandit_party_2","A23UVI0SKMIXJX","either","7","374","","","","","","","0","1","0","","0.8695586723","0.4","0.2","0.6","0.8","0.3387808014","0.8248968235","0.7077223562","0.8695586723","","","","","","","","","","","","","","76","L","3","","","28","main_expt",""
"","bandit","108","337284","0.0-70.0-0.0","55942396","wem/bandit_party_2","A23UVI0SKMIXJX","either","7","344","","","","","","","1","0","0","0.7908290088","","0.4","0.2","0.6","0.8","","","","","0.3737397218","0.8621011303","0.7070353494","0.7908290088","","","","","","","","","","76","L","3","","","29","main_expt",""
"","bandit","109","339048","0.0-71.0-0.0","55942396","wem/bandit_party_2","A23UVI0SKMIXJX","either","7","251","","","","","","","1","0","0","0.8518997755","","0.4","0.2","0.6","0.8","","","","","0.3232047389","0.8873668535","0.6585428656","0.8518997755","","","","","","","","","","76","L","3","","","30","main_expt",""
"","bandit","110","340916","0.0-72.0-0.0","55942396","wem/bandit_party_2","A23UVI0SKMIXJX","either","7","359","","","","","","","0","0","1","0.8509842625","","0.4","0.2","0.6","0.8","","","","","0.4130267239","0.9318975106","0.6724088618","0.8509842625","","","","","","","","","","76","L","3","","","31","main_expt",""
"","bandit","111","342708","0.0-73.0-0.0","55942396","wem/bandit_party_2","A23UVI0SKMIXJX","either","7","280","","","","","","","1","0","0","0.872996121","","0.4","0.2","0.6","0.8","","","","","0.4167758813","0.9013609786","0.6416581209","0.872996121","","","","","","","","","","76","L","3","","","32","main_expt",""
"","bandit","112","344549","0.0-74.0-0.0","55942396","wem/bandit_party_2","A23UVI0SKMIXJX","either","7","330","","","","","","","1","0","0","0.8571046391","","0.4","0.2","0.6","0.8","","","","","0.4546052232","0.9041531295","0.7055802426","0.8571046391","","","","","","","","","","76","L","3","","","33","main_expt",""
"","bandit","113","346245","0.0-75.0-0.0","55942396","wem/bandit_party_2","A23UVI0SKMIXJX","either","7","185","","","","","","","1","0","0","0.9175819521","","0.4","0.2","0.6","0.8","","","","","0.5231803088","0.9386104272","0.7554114371","0.9175819521","","","","","","","","","","76","L","3","","","34","main_expt",""
"","bandit","114","348101","0.0-76.0-0.0","55942396","wem/bandit_party_2","A23UVI0SKMIXJX","either","7","339","","","","","","","1","0","0","0.9503165686","","0.4","0.2","0.6","0.8","","","","","0.4661188593","0.9180645683","0.8008095759","0.9503165686","","","","","","","","","","76","L","3","","","35","main_expt",""
"","bandit","115","349864","0.0-77.0-0.0","55942396","wem/bandit_party_2","A23UVI0SKMIXJX","either","7","250","","","","","","","0","1","0","","0.9327615424","0.4","0.2","0.6","0.8","0.4106027186","0.9095107155","0.6925109639","0.9327615424","","","","","","","","","","","","","","76","L","3","","","36","main_expt",""
"","bandit","116","351572","0.0-78.0-0.0","55942396","wem/bandit_party_2","A23UVI0SKMIXJX","either","7","194","","","","","","","1","0","0","0.9196494001","","0.4","0.2","0.6","0.8","","","","","0.5021263718","0.9405648028","0.7764255689","0.9196494001","","","","","","","","","","76","L","3","","","37","main_expt",""
"","bandit","117","353384","0.0-79.0-0.0","55942396","wem/bandit_party_2","A23UVI0SKMIXJX","either","7","298","","","","","","","1","0","0","0.928530414","","0.4","0.2","0.6","0.8","","","","","0.5065313343","0.9058459248","0.8392953971","0.928530414","","","","","","","","","","76","L","3","","","38","main_expt",""
"","bandit","118","355126","0.0-80.0-0.0","55942396","wem/bandit_party_2","A23UVI0SKMIXJX","either","7","231","","","","","","","1","0","0","0.9001545702","","0.4","0.2","0.6","0.8","","","","","0.6098243774","0.8784462517","0.7614495855","0.9001545702","","","","","","","","","","76","L","3","","","39","main_expt",""
"","bandit","119","357477","0.0-81.0-0.0","55942396","wem/bandit_party_2","A23UVI0SKMIXJX","either","7","838","","","","","","","1","0","0","0.8432481254","","0.4","0.2","0.6","0.8","","","","","0.679699592","0.8408568766","0.8060705796","0.8432481254","","","","","","","","","","76","L","3","","","40","main_expt",""
"","bandit","120","359173","0.0-82.0-0.0","55942396","wem/bandit_party_2","A23UVI0SKMIXJX","either","7","184","","","","","","","1","0","0","0.8326479564","","0.4","0.2","0.6","0.8","","","","","0.616488607","0.811342849","0.7539991053","0.8326479564","","","","","","","","","","76","L","3","","","41","main_expt",""
"","bandit","121","360756","0.0-83.0-0.0","55942396","wem/bandit_party_2","A23UVI0SKMIXJX","either","7","71","","","","","","","1","0","0","0.8602810298","","0.4","0.2","0.6","0.8","","","","","0.6307104111","0.8058808774","0.7717369324","0.8602810298","","","","","","","","","","76","L","3","","","42","main_expt",""
"","bandit","122","362308","0.0-84.0-0.0","55942396","wem/bandit_party_2","A23UVI0SKMIXJX","either","7","41","","","","","","","1","0","0","0.894365654","","0.4","0.2","0.6","0.8","","","","","0.554567591","0.7899844578","0.7625968551","0.894365654","","","","","","","","","","76","L","3","","","43","main_expt",""
"","bandit","123","363957","0.0-85.0-0.0","55942396","wem/bandit_party_2","A23UVI0SKMIXJX","either","7","136","","","","","","","1","0","0","0.9033664713","","0.4","0.2","0.6","0.8","","","","","0.5281861223","0.7654486741","0.8488621298","0.9033664713","","","","","","","","","","76","L","3","","","44","main_expt",""
"","bandit","124","365620","0.0-86.0-0.0","55942396","wem/bandit_party_2","A23UVI0SKMIXJX","either","7","152","","","","","","","1","0","0","0.8829964613","","0.4","0.2","0.6","0.8","","","","","0.5043334007","0.7674111825","0.8522077325","0.8829964613","","","","","","","","","","76","L","3","","","45","main_expt",""
"","bandit","125","367348","0.0-87.0-0.0","55942396","wem/bandit_party_2","A23UVI0SKMIXJX","either","7","216","","","","","","","1","0","0","0.8674694879","","0.4","0.2","0.6","0.8","","","","","0.5426256613","0.6301273516","0.8618589195","0.8674694879","","","","","","","","","","76","L","3","","","46","main_expt",""
"","bandit","126","369045","0.0-88.0-0.0","55942396","wem/bandit_party_2","A23UVI0SKMIXJX","either","7","185","","","","","","","1","0","0","0.8886720039","","0.4","0.2","0.6","0.8","","","","","0.5024796093","0.7885969413","0.905897833","0.8886720039","","","","","","","","","","76","L","3","","","47","main_expt",""
"","bandit","127","371158","0.0-89.0-0.0","55942396","wem/bandit_party_2","A23UVI0SKMIXJX","either","7","602","","","","","","","1","0","0","0.9229902905","","0.4","0.2","0.6","0.8","","","","","0.4689138593","0.7983786211","0.8929468812","0.9229902905","","","","","","","","","","76","L","3","","","48","main_expt",""
"","bandit","128","373398","0.0-90.0-0.0","55942396","wem/bandit_party_2","A23UVI0SKMIXJX","either","7","727","","","","","","","1","0","0","0.9141434128","","0.4","0.2","0.6","0.8","","","","","0.4439560463","0.8249867574","0.854905512","0.9141434128","","","","","","","","","","76","L","3","","","49","main_expt",""
"","bandit","129","375286","0.0-91.0-0.0","55942396","wem/bandit_party_2","A23UVI0SKMIXJX","either","7","375","","","","","","","1","0","0","0.9181160336","","0.4","0.2","0.6","0.8","","","","","0.4079842927","0.7532301684","0.8363103738","0.9181160336","","","","","","","","","","76","L","3","","","50","main_expt",""
"","bandit","130","378101","0.0-92.0-0.0","55942396","wem/bandit_party_2","A23UVI0SKMIXJX","either","7","1306","","","","","","","0","1","0","","0.9266489825","0.4","0.2","0.6","0.8","0.4675199832","0.6750909554","0.7168506975","0.9266489825","","","","","","","","","","","","","","76","L","3","","","51","main_expt",""
"","bandit","131","380003","0.0-93.0-0.0","55942396","wem/bandit_party_2","A23UVI0SKMIXJX","either","7","391","","","","","","","1","0","0","0.9285581488","","0.4","0.2","0.6","0.8","","","","","0.4368052975","0.6762079337","0.6507986152","0.9285581488","","","","","","","","","","76","L","3","","","52","main_expt",""
"","bandit","132","381895","0.0-94.0-0.0","55942396","wem/bandit_party_2","A23UVI0SKMIXJX","either","7","379","","","","","","","1","0","0","0.9171724481","","0.4","0.2","0.6","0.8","","","","","0.4967902672","0.7882030045","0.6531867096","0.9171724481","","","","","","","","","","76","L","3","","","53","main_expt",""
"","bandit","133","384597","0.0-95.0-0.0","55942396","wem/bandit_party_2","A23UVI0SKMIXJX","either","7","1190","","","","","","","0","1","0","","0.8709862684","0.4","0.2","0.6","0.8","0.5321533453","0.8759533557","0.6178049746","0.8709862684","","","","","","","","","","","","","","76","L","3","","","54","main_expt",""
"","bandit","134","386532","0.0-96.0-0.0","55942396","wem/bandit_party_2","A23UVI0SKMIXJX","either","7","424","","","","","","","1","0","0","0.9016108676","","0.4","0.2","0.6","0.8","","","","","0.593251847","0.9307112091","0.5501477499","0.9016108676","","","","","","","","","","76","L","3","","","55","main_expt",""
"","bandit","135","388421","0.0-97.0-0.0","55942396","wem/bandit_party_2","A23UVI0SKMIXJX","either","7","377","","","","","","","0","0","1","0.9123335035","","0.4","0.2","0.6","0.8","","","","","0.602347159","0.9486344027","0.5181914202","0.9123335035","","","","","","","","","","76","L","3","","","56","main_expt",""
"","bandit","136","390150","0.0-98.0-0.0","55942396","wem/bandit_party_2","A23UVI0SKMIXJX","either","7","216","","","","","","","1","0","0","0.9338523698","","0.4","0.2","0.6","0.8","","","","","0.736851976","0.9450559811","0.5052283364","0.9338523698","","","","","","","","","","76","L","3","","","57","main_expt",""
"","bandit","137","391748","0.0-99.0-0.0","55942396","wem/bandit_party_2","A23UVI0SKMIXJX","either","7","87","","","","","","","1","0","0","0.9023069914","","0.4","0.2","0.6","0.8","","","","","0.7112026436","0.960587128","0.4494585665","0.9023069914","","","","","","","","","","76","L","3","","","58","main_expt",""
"","bandit","138","393462","0.0-100.0-0.0","55942396","wem/bandit_party_2","A23UVI0SKMIXJX","either","7","202","","","","","","","0","1","0","","0.903153386","0.4","0.2","0.6","0.8","0.7605469626","0.9272570312","0.4431029696","0.903153386","","","","","","","","","","","","","","76","L","3","","","59","main_expt",""
"","bandit","139","395237","0.0-101.0-0.0","55942396","wem/bandit_party_2","A23UVI0SKMIXJX","either","7","263","","","","","","","1","0","0","0.8975643475","","0.4","0.2","0.6","0.8","","","","","0.6504737249","0.9075075979","0.4213069188","0.8975643475","","","","","","","","","","76","L","3","","","60","main_expt",""
"","bandit","140","396967","0.0-102.0-0.0","55942396","wem/bandit_party_2","A23UVI0SKMIXJX","either","7","216","","","","","","","1","0","0","0.8455107238","","0.4","0.2","0.6","0.8","","","","","0.7417300409","0.9011961695","0.4735464544","0.8455107238","","","","","","","","","","76","L","3","","","61","main_expt",""
"","bandit","141","398869","0.0-103.0-0.0","55942396","wem/bandit_party_2","A23UVI0SKMIXJX","either","7","390","","","","","","","1","0","0","0.8423106617","","0.4","0.2","0.6","0.8","","","","","0.6889655243","0.9025442902","0.4260239588","0.8423106617","","","","","","","","","","76","L","3","","","62","main_expt",""
"","bandit","142","400646","0.0-104.0-0.0","55942396","wem/bandit_party_2","A23UVI0SKMIXJX","either","7","264","","","","","","","1","0","0","0.6997676278","","0.4","0.2","0.6","0.8","","","","","0.7532165261","0.900711875","0.4048641732","0.6997676278","","","","","","","","","","76","L","3","","","63","main_expt",""
"","bandit","143","402423","0.0-105.0-0.0","55942396","wem/bandit_party_2","A23UVI0SKMIXJX","either","7","264","","","","","","","1","0","0","0.8033841581","","0.4","0.2","0.6","0.8","","","","","0.7614619666","0.8445511995","0.261135461","0.8033841581","","","","","","","","","","76","L","3","","","64","main_expt",""
"","bandit","144","404296","0.0-106.0-0.0","55942396","wem/bandit_party_2","A23UVI0SKMIXJX","either","7","360","","","","","","","1","0","0","0.8458775523","","0.4","0.2","0.6","0.8","","","","","0.7474824059","0.7838665633","0.4398785507","0.8458775523","","","","","","","","","","76","L","3","","","65","main_expt",""
"","bandit","145","406070","0.0-107.0-0.0","55942396","wem/bandit_party_2","A23UVI0SKMIXJX","either","7","261","","","","","","","0","1","0","","0.8612648572","0.4","0.2","0.6","0.8","0.7083026918","0.8399866527","0.4549930047","0.8612648572","","","","","","","","","","","","","","76","L","3","","","66","main_expt",""
"","bandit","146","407974","0.0-108.0-0.0","55942396","wem/bandit_party_2","A23UVI0SKMIXJX","either","7","390","","","","","","","0","0","1","0.8686018104","","0.4","0.2","0.6","0.8","","","","","0.6535093674","0.9109535201","0.5565794079","0.8686018104","","","","","","","","","","76","L","3","","","67","main_expt",""
"","bandit","147","409701","0.0-109.0-0.0","55942396","wem/bandit_party_2","A23UVI0SKMIXJX","either","7","212","","","","","","","0","1","0","","0.8693437115","0.4","0.2","0.6","0.8","0.4923739087","0.9064065477","0.4211802827","0.8693437115","","","","","","","","","","","","","","76","L","3","","","68","main_expt",""
"","bandit","148","411366","0.0-110.0-0.0","55942396","wem/bandit_party_2","A23UVI0SKMIXJX","either","7","152","","","","","","","1","0","0","0.9168970181","","0.4","0.2","0.6","0.8","","","","","0.4898097669","0.9315833469","0.3687693293","0.9168970181","","","","","","","","","","76","L","3","","","69","main_expt",""
"","bandit","149","413126","0.0-111.0-0.0","55942396","wem/bandit_party_2","A23UVI0SKMIXJX","either","7","247","","","","","","","0","1","0","","0.9293527272","0.4","0.2","0.6","0.8","0.4369614599","0.9393923483","0.3460903474","0.9293527272","","","","","","","","","","","","","","76","L","3","","","70","main_expt",""
"","bandit","150","414888","0.0-112.0-0.0","55942396","wem/bandit_party_2","A23UVI0SKMIXJX","either","7","248","","","","","","","0","0","1","0.949087413","","0.4","0.2","0.6","0.8","","","","","0.5031037484","0.9568343035","0.3278112836","0.949087413","","","","","","","","","","76","L","3","","","71","main_expt",""
"","bandit","151","417189","0.0-113.0-0.0","55942396","wem/bandit_party_2","A23UVI0SKMIXJX","either","7","790","","","","","","","1","0","0","0.906373323","","0.4","0.2","0.6","0.8","","","","","0.5397903688","0.947758434","0.2720469766","0.906373323","","","","","","","","","","76","L","3","","","72","main_expt",""
"","bandit","152","458599","0.0-114.0-0.0","55942396","wem/bandit_party_2","A23UVI0SKMIXJX","either","7","39898","","","","","","","1","0","0","0.93965919","","0.4","0.2","0.6","0.8","","","","","0.5540652028","0.9052010222","0.2451019773","0.93965919","","","","","","","","","","76","L","3","","","73","main_expt",""
"","bandit","153","460261","0.0-115.0-0.0","55942396","wem/bandit_party_2","A23UVI0SKMIXJX","either","7","150","","","","","","","0","1","0","","0.9416319858","0.4","0.2","0.6","0.8","0.61733434","0.927704936","0.2645862521","0.9416319858","","","","","","","","","","","","","","76","L","3","","","74","main_expt",""
"","bandit","154","461989","0.0-116.0-0.0","55942396","wem/bandit_party_2","A23UVI0SKMIXJX","either","7","214","","","","","","","1","0","0","0.9535384208","","0.4","0.2","0.6","0.8","","","","","0.6341908543","0.8769567517","0.2298582","0.9535384208","","","","","","","","","","76","L","3","","","75","main_expt",""
"","bandit","155","463779","0.0-117.0-0.0","55942396","wem/bandit_party_2","A23UVI0SKMIXJX","either","7","276","","","","","","","0","1","0","","0.9585479729","0.4","0.2","0.6","0.8","0.6355577018","0.8456064169","0.3460043445","0.9585479729","","","","","","","","","","","","","","76","L","3","","","76","main_expt",""
"","bandit","156","465397","0.0-118.0-0.0","55942396","wem/bandit_party_2","A23UVI0SKMIXJX","either","7","105","","","","","","","1","0","0","0.9610253773","","0.4","0.2","0.6","0.8","","","","","0.7055426269","0.8325595713","0.2526488818","0.9610253773","","","","","","","","","","76","L","3","","","77","main_expt",""
"","bandit","157","467637","0.0-119.0-0.0","55942396","wem/bandit_party_2","A23UVI0SKMIXJX","either","7","727","","","","","","","1","0","0","0.9580320452","","0.4","0.2","0.6","0.8","","","","","0.6137882531","0.9128982172","0.2625396382","0.9580320452","","","","","","","","","","76","L","3","","","78","main_expt",""
"","bandit","158","470071","0.0-120.0-0.0","55942396","wem/bandit_party_2","A23UVI0SKMIXJX","either","7","921","","","","","","","1","0","0","0.9403834825","","0.4","0.2","0.6","0.8","","","","","0.668392527","0.9213349282","0.2957535945","0.9403834825","","","","","","","","","","76","L","3","","","79","main_expt",""
"","bandit","159","471718","0.0-121.0-0.0","55942396","wem/bandit_party_2","A23UVI0SKMIXJX","either","7","132","","","","","","","1","0","0","0.946171157","","0.4","0.2","0.6","0.8","","","","","0.7457361895","0.8935563746","0.1831261498","0.946171157","","","","","","","","","","76","L","3","","","80","main_expt",""
"","bandit","160","474950","0.0-122.0-0.0","55942396","wem/bandit_party_2","A23UVI0SKMIXJX","either","7","1720","","","","","","","1","0","0","0.9800092583","","0.4","0.2","0.6","0.8","","","","","0.8028050151","0.932831263","0.1450659425","0.9800092583","","","","","","","","","","76","L","3","","","81","main_expt",""
"","bandit","161","476853","0.0-123.0-0.0","55942396","wem/bandit_party_2","A23UVI0SKMIXJX","either","7","390","","","","","","","1","0","0","0.9666397243","","0.4","0.2","0.6","0.8","","","","","0.8727424511","0.9403650082","0.1486641529","0.9666397243","","","","","","","","","","76","L","3","","","82","main_expt",""
"","bandit","162","479701","0.0-124.0-0.0","55942396","wem/bandit_party_2","A23UVI0SKMIXJX","either","7","1333","","","","","","","1","0","0","0.9637330664","","0.4","0.2","0.6","0.8","","","","","0.8283068274","0.9066396881","0.1567811066","0.9637330664","","","","","","","","","","76","L","3","","","83","main_expt",""
"","bandit","163","481574","0.0-125.0-0.0","55942396","wem/bandit_party_2","A23UVI0SKMIXJX","either","7","360","","","","","","","1","0","0","0.9617949183","","0.4","0.2","0.6","0.8","","","","","0.8030064341","0.8962006295","0.196091916","0.9617949183","","","","","","","","","","76","L","3","","","84","main_expt",""
"","bandit","164","483524","0.0-126.0-0.0","55942396","wem/bandit_party_2","A23UVI0SKMIXJX","either","7","438","","","","","","","0","1","0","","0.9561985801","0.4","0.2","0.6","0.8","0.8622567251","0.9093999993","0.1512390112","0.9561985801","","","","","","","","","","","","","","76","L","3","","","85","main_expt",""
"","bandit","165","485862","0.0-127.0-0.0","55942396","wem/bandit_party_2","A23UVI0SKMIXJX","either","7","826","","","","","","","1","0","0","0.9422505668","","0.4","0.2","0.6","0.8","","","","","0.896584634","0.9326862648","0.1486491559","0.9422505668","","","","","","","","","","76","L","3","","","86","main_expt",""
"","bandit","166","487684","0.0-128.0-0.0","55942396","wem/bandit_party_2","A23UVI0SKMIXJX","either","7","310","","","","","","","0","1","0","","0.926711091","0.4","0.2","0.6","0.8","0.9208758521","0.9039434857","0.1047878604","0.926711091","","","","","","","","","","","","","","76","L","3","","","87","main_expt",""
"","bandit","167","489588","0.0-129.0-0.0","55942396","wem/bandit_party_2","A23UVI0SKMIXJX","either","7","390","","","","","","","1","0","0","0.9092576496","","0.4","0.2","0.6","0.8","","","","","0.9266301883","0.9195127861","0.07038149384","0.9092576496","","","","","","","","","","76","L","3","","","88","main_expt",""
"","bandit","168","491558","0.0-130.0-0.0","55942396","wem/bandit_party_2","A23UVI0SKMIXJX","either","7","454","","","","","","","0","0","1","0.8948591238","","0.4","0.2","0.6","0.8","","","","","0.9259215542","0.9225053559","0.1311535074","0.8948591238","","","","","","","","","","76","L","3","","","89","main_expt",""
"","bandit","169","493494","0.0-131.0-0.0","55942396","wem/bandit_party_2","A23UVI0SKMIXJX","either","7","424","","","","","","","1","0","0","0.8716727139","","0.4","0.2","0.6","0.8","","","","","0.9400480964","0.9014563988","0.1241310956","0.8716727139","","","","","","","","","","76","L","3","","","90","main_expt",""
"","bandit","170","495092","0.0-132.0-0.0","55942396","wem/bandit_party_2","A23UVI0SKMIXJX","either","7","85","","","","","","","1","0","0","0.8969144331","","0.4","0.2","0.6","0.8","","","","","0.8961855863","0.9162570652","0.09664170694","0.8969144331","","","","","","","","","","76","L","3","","","91","main_expt",""
"","bandit","171","496820","0.0-133.0-0.0","55942396","wem/bandit_party_2","A23UVI0SKMIXJX","either","7","215","","","","","","","1","0","0","0.9171199264","","0.4","0.2","0.6","0.8","","","","","0.9211437923","0.9171553871","0.09586364307","0.9171199264","","","","","","","","","","76","L","3","","","92","main_expt",""
"","bandit","172","498565","0.0-134.0-0.0","55942396","wem/bandit_party_2","A23UVI0SKMIXJX","either","7","230","","","","","","","0","1","0","","0.9593171332","0.4","0.2","0.6","0.8","0.8947860396","0.9463284029","0.08304118766","0.9593171332","","","","","","","","","","","","","","76","L","3","","","93","main_expt",""
"","bandit","173","500341","0.0-135.0-0.0","55942396","wem/bandit_party_2","A23UVI0SKMIXJX","either","7","258","","","","","","","1","0","0","0.959226596","","0.4","0.2","0.6","0.8","","","","","0.822540961","0.9477079066","0.1222865453","0.959226596","","","","","","","","","","76","L","3","","","94","main_expt",""
"","bandit","174","501941","0.0-136.0-0.0","55942396","wem/bandit_party_2","A23UVI0SKMIXJX","either","7","85","","","","","","","1","0","0","0.947105423","","0.4","0.2","0.6","0.8","","","","","0.8288041746","0.9474919074","0.211460517","0.947105423","","","","","","","","","","76","L","3","","","95","main_expt",""
"","bandit","175","503656","0.0-137.0-0.0","55942396","wem/bandit_party_2","A23UVI0SKMIXJX","either","7","201","","","","","","","1","0","0","0.937205139","","0.4","0.2","0.6","0.8","","","","","0.8217366877","0.9722490369","0.2757920232","0.937205139","","","","","","","","","","76","L","3","","","96","main_expt",""
"","bandit","176","505284","0.0-138.0-0.0","55942396","wem/bandit_party_2","A23UVI0SKMIXJX","either","7","115","","","","","","","1","0","0","0.9472767204","","0.4","0.2","0.6","0.8","","","","","0.725285089","0.980822097","0.2646876298","0.9472767204","","","","","","","","","","76","L","3","","","97","main_expt",""
"","bandit","177","507077","0.0-139.0-0.0","55942396","wem/bandit_party_2","A23UVI0SKMIXJX","either","7","279","","","","","","","1","0","0","0.962959595","","0.4","0.2","0.6","0.8","","","","","0.7958966199","0.9761591307","0.3278454636","0.962959595","","","","","","","","","","76","L","3","","","98","main_expt",""
"","bandit","178","509541","0.0-140.0-0.0","55942396","wem/bandit_party_2","A23UVI0SKMIXJX","either","7","950","","","","","","","1","0","0","0.9720903607","","0.4","0.2","0.6","0.8","","","","","0.7741840332","0.9597391097","0.4641870332","0.9720903607","","","","","","","","","","76","L","3","","","99","main_expt",""
"","bandit","179","511412","0.0-141.0-0.0","55942396","wem/bandit_party_2","A23UVI0SKMIXJX","either","7","358","","","","","","","1","0","0","0.9737169538","","0.4","0.2","0.6","0.8","","","","","0.7934767162","0.9557148533","0.3972344865","0.9737169538","","","","","","","","","","76","L","3","","","100","main_expt",""
"","bandit","180","514091","0.0-142.0-0.0","55942396","wem/bandit_party_2","A23UVI0SKMIXJX","either","7","1162","","","","","","","1","0","0","0.986468331","","0.4","0.2","0.6","0.8","","","","","0.8307638242","0.9687934467","0.4395304924","0.986468331","","","","","","","","","","76","L","3","","","101","main_expt",""
"","bandit","181","516167","0.0-143.0-0.0","55942396","wem/bandit_party_2","A23UVI0SKMIXJX","either","7","560","","","","","","","1","0","0","0.9859557102","","0.4","0.2","0.6","0.8","","","","","0.7737236933","0.9713318577","0.5248298482","0.9859557102","","","","","","","","","","76","L","3","","","102","main_expt",""
"","bandit","182","517940","0.0-144.0-0.0","55942396","wem/bandit_party_2","A23UVI0SKMIXJX","either","7","260","","","","","","","1","0","0","0.9828698412","","0.4","0.2","0.6","0.8","","","","","0.8168427084","0.9768128314","0.6218364577","0.9828698412","","","","","","","","","","76","L","3","","","103","main_expt",""
"","bandit","183","519574","0.0-145.0-0.0","55942396","wem/bandit_party_2","A23UVI0SKMIXJX","either","7","120","","","","","","","0","1","0","","0.9655029871","0.4","0.2","0.6","0.8","0.7020104164","0.9566706727","0.5528563194","0.9655029871","","","","","","","","","","","","","","76","L","3","","","104","main_expt",""
"","bandit","184","521157","0.0-146.0-0.0","55942396","wem/bandit_party_2","A23UVI0SKMIXJX","either","7","70","","","","","","","1","0","0","0.9587067199","","0.4","0.2","0.6","0.8","","","","","0.6750414237","0.9352711559","0.515821512","0.9587067199","","","","","","","","","","76","L","3","","","105","main_expt",""
"","bandit","185","522918","0.0-147.0-0.0","55942396","wem/bandit_party_2","A23UVI0SKMIXJX","either","7","248","","","","","","","1","0","0","0.9358961366","","0.4","0.2","0.6","0.8","","","","","0.5886413089","0.8980036198","0.5380341879","0.9358961366","","","","","","","","","","76","L","3","","","106","main_expt",""
"","bandit","186","524807","0.0-148.0-0.0","55942396","wem/bandit_party_2","A23UVI0SKMIXJX","either","7","375","","","","","","","1","0","0","0.8829949032","","0.4","0.2","0.6","0.8","","","","","0.5507707533","0.9175797088","0.3291998873","0.8829949032","","","","","","","","","","76","L","3","","","107","main_expt",""
"","bandit","187","526452","0.0-149.0-0.0","55942396","wem/bandit_party_2","A23UVI0SKMIXJX","either","7","131","","","","","","","0","0","1","0.7668100276","","0.4","0.2","0.6","0.8","","","","","0.4325904974","0.8966825343","0.3608627265","0.7668100276","","","","","","","","","","76","L","3","","","108","main_expt",""
"","bandit","188","528374","0.0-150.0-0.0","55942396","wem/bandit_party_2","A23UVI0SKMIXJX","either","7","407","","","","","","","1","0","0","0.7652463225","","0.4","0.2","0.6","0.8","","","","","0.3735159861","0.8883819791","0.3837942066","0.7652463225","","","","","","","","","","76","L","3","","","109","main_expt",""
"","bandit","189","530870","0.0-151.0-0.0","55942396","wem/bandit_party_2","A23UVI0SKMIXJX","either","7","982","","","","","","","1","0","0","0.7974745759","","0.4","0.2","0.6","0.8","","","","","0.3704440872","0.9087011364","0.3019365294","0.7974745759","","","","","","","","","","76","L","3","","","110","main_expt",""
"","bandit","190","532883","0.0-152.0-0.0","55942396","wem/bandit_party_2","A23UVI0SKMIXJX","either","7","500","","","","","","","1","0","0","0.812352323","","0.4","0.2","0.6","0.8","","","","","0.2749067499","0.9337026812","0.3483008865","0.812352323","","","","","","","","","","76","L","3","","","111","main_expt",""
"","bandit","191","534420","0.0-153.0-0.0","55942396","wem/bandit_party_2","A23UVI0SKMIXJX","either","7","24","","","","","","","0","0","1","0.7428975936","","0.4","0.2","0.6","0.8","","","","","0.2734667401","0.9113388615","0.4342302697","0.7428975936","","","","","","","","","","76","L","3","","","112","main_expt",""
"","bandit","192","537223","0.0-154.0-0.0","55942396","wem/bandit_party_2","A23UVI0SKMIXJX","either","7","1288","","","","","","","0","0","1","","0.7139653514","0.4","0.2","0.6","0.8","0.2291946885","0.8980528729","0.5187246657","0.7139653514","","","","","","","","","","","","","","76","L","3","","","113","main_expt",""
"","bandit","193","539046","0.0-155.0-0.0","55942396","wem/bandit_party_2","A23UVI0SKMIXJX","either","7","308","","","","","","","0","0","1","0.7945657698","","0.4","0.2","0.6","0.8","","","","","0.2413339081","0.8036326458","0.5381742134","0.7945657698","","","","","","","","","","76","L","3","","","114","main_expt",""
"","bandit","194","540806","0.0-156.0-0.0","55942396","wem/bandit_party_2","A23UVI0SKMIXJX","either","7","244","","","","","","","0","1","0","","0.8405588069","0.4","0.2","0.6","0.8","0.3092826039","0.8700945717","0.4785029821","0.8405588069","","","","","","","","","","","","","","76","L","3","","","115","main_expt",""
"","bandit","195","542822","0.0-157.0-0.0","55942396","wem/bandit_party_2","A23UVI0SKMIXJX","either","7","502","","","","","","","1","0","0","0.8641798474","","0.4","0.2","0.6","0.8","","","","","0.2361366225","0.8895114993","0.4654757386","0.8641798474","","","","","","","","","","76","L","3","","","116","main_expt",""
"","bandit","196","544741","0.0-158.0-0.0","55942396","wem/bandit_party_2","A23UVI0SKMIXJX","either","7","404","","","","","","","0","1","0","","0.8756768431","0.4","0.2","0.6","0.8","0.218402711","0.8936856952","0.4578633225","0.8756768431","","","","","","","","","","","","","","76","L","3","","","117","main_expt",""
"","bandit","197","546533","0.0-159.0-0.0","55942396","wem/bandit_party_2","A23UVI0SKMIXJX","either","7","276","","","","","","","1","0","0","0.9015269718","","0.4","0.2","0.6","0.8","","","","","0.2003641109","0.8077127093","0.4773941538","0.9015269718","","","","","","","","","","76","L","3","","","118","main_expt",""
"","bandit","198","548471","0.0-160.0-0.0","55942396","wem/bandit_party_2","A23UVI0SKMIXJX","either","7","423","","","","","","","1","0","0","0.8709738884","","0.4","0.2","0.6","0.8","","","","","0.1375137305","0.8901108642","0.508374463","0.8709738884","","","","","","","","","","76","L","3","","","119","main_expt",""
"","bandit","199","550264","0.0-161.0-0.0","55942396","wem/bandit_party_2","A23UVI0SKMIXJX","either","7","276","","","","","","","0","0","1","","0.8268338002","0.4","0.2","0.6","0.8","0.08656631556","0.8731124259","0.4294310012","0.8268338002","","","","","","","","","","","","","","76","L","3","","","120","main_expt",""
"","bandit","200","552053","0.0-162.0-0.0","55942396","wem/bandit_party_2","A23UVI0SKMIXJX","either","7","274","","","","","","","1","0","0","0.8432616236","","0.4","0.2","0.6","0.8","","","","","0.07812634859","0.8509174952","0.3933985885","0.8432616236","","","","","","","","","","76","L","3","","","121","main_expt",""
"","bandit","201","553958","0.0-163.0-0.0","55942396","wem/bandit_party_2","A23UVI0SKMIXJX","either","7","390","","","","","","","0","0","1","0.8128728295","","0.4","0.2","0.6","0.8","","","","","0.09046411854","0.8707856005","0.2641409089","0.8128728295","","","","","","","","","","76","L","3","","","122","main_expt",""
"","bandit","202","555701","0.0-164.0-0.0","55942396","wem/bandit_party_2","A23UVI0SKMIXJX","either","7","229","","","","","","","0","0","1","0.752198112","","0.4","0.2","0.6","0.8","","","","","0.1132512529","0.7592524618","0.2491349268","0.752198112","","","","","","","","","","76","L","3","","","123","main_expt",""
"","bandit","203","557557","0.0-165.0-0.0","55942396","wem/bandit_party_2","A23UVI0SKMIXJX","either","7","342","","","","","","","0","0","1","0.7117781612","","0.4","0.2","0.6","0.8","","","","","0.09419269712","0.7330206325","0.2587226179","0.7117781612","","","","","","","","","","76","L","3","","","124","main_expt",""
"","bandit","204","559302","0.0-166.0-0.0","55942396","wem/bandit_party_2","A23UVI0SKMIXJX","either","7","230","","","","","","","1","0","0","0.7177409252","","0.4","0.2","0.6","0.8","","","","","0.110513045","0.6903693331","0.2925679814","0.7177409252","","","","","","","","","","76","L","3","","","125","main_expt",""
"","bandit","205","561093","0.0-167.0-0.0","55942396","wem/bandit_party_2","A23UVI0SKMIXJX","either","7","278","","","","","","","0","0","1","","0.7240917845","0.4","0.2","0.6","0.8","0.07088043536","0.6370641568","0.3997536411","0.7240917845","","","","","","","","","","","","","","76","L","3","","","126","main_expt",""
"","bandit","206","562773","0.0-168.0-0.0","55942396","wem/bandit_party_2","A23UVI0SKMIXJX","either","7","165","","","","","","","1","0","0","0.6788578752","","0.4","0.2","0.6","0.8","","","","","0.1041728595","0.6192694325","0.4120812041","0.6788578752","","","","","","","","","","76","L","3","","","127","main_expt",""
"","bandit","207","565318","0.0-169.0-0.0","55942396","wem/bandit_party_2","A23UVI0SKMIXJX","either","7","1030","","","","","","","1","0","0","0.6257789885","","0.4","0.2","0.6","0.8","","","","","0.1006708935","0.559348281","0.3731276689","0.6257789885","","","","","","","","","","76","L","3","","","128","main_expt",""
"","bandit","208","568295","0.0-170.0-0.0","55942396","wem/bandit_party_2","A23UVI0SKMIXJX","either","7","1461","","","","","","","0","0","1","0.4761868647","","0.4","0.2","0.6","0.8","","","","","0.1336488566","0.610360397","0.3263017501","0.4761868647","","","","","","","","","","76","L","3","","","129","main_expt",""
"","bandit","209","570151","0.0-171.0-0.0","55942396","wem/bandit_party_2","A23UVI0SKMIXJX","either","7","342","","","","","","","0","1","0","","0.4745188583","0.4","0.2","0.6","0.8","0.1271550391","0.5737783772","0.3226142564","0.4745188583","","","","","","","","","","","","","","76","L","3","","","130","main_expt",""
"","bandit","210","572325","0.0-172.0-0.0","55942396","wem/bandit_party_2","A23UVI0SKMIXJX","either","7","658","","","","","","","1","0","0","0.4674409752","","0.4","0.2","0.6","0.8","","","","","0.1594360192","0.6252154127","0.3907136596","0.4674409752","","","","","","","","","","76","L","3","","","131","main_expt",""
"","bandit","211","574436","0.0-173.0-0.0","55942396","wem/bandit_party_2","A23UVI0SKMIXJX","either","7","596","","","","","","","0","0","1","0.368649462","","0.4","0.2","0.6","0.8","","","","","0.1027658661","0.6473056352","0.4983036492","0.368649462","","","","","","","","","","76","L","3","","","132","main_expt",""
"","bandit","212","576102","0.0-174.0-0.0","55942396","wem/bandit_party_2","A23UVI0SKMIXJX","either","7","149","","","","","","","0","1","0","","0.4313577514","0.4","0.2","0.6","0.8","0.1223548883","0.4595123468","0.6347393695","0.4313577514","","","","","","","","","","","","","","76","L","3","","","133","main_expt",""
"","bandit","213","577878","0.0-175.0-0.0","55942396","wem/bandit_party_2","A23UVI0SKMIXJX","either","7","262","","","","","","","0","0","1","0.3692150919","","0.4","0.2","0.6","0.8","","","","","0.1063029331","0.3043385566","0.6037412299","0.3692150919","","","","","","","","","","76","L","3","","","134","main_expt",""
"","bandit","214","579606","0.0-176.0-0.0","55942396","wem/bandit_party_2","A23UVI0SKMIXJX","either","7","213","","","","","","","1","0","0","0.3077662431","","0.4","0.2","0.6","0.8","","","","","0.080644856","0.340857567","0.5511090861","0.3077662431","","","","","","","","","","76","L","3","","","135","main_expt",""
"","bandit","215","581418","0.0-177.0-0.0","55942396","wem/bandit_party_2","A23UVI0SKMIXJX","either","7","297","","","","","","","0","0","1","0.314969588","","0.4","0.2","0.6","0.8","","","","","0.1359867045","0.2655810755","0.585911414","0.314969588","","","","","","","","","","76","L","3","","","136","main_expt",""
"","bandit","216","583175","0.0-178.0-0.0","55942396","wem/bandit_party_2","A23UVI0SKMIXJX","either","7","241","","","","","","","0","0","1","0.3590847215","","0.4","0.2","0.6","0.8","","","","","0.168344283","0.3025530854","0.5805905743","0.3590847215","","","","","","","","","","76","L","3","","","137","main_expt",""
"","bandit","217","584949","0.0-179.0-0.0","55942396","wem/bandit_party_2","A23UVI0SKMIXJX","either","7","261","","","","","","","1","0","0","0.6357737786","","0.4","0.2","0.6","0.8","","","","","0.1867455324","0.2888348812","0.6357737786","0.3588584756","","","","","","","","","","75","K","2","","","138","main_expt",""
"","bandit","218","586518","0.0-180.0-0.0","55942396","wem/bandit_party_2","A23UVI0SKMIXJX","either","7","53","","","","","","","0","1","0","","0.66639317","0.4","0.2","0.6","0.8","0.2277874407","0.2463208975","0.66639317","0.4289761638","","","","","","","","","","","","","","75","K","2","","","139","main_expt",""
"","bandit","219","588214","0.0-181.0-0.0","55942396","wem/bandit_party_2","A23UVI0SKMIXJX","either","7","181","","","","","","","1","0","0","0.6365789307","","0.4","0.2","0.6","0.8","","","","","0.2577820179","0.273109751","0.6365789307","0.3801639999","","","","","","","","","","75","K","2","","","140","main_expt",""
"","bandit","220","590133","0.0-182.0-0.0","55942396","wem/bandit_party_2","A23UVI0SKMIXJX","either","7","402","","","","","","","0","1","0","","0.6045632144","0.4","0.2","0.6","0.8","0.3674069736","0.3355442787","0.6045632144","0.2445936549","","","","","","","","","","","","","","75","K","2","","","141","main_expt",""
"","bandit","221","591990","0.0-183.0-0.0","55942396","wem/bandit_party_2","A23UVI0SKMIXJX","either","7","342","","","","","","","0","0","1","0.5148607161","","0.4","0.2","0.6","0.8","","","","","0.4345417514","0.2781999234","0.5148607161","0.3394066497","","","","","","","","","","75","K","2","","","142","main_expt",""
"","bandit","222","593766","0.0-184.0-0.0","55942396","wem/bandit_party_2","A23UVI0SKMIXJX","either","7","261","","","","","","","0","0","1","","0.4754154836","0.4","0.2","0.6","0.8","0.3811672827","0.2599467226","0.4754154836","0.2899754881","","","","","","","","","","","","","","75","K","2","","","143","main_expt",""
"","bandit","223","595525","0.0-185.0-0.0","55942396","wem/bandit_party_2","A23UVI0SKMIXJX","either","7","245","","","","","","","0","1","0","","0.516029258","0.4","0.2","0.6","0.8","0.2754059391","0.2353144144","0.516029258","0.3701332444","","","","","","","","","","","","","","75","K","2","","","144","main_expt",""
"","bandit","224","597335","0.0-186.0-0.0","55942396","wem/bandit_party_2","A23UVI0SKMIXJX","either","7","293","","","","","","","1","0","0","0.6646605279","","0.4","0.2","0.6","0.8","","","","","0.2773400324","0.2120114759","0.6646605279","0.3322753171","","","","","","","","","","75","K","2","","","145","main_expt",""
"","bandit","225","599062","0.0-187.0-0.0","55942396","wem/bandit_party_2","A23UVI0SKMIXJX","either","7","212","","","","","","","1","0","0","0.6331546467","","0.4","0.2","0.6","0.8","","","","","0.2780426824","0.176067728","0.6331546467","0.3203507811","","","","","","","","","","75","K","2","","","146","main_expt",""
"","bandit","226","600597","0.0-188.0-0.0","55942396","wem/bandit_party_2","A23UVI0SKMIXJX","either","7","20","","","","","","","0","1","0","","0.6356747602","0.4","0.2","0.6","0.8","0.3373608721","0.1329453439","0.6356747602","0.304761248","","","","","","","","","","","","","","75","K","2","","","147","main_expt",""
"","bandit","227","602424","0.0-189.0-0.0","55942396","wem/bandit_party_2","A23UVI0SKMIXJX","either","7","312","","","","","","","0","1","0","","0.6301772709","0.4","0.2","0.6","0.8","0.3529594122","0.1465103875","0.6301772709","0.3809280674","","","","","","","","","","","","","","75","K","2","","","148","main_expt",""
"","bandit","228","604151","0.0-190.0-0.0","55942396","wem/bandit_party_2","A23UVI0SKMIXJX","either","7","210","","","","","","","0","0","1","0.6640591829","","0.4","0.2","0.6","0.8","","","","","0.3878328211","0.1190451538","0.6640591829","0.3997986218","","","","","","","","","","75","K","2","","","149","main_expt",""
"","bandit","229","605893","0.0-191.0-0.0","55942396","wem/bandit_party_2","A23UVI0SKMIXJX","either","7","228","","","","","","","0","0","1","0.6592717552","","0.4","0.2","0.6","0.8","","","","","0.42943501","0.1195570164","0.6592717552","0.3159341416","","","","","","","","","","75","K","2","","","150","main_expt",""
"","bandit","230","607511","0.0-192.0-0.0","55942396","wem/bandit_party_2","A23UVI0SKMIXJX","either","7","101","","","","","","","1","0","0","0.5928743102","","0.4","0.2","0.6","0.8","","","","","0.5142681232","0.100492686","0.5928743102","0.3052853957","","","","","","","","","","75","K","2","","","151","main_expt",""
"","bandit","231","609334","0.0-193.0-0.0","55942396","wem/bandit_party_2","A23UVI0SKMIXJX","either","7","308","","","","","","","1","0","0","0.6822187145","","0.4","0.2","0.6","0.8","","","","","0.6321073962","0.1030367897","0.6822187145","0.1896018403","","","","","","","","","","75","K","2","","","152","main_expt",""
"","bandit","232","611077","0.0-194.0-0.0","55942396","wem/bandit_party_2","A23UVI0SKMIXJX","either","7","228","","","","","","","0","0","1","0.6832005509","","0.4","0.2","0.6","0.8","","","","","0.6965670792","0.2059045691","0.6832005509","0.2439656658","","","","","","","","","","75","K","2","","","153","main_expt",""
"","bandit","233","612823","0.0-195.0-0.0","55942396","wem/bandit_party_2","A23UVI0SKMIXJX","either","7","231","","","","","","","0","1","0","","0.7109729062","0.4","0.2","0.6","0.8","0.6516005735","0.2921647579","0.7109729062","0.3068434149","","","","","","","","","","","","","","75","K","2","","","154","main_expt",""
"","bandit","234","614535","0.0-196.0-0.0","55942396","wem/bandit_party_2","A23UVI0SKMIXJX","either","7","195","","","","","","","1","0","0","0.6975465092","","0.4","0.2","0.6","0.8","","","","","0.7291318088","0.1789694193","0.6975465092","0.2314644909","","","","","","","","","","75","K","2","","","155","main_expt",""
"","bandit","235","616262","0.0-197.0-0.0","55942396","wem/bandit_party_2","A23UVI0SKMIXJX","either","7","212","","","","","","","0","1","0","","0.6580608271","0.4","0.2","0.6","0.8","0.6273572288","0.2187195075","0.6580608271","0.2154001061","","","","","","","","","","","","","","75","K","2","","","156","main_expt",""
"","bandit","236","617974","0.0-198.0-0.0","55942396","wem/bandit_party_2","A23UVI0SKMIXJX","either","7","196","","","","","","","0","1","0","","0.5695802138","0.4","0.2","0.6","0.8","0.566197257","0.2669834713","0.5695802138","0.1648135251","","","","","","","","","","","","","","75","K","2","","","157","main_expt",""
"","bandit","237","619669","0.0-199.0-0.0","55942396","wem/bandit_party_2","A23UVI0SKMIXJX","either","7","181","","","","","","","0","0","1","0.4733954301","","0.4","0.2","0.6","0.8","","","","","0.4523642269","0.4240307821","0.4733954301","0.2215973425","","","","","","","","","","75","K","2","","","158","main_expt",""
"","bandit","238","621302","0.0-200.0-0.0","55942396","wem/bandit_party_2","A23UVI0SKMIXJX","either","7","116","","","","","","","1","0","0","0.5619817243","","0.4","0.2","0.6","0.8","","","","","0.3991212054","0.3840951437","0.5619817243","0.2243274726","","","","","","","","","","75","K","2","","","159","main_expt",""
"","bandit","239","623126","0.0-201.0-0.0","55942396","wem/bandit_party_2","A23UVI0SKMIXJX","either","7","310","","","","","","","1","0","0","0.4701658979","","0.4","0.2","0.6","0.8","","","","","0.3566558104","0.4098147986","0.4701658979","0.2061161075","","","","","","","","","","75","K","2","","","160","main_expt",""
"","bandit","240","625029","0.0-202.0-0.0","55942396","wem/bandit_party_2","A23UVI0SKMIXJX","either","7","387","","","","","","","1","0","0","0.5673671472","","0.4","0.2","0.6","0.8","","","","","0.4430908041","0.4027252302","0.5673671472","0.209200141","","","","","","","","","","75","K","2","","","161","main_expt",""
"","bandit","241","626821","0.0-203.0-0.0","55942396","wem/bandit_party_2","A23UVI0SKMIXJX","either","7","277","","","","","","","0","0","1","0.4921809208","","0.4","0.2","0.6","0.8","","","","","0.3966098285","0.3824170733","0.4921809208","0.1477343718","","","","","","","","","","75","K","2","","","162","main_expt",""
"","bandit","242","628744","0.0-204.0-0.0","55942396","wem/bandit_party_2","A23UVI0SKMIXJX","either","7","403","","","","","","","0","0","1","0.4204505308","","0.4","0.2","0.6","0.8","","","","","0.3455868331","0.3352280924","0.4204505308","0.1525050104","","","","","","","","","","75","K","2","","","163","main_expt",""
"","bandit","243","630661","0.0-205.0-0.0","55942396","wem/bandit_party_2","A23UVI0SKMIXJX","either","7","403","","","","","","","0","0","1","0.534748173","","0.4","0.2","0.6","0.8","","","","","0.3368969945","0.3379187571","0.534748173","0.08831047354","","","","","","","","","","75","K","2","","","164","main_expt",""
"","bandit","244","632934","0.0-206.0-0.0","55942396","wem/bandit_party_2","A23UVI0SKMIXJX","either","7","759","","","","","","","0","0","1","","0.3160546663","0.4","0.2","0.6","0.8","0.3767562303","0.3160546663","0.4724966102","0.1035482763","","","","","","","","","","","","","","74","J","1","","","165","main_expt",""
"","bandit","245","634840","0.0-207.0-0.0","55942396","wem/bandit_party_2","A23UVI0SKMIXJX","either","7","385","","","","","","","0","0","1","0.3058359067","","0.4","0.2","0.6","0.8","","","","","0.4727650462","0.3058359067","0.5280505203","0.06888190676","","","","","","","","","","74","J","1","","","166","main_expt",""
"","bandit","246","636534","0.0-208.0-0.0","55942396","wem/bandit_party_2","A23UVI0SKMIXJX","either","7","177","","","","","","","0","0","1","","0.2561334246","0.4","0.2","0.6","0.8","0.6140635231","0.2561334246","0.589670135","0.06051452263","","","","","","","","","","","","","","74","J","1","","","167","main_expt",""
"","bandit","247","638405","0.0-209.0-0.0","55942396","wem/bandit_party_2","A23UVI0SKMIXJX","either","7","356","","","","","","","0","1","0","","0.5629225295","0.4","0.2","0.6","0.8","0.5629225295","0.2459084815","0.5058201204","0.07905307949","","","","","","","","","","","","","","72","H","0","img/none_selected.jpg","","168","main_expt",""
"","bandit","248","640133","0.0-210.0-0.0","55942396","wem/bandit_party_2","A23UVI0SKMIXJX","either","7","213","","","","","","","1","0","0","0.6456076899","","0.4","0.2","0.6","0.8","","","","","0.6456076899","0.2138460752","0.4102709571","0.07051596905","","","","","","","","","","72","H","0","img/none_selected.jpg","","169","main_expt",""
"","bandit","249","641910","0.0-211.0-0.0","55942396","wem/bandit_party_2","A23UVI0SKMIXJX","either","7","262","","","","","","","0","0","1","","0.719827795","0.4","0.2","0.6","0.8","0.719827795","0.1642406351","0.5061826445","0.1056762318","","","","","","","","","","","","","","72","H","0","img/none_selected.jpg","","170","main_expt",""
"","bandit","250","643638","0.0-212.0-0.0","55942396","wem/bandit_party_2","A23UVI0SKMIXJX","either","7","213","","","","","","","0","1","0","","0.6716280274","0.4","0.2","0.6","0.8","0.6716280274","0.2337150112","0.6092158501","0.1513980822","","","","","","","","","","","","","","72","H","0","img/none_selected.jpg","","171","main_expt",""
"","bandit","251","645370","0.0-213.0-0.0","55942396","wem/bandit_party_2","A23UVI0SKMIXJX","either","7","215","","","","","","","1","0","0","0.5683226388","","0.4","0.2","0.6","0.8","","","","","0.5683226388","0.3128682212","0.691496366","0.1552293495","","","","","","","","","","72","H","0","img/none_selected.jpg","","172","main_expt",""
"","bandit","252","647126","0.0-214.0-0.0","55942396","wem/bandit_party_2","A23UVI0SKMIXJX","either","7","239","","","","","","","0","0","1","","0.4581357746","0.4","0.2","0.6","0.8","0.4581357746","0.2775517843","0.7402253768","0.1325975083","","","","","","","","","","","","","","72","H","0","img/none_selected.jpg","","173","main_expt",""
"","bandit","253","648902","0.0-215.0-0.0","55942396","wem/bandit_party_2","A23UVI0SKMIXJX","either","7","259","","","","","","","0","1","0","","0.5903479164","0.4","0.2","0.6","0.8","0.5903479164","0.4159305855","0.6601004511","0.09024892351","","","","","","","","","","","","","","72","H","0","img/none_selected.jpg","","174","main_expt",""
"","bandit","254","650661","0.0-216.0-0.0","55942396","wem/bandit_party_2","A23UVI0SKMIXJX","either","7","243","","","","","","","0","0","1","0.5658285383","","0.4","0.2","0.6","0.8","","","","","0.5658285383","0.4471770837","0.6781732273","0.06963745108","","","","","","","","","","72","H","0","img/none_selected.jpg","","175","main_expt",""
"","bandit","255","652389","0.0-217.0-0.0","55942396","wem/bandit_party_2","A23UVI0SKMIXJX","either","7","212","","","","","","","0","0","1","","0.5313506173","0.4","0.2","0.6","0.8","0.5313506173","0.5162211083","0.6932650799","0.07897043431","","","","","","","","","","","","","","72","H","0","img/none_selected.jpg","","176","main_expt",""
"","bandit","256","653974","0.0-218.0-0.0","55942396","wem/bandit_party_2","A23UVI0SKMIXJX","either","7","68","","","","","","","0","1","0","","0.4231289234","0.4","0.2","0.6","0.8","0.4231289234","0.6372676231","0.6803850572","0.09469685393","","","","","","","","","","","","","","72","H","0","img/none_selected.jpg","","177","main_expt",""
"","bandit","257","655736","0.0-219.0-0.0","55942396","wem/bandit_party_2","A23UVI0SKMIXJX","either","7","244","","","","","","","0","0","1","","0.580807006","0.4","0.2","0.6","0.8","0.580807006","0.6295749113","0.5407017663","0.1486386852","","","","","","","","","","","","","","72","H","0","img/none_selected.jpg","","178","main_expt",""
"","bandit","258","657335","0.0-220.0-0.0","55942396","wem/bandit_party_2","A23UVI0SKMIXJX","either","7","80","","","","","","","0","1","0","","0.5499948007","0.4","0.2","0.6","0.8","0.5499948007","0.4126066341","0.5931576708","0.1965095934","","","","","","","","","","","","","","72","H","0","img/none_selected.jpg","","179","main_expt",""
"","bandit","259","659061","0.0-221.0-0.0","55942396","wem/bandit_party_2","A23UVI0SKMIXJX","either","7","210","","","","","","","0","1","0","","0.4918200669","0.4","0.2","0.6","0.8","0.4918200669","0.516991344","0.5390819372","0.1749048096","","","","","","","","","","","","","","72","H","0","img/none_selected.jpg","","180","main_expt",""
"","bandit","260","660727","0.0-222.0-0.0","55942396","wem/bandit_party_2","A23UVI0SKMIXJX","either","7","147","","","","","","","0","1","0","","0.5428702931","0.4","0.2","0.6","0.8","0.5428702931","0.4239603033","0.4929910299","0.232896561","","","","","","","","","","","","","","72","H","0","img/none_selected.jpg","","181","main_expt",""
"","bandit","261","662581","0.0-223.0-0.0","55942396","wem/bandit_party_2","A23UVI0SKMIXJX","either","7","338","","","","","","","0","0","1","","0.5870547156","0.4","0.2","0.6","0.8","0.5870547156","0.3961891141","0.458433212","0.2561822725","","","","","","","","","","","","","","72","H","0","img/none_selected.jpg","","182","main_expt",""
"","bandit","262","664408","0.0-224.0-0.0","55942396","wem/bandit_party_2","A23UVI0SKMIXJX","either","7","309","","","","","","","0","0","1","","0.5031908535","0.4","0.2","0.6","0.8","0.5031908535","0.4364601233","0.5725449786","0.2713883962","","","","","","","","","","","","","","72","H","0","img/none_selected.jpg","","183","main_expt",""
"","bandit","263","666343","0.0-225.0-0.0","55942396","wem/bandit_party_2","A23UVI0SKMIXJX","either","7","417","","","","","","","0","0","1","0.4239978994","","0.4","0.2","0.6","0.8","","","","","0.4239978994","0.4826964198","0.4878383732","0.3543557679","","","","","","","","","","72","H","0","img/none_selected.jpg","","184","main_expt",""
"","bandit","264","668230","0.0-226.0-0.0","55942396","wem/bandit_party_2","A23UVI0SKMIXJX","either","7","370","","","","","","","1","0","0","0.3425545299","","0.4","0.2","0.6","0.8","","","","","0.3425545299","0.4448789548","0.5189350158","0.2974533566","","","","","","","","","","72","H","0","img/none_selected.jpg","","185","main_expt",""
"","bandit","265","670501","0.0-227.0-0.0","55942396","wem/bandit_party_2","A23UVI0SKMIXJX","either","7","754","","","","","","","0","0","1","0.2594221554","","0.4","0.2","0.6","0.8","","","","","0.2594221554","0.4585835861","0.4310300585","0.3295130888","","","","","","","","","","72","H","0","img/none_selected.jpg","","186","main_expt",""
"","bandit","266","722248","0.0-228.0-0.0","55942396","wem/bandit_party_2","A23UVI0SKMIXJX","either","7","50230","","","","","","","0","0","1","0.350747246","","0.4","0.2","0.6","0.8","","","","","0.350747246","0.5470412386","0.4005994516","0.3440574025","","","","","","","","","","72","H","0","img/none_selected.jpg","","187","main_expt",""
"","bandit","267","723831","0.0-229.0-0.0","55942396","wem/bandit_party_2","A23UVI0SKMIXJX","either","7","64","","","","","","","0","1","0","","0.3667816541","0.4","0.2","0.6","0.8","0.3667816541","0.5485419855","0.5684333967","0.3176863717","","","","","","","","","","","","","","72","H","0","img/none_selected.jpg","","188","main_expt",""
"","bandit","268","725527","0.0-230.0-0.0","55942396","wem/bandit_party_2","A23UVI0SKMIXJX","either","7","178","","","","","","","0","0","1","0.3129240978","","0.4","0.2","0.6","0.8","","","","","0.3129240978","0.6161015427","0.5768443477","0.3194332301","","","","","","","","","","72","H","0","img/none_selected.jpg","","189","main_expt",""
"","bandit","269","727253","0.0-231.0-0.0","55942396","wem/bandit_party_2","A23UVI0SKMIXJX","either","7","209","","","","","","","0","0","1","0.3681084497","","0.4","0.2","0.6","0.8","","","","","0.3681084497","0.5145576236","0.6091254975","0.3585260795","","","","","","","","","","72","H","0","img/none_selected.jpg","","190","main_expt",""
"","bandit","270","728854","0.0-232.0-0.0","55942396","wem/bandit_party_2","A23UVI0SKMIXJX","either","7","82","","","","","","","0","0","1","","0.3284994938","0.4","0.2","0.6","0.8","0.3284994938","0.4447609651","0.6355225437","0.4438822556","","","","","","","","","","","","","","72","H","0","img/none_selected.jpg","","191","main_expt",""
"","bandit","271","730870","0.0-233.0-0.0","55942396","wem/bandit_party_2","A23UVI0SKMIXJX","either","7","496","","","","","","","0","0","1","0.2913335268","","0.4","0.2","0.6","0.8","","","","","0.2913335268","0.4273979598","0.7449996868","0.6336907385","","","","","","","","","","72","H","0","img/none_selected.jpg","","192","main_expt",""
"","bandit","272","733239","0.0-234.0-0.0","55942396","wem/bandit_party_2","A23UVI0SKMIXJX","either","7","850","","","","","","","0","0","1","0.7645281636","","0.4","0.2","0.6","0.8","","","","","0.3614904019","0.4382354048","0.7645281636","0.5871300795","","","","","","","","","","75","K","2","","","193","main_expt",""
"","bandit","273","734933","0.0-235.0-0.0","55942396","wem/bandit_party_2","A23UVI0SKMIXJX","either","7","177","","","","","","","0","0","1","0.7417458559","","0.4","0.2","0.6","0.8","","","","","0.4180963095","0.4367950698","0.7417458559","0.5919999684","","","","","","","","","","75","K","2","","","194","main_expt",""
"","bandit","274","736550","0.0-236.0-0.0","55942396","wem/bandit_party_2","A23UVI0SKMIXJX","either","7","100","","","","","","","0","0","1","","0.7102393491","0.4","0.2","0.6","0.8","0.4129416526","0.4306922929","0.7102393491","0.5599221581","","","","","","","","","","","","","","75","K","2","","","195","main_expt",""
"","bandit","275","738150","0.0-237.0-0.0","55942396","wem/bandit_party_2","A23UVI0SKMIXJX","either","7","82","","","","","","","0","0","1","0.6846894693","","0.4","0.2","0.6","0.8","","","","","0.6027995291","0.4436260943","0.6846894693","0.4552797342","","","","","","","","","","75","K","2","","","196","main_expt",""
"","bandit","276","739910","0.0-238.0-0.0","55942396","wem/bandit_party_2","A23UVI0SKMIXJX","either","7","240","","","","","","","1","0","0","0.3045440077","","0.4","0.2","0.6","0.8","","","","","0.6174547511","0.4547077395","0.6573901597","0.3045440077","","","","","","","","","","76","L","3","","","197","main_expt",""
"","bandit","277","741703","0.0-239.0-0.0","55942396","wem/bandit_party_2","A23UVI0SKMIXJX","either","7","273","","","","","","","0","0","1","0.4061180554","","0.4","0.2","0.6","0.8","","","","","0.5727893511","0.545148617","0.7020762336","0.4061180554","","","","","","","","","","76","L","3","","","198","main_expt",""
"","bandit","278","743417","0.0-240.0-0.0","55942396","wem/bandit_party_2","A23UVI0SKMIXJX","either","7","195","","","","","","","0","1","0","","0.3406873398","0.4","0.2","0.6","0.8","0.5803616598","0.5838562778","0.7749867965","0.3406873398","","","","","","","","","","","","","","76","L","3","","","199","main_expt",""
"","bandit","279","745031","0.0-241.0-0.0","55942396","wem/bandit_party_2","A23UVI0SKMIXJX","either","7","93","","","","","","","1","0","0","0.2810551981","","0.4","0.2","0.6","0.8","","","","","0.5109940584","0.6569131065","0.7971262248","0.2810551981","","","","","","","","","","76","L","3","","","200","main_expt",""
"","bandit","280","746807","0.0-242.0-0.0","55942396","wem/bandit_party_2","A23UVI0SKMIXJX","either","7","257","","","","","","","1","0","0","0.2295892347","","0.4","0.2","0.6","0.8","","","","","0.444158281","0.6559739125","0.6431063495","0.2295892347","","","","","","","","","","76","L","3","","","201","main_expt",""
"","bandit","281","748566","0.0-243.0-0.0","55942396","wem/bandit_party_2","A23UVI0SKMIXJX","either","7","240","","","","","","","0","0","1","0.2134833186","","0.4","0.2","0.6","0.8","","","","","0.3774362348","0.5940698896","0.6153479028","0.2134833186","","","","","","","","","","76","L","3","","","202","main_expt",""
"","bandit","282","750103","0.0-244.0-0.0","55942396","wem/bandit_party_2","A23UVI0SKMIXJX","either","7","17","","","","","","","1","0","0","0.1538434825","","0.4","0.2","0.6","0.8","","","","","0.2852638898","0.6288005559","0.6107921693","0.1538434825","","","","","","","","","","76","L","3","","","203","main_expt",""
"","bandit","283","751829","0.0-245.0-0.0","55942396","wem/bandit_party_2","A23UVI0SKMIXJX","either","7","208","","","","","","","0","0","1","0.08629221539","","0.4","0.2","0.6","0.8","","","","","0.3900316507","0.7483345684","0.6364312764","0.08629221539","","","","","","","","","","76","L","3","","","204","main_expt",""
"","bandit","284","753608","0.0-246.0-0.0","55942396","wem/bandit_party_2","A23UVI0SKMIXJX","either","7","260","","","","","","","0","0","1","0.1303029892","","0.4","0.2","0.6","0.8","","","","","0.3334674042","0.7823609999","0.7098325313","0.1303029892","","","","","","","","","","76","L","3","","","205","main_expt",""
"","bandit","285","755304","0.0-247.0-0.0","55942396","wem/bandit_party_2","A23UVI0SKMIXJX","either","7","176","","","","","","","0","0","1","","0.1290793888","0.4","0.2","0.6","0.8","0.3997779834","0.7053347691","0.6423198407","0.1290793888","","","","","","","","","","","","","","76","L","3","","","206","main_expt",""
"","bandit","286","757175","0.0-248.0-0.0","55942396","wem/bandit_party_2","A23UVI0SKMIXJX","either","7","352","","","","","","","0","0","1","0.1471003053","","0.4","0.2","0.6","0.8","","","","","0.2791746034","0.692958529","0.7196337679","0.1471003053","","","","","","","","","","76","L","3","","","207","main_expt",""
"","bandit","287","759301","0.0-249.0-0.0","55942396","wem/bandit_party_2","A23UVI0SKMIXJX","either","7","608","","","","","","","0","0","1","0.1204476287","","0.4","0.2","0.6","0.8","","","","","0.3447420344","0.5726600787","0.7273253538","0.1204476287","","","","","","","","","","76","L","3","","","208","main_expt",""
"","bandit","288","761031","0.0-250.0-0.0","55942396","wem/bandit_party_2","A23UVI0SKMIXJX","either","7","209","","","","","","","0","1","0","","0.7193759884","0.4","0.2","0.6","0.8","0.2106944101","0.7193759884","0.7701678217","0.1752658923","","","","","","","","","","","","","","74","J","1","","","209","main_expt",""
"","bandit","289","762820","0.0-251.0-0.0","55942396","wem/bandit_party_2","A23UVI0SKMIXJX","either","7","272","","","","","","","0","0","1","","0.5469619257","0.4","0.2","0.6","0.8","0.2609791638","0.5469619257","0.7673062315","0.2071456167","","","","","","","","","","","","","","74","J","1","","","210","main_expt",""
"","bandit","290","764615","0.0-252.0-0.0","55942396","wem/bandit_party_2","A23UVI0SKMIXJX","either","7","275","","","","","","","1","0","0","0.5432746348","","0.4","0.2","0.6","0.8","","","","","0.3702243554","0.5432746348","0.7733207599","0.1982577311","","","","","","","","","","74","J","1","","","211","main_expt",""
"","bandit","291","766135","0.0-253.0-0.0","55942396","wem/bandit_party_2","A23UVI0SKMIXJX","either","7","1","","","","","","","0","0","1","","0.4857525371","0.4","0.2","0.6","0.8","0.4070014152","0.4857525371","0.7176010575","0.2837026457","","","","","","","","","","","","","","74","J","1","","","212","main_expt",""
"","bandit","292","767717","0.0-254.0-0.0","55942396","wem/bandit_party_2","A23UVI0SKMIXJX","either","7","64","","","","","","","0","1","0","","0.4416723402","0.4","0.2","0.6","0.8","0.5001351259","0.4416723402","0.7241732444","0.2192955177","","","","","","","","","","","","","","74","J","1","","","213","main_expt",""
"","bandit","293","769974","0.0-255.0-0.0","55942396","wem/bandit_party_2","A23UVI0SKMIXJX","either","7","737","","","","","","","0","0","1","","0.4231083207","0.4","0.2","0.6","0.8","0.5667049056","0.4231083207","0.6696022014","0.2885853396","","","","","","","","","","","","","","74","J","1","","","214","main_expt",""
"","bandit","294","771622","0.0-256.0-0.0","55942396","wem/bandit_party_2","A23UVI0SKMIXJX","either","7","127","","","","","","","0","0","1","0.329019478","","0.4","0.2","0.6","0.8","","","","","0.5259574602","0.329019478","0.6255990046","0.2451296471","","","","","","","","","","74","J","1","","","215","main_expt",""
"","bandit","295","773753","0.0-257.0-0.0","55942396","wem/bandit_party_2","A23UVI0SKMIXJX","either","7","611","","","","","","","0","0","1","0.3469743373","","0.4","0.2","0.6","0.8","","","","","0.5468860011","0.3469743373","0.6771362935","0.1946790852","","","","","","","","","","74","J","1","","","216","main_expt",""
"","bandit","296","775719","0.0-258.0-0.0","55942396","wem/bandit_party_2","A23UVI0SKMIXJX","either","7","447","","","","","","","0","0","1","","0.3618740044","0.4","0.2","0.6","0.8","0.6182745027","0.3618740044","0.6918953154","0.2497229096","","","","","","","","","","","","","","74","J","1","","","217","main_expt",""
"","bandit","297","777333","0.0-259.0-0.0","55942396","wem/bandit_party_2","A23UVI0SKMIXJX","either","7","97","","","","","","","0","0","1","","0.3574217595","0.4","0.2","0.6","0.8","0.5979125128","0.3574217595","0.5726390237","0.3076421025","","","","","","","","","","","","","","74","J","1","","","218","main_expt",""
"","bandit","298","778852","0.0-260.0-0.0","55942396","wem/bandit_party_2","A23UVI0SKMIXJX","either","7","0","","","","","","","0","0","1","","0.3862686792","0.4","0.2","0.6","0.8","0.5321687475","0.3862686792","0.5179196303","0.3488941347","","","","","","","","","","","","","","74","J","1","","","219","main_expt",""
"","bandit","299","781463","0.0-261.0-0.0","55942396","wem/bandit_party_2","A23UVI0SKMIXJX","either","7","1090","","","","","","","0","1","0","","0.5578222379","0.4","0.2","0.6","0.8","0.6053830099","0.4432846828","0.5578222379","0.306784001","","","","","","","","","","","","","","75","K","2","","","220","main_expt",""
"","bandit","300","783141","0.0-262.0-0.0","55942396","wem/bandit_party_2","A23UVI0SKMIXJX","either","7","160","","","","","","","0","1","0","","0.6640911266","0.4","0.2","0.6","0.8","0.69383498","0.432499938","0.6640911266","0.3786925452","","","","","","","","","","","","","","75","K","2","","","221","main_expt",""
"","bandit","301","784902","0.0-263.0-0.0","55942396","wem/bandit_party_2","A23UVI0SKMIXJX","either","7","246","","","","","","","1","0","0","0.7340686256","","0.4","0.2","0.6","0.8","","","","","0.783375317","0.4050903391","0.7340686256","0.5014801557","","","","","","","","","","75","K","2","","","222","main_expt",""
"","bandit","302","787112","0.0-264.0-0.0","55942396","wem/bandit_party_2","A23UVI0SKMIXJX","either","7","690","","","","","","","0","1","0","","0.852862777","0.4","0.2","0.6","0.8","0.8374489269","0.3282593462","0.852862777","0.4081704387","","","","","","","","","","","","","","75","K","2","","","223","main_expt",""
"","bandit","303","788888","0.0-265.0-0.0","55942396","wem/bandit_party_2","A23UVI0SKMIXJX","either","7","256","","","","","","","1","0","0","0.7830506485","","0.4","0.2","0.6","0.8","","","","","0.7801262993","0.2465370002","0.7830506485","0.422296693","","","","","","","","","","75","K","2","","","224","main_expt",""
"","bandit","304","790645","0.0-266.0-0.0","55942396","wem/bandit_party_2","A23UVI0SKMIXJX","either","7","238","","","","","","","1","0","0","0.7447555501","","0.4","0.2","0.6","0.8","","","","","0.7438235551","0.2260872052","0.7447555501","0.3998144739","","","","","","","","","","75","K","2","","","225","main_expt",""
"","bandit","305","792390","0.0-267.0-0.0","55942396","wem/bandit_party_2","A23UVI0SKMIXJX","either","7","227","","","","","","","1","0","0","0.7331719472","","0.4","0.2","0.6","0.8","","","","","0.7561714458","0.2573895518","0.7331719472","0.2692780115","","","","","","","","","","75","K","2","","","226","main_expt",""
"","bandit","306","794199","0.0-268.0-0.0","55942396","wem/bandit_party_2","A23UVI0SKMIXJX","either","7","289","","","","","","","0","1","0","","0.6417259928","0.4","0.2","0.6","0.8","0.7527106072","0.2134597582","0.6417259928","0.268728261","","","","","","","","","","","","","","75","K","2","","","227","main_expt",""
"","bandit","307","795941","0.0-269.0-0.0","55942396","wem/bandit_party_2","A23UVI0SKMIXJX","either","7","222","","","","","","","0","0","1","0.6050549784","","0.4","0.2","0.6","0.8","","","","","0.6315627418","0.348479141","0.6050549784","0.2211951924","","","","","","","","","","75","K","2","","","228","main_expt",""
"","bandit","308","799110","0.0-270.0-0.0","55942396","wem/bandit_party_2","A23UVI0SKMIXJX","either","7","1649","","","","","","","0","0","1","","0.5962230341","0.4","0.2","0.6","0.8","0.5564086662","0.3250735223","0.5962230341","0.219241791","","","","","","","","","","","","","","75","K","2","","","229","main_expt",""
"","bandit","309","800903","0.0-271.0-0.0","55942396","wem/bandit_party_2","A23UVI0SKMIXJX","either","7","273","","","","","","","0","0","1","0.5594933722","","0.4","0.2","0.6","0.8","","","","","0.5895813861","0.3395219718","0.5594933722","0.291585141","","","","","","","","","","75","K","2","","","230","main_expt",""
"","bandit","310","802598","0.0-272.0-0.0","55942396","wem/bandit_party_2","A23UVI0SKMIXJX","either","7","176","","","","","","","0","0","1","0.6411036761","","0.4","0.2","0.6","0.8","","","","","0.6148213975","0.3315483329","0.6411036761","0.2754541949","","","","","","","","","","75","K","2","","","231","main_expt",""
"","bandit","311","804617","0.0-273.0-0.0","55942396","wem/bandit_party_2","A23UVI0SKMIXJX","either","7","497","","","","","","","0","0","1","0.6653930637","","0.4","0.2","0.6","0.8","","","","","0.5176988489","0.3876030756","0.6653930637","0.3055336503","","","","","","","","","","75","K","2","","","232","main_expt",""
"","bandit","312","806469","0.0-274.0-0.0","55942396","wem/bandit_party_2","A23UVI0SKMIXJX","either","7","334","","","","","","","1","0","0","0.5426719569","","0.4","0.2","0.6","0.8","","","","","0.4505666118","0.3696248546","0.5426719569","0.3390100853","","","","","","","","","","75","K","2","","","233","main_expt",""
"","bandit","313","808249","0.0-275.0-0.0","55942396","wem/bandit_party_2","A23UVI0SKMIXJX","either","7","260","","","","","","","1","0","0","0.5581360181","","0.4","0.2","0.6","0.8","","","","","0.4393496879","0.3927474605","0.5581360181","0.3165323161","","","","","","","","","","75","K","2","","","234","main_expt",""
"","bandit","314","810037","0.0-276.0-0.0","55942396","wem/bandit_party_2","A23UVI0SKMIXJX","either","7","270","","","","","","","0","0","1","0.5299247183","","0.4","0.2","0.6","0.8","","","","","0.3542725407","0.4734072524","0.5299247183","0.2944333127","","","","","","","","","","75","K","2","","","235","main_expt",""
"","bandit","315","811846","0.0-277.0-0.0","55942396","wem/bandit_party_2","A23UVI0SKMIXJX","either","7","289","","","","","","","1","0","0","0.4709954077","","0.4","0.2","0.6","0.8","","","","","0.452511288","0.5857320117","0.4709954077","0.4127469632","","","","","","","","","","75","K","2","","","236","main_expt",""
"","bandit","316","813670","0.0-278.0-0.0","55942396","wem/bandit_party_2","A23UVI0SKMIXJX","either","7","305","","","","","","","1","0","0","0.4171051322","","0.4","0.2","0.6","0.8","","","","","0.4743784035","0.5208556897","0.4171051322","0.4353664578","","","","","","","","","","75","K","2","","","237","main_expt",""
"","bandit","317","815461","0.0-279.0-0.0","55942396","wem/bandit_party_2","A23UVI0SKMIXJX","either","7","271","","","","","","","1","0","0","0.40722148","","0.4","0.2","0.6","0.8","","","","","0.4666998134","0.4551370454","0.40722148","0.3871798792","","","","","","","","","","75","K","2","","","238","main_expt",""
"","bandit","318","817286","0.0-280.0-0.0","55942396","wem/bandit_party_2","A23UVI0SKMIXJX","either","7","305","","","","","","","0","0","1","0.3113271407","","0.4","0.2","0.6","0.8","","","","","0.4916456171","0.2979137516","0.3113271407","0.3244704863","","","","","","","","","","75","K","2","","","239","main_expt",""
