"consent","trial_type","trial_index","time_elapsed","internal_node_id","subjID","study","MID","cond","drift","rt","responses","button_pressed","key_press","like","value","connected","gems","bombs","no_reward","GemPrChosen","BombPrChosen","GainOverPainPr_0","GainOverPainPr_1","GainOverPainPr_2","GainOverPainPr_3","LosePr_0","LosePr_1","LosePr_2","LosePr_3","WinPr_0","WinPr_1","WinPr_2","WinPr_3","Q0","Q1","Q2","gender","age","ethnicity","label","expt_phase","target","respCharCode","respKey","respChoiceNum","respChoice","practice","trial_counter","trial_label","Q0_index"
"GDM/GDM_behavioral_consent_30min_online.html","consent","0","9491","0.0-0.0","56268858","wem/bandit_party_2","A2XU1TSQD45EB4","either","4","","","","","","","","","","","","","","","","","","","","","","","","","","","","","","","","","","","","","","","","",""
"","survey-text","1","16598","0.0-1.0","56268858","wem/bandit_party_2","A2XU1TSQD45EB4","either","4","6088","{""Q0"":""A2XU1TSQD45EB4""}","","","","","","","","","","","","","","","","","","","","","","","","","","","","","","","","","","","","","","",""
"","button-response","2","23981","0.0-2.0","56268858","wem/bandit_party_2","A2XU1TSQD45EB4","either","4","6364","","0","","","","","","","","","","","","","","","","","","","","","","","","","","","","","","","","","","","","","",""
"","text-replacement","3","41686","0.0-3.0","56268858","wem/bandit_party_2","A2XU1TSQD45EB4","either","4","16688","","","32","","","","","","","","","","","","","","","","","","","","","","","","","","","","","","","","","","","","",""
"","text-replacement","4","54013","0.0-4.0","56268858","wem/bandit_party_2","A2XU1TSQD45EB4","either","4","12324","","","32","","","","","","","","","","","","","","","","","","","","","","","","","","","","","","","","","","","","",""
"","identification","5","61590","0.0-6.0-0.0","56268858","wem/bandit_party_2","A2XU1TSQD45EB4","either","4","7556","","","","3","3","2","","","","","","","","","","","","","","","","","","","","","","","","pre","identification_pre","the Democratic Party","","","","","","","",""
"","identification","6","69073","0.0-6.0-1.0","56268858","wem/bandit_party_2","A2XU1TSQD45EB4","either","4","6460","","","","4","3","4","","","","","","","","","","","","","","","","","","","","","","","","pre","identification_pre","the Republican Party","","","","","","","",""
"","text-replacement","7","80421","0.0-7.0","56268858","wem/bandit_party_2","A2XU1TSQD45EB4","either","4","10333","","","32","","","","","","","","","","","","","","","","","","","","","","","","","","","","","","","","","","","","",""
"","text-replacement","8","87947","0.0-8.0","56268858","wem/bandit_party_2","A2XU1TSQD45EB4","either","4","7521","","","32","","","","","","","","","","","","","","","","","","","","","","","","","","","","","","","","","","","","",""
"","text-replacement","9","96739","0.0-9.0","56268858","wem/bandit_party_2","A2XU1TSQD45EB4","either","4","8789","","","32","","","","","","","","","","","","","","","","","","","","","","","","","","","","","","","","","","","","",""
"","text-replacement","10","100228","0.0-10.0","56268858","wem/bandit_party_2","A2XU1TSQD45EB4","either","4","3488","","","32","","","","","","","","","","","","","","","","","","","","","","","","","","","","","","","","","","","","",""
"","text-replacement","11","108375","0.0-11.0","56268858","wem/bandit_party_2","A2XU1TSQD45EB4","either","4","8143","","","32","","","","","","","","","","","","","","","","","","","","","","","","","","","","","","","","","","","","",""
"","bandit","12","111594","0.0-12.0-0.0","56268858","wem/bandit_party_2","A2XU1TSQD45EB4","either","4","1706","","","","","","","0","0","1","0","0","","","","","0","","","","0","","","","","","","","","","","","","74","J","0","img/none_selected_demo.jpg","true","0","",""
"","bandit","13","114000","0.0-13.0-0.0","56268858","wem/bandit_party_2","A2XU1TSQD45EB4","either","4","886","","","","","","","0","0","1","0","0","","","","","0","","","","0","","","","","","","","","","","","","75","K","0","img/none_selected_demo.jpg","true","0","",""
"","text-replacement","14","120226","0.0-14.0","56268858","wem/bandit_party_2","A2XU1TSQD45EB4","either","4","6224","","","32","","","","","","","","","","","","","","","","","","","","","","","","","","","","","","","","","","","","",""
"","text-replacement","15","126728","0.0-15.0","56268858","wem/bandit_party_2","A2XU1TSQD45EB4","either","4","6500","","","32","","","","","","","","","","","","","","","","","","","","","","","","","","","","","","","","","","","","",""
"","text-replacement","16","134651","0.0-16.0","56268858","wem/bandit_party_2","A2XU1TSQD45EB4","either","4","7920","","","32","","","","","","","","","","","","","","","","","","","","","","","","","","","","","","","","","","","","",""
"","text-replacement","17","142462","0.0-17.0","56268858","wem/bandit_party_2","A2XU1TSQD45EB4","either","4","7807","","","32","","","","","","","","","","","","","","","","","","","","","","","","","","","","","","","","","","","","",""
"","bandit","18","144819","0.0-18.0-0.0","56268858","wem/bandit_party_2","A2XU1TSQD45EB4","either","4","833","","","","","","","0","1","0","","0.8","0.5","0.5","","","0.8","0.2","","","","","","","","","","","","","","","","74","J","0","img/none_selected_demo.jpg","true","0","80_20_practice",""
"","bandit","19","146763","0.0-18.0-1.0","56268858","wem/bandit_party_2","A2XU1TSQD45EB4","either","4","424","","","","","","","0","1","0","","0.8","0.5","0.5","","","0.8","0.2","","","","","","","","","","","","","","","","74","J","0","img/none_selected_demo.jpg","true","0","80_20_practice",""
"","bandit","20","148517","0.0-18.0-2.0","56268858","wem/bandit_party_2","A2XU1TSQD45EB4","either","4","214","","","","","","","0","1","0","","0.8","0.5","0.5","","","0.8","0.2","","","","","","","","","","","","","","","","74","J","0","img/none_selected_demo.jpg","true","0","80_20_practice",""
"","bandit","21","150273","0.0-18.0-3.0","56268858","wem/bandit_party_2","A2XU1TSQD45EB4","either","4","241","","","","","","","1","0","0","0.8","","0.5","0.5","","","","","","","0.8","0.2","","","","","","","","","","","","74","J","0","img/none_selected_demo.jpg","true","0","80_20_practice",""
"","bandit","22","152102","0.0-18.0-4.0","56268858","wem/bandit_party_2","A2XU1TSQD45EB4","either","4","232","","","","","","","0","1","0","","0.8","0.5","0.5","","","0.8","0.2","","","","","","","","","","","","","","","","74","J","0","img/none_selected_demo.jpg","true","0","80_20_practice",""
"","bandit","23","153874","0.0-18.0-5.0","56268858","wem/bandit_party_2","A2XU1TSQD45EB4","either","4","262","","","","","","","0","0","1","","0.8","0.5","0.5","","","0.8","0.2","","","","","","","","","","","","","","","","74","J","0","img/none_selected_demo.jpg","true","0","80_20_practice",""
"","bandit","24","156298","0.0-18.0-6.0","56268858","wem/bandit_party_2","A2XU1TSQD45EB4","either","4","908","","","","","","","0","1","0","","0.8","0.5","0.5","","","0.8","0.2","","","","","","","","","","","","","","","","74","J","0","img/none_selected_demo.jpg","true","0","80_20_practice",""
"","bandit","25","158047","0.0-18.0-7.0","56268858","wem/bandit_party_2","A2XU1TSQD45EB4","either","4","232","","","","","","","0","1","0","","0.8","0.5","0.5","","","0.8","0.2","","","","","","","","","","","","","","","","74","J","0","img/none_selected_demo.jpg","true","0","80_20_practice",""
"","bandit","26","159837","0.0-18.0-8.0","56268858","wem/bandit_party_2","A2XU1TSQD45EB4","either","4","273","","","","","","","1","0","0","0.8","","0.5","0.5","","","","","","","0.8","0.2","","","","","","","","","","","","74","J","0","img/none_selected_demo.jpg","true","0","80_20_practice",""
"","bandit","27","161616","0.0-18.0-9.0","56268858","wem/bandit_party_2","A2XU1TSQD45EB4","either","4","254","","","","","","","1","0","0","0.8","","0.5","0.5","","","","","","","0.8","0.2","","","","","","","","","","","","74","J","0","img/none_selected_demo.jpg","true","0","80_20_practice",""
"","bandit","28","163354","0.0-18.0-10.0","56268858","wem/bandit_party_2","A2XU1TSQD45EB4","either","4","215","","","","","","","0","0","1","0.8","","0.5","0.5","","","","","","","0.8","0.2","","","","","","","","","","","","74","J","0","img/none_selected_demo.jpg","true","0","80_20_practice",""
"","bandit","29","165680","0.0-18.0-11.0","56268858","wem/bandit_party_2","A2XU1TSQD45EB4","either","4","793","","","","","","","0","1","0","","0.8","0.5","0.5","","","0.8","0.2","","","","","","","","","","","","","","","","74","J","0","img/none_selected_demo.jpg","true","0","80_20_practice",""
"","bandit","30","167644","0.0-18.0-12.0","56268858","wem/bandit_party_2","A2XU1TSQD45EB4","either","4","441","","","","","","","1","0","0","0.8","","0.5","0.5","","","","","","","0.8","0.2","","","","","","","","","","","","74","J","0","img/none_selected_demo.jpg","true","0","80_20_practice",""
"","bandit","31","169408","0.0-18.0-13.0","56268858","wem/bandit_party_2","A2XU1TSQD45EB4","either","4","237","","","","","","","0","0","1","0.8","","0.5","0.5","","","","","","","0.8","0.2","","","","","","","","","","","","74","J","0","img/none_selected_demo.jpg","true","0","80_20_practice",""
"","bandit","32","171206","0.0-18.0-14.0","56268858","wem/bandit_party_2","A2XU1TSQD45EB4","either","4","281","","","","","","","1","0","0","0.8","","0.5","0.5","","","","","","","0.8","0.2","","","","","","","","","","","","74","J","0","img/none_selected_demo.jpg","true","0","80_20_practice",""
"","bandit","33","172923","0.0-18.0-15.0","56268858","wem/bandit_party_2","A2XU1TSQD45EB4","either","4","200","","","","","","","0","0","1","","0.8","0.5","0.5","","","0.8","0.2","","","","","","","","","","","","","","","","74","J","0","img/none_selected_demo.jpg","true","0","80_20_practice",""
"","bandit","34","174783","0.0-18.0-16.0","56268858","wem/bandit_party_2","A2XU1TSQD45EB4","either","4","339","","","","","","","0","1","0","","0.8","0.5","0.5","","","0.8","0.2","","","","","","","","","","","","","","","","74","J","0","img/none_selected_demo.jpg","true","0","80_20_practice",""
"","bandit","35","176564","0.0-18.0-17.0","56268858","wem/bandit_party_2","A2XU1TSQD45EB4","either","4","260","","","","","","","0","1","0","","0.8","0.5","0.5","","","0.8","0.2","","","","","","","","","","","","","","","","74","J","0","img/none_selected_demo.jpg","true","0","80_20_practice",""
"","bandit","36","178319","0.0-18.0-18.0","56268858","wem/bandit_party_2","A2XU1TSQD45EB4","either","4","240","","","","","","","1","0","0","0.8","","0.5","0.5","","","","","","","0.8","0.2","","","","","","","","","","","","74","J","0","img/none_selected_demo.jpg","true","0","80_20_practice",""
"","bandit","37","180061","0.0-18.0-19.0","56268858","wem/bandit_party_2","A2XU1TSQD45EB4","either","4","211","","","","","","","1","0","0","0.8","","0.5","0.5","","","","","","","0.8","0.2","","","","","","","","","","","","74","J","0","img/none_selected_demo.jpg","true","0","80_20_practice",""
"","text-replacement","38","183242","0.0-19.0","56268858","wem/bandit_party_2","A2XU1TSQD45EB4","either","4","3178","","","32","","","","","","","","","","","","","","","","","","","","","","","","","","","","","","","","","","","","",""
"","bandit","39","185968","0.0-20.0-0.0","56268858","wem/bandit_party_2","A2XU1TSQD45EB4","either","4","1190","","","","","","","1","0","0","1","0","","","","","0","1","","","1","0","","","","","","","","","","","","74","J","0","img/none_selected_demo.jpg","true","0","",""
"","text-replacement","40","194341","0.0-21.0","56268858","wem/bandit_party_2","A2XU1TSQD45EB4","either","4","8367","","","32","","","","","","","","","","","","","","","","","","","","","","","","","","","","","","","","","","","","",""
"","text-replacement","41","197283","0.0-22.0","56268858","wem/bandit_party_2","A2XU1TSQD45EB4","either","4","2936","","","32","","","","","","","","","","","","","","","","","","","","","","","","","","","","","","","","","","","","",""
"","text-replacement","42","200117","0.0-23.0","56268858","wem/bandit_party_2","A2XU1TSQD45EB4","either","4","2829","","","32","","","","","","","","","","","","","","","","","","","","","","","","","","","","","","","","","","","","",""
"","text-replacement","43","203406","0.0-24.0","56268858","wem/bandit_party_2","A2XU1TSQD45EB4","either","4","3282","","","32","","","","","","","","","","","","","","","","","","","","","","","","","","","","","","","","","","","","",""
"","text-replacement","44","230781","0.0-25.0","56268858","wem/bandit_party_2","A2XU1TSQD45EB4","either","4","27370","","","32","","","","","","","","","","","","","","","","","","","","","","","","","","","","","","","","","","","","",""
"","text-replacement","45","241138","0.0-26.0","56268858","wem/bandit_party_2","A2XU1TSQD45EB4","either","4","10351","","","32","","","","","","","","","","","","","","","","","","","","","","","","","","","","","","","","","","","","",""
"","text-replacement","46","246020","0.0-27.0","56268858","wem/bandit_party_2","A2XU1TSQD45EB4","either","4","4880","","","32","","","","","","","","","","","","","","","","","","","","","","","","","","","","","","","","","","","","",""
"","text-replacement","47","249272","0.0-28.0","56268858","wem/bandit_party_2","A2XU1TSQD45EB4","either","4","3251","","","32","","","","","","","","","","","","","","","","","","","","","","","","","","","","","","","","","","","","",""
"","text-replacement","48","257542","0.0-29.0","56268858","wem/bandit_party_2","A2XU1TSQD45EB4","either","4","8268","","","32","","","","","","","","","","","","","","","","","","","","","","","","","","","","","","","","","","","","",""
"","text-replacement","49","259390","0.0-30.0","56268858","wem/bandit_party_2","A2XU1TSQD45EB4","either","4","1845","","","32","","","","","","","","","","","","","","","","","","","","","","","","","","","","","","","","","","","","",""
"","text-replacement","50","263074","0.0-31.0","56268858","wem/bandit_party_2","A2XU1TSQD45EB4","either","4","3683","","","32","","","","","","","","","","","","","","","","","","","","","","","","","","","","","","","","","","","","",""
"","bandit","51","265185","0.0-32.0-0.0","56268858","wem/bandit_party_2","A2XU1TSQD45EB4","either","4","582","","","","","","","1","0","0","0.8","","0.5","0.5","0.5","0.5","","","","","0.8","0.2","0.6","0.2","","","","","","","","","","72","H","0","img/none_selected.jpg","true","0","full_practice",""
"","bandit","52","267160","0.0-32.0-1.0","56268858","wem/bandit_party_2","A2XU1TSQD45EB4","either","4","453","","","","","","","1","0","0","0.8","","0.5","0.5","0.5","0.5","","","","","0.8","0.2","0.6","0.2","","","","","","","","","","72","H","0","img/none_selected.jpg","true","0","full_practice",""
"","bandit","53","268984","0.0-32.0-2.0","56268858","wem/bandit_party_2","A2XU1TSQD45EB4","either","4","293","","","","","","","1","0","0","0.8","","0.5","0.5","0.5","0.5","","","","","0.8","0.2","0.6","0.2","","","","","","","","","","72","H","0","img/none_selected.jpg","true","0","full_practice",""
"","bandit","54","270826","0.0-32.0-3.0","56268858","wem/bandit_party_2","A2XU1TSQD45EB4","either","4","311","","","","","","","0","1","0","","0.8","0.5","0.5","0.5","0.5","0.8","0.2","0.6","0.2","","","","","","","","","","","","","","72","H","0","img/none_selected.jpg","true","0","full_practice",""
"","bandit","55","273478","0.0-32.0-4.0","56268858","wem/bandit_party_2","A2XU1TSQD45EB4","either","4","1128","","","","","","","0","0","1","0.8","","0.5","0.5","0.5","0.5","","","","","0.8","0.2","0.6","0.2","","","","","","","","","","72","H","0","img/none_selected.jpg","true","0","full_practice",""
"","bandit","56","275363","0.0-32.0-5.0","56268858","wem/bandit_party_2","A2XU1TSQD45EB4","either","4","364","","","","","","","1","0","0","0.8","","0.5","0.5","0.5","0.5","","","","","0.8","0.2","0.6","0.2","","","","","","","","","","72","H","0","img/none_selected.jpg","true","0","full_practice",""
"","bandit","57","277153","0.0-32.0-6.0","56268858","wem/bandit_party_2","A2XU1TSQD45EB4","either","4","273","","","","","","","0","0","1","","0.2","0.5","0.5","0.5","0.5","0.8","0.2","0.6","0.2","","","","","","","","","","","","","","74","J","1","","true","0","full_practice",""
"","bandit","58","278899","0.0-32.0-7.0","56268858","wem/bandit_party_2","A2XU1TSQD45EB4","either","4","228","","","","","","","0","0","1","","0.2","0.5","0.5","0.5","0.5","0.8","0.2","0.6","0.2","","","","","","","","","","","","","","74","J","1","","true","0","full_practice",""
"","bandit","59","280682","0.0-32.0-8.0","56268858","wem/bandit_party_2","A2XU1TSQD45EB4","either","4","225","","","","","","","1","0","0","0.8","","0.5","0.5","0.5","0.5","","","","","0.8","0.2","0.6","0.2","","","","","","","","","","72","H","0","img/none_selected.jpg","true","0","full_practice",""
"","bandit","60","282683","0.0-32.0-9.0","56268858","wem/bandit_party_2","A2XU1TSQD45EB4","either","4","470","","","","","","","0","1","0","","0.8","0.5","0.5","0.5","0.5","0.8","0.2","0.6","0.2","","","","","","","","","","","","","","72","H","0","img/none_selected.jpg","true","0","full_practice",""
"","bandit","61","284480","0.0-32.0-10.0","56268858","wem/bandit_party_2","A2XU1TSQD45EB4","either","4","285","","","","","","","0","1","0","","0.8","0.5","0.5","0.5","0.5","0.8","0.2","0.6","0.2","","","","","","","","","","","","","","72","H","0","img/none_selected.jpg","true","0","full_practice",""
"","bandit","62","286425","0.0-32.0-11.0","56268858","wem/bandit_party_2","A2XU1TSQD45EB4","either","4","426","","","","","","","1","0","0","0.8","","0.5","0.5","0.5","0.5","","","","","0.8","0.2","0.6","0.2","","","","","","","","","","72","H","0","img/none_selected.jpg","true","0","full_practice",""
"","bandit","63","288835","0.0-32.0-12.0","56268858","wem/bandit_party_2","A2XU1TSQD45EB4","either","4","892","","","","","","","1","0","0","0.8","","0.5","0.5","0.5","0.5","","","","","0.8","0.2","0.6","0.2","","","","","","","","","","72","H","0","img/none_selected.jpg","true","0","full_practice",""
"","bandit","64","290954","0.0-32.0-13.0","56268858","wem/bandit_party_2","A2XU1TSQD45EB4","either","4","604","","","","","","","1","0","0","0.8","","0.5","0.5","0.5","0.5","","","","","0.8","0.2","0.6","0.2","","","","","","","","","","72","H","0","img/none_selected.jpg","true","0","full_practice",""
"","bandit","65","292796","0.0-32.0-14.0","56268858","wem/bandit_party_2","A2XU1TSQD45EB4","either","4","313","","","","","","","0","1","0","","0.8","0.5","0.5","0.5","0.5","0.8","0.2","0.6","0.2","","","","","","","","","","","","","","72","H","0","img/none_selected.jpg","true","0","full_practice",""
"","bandit","66","294570","0.0-32.0-15.0","56268858","wem/bandit_party_2","A2XU1TSQD45EB4","either","4","255","","","","","","","0","1","0","","0.8","0.5","0.5","0.5","0.5","0.8","0.2","0.6","0.2","","","","","","","","","","","","","","72","H","0","img/none_selected.jpg","true","0","full_practice",""
"","bandit","67","296354","0.0-32.0-16.0","56268858","wem/bandit_party_2","A2XU1TSQD45EB4","either","4","250","","","","","","","0","0","1","","0.8","0.5","0.5","0.5","0.5","0.8","0.2","0.6","0.2","","","","","","","","","","","","","","72","H","0","img/none_selected.jpg","true","0","full_practice",""
"","bandit","68","298714","0.0-32.0-17.0","56268858","wem/bandit_party_2","A2XU1TSQD45EB4","either","4","835","","","","","","","0","0","1","0.6","","0.5","0.5","0.5","0.5","","","","","0.8","0.2","0.6","0.2","","","","","","","","","","75","K","2","","true","0","full_practice",""
"","bandit","69","300656","0.0-32.0-18.0","56268858","wem/bandit_party_2","A2XU1TSQD45EB4","either","4","421","","","","","","","0","0","1","","0.2","0.5","0.5","0.5","0.5","0.8","0.2","0.6","0.2","","","","","","","","","","","","","","74","J","1","","true","0","full_practice",""
"","bandit","70","302638","0.0-32.0-19.0","56268858","wem/bandit_party_2","A2XU1TSQD45EB4","either","4","447","","","","","","","0","0","1","","0.2","0.5","0.5","0.5","0.5","0.8","0.2","0.6","0.2","","","","","","","","","","","","","","76","L","3","","true","0","full_practice",""
"","text","71","304774","0.0-33.0","56268858","wem/bandit_party_2","A2XU1TSQD45EB4","either","4","2129","","","32","","","","","","","","","","","","","","","","","","","","","","","","","","","","","","","","","","","","",""
"","text-replacement","72","318812","0.0-34.0","56268858","wem/bandit_party_2","A2XU1TSQD45EB4","either","4","13027","","","32","","","","","","","","","","","","","","","","","","","","","","","","","","","","","","","","","","","","",""
"","text-replacement","73","333554","0.0-35.0","56268858","wem/bandit_party_2","A2XU1TSQD45EB4","either","4","14735","","","32","","","","","","","","","","","","","","","","","","","","","","","","","","","","","","","","","","","","",""
"","text-replacement","74","339433","0.0-36.0","56268858","wem/bandit_party_2","A2XU1TSQD45EB4","either","4","5874","","","32","","","","","","","","","","","","","","","","","","","","","","","","","","","","","","","","","","","","",""
"","text-replacement","75","344900","0.0-37.0","56268858","wem/bandit_party_2","A2XU1TSQD45EB4","either","4","5461","","","32","","","","","","","","","","","","","","","","","","","","","","","","","","","","","","","","","","","","",""
"","text-replacement","76","350255","0.0-38.0","56268858","wem/bandit_party_2","A2XU1TSQD45EB4","either","4","5348","","","32","","","","","","","","","","","","","","","","","","","","","","","","","","","","","","","","","","","","",""
"","survey-multi-choice-replacement","77","356370","0.0-39.0-0.0","56268858","wem/bandit_party_2","A2XU1TSQD45EB4","either","4","6096","","","","","","","","","","","","","","","","","","","","","","","","Money will be added to the pool for <span style='color:red;'>REPUBLICANS</span>","","","","","","","attn_check","","","","","","","","","0"
"","survey-multi-choice-replacement","78","361907","0.0-40.0-0.0","56268858","wem/bandit_party_2","A2XU1TSQD45EB4","either","4","4513","","","","","","","","","","","","","","","","","","","","","","","","Equal amounts of money will be added to the pool for <span style='color:red;'>REPUBLICANS</span> and subtracted from the pool for <span style='color:blue;'>DEMOCRATS</span>","","","","","","","attn_check","","","","","","","","","2"
"","survey-multi-choice-replacement","79","370321","0.0-41.0-0.0","56268858","wem/bandit_party_2","A2XU1TSQD45EB4","either","4","7383","","","","","","","","","","","","","","","","","","","","","","","","No money will be added to either pool","","","","","","","attn_check","","","","","","","","","3"
"","bandit","80","374788","0.0-42.0-0.0","56268858","wem/bandit_party_2","A2XU1TSQD45EB4","either","4","1923","","","","","","","0","0","1","","0.2887693562","0.4","0.8","0.2","0.6","0.2887693562","0.7267404998","0.8209843215","0.9858900825","","","","","","","","","","","","","","72","H","0","img/none_selected.jpg","","1","main_expt",""
"","bandit","81","376542","0.0-43.0-0.0","56268858","wem/bandit_party_2","A2XU1TSQD45EB4","either","4","239","","","","","","","0","0","1","0.7034907646","","0.4","0.8","0.2","0.6","","","","","0.2986217167","0.7034907646","0.8179122382","0.9854924354","","","","","","","","","","74","J","1","","","2","main_expt",""
"","bandit","82","378273","0.0-44.0-0.0","56268858","wem/bandit_party_2","A2XU1TSQD45EB4","either","4","220","","","","","","","0","1","0","","0.8301291561","0.4","0.8","0.2","0.6","0.261346942","0.6574847675","0.8301291561","0.9789624529","","","","","","","","","","","","","","75","K","2","","","3","main_expt",""
"","bandit","83","380027","0.0-45.0-0.0","56268858","wem/bandit_party_2","A2XU1TSQD45EB4","either","4","239","","","","","","","0","1","0","","0.8219157537","0.4","0.8","0.2","0.6","0.2757740293","0.5092805277","0.8219157537","0.9565345184","","","","","","","","","","","","","","75","K","2","","","4","main_expt",""
"","bandit","84","381769","0.0-46.0-0.0","56268858","wem/bandit_party_2","A2XU1TSQD45EB4","either","4","214","","","","","","","0","1","0","","0.7759220463","0.4","0.8","0.2","0.6","0.3329857669","0.5952926025","0.7759220463","0.941194936","","","","","","","","","","","","","","75","K","2","","","5","main_expt",""
"","bandit","85","383529","0.0-47.0-0.0","56268858","wem/bandit_party_2","A2XU1TSQD45EB4","either","4","242","","","","","","","0","1","0","","0.7495930044","0.4","0.8","0.2","0.6","0.331878758","0.6160758637","0.7495930044","0.9305219143","","","","","","","","","","","","","","75","K","2","","","6","main_expt",""
"","bandit","86","385274","0.0-48.0-0.0","56268858","wem/bandit_party_2","A2XU1TSQD45EB4","either","4","223","","","","","","","0","0","1","","0.7078030286","0.4","0.8","0.2","0.6","0.3863389794","0.6381806331","0.7078030286","0.937738562","","","","","","","","","","","","","","75","K","2","","","7","main_expt",""
"","bandit","87","387342","0.0-49.0-0.0","56268858","wem/bandit_party_2","A2XU1TSQD45EB4","either","4","533","","","","","","","0","0","1","","0.689407674","0.4","0.8","0.2","0.6","0.4242016385","0.7047831713","0.689407674","0.8269671957","","","","","","","","","","","","","","75","K","2","","","8","main_expt",""
"","bandit","88","389146","0.0-50.0-0.0","56268858","wem/bandit_party_2","A2XU1TSQD45EB4","either","4","266","","","","","","","0","0","1","0.7696709776","","0.4","0.8","0.2","0.6","","","","","0.379169242","0.6222923336","0.7848236408","0.7696709776","","","","","","","","","","76","L","3","","","9","main_expt",""
"","bandit","89","390870","0.0-51.0-0.0","56268858","wem/bandit_party_2","A2XU1TSQD45EB4","either","4","202","","","","","","","0","0","1","0.40569916","","0.4","0.8","0.2","0.6","","","","","0.40569916","0.5629201009","0.791363481","0.7313552403","","","","","","","","","","72","H","0","img/none_selected.jpg","","10","main_expt",""
"","bandit","90","392606","0.0-52.0-0.0","56268858","wem/bandit_party_2","A2XU1TSQD45EB4","either","4","213","","","","","","","1","0","0","0.644159789","","0.4","0.8","0.2","0.6","","","","","0.4188021694","0.644159789","0.7800632456","0.8129169819","","","","","","","","","","74","J","1","","","11","main_expt",""
"","bandit","91","394401","0.0-53.0-0.0","56268858","wem/bandit_party_2","A2XU1TSQD45EB4","either","4","261","","","","","","","0","0","1","0.6840372722","","0.4","0.8","0.2","0.6","","","","","0.3689559917","0.6840372722","0.7559884596","0.7611571711","","","","","","","","","","74","J","1","","","12","main_expt",""
"","bandit","92","396207","0.0-54.0-0.0","56268858","wem/bandit_party_2","A2XU1TSQD45EB4","either","4","271","","","","","","","1","0","0","0.6236151953","","0.4","0.8","0.2","0.6","","","","","0.4584943612","0.6236151953","0.7695577991","0.7628417147","","","","","","","","","","74","J","1","","","13","main_expt",""
"","bandit","93","398902","0.0-55.0-0.0","56268858","wem/bandit_party_2","A2XU1TSQD45EB4","either","4","1175","","","","","","","1","0","0","0.5388331182","","0.4","0.8","0.2","0.6","","","","","0.455083938","0.5388331182","0.8509931145","0.7436451733","","","","","","","","","","74","J","1","","","14","main_expt",""
"","bandit","94","402160","0.0-56.0-0.0","56268858","wem/bandit_party_2","A2XU1TSQD45EB4","either","4","1697","","","","","","","0","0","1","0.4802769188","","0.4","0.8","0.2","0.6","","","","","0.5360112786","0.4802769188","0.7745856811","0.8256008488","","","","","","","","","","74","J","1","","","15","main_expt",""
"","bandit","95","404427","0.0-57.0-0.0","56268858","wem/bandit_party_2","A2XU1TSQD45EB4","either","4","744","","","","","","","1","0","0","0.4791571541","","0.4","0.8","0.2","0.6","","","","","0.4791571541","0.4688000192","0.7576521113","0.7683027423","","","","","","","","","","72","H","0","img/none_selected.jpg","","16","main_expt",""
"","bandit","96","406657","0.0-58.0-0.0","56268858","wem/bandit_party_2","A2XU1TSQD45EB4","either","4","700","","","","","","","0","0","1","","0.5263630166","0.4","0.8","0.2","0.6","0.5263630166","0.6000602573","0.8099558365","0.7857675768","","","","","","","","","","","","","","72","H","0","img/none_selected.jpg","","17","main_expt",""
"","bandit","97","408782","0.0-59.0-0.0","56268858","wem/bandit_party_2","A2XU1TSQD45EB4","either","4","539","","","","","","","0","1","0","","0.543945959","0.4","0.8","0.2","0.6","0.543945959","0.6046592687","0.7535280451","0.7303419725","","","","","","","","","","","","","","72","H","0","img/none_selected.jpg","","18","main_expt",""
"","bandit","98","413498","0.0-60.0-0.0","56268858","wem/bandit_party_2","A2XU1TSQD45EB4","either","4","3196","","","","","","","0","0","1","","0.4579801682","0.4","0.8","0.2","0.6","0.4579801682","0.6177236116","0.7206444799","0.7243255268","","","","","","","","","","","","","","72","H","0","img/none_selected.jpg","","19","main_expt",""
"","bandit","99","416178","0.0-61.0-0.0","56268858","wem/bandit_party_2","A2XU1TSQD45EB4","either","4","1155","","","","","","","1","0","0","0.5439896582","","0.4","0.8","0.2","0.6","","","","","0.5439896582","0.5484637992","0.6388551968","0.7691283854","","","","","","","","","","72","H","0","img/none_selected.jpg","","20","main_expt",""
"","bandit","100","418310","0.0-62.0-0.0","56268858","wem/bandit_party_2","A2XU1TSQD45EB4","either","4","617","","","","","","","0","0","1","","0.5796019833","0.4","0.8","0.2","0.6","0.5796019833","0.6646151354","0.4956822649","0.7068464658","","","","","","","","","","","","","","72","H","0","img/none_selected.jpg","","21","main_expt",""
"","bandit","101","420094","0.0-63.0-0.0","56268858","wem/bandit_party_2","A2XU1TSQD45EB4","either","4","266","","","","","","","0","1","0","","0.5885929095","0.4","0.8","0.2","0.6","0.5885929095","0.7223938077","0.4316307404","0.7407239748","","","","","","","","","","","","","","72","H","0","img/none_selected.jpg","","22","main_expt",""
"","bandit","102","421938","0.0-64.0-0.0","56268858","wem/bandit_party_2","A2XU1TSQD45EB4","either","4","306","","","","","","","0","1","0","","0.4899642796","0.4","0.8","0.2","0.6","0.4899642796","0.7548690184","0.4158022912","0.7300920021","","","","","","","","","","","","","","72","H","0","img/none_selected.jpg","","23","main_expt",""
"","bandit","103","423727","0.0-65.0-0.0","56268858","wem/bandit_party_2","A2XU1TSQD45EB4","either","4","278","","","","","","","0","1","0","","0.4984159311","0.4","0.8","0.2","0.6","0.4984159311","0.7794954679","0.4099928258","0.7074307303","","","","","","","","","","","","","","72","H","0","img/none_selected.jpg","","24","main_expt",""
"","bandit","104","425624","0.0-66.0-0.0","56268858","wem/bandit_party_2","A2XU1TSQD45EB4","either","4","378","","","","","","","0","0","1","","0.5885503773","0.4","0.8","0.2","0.6","0.5885503773","0.8029664172","0.4303724308","0.6228099684","","","","","","","","","","","","","","72","H","0","img/none_selected.jpg","","25","main_expt",""
"","bandit","105","427384","0.0-67.0-0.0","56268858","wem/bandit_party_2","A2XU1TSQD45EB4","either","4","244","","","","","","","1","0","0","0.6978100054","","0.4","0.8","0.2","0.6","","","","","0.6978100054","0.6980766755","0.3291624114","0.5588879168","","","","","","","","","","72","H","0","img/none_selected.jpg","","26","main_expt",""
"","bandit","106","429311","0.0-68.0-0.0","56268858","wem/bandit_party_2","A2XU1TSQD45EB4","either","4","389","","","","","","","1","0","0","0.6442468271","","0.4","0.8","0.2","0.6","","","","","0.6442468271","0.7021498626","0.3795789415","0.5033257713","","","","","","","","","","72","H","0","img/none_selected.jpg","","27","main_expt",""
"","bandit","107","431603","0.0-69.0-0.0","56268858","wem/bandit_party_2","A2XU1TSQD45EB4","either","4","762","","","","","","","0","1","0","","0.7399213538","0.4","0.8","0.2","0.6","0.7399213538","0.7802436781","0.3208573938","0.4915102133","","","","","","","","","","","","","","72","H","0","img/none_selected.jpg","","28","main_expt",""
"","bandit","108","434055","0.0-70.0-0.0","56268858","wem/bandit_party_2","A2XU1TSQD45EB4","either","4","918","","","","","","","0","1","0","","0.7520253205","0.4","0.8","0.2","0.6","0.7520253205","0.6907923131","0.3352919619","0.4291187576","","","","","","","","","","","","","","72","H","0","img/none_selected.jpg","","29","main_expt",""
"","bandit","109","435917","0.0-71.0-0.0","56268858","wem/bandit_party_2","A2XU1TSQD45EB4","either","4","331","","","","","","","0","0","1","0.7528469829","","0.4","0.8","0.2","0.6","","","","","0.7528469829","0.6771306444","0.3452717309","0.5379907803","","","","","","","","","","72","H","0","img/none_selected.jpg","","30","main_expt",""
"","bandit","110","439121","0.0-72.0-0.0","56268858","wem/bandit_party_2","A2XU1TSQD45EB4","either","4","1688","","","","","","","0","1","0","","0.7571908429","0.4","0.8","0.2","0.6","0.7571908429","0.7130915948","0.2967094522","0.646046857","","","","","","","","","","","","","","72","H","0","img/none_selected.jpg","","31","main_expt",""
"","bandit","111","441535","0.0-73.0-0.0","56268858","wem/bandit_party_2","A2XU1TSQD45EB4","either","4","893","","","","","","","1","0","0","0.7530934884","","0.4","0.8","0.2","0.6","","","","","0.7530934884","0.6849190202","0.255781972","0.5608885347","","","","","","","","","","72","H","0","img/none_selected.jpg","","32","main_expt",""
"","bandit","112","445806","0.0-74.0-0.0","56268858","wem/bandit_party_2","A2XU1TSQD45EB4","either","4","2744","","","","","","","0","1","0","","0.7163673585","0.4","0.8","0.2","0.6","0.7163673585","0.7392612035","0.2703771925","0.5952322697","","","","","","","","","","","","","","72","H","0","img/none_selected.jpg","","33","main_expt",""
"","bandit","113","448985","0.0-75.0-0.0","56268858","wem/bandit_party_2","A2XU1TSQD45EB4","either","4","1662","","","","","","","0","1","0","","0.6817248107","0.4","0.8","0.2","0.6","0.6817248107","0.7026009082","0.3572673824","0.6206609301","","","","","","","","","","","","","","72","H","0","img/none_selected.jpg","","34","main_expt",""
"","bandit","114","450871","0.0-76.0-0.0","56268858","wem/bandit_party_2","A2XU1TSQD45EB4","either","4","362","","","","","","","0","1","0","","0.6903641832","0.4","0.8","0.2","0.6","0.6903641832","0.632003728","0.3237575066","0.6223058769","","","","","","","","","","","","","","72","H","0","img/none_selected.jpg","","35","main_expt",""
"","bandit","115","452821","0.0-77.0-0.0","56268858","wem/bandit_party_2","A2XU1TSQD45EB4","either","4","423","","","","","","","0","0","1","0.6953747248","","0.4","0.8","0.2","0.6","","","","","0.6953747248","0.7266912659","0.3724209237","0.7304722347","","","","","","","","","","72","H","0","img/none_selected.jpg","","36","main_expt",""
"","bandit","116","454809","0.0-78.0-0.0","56268858","wem/bandit_party_2","A2XU1TSQD45EB4","either","4","466","","","","","","","0","1","0","","0.7552078918","0.4","0.8","0.2","0.6","0.7552078918","0.5512211225","0.3848591071","0.6789706255","","","","","","","","","","","","","","72","H","0","img/none_selected.jpg","","37","main_expt",""
"","bandit","117","456734","0.0-79.0-0.0","56268858","wem/bandit_party_2","A2XU1TSQD45EB4","either","4","406","","","","","","","0","1","0","","0.7095976639","0.4","0.8","0.2","0.6","0.7095976639","0.5888446875","0.4026628424","0.6758320082","","","","","","","","","","","","","","72","H","0","img/none_selected.jpg","","38","main_expt",""
"","bandit","118","459848","0.0-80.0-0.0","56268858","wem/bandit_party_2","A2XU1TSQD45EB4","either","4","1590","","","","","","","1","0","0","0.7813817897","","0.4","0.8","0.2","0.6","","","","","0.7813817897","0.7349010221","0.460229008","0.753286291","","","","","","","","","","72","H","0","img/none_selected.jpg","","39","main_expt",""
"","bandit","119","461841","0.0-81.0-0.0","56268858","wem/bandit_party_2","A2XU1TSQD45EB4","either","4","476","","","","","","","0","1","0","","0.7604460558","0.4","0.8","0.2","0.6","0.7604460558","0.6715391024","0.3392787789","0.7527041006","","","","","","","","","","","","","","72","H","0","img/none_selected.jpg","","40","main_expt",""
"","bandit","120","463721","0.0-82.0-0.0","56268858","wem/bandit_party_2","A2XU1TSQD45EB4","either","4","355","","","","","","","1","0","0","0.7588214983","","0.4","0.8","0.2","0.6","","","","","0.7588214983","0.688235262","0.2983701942","0.7900808451","","","","","","","","","","72","H","0","img/none_selected.jpg","","41","main_expt",""
"","bandit","121","465737","0.0-83.0-0.0","56268858","wem/bandit_party_2","A2XU1TSQD45EB4","either","4","504","","","","","","","0","1","0","","0.8204813903","0.4","0.8","0.2","0.6","0.8204813903","0.750516412","0.2390858253","0.7261157662","","","","","","","","","","","","","","72","H","0","img/none_selected.jpg","","42","main_expt",""
"","bandit","122","467597","0.0-84.0-0.0","56268858","wem/bandit_party_2","A2XU1TSQD45EB4","either","4","343","","","","","","","0","1","0","","0.8310219988","0.4","0.8","0.2","0.6","0.8310219988","0.775378891","0.1877526289","0.772887471","","","","","","","","","","","","","","72","H","0","img/none_selected.jpg","","43","main_expt",""
"","bandit","123","470646","0.0-85.0-0.0","56268858","wem/bandit_party_2","A2XU1TSQD45EB4","either","4","1526","","","","","","","0","1","0","","0.8165903167","0.4","0.8","0.2","0.6","0.8165903167","0.5983035632","0.2713877418","0.7359848823","","","","","","","","","","","","","","72","H","0","img/none_selected.jpg","","44","main_expt",""
"","bandit","124","472531","0.0-86.0-0.0","56268858","wem/bandit_party_2","A2XU1TSQD45EB4","either","4","363","","","","","","","0","1","0","","0.6765015189","0.4","0.8","0.2","0.6","0.6765015189","0.6453890447","0.2600408605","0.6223954065","","","","","","","","","","","","","","72","H","0","img/none_selected.jpg","","45","main_expt",""
"","bandit","125","475566","0.0-87.0-0.0","56268858","wem/bandit_party_2","A2XU1TSQD45EB4","either","4","1510","","","","","","","1","0","0","0.6613510417","","0.4","0.8","0.2","0.6","","","","","0.6613510417","0.4979639723","0.2435580982","0.5963379238","","","","","","","","","","72","H","0","img/none_selected.jpg","","46","main_expt",""
"","bandit","126","477389","0.0-88.0-0.0","56268858","wem/bandit_party_2","A2XU1TSQD45EB4","either","4","279","","","","","","","1","0","0","0.7373034573","","0.4","0.8","0.2","0.6","","","","","0.7373034573","0.4475739324","0.3258971046","0.6161308884","","","","","","","","","","72","H","0","img/none_selected.jpg","","47","main_expt",""
"","bandit","127","479270","0.0-89.0-0.0","56268858","wem/bandit_party_2","A2XU1TSQD45EB4","either","4","361","","","","","","","0","1","0","","0.6580913366","0.4","0.8","0.2","0.6","0.6580913366","0.570942939","0.2934977076","0.6354722558","","","","","","","","","","","","","","72","H","0","img/none_selected.jpg","","48","main_expt",""
"","bandit","128","481597","0.0-90.0-0.0","56268858","wem/bandit_party_2","A2XU1TSQD45EB4","either","4","798","","","","","","","0","1","0","","0.6518545324","0.4","0.8","0.2","0.6","0.6518545324","0.5943858444","0.3381222087","0.5941747261","","","","","","","","","","","","","","72","H","0","img/none_selected.jpg","","49","main_expt",""
"","bandit","129","483452","0.0-91.0-0.0","56268858","wem/bandit_party_2","A2XU1TSQD45EB4","either","4","325","","","","","","","0","0","1","0.6362385309","","0.4","0.8","0.2","0.6","","","","","0.6362385309","0.72156704","0.4149653651","0.5510631732","","","","","","","","","","72","H","0","img/none_selected.jpg","","50","main_expt",""
"","bandit","130","485267","0.0-92.0-0.0","56268858","wem/bandit_party_2","A2XU1TSQD45EB4","either","4","272","","","","","","","0","0","1","","0.6673370403","0.4","0.8","0.2","0.6","0.6673370403","0.6453884322","0.315936401","0.5580995271","","","","","","","","","","","","","","72","H","0","img/none_selected.jpg","","51","main_expt",""
"","bandit","131","487132","0.0-93.0-0.0","56268858","wem/bandit_party_2","A2XU1TSQD45EB4","either","4","349","","","","","","","0","1","0","","0.635653338","0.4","0.8","0.2","0.6","0.6614759556","0.635653338","0.34776451","0.4492126091","","","","","","","","","","","","","","74","J","1","","","52","main_expt",""
"","bandit","132","489147","0.0-94.0-0.0","56268858","wem/bandit_party_2","A2XU1TSQD45EB4","either","4","410","","","","","","","1","0","0","0.5700640027","","0.4","0.8","0.2","0.6","","","","","0.5099009019","0.5700640027","0.2946288454","0.4600129001","","","","","","","","","","74","J","1","","","53","main_expt",""
"","bandit","133","491134","0.0-95.0-0.0","56268858","wem/bandit_party_2","A2XU1TSQD45EB4","either","4","461","","","","","","","0","0","1","0.4535518587","","0.4","0.8","0.2","0.6","","","","","0.5323874036","0.4535518587","0.3757560715","0.4005354829","","","","","","","","","","74","J","1","","","54","main_expt",""
"","bandit","134","492891","0.0-96.0-0.0","56268858","wem/bandit_party_2","A2XU1TSQD45EB4","either","4","230","","","","","","","0","0","1","0.4271895083","","0.4","0.8","0.2","0.6","","","","","0.5410243768","0.4271895083","0.3258455482","0.3305694417","","","","","","","","","","74","J","1","","","55","main_expt",""
"","bandit","135","494666","0.0-97.0-0.0","56268858","wem/bandit_party_2","A2XU1TSQD45EB4","either","4","262","","","","","","","0","1","0","","0.3443449075","0.4","0.8","0.2","0.6","0.5594159285","0.3506641683","0.4350401219","0.3443449075","","","","","","","","","","","","","","76","L","3","","","56","main_expt",""
"","bandit","136","497574","0.0-98.0-0.0","56268858","wem/bandit_party_2","A2XU1TSQD45EB4","either","4","1374","","","","","","","0","1","0","","0.3719720486","0.4","0.8","0.2","0.6","0.5057935102","0.3266461122","0.3707313189","0.3719720486","","","","","","","","","","","","","","76","L","3","","","57","main_expt",""
"","bandit","137","499674","0.0-99.0-0.0","56268858","wem/bandit_party_2","A2XU1TSQD45EB4","either","4","582","","","","","","","0","0","1","0.2230753252","","0.4","0.8","0.2","0.6","","","","","0.4921421838","0.3024401834","0.5588799977","0.2230753252","","","","","","","","","","76","L","3","","","58","main_expt",""
"","bandit","138","501478","0.0-100.0-0.0","56268858","wem/bandit_party_2","A2XU1TSQD45EB4","either","4","286","","","","","","","0","0","1","0.2255195526","","0.4","0.8","0.2","0.6","","","","","0.4740341295","0.4306619987","0.6863198467","0.2255195526","","","","","","","","","","76","L","3","","","59","main_expt",""
"","bandit","139","503108","0.0-101.0-0.0","56268858","wem/bandit_party_2","A2XU1TSQD45EB4","either","4","88","","","","","","","0","0","1","","0.6998437478","0.4","0.8","0.2","0.6","0.4853159436","0.4710521126","0.6998437478","0.2150487889","","","","","","","","","","","","","","75","K","2","","","60","main_expt",""
"","bandit","140","504872","0.0-102.0-0.0","56268858","wem/bandit_party_2","A2XU1TSQD45EB4","either","4","240","","","","","","","1","0","0","0.4843563089","","0.4","0.8","0.2","0.6","","","","","0.4843563089","0.4797168847","0.7027468204","0.2670703017","","","","","","","","","","72","H","0","img/none_selected.jpg","","61","main_expt",""
"","bandit","141","506655","0.0-103.0-0.0","56268858","wem/bandit_party_2","A2XU1TSQD45EB4","either","4","259","","","","","","","0","0","1","0.4970562682","","0.4","0.8","0.2","0.6","","","","","0.4970562682","0.441351191","0.7461433662","0.1622034337","","","","","","","","","","72","H","0","img/none_selected.jpg","","62","main_expt",""
"","bandit","142","508724","0.0-104.0-0.0","56268858","wem/bandit_party_2","A2XU1TSQD45EB4","either","4","547","","","","","","","0","0","1","0.6405696824","","0.4","0.8","0.2","0.6","","","","","0.4870743105","0.6405696824","0.7956877632","0.1872430185","","","","","","","","","","74","J","1","","","63","main_expt",""
"","bandit","143","510948","0.0-105.0-0.0","56268858","wem/bandit_party_2","A2XU1TSQD45EB4","either","4","701","","","","","","","0","1","0","","0.5297884171","0.4","0.8","0.2","0.6","0.5297884171","0.5093225209","0.7533911137","0.1921602407","","","","","","","","","","","","","","72","H","0","img/none_selected.jpg","","64","main_expt",""
"","bandit","144","514654","0.0-106.0-0.0","56268858","wem/bandit_party_2","A2XU1TSQD45EB4","either","4","2179","","","","","","","1","0","0","0.5510281753","","0.4","0.8","0.2","0.6","","","","","0.5510281753","0.5190422554","0.8407665504","0.1747679693","","","","","","","","","","72","H","0","img/none_selected.jpg","","65","main_expt",""
"","bandit","145","516797","0.0-107.0-0.0","56268858","wem/bandit_party_2","A2XU1TSQD45EB4","either","4","601","","","","","","","0","0","1","","0.6548378986","0.4","0.8","0.2","0.6","0.6548378986","0.4367989657","0.8392190168","0.149475979","","","","","","","","","","","","","","72","H","0","img/none_selected.jpg","","66","main_expt",""
"","bandit","146","518728","0.0-108.0-0.0","56268858","wem/bandit_party_2","A2XU1TSQD45EB4","either","4","407","","","","","","","0","1","0","","0.7873643744","0.4","0.8","0.2","0.6","0.7873643744","0.4515976155","0.7998105719","0.1340316754","","","","","","","","","","","","","","72","H","0","img/none_selected.jpg","","67","main_expt",""
"","bandit","147","521001","0.0-109.0-0.0","56268858","wem/bandit_party_2","A2XU1TSQD45EB4","either","4","757","","","","","","","0","1","0","","0.8374830125","0.4","0.8","0.2","0.6","0.8374830125","0.4605235732","0.8055175736","0.1635100664","","","","","","","","","","","","","","72","H","0","img/none_selected.jpg","","68","main_expt",""
"","bandit","148","522772","0.0-110.0-0.0","56268858","wem/bandit_party_2","A2XU1TSQD45EB4","either","4","247","","","","","","","1","0","0","0.7948054761","","0.4","0.8","0.2","0.6","","","","","0.7948054761","0.3799115548","0.9157616325","0.1227365859","","","","","","","","","","72","H","0","img/none_selected.jpg","","69","main_expt",""
"","bandit","149","524749","0.0-111.0-0.0","56268858","wem/bandit_party_2","A2XU1TSQD45EB4","either","4","444","","","","","","","1","0","0","0.8257183208","","0.4","0.8","0.2","0.6","","","","","0.8257183208","0.4215965018","0.9575411193","0.1248437045","","","","","","","","","","72","H","0","img/none_selected.jpg","","70","main_expt",""
"","bandit","150","526639","0.0-112.0-0.0","56268858","wem/bandit_party_2","A2XU1TSQD45EB4","either","4","368","","","","","","","1","0","0","0.7378076352","","0.4","0.8","0.2","0.6","","","","","0.7378076352","0.4069040491","0.9604429572","0.1153860856","","","","","","","","","","72","H","0","img/none_selected.jpg","","71","main_expt",""
"","bandit","151","528818","0.0-113.0-0.0","56268858","wem/bandit_party_2","A2XU1TSQD45EB4","either","4","646","","","","","","","0","0","1","","0.7402058239","0.4","0.8","0.2","0.6","0.7402058239","0.4396577013","0.9598545795","0.1355011504","","","","","","","","","","","","","","72","H","0","img/none_selected.jpg","","72","main_expt",""
"","bandit","152","530667","0.0-114.0-0.0","56268858","wem/bandit_party_2","A2XU1TSQD45EB4","either","4","331","","","","","","","0","0","1","","0.6976791507","0.4","0.8","0.2","0.6","0.6976791507","0.6562772762","0.944667289","0.05996807606","","","","","","","","","","","","","","72","H","0","img/none_selected.jpg","","73","main_expt",""
"","bandit","153","532457","0.0-115.0-0.0","56268858","wem/bandit_party_2","A2XU1TSQD45EB4","either","4","268","","","","","","","0","1","0","","0.6973429816","0.4","0.8","0.2","0.6","0.7918365236","0.6973429816","0.9226304804","0.05405538329","","","","","","","","","","","","","","74","J","1","","","74","main_expt",""
"","bandit","154","534485","0.0-116.0-0.0","56268858","wem/bandit_party_2","A2XU1TSQD45EB4","either","4","507","","","","","","","0","1","0","","0.7736122178","0.4","0.8","0.2","0.6","0.7822783488","0.7736122178","0.9398646798","0.02989929625","","","","","","","","","","","","","","74","J","1","","","75","main_expt",""
"","bandit","155","538595","0.0-117.0-0.0","56268858","wem/bandit_party_2","A2XU1TSQD45EB4","either","4","2588","","","","","","","1","0","0","0.8130420724","","0.4","0.8","0.2","0.6","","","","","0.7290889389","0.8130420724","0.9344412274","0.0563551135","","","","","","","","","","74","J","1","","","76","main_expt",""
"","bandit","156","540618","0.0-118.0-0.0","56268858","wem/bandit_party_2","A2XU1TSQD45EB4","either","4","501","","","","","","","1","0","0","0.8182773084","","0.4","0.8","0.2","0.6","","","","","0.7903383215","0.8182773084","0.9512527415","0.0510075381","","","","","","","","","","74","J","1","","","77","main_expt",""
"","bandit","157","543169","0.0-119.0-0.0","56268858","wem/bandit_party_2","A2XU1TSQD45EB4","either","4","1030","","","","","","","1","0","0","0.910984946","","0.4","0.8","0.2","0.6","","","","","0.8093770606","0.910984946","0.945324638","0.07280641377","","","","","","","","","","74","J","1","","","78","main_expt",""
"","bandit","158","545562","0.0-120.0-0.0","56268858","wem/bandit_party_2","A2XU1TSQD45EB4","either","4","869","","","","","","","1","0","0","0.9303795674","","0.4","0.8","0.2","0.6","","","","","0.7310189459","0.9303795674","0.9313693401","0.06591604593","","","","","","","","","","74","J","1","","","79","main_expt",""
"","bandit","159","549473","0.0-121.0-0.0","56268858","wem/bandit_party_2","A2XU1TSQD45EB4","either","4","2380","","","","","","","1","0","0","0.9581515868","","0.4","0.8","0.2","0.6","","","","","0.7915113188","0.9581515868","0.9272018461","0.02790121052","","","","","","","","","","74","J","1","","","80","main_expt",""
"","bandit","160","551556","0.0-122.0-0.0","56268858","wem/bandit_party_2","A2XU1TSQD45EB4","either","4","543","","","","","","","1","0","0","0.9107397581","","0.4","0.8","0.2","0.6","","","","","0.8463201033","0.9107397581","0.9340165544","0.03997429631","","","","","","","","","","74","J","1","","","81","main_expt",""
"","bandit","161","553556","0.0-123.0-0.0","56268858","wem/bandit_party_2","A2XU1TSQD45EB4","either","4","477","","","","","","","1","0","0","0.9531247327","","0.4","0.8","0.2","0.6","","","","","0.9043915002","0.9531247327","0.9778602254","0.03692483048","","","","","","","","","","74","J","1","","","82","main_expt",""
"","bandit","162","555533","0.0-124.0-0.0","56268858","wem/bandit_party_2","A2XU1TSQD45EB4","either","4","448","","","","","","","0","0","1","0.91574064","","0.4","0.8","0.2","0.6","","","","","0.922294541","0.91574064","0.9593015187","0.04167024954","","","","","","","","","","74","J","1","","","83","main_expt",""
"","bandit","163","557385","0.0-125.0-0.0","56268858","wem/bandit_party_2","A2XU1TSQD45EB4","either","4","342","","","","","","","0","1","0","","0.9398758864","0.4","0.8","0.2","0.6","0.9079954767","0.9287460716","0.9398758864","0.03449326924","","","","","","","","","","","","","","75","K","2","","","84","main_expt",""
"","bandit","164","559254","0.0-126.0-0.0","56268858","wem/bandit_party_2","A2XU1TSQD45EB4","either","4","339","","","","","","","0","1","0","","0.9256746213","0.4","0.8","0.2","0.6","0.92293493","0.9817994773","0.9256746213","0.07382848834","","","","","","","","","","","","","","75","K","2","","","85","main_expt",""
"","bandit","165","561252","0.0-127.0-0.0","56268858","wem/bandit_party_2","A2XU1TSQD45EB4","either","4","485","","","","","","","0","1","0","","0.8910640916","0.4","0.8","0.2","0.6","0.8831043051","0.9651028603","0.8910640916","0.08839198485","","","","","","","","","","","","","","75","K","2","","","86","main_expt",""
"","bandit","166","563454","0.0-128.0-0.0","56268858","wem/bandit_party_2","A2XU1TSQD45EB4","either","4","688","","","","","","","1","0","0","0.8729480744","","0.4","0.8","0.2","0.6","","","","","0.876749115","0.9364705545","0.8729480744","0.08767612821","","","","","","","","","","75","K","2","","","87","main_expt",""
"","bandit","167","565380","0.0-129.0-0.0","56268858","wem/bandit_party_2","A2XU1TSQD45EB4","either","4","395","","","","","","","0","1","0","","0.8780151739","0.4","0.8","0.2","0.6","0.9189432589","0.9235767634","0.8780151739","0.1606359608","","","","","","","","","","","","","","75","K","2","","","88","main_expt",""
"","bandit","168","567167","0.0-130.0-0.0","56268858","wem/bandit_party_2","A2XU1TSQD45EB4","either","4","249","","","","","","","0","0","1","","0.8856980863","0.4","0.8","0.2","0.6","0.8770582065","0.9375107972","0.8856980863","0.2051996915","","","","","","","","","","","","","","75","K","2","","","89","main_expt",""
"","bandit","169","568955","0.0-131.0-0.0","56268858","wem/bandit_party_2","A2XU1TSQD45EB4","either","4","263","","","","","","","0","1","0","","0.8828292745","0.4","0.8","0.2","0.6","0.9303780437","0.9201099193","0.8828292745","0.1757431166","","","","","","","","","","","","","","75","K","2","","","90","main_expt",""
"","bandit","170","570720","0.0-132.0-0.0","56268858","wem/bandit_party_2","A2XU1TSQD45EB4","either","4","240","","","","","","","0","1","0","","0.9016480115","0.4","0.8","0.2","0.6","0.8870296602","0.9416722714","0.9016480115","0.3470073597","","","","","","","","","","","","","","75","K","2","","","91","main_expt",""
"","bandit","171","572563","0.0-133.0-0.0","56268858","wem/bandit_party_2","A2XU1TSQD45EB4","either","4","315","","","","","","","0","1","0","","0.9077272713","0.4","0.8","0.2","0.6","0.8466670433","0.943817784","0.9077272713","0.4969118024","","","","","","","","","","","","","","75","K","2","","","92","main_expt",""
"","bandit","172","574349","0.0-134.0-0.0","56268858","wem/bandit_party_2","A2XU1TSQD45EB4","either","4","271","","","","","","","0","1","0","","0.875936713","0.4","0.8","0.2","0.6","0.850017275","0.9078517942","0.875936713","0.5773598144","","","","","","","","","","","","","","75","K","2","","","93","main_expt",""
"","bandit","173","576187","0.0-135.0-0.0","56268858","wem/bandit_party_2","A2XU1TSQD45EB4","either","4","319","","","","","","","0","1","0","","0.8089346838","0.4","0.8","0.2","0.6","0.6893652978","0.8983200186","0.8089346838","0.5513550223","","","","","","","","","","","","","","75","K","2","","","94","main_expt",""
"","bandit","174","577963","0.0-136.0-0.0","56268858","wem/bandit_party_2","A2XU1TSQD45EB4","either","4","249","","","","","","","0","1","0","","0.7472177953","0.4","0.8","0.2","0.6","0.6025630118","0.8744309931","0.7472177953","0.5461825447","","","","","","","","","","","","","","75","K","2","","","95","main_expt",""
"","bandit","175","579878","0.0-137.0-0.0","56268858","wem/bandit_party_2","A2XU1TSQD45EB4","either","4","376","","","","","","","0","1","0","","0.631257407","0.4","0.8","0.2","0.6","0.5565182624","0.8894212924","0.631257407","0.5564841108","","","","","","","","","","","","","","75","K","2","","","96","main_expt",""
"","bandit","176","582124","0.0-138.0-0.0","56268858","wem/bandit_party_2","A2XU1TSQD45EB4","either","4","709","","","","","","","1","0","0","0.7474787878","","0.4","0.8","0.2","0.6","","","","","0.4820287155","0.891162681","0.7474787878","0.6513715187","","","","","","","","","","75","K","2","","","97","main_expt",""
"","bandit","177","583830","0.0-139.0-0.0","56268858","wem/bandit_party_2","A2XU1TSQD45EB4","either","4","183","","","","","","","0","1","0","","0.7753317291","0.4","0.8","0.2","0.6","0.4599621431","0.8495400438","0.7753317291","0.7004254565","","","","","","","","","","","","","","75","K","2","","","98","main_expt",""
"","bandit","178","585622","0.0-140.0-0.0","56268858","wem/bandit_party_2","A2XU1TSQD45EB4","either","4","268","","","","","","","0","0","1","0.7088399779","","0.4","0.8","0.2","0.6","","","","","0.4109144258","0.8671572546","0.7088399779","0.6473310623","","","","","","","","","","75","K","2","","","99","main_expt",""
"","bandit","179","587806","0.0-141.0-0.0","56268858","wem/bandit_party_2","A2XU1TSQD45EB4","either","4","647","","","","","","","1","0","0","0.7328055719","","0.4","0.8","0.2","0.6","","","","","0.3466085394","0.8312294914","0.7328055719","0.6160818326","","","","","","","","","","75","K","2","","","100","main_expt",""
"","bandit","180","589629","0.0-142.0-0.0","56268858","wem/bandit_party_2","A2XU1TSQD45EB4","either","4","307","","","","","","","0","1","0","","0.8183789849","0.4","0.8","0.2","0.6","0.3712289037","0.8135240708","0.8183789849","0.6963675268","","","","","","","","","","","","","","75","K","2","","","101","main_expt",""
"","bandit","181","591650","0.0-143.0-0.0","56268858","wem/bandit_party_2","A2XU1TSQD45EB4","either","4","486","","","","","","","0","1","0","","0.7854635714","0.4","0.8","0.2","0.6","0.3626324234","0.8556055773","0.7854635714","0.6339579424","","","","","","","","","","","","","","75","K","2","","","102","main_expt",""
"","bandit","182","593653","0.0-144.0-0.0","56268858","wem/bandit_party_2","A2XU1TSQD45EB4","either","4","472","","","","","","","0","1","0","","0.8481411385","0.4","0.8","0.2","0.6","0.2748825764","0.7632006143","0.8481411385","0.6908430899","","","","","","","","","","","","","","75","K","2","","","103","main_expt",""
"","bandit","183","595731","0.0-145.0-0.0","56268858","wem/bandit_party_2","A2XU1TSQD45EB4","either","4","551","","","","","","","1","0","0","0.8129446485","","0.4","0.8","0.2","0.6","","","","","0.2381725209","0.8273213265","0.8129446485","0.6866318891","","","","","","","","","","75","K","2","","","104","main_expt",""
"","bandit","184","597510","0.0-146.0-0.0","56268858","wem/bandit_party_2","A2XU1TSQD45EB4","either","4","257","","","","","","","0","1","0","","0.7898688037","0.4","0.8","0.2","0.6","0.1939551764","0.7930501456","0.7898688037","0.6749941214","","","","","","","","","","","","","","75","K","2","","","105","main_expt",""
"","bandit","185","599415","0.0-147.0-0.0","56268858","wem/bandit_party_2","A2XU1TSQD45EB4","either","4","391","","","","","","","0","1","0","","0.7810744832","0.4","0.8","0.2","0.6","0.1884153881","0.7186603115","0.7810744832","0.7300347885","","","","","","","","","","","","","","75","K","2","","","106","main_expt",""
"","bandit","186","601991","0.0-148.0-0.0","56268858","wem/bandit_party_2","A2XU1TSQD45EB4","either","4","1042","","","","","","","1","0","0","0.7837395221","","0.4","0.8","0.2","0.6","","","","","0.1011451677","0.7155595947","0.7837395221","0.8133516847","","","","","","","","","","75","K","2","","","107","main_expt",""
"","bandit","187","603788","0.0-149.0-0.0","56268858","wem/bandit_party_2","A2XU1TSQD45EB4","either","4","282","","","","","","","0","1","0","","0.787971135","0.4","0.8","0.2","0.6","0.1500242655","0.7654707556","0.787971135","0.8009432675","","","","","","","","","","","","","","75","K","2","","","108","main_expt",""
"","bandit","188","605596","0.0-150.0-0.0","56268858","wem/bandit_party_2","A2XU1TSQD45EB4","either","4","277","","","","","","","0","1","0","","0.6866525704","0.4","0.8","0.2","0.6","0.1285750889","0.6288612937","0.6866525704","0.7379370491","","","","","","","","","","","","","","75","K","2","","","109","main_expt",""
"","bandit","189","607580","0.0-151.0-0.0","56268858","wem/bandit_party_2","A2XU1TSQD45EB4","either","4","457","","","","","","","0","0","1","","0.5824748378","0.4","0.8","0.2","0.6","0.06279291231","0.6309058105","0.5824748378","0.7379992527","","","","","","","","","","","","","","75","K","2","","","110","main_expt",""
"","bandit","190","609378","0.0-152.0-0.0","56268858","wem/bandit_party_2","A2XU1TSQD45EB4","either","4","253","","","","","","","0","1","0","","0.659702805","0.4","0.8","0.2","0.6","0.07144278273","0.6218965746","0.659702805","0.7464430213","","","","","","","","","","","","","","75","K","2","","","111","main_expt",""
"","bandit","191","611313","0.0-153.0-0.0","56268858","wem/bandit_party_2","A2XU1TSQD45EB4","either","4","411","","","","","","","0","0","1","","0.5111205641","0.4","0.8","0.2","0.6","0.06013221683","0.6741482942","0.5111205641","0.7736339118","","","","","","","","","","","","","","75","K","2","","","112","main_expt",""
"","bandit","192","613075","0.0-154.0-0.0","56268858","wem/bandit_party_2","A2XU1TSQD45EB4","either","4","238","","","","","","","1","0","0","0.4852392648","","0.4","0.8","0.2","0.6","","","","","0.1442356489","0.7405202534","0.4852392648","0.8480767854","","","","","","","","","","75","K","2","","","113","main_expt",""
"","bandit","193","615182","0.0-155.0-0.0","56268858","wem/bandit_party_2","A2XU1TSQD45EB4","either","4","599","","","","","","","1","0","0","0.3531287621","","0.4","0.8","0.2","0.6","","","","","0.1733870882","0.743157628","0.3531287621","0.8016933152","","","","","","","","","","75","K","2","","","114","main_expt",""
"","bandit","194","617147","0.0-156.0-0.0","56268858","wem/bandit_party_2","A2XU1TSQD45EB4","either","4","448","","","","","","","0","1","0","","0.4090792957","0.4","0.8","0.2","0.6","0.2198725907","0.7732583829","0.4090792957","0.8200260584","","","","","","","","","","","","","","75","K","2","","","115","main_expt",""
"","bandit","195","619049","0.0-157.0-0.0","56268858","wem/bandit_party_2","A2XU1TSQD45EB4","either","4","372","","","","","","","0","1","0","","0.4927933112","0.4","0.8","0.2","0.6","0.2116870815","0.6224016225","0.4927933112","0.7761954976","","","","","","","","","","","","","","75","K","2","","","116","main_expt",""
"","bandit","196","620933","0.0-158.0-0.0","56268858","wem/bandit_party_2","A2XU1TSQD45EB4","either","4","364","","","","","","","0","0","1","","0.4255499736","0.4","0.8","0.2","0.6","0.1293815938","0.6784399158","0.4255499736","0.7722233998","","","","","","","","","","","","","","75","K","2","","","117","main_expt",""
"","bandit","197","622784","0.0-159.0-0.0","56268858","wem/bandit_party_2","A2XU1TSQD45EB4","either","4","341","","","","","","","0","0","1","0.4073726931","","0.4","0.8","0.2","0.6","","","","","0.1442073762","0.7499631032","0.4073726931","0.8049831996","","","","","","","","","","75","K","2","","","118","main_expt",""
"","bandit","198","624875","0.0-160.0-0.0","56268858","wem/bandit_party_2","A2XU1TSQD45EB4","either","4","561","","","","","","","0","0","1","0.2098334931","","0.4","0.8","0.2","0.6","","","","","0.2098334931","0.6258432538","0.5447318884","0.8469405197","","","","","","","","","","72","H","0","img/none_selected.jpg","","119","main_expt",""
"","bandit","199","626413","0.0-161.0-0.0","56268858","wem/bandit_party_2","A2XU1TSQD45EB4","either","4","28","","","","","","","1","0","0","0.5602994123","","0.4","0.8","0.2","0.6","","","","","0.243218138","0.5602994123","0.5336717705","0.783925966","","","","","","","","","","74","J","1","","","120","main_expt",""
"","bandit","200","628224","0.0-162.0-0.0","56268858","wem/bandit_party_2","A2XU1TSQD45EB4","either","4","214","","","","","","","1","0","0","0.5850644561","","0.4","0.8","0.2","0.6","","","","","0.1595445902","0.5850644561","0.5621279662","0.8031476983","","","","","","","","","","74","J","1","","","121","main_expt",""
"","bandit","201","630030","0.0-163.0-0.0","56268858","wem/bandit_party_2","A2XU1TSQD45EB4","either","4","286","","","","","","","0","0","1","0.6205732407","","0.4","0.8","0.2","0.6","","","","","0.1939767007","0.6205732407","0.5664238538","0.776878313","","","","","","","","","","74","J","1","","","122","main_expt",""
"","bandit","202","631783","0.0-164.0-0.0","56268858","wem/bandit_party_2","A2XU1TSQD45EB4","either","4","230","","","","","","","0","1","0","","0.7954206102","0.4","0.8","0.2","0.6","0.2265728871","0.7954206102","0.6501842916","0.7695343448","","","","","","","","","","","","","","74","J","1","","","123","main_expt",""
"","bandit","203","633909","0.0-165.0-0.0","56268858","wem/bandit_party_2","A2XU1TSQD45EB4","either","4","601","","","","","","","1","0","0","0.881213352","","0.4","0.8","0.2","0.6","","","","","0.2027469411","0.881213352","0.5413703051","0.6154230174","","","","","","","","","","74","J","1","","","124","main_expt",""
"","bandit","204","636228","0.0-166.0-0.0","56268858","wem/bandit_party_2","A2XU1TSQD45EB4","either","4","776","","","","","","","0","1","0","","0.8598562332","0.4","0.8","0.2","0.6","0.1506135949","0.8598562332","0.5191338098","0.4710930195","","","","","","","","","","","","","","74","J","1","","","125","main_expt",""
"","bandit","205","637785","0.0-167.0-0.0","56268858","wem/bandit_party_2","A2XU1TSQD45EB4","either","4","39","","","","","","","1","0","0","0.867144728","","0.4","0.8","0.2","0.6","","","","","0.1875851228","0.867144728","0.6232591378","0.5258886302","","","","","","","","","","74","J","1","","","126","main_expt",""
"","bandit","206","640919","0.0-168.0-0.0","56268858","wem/bandit_party_2","A2XU1TSQD45EB4","either","4","1609","","","","","","","0","1","0","","0.8677917819","0.4","0.8","0.2","0.6","0.2106184636","0.8677917819","0.601333273","0.3996486754","","","","","","","","","","","","","","74","J","1","","","127","main_expt",""
"","bandit","207","642946","0.0-169.0-0.0","56268858","wem/bandit_party_2","A2XU1TSQD45EB4","either","4","512","","","","","","","1","0","0","0.8194058857","","0.4","0.8","0.2","0.6","","","","","0.1276240755","0.8194058857","0.6312294041","0.3557241191","","","","","","","","","","74","J","1","","","128","main_expt",""
"","bandit","208","644821","0.0-170.0-0.0","56268858","wem/bandit_party_2","A2XU1TSQD45EB4","either","4","358","","","","","","","1","0","0","0.813940224","","0.4","0.8","0.2","0.6","","","","","0.2163335705","0.813940224","0.6655034733","0.2432070908","","","","","","","","","","74","J","1","","","129","main_expt",""
"","bandit","209","647153","0.0-171.0-0.0","56268858","wem/bandit_party_2","A2XU1TSQD45EB4","either","4","805","","","","","","","0","0","1","0.7296764962","","0.4","0.8","0.2","0.6","","","","","0.2448863899","0.7296764962","0.6882303755","0.1722843937","","","","","","","","","","74","J","1","","","130","main_expt",""
"","bandit","210","649349","0.0-172.0-0.0","56268858","wem/bandit_party_2","A2XU1TSQD45EB4","either","4","669","","","","","","","1","0","0","0.614258276","","0.4","0.8","0.2","0.6","","","","","0.3447645787","0.614258276","0.6772884453","0.1336027919","","","","","","","","","","74","J","1","","","131","main_expt",""
"","bandit","211","651958","0.0-173.0-0.0","56268858","wem/bandit_party_2","A2XU1TSQD45EB4","either","4","1083","","","","","","","0","0","1","0.5349540706","","0.4","0.8","0.2","0.6","","","","","0.3622527956","0.5349540706","0.6773684555","0.1351629047","","","","","","","","","","74","J","1","","","132","main_expt",""
"","bandit","212","653909","0.0-174.0-0.0","56268858","wem/bandit_party_2","A2XU1TSQD45EB4","either","4","430","","","","","","","1","0","0","0.5449090787","","0.4","0.8","0.2","0.6","","","","","0.2961885878","0.5449090787","0.7437755928","0.2495029","","","","","","","","","","74","J","1","","","133","main_expt",""
"","bandit","213","656445","0.0-175.0-0.0","56268858","wem/bandit_party_2","A2XU1TSQD45EB4","either","4","1024","","","","","","","0","0","1","0.5037108559","","0.4","0.8","0.2","0.6","","","","","0.2932126781","0.5037108559","0.7423545867","0.2118512663","","","","","","","","","","74","J","1","","","134","main_expt",""
"","bandit","214","657960","0.0-176.0-0.0","56268858","wem/bandit_party_2","A2XU1TSQD45EB4","either","4","4","","","","","","","0","1","0","","0.2836439675","0.4","0.8","0.2","0.6","0.2836439675","0.5131336393","0.7462440124","0.2474577379","","","","","","","","","","","","","","72","H","0","img/none_selected.jpg","","135","main_expt",""
"","bandit","215","660623","0.0-177.0-0.0","56268858","wem/bandit_party_2","A2XU1TSQD45EB4","either","4","1139","","","","","","","0","0","1","0.1496333288","","0.4","0.8","0.2","0.6","","","","","0.1985775905","0.5847952324","0.6372772774","0.1496333288","","","","","","","","","","76","L","3","","","136","main_expt",""
"","bandit","216","663029","0.0-178.0-0.0","56268858","wem/bandit_party_2","A2XU1TSQD45EB4","either","4","898","","","","","","","0","0","1","","0.6587707878","0.4","0.8","0.2","0.6","0.2655975","0.5191620222","0.6587707878","0.164835495","","","","","","","","","","","","","","75","K","2","","","137","main_expt",""
"","bandit","217","664863","0.0-179.0-0.0","56268858","wem/bandit_party_2","A2XU1TSQD45EB4","either","4","303","","","","","","","0","0","1","","0.4066298912","0.4","0.8","0.2","0.6","0.4066298912","0.3830682141","0.6545472314","0.1629561883","","","","","","","","","","","","","","72","H","0","img/none_selected.jpg","","138","main_expt",""
"","bandit","218","666642","0.0-180.0-0.0","56268858","wem/bandit_party_2","A2XU1TSQD45EB4","either","4","260","","","","","","","0","0","1","0.3036015776","","0.4","0.8","0.2","0.6","","","","","0.4537429859","0.3036015776","0.5773899651","0.1162724323","","","","","","","","","","74","J","1","","","139","main_expt",""
"","bandit","219","668358","0.0-181.0-0.0","56268858","wem/bandit_party_2","A2XU1TSQD45EB4","either","4","184","","","","","","","0","0","1","","0.5786924042","0.4","0.8","0.2","0.6","0.410026376","0.2541790234","0.5786924042","0.1262651596","","","","","","","","","","","","","","75","K","2","","","140","main_expt",""
"","bandit","220","670100","0.0-182.0-0.0","56268858","wem/bandit_party_2","A2XU1TSQD45EB4","either","4","220","","","","","","","0","0","1","0.1258799353","","0.4","0.8","0.2","0.6","","","","","0.3978668086","0.1899663758","0.4589731036","0.1258799353","","","","","","","","","","76","L","3","","","141","main_expt",""
"","bandit","221","671782","0.0-183.0-0.0","56268858","wem/bandit_party_2","A2XU1TSQD45EB4","either","4","159","","","","","","","0","0","1","","0.4096738096","0.4","0.8","0.2","0.6","0.4096738096","0.214868544","0.3667804619","0.1220135665","","","","","","","","","","","","","","72","H","0","img/none_selected.jpg","","142","main_expt",""
"","bandit","222","673518","0.0-184.0-0.0","56268858","wem/bandit_party_2","A2XU1TSQD45EB4","either","4","60","","","","","","","0","0","1","0.1549416237","","0.4","0.8","0.2","0.6","","","","","0.5422751762","0.1549416237","0.3563831379","0.1600355681","","","","","","","","","","74","J","1","","","143","main_expt",""
"","bandit","223","675553","0.0-185.0-0.0","56268858","wem/bandit_party_2","A2XU1TSQD45EB4","either","4","514","","","","","","","0","0","1","","0.3675361202","0.4","0.8","0.2","0.6","0.6045197677","0.2142728447","0.3675361202","0.103653669","","","","","","","","","","","","","","75","K","2","","","144","main_expt",""
"","bandit","224","677305","0.0-186.0-0.0","56268858","wem/bandit_party_2","A2XU1TSQD45EB4","either","4","233","","","","","","","0","0","1","0.1417267119","","0.4","0.8","0.2","0.6","","","","","0.6140727406","0.2166472609","0.3266856562","0.1417267119","","","","","","","","","","76","L","3","","","145","main_expt",""
"","bandit","225","679105","0.0-187.0-0.0","56268858","wem/bandit_party_2","A2XU1TSQD45EB4","either","4","278","","","","","","","0","1","0","","0.5553742365","0.4","0.8","0.2","0.6","0.5553742365","0.2446047688","0.2815179259","0.1508894681","","","","","","","","","","","","","","72","H","0","img/none_selected.jpg","","146","main_expt",""
"","bandit","226","682789","0.0-188.0-0.0","56268858","wem/bandit_party_2","A2XU1TSQD45EB4","either","4","2170","","","","","","","0","0","1","0.52787167","","0.4","0.8","0.2","0.6","","","","","0.52787167","0.3011136322","0.3560244833","0.1207147728","","","","","","","","","","72","H","0","img/none_selected.jpg","","147","main_expt",""
"","bandit","227","684642","0.0-189.0-0.0","56268858","wem/bandit_party_2","A2XU1TSQD45EB4","either","4","331","","","","","","","1","0","0","0.5053851794","","0.4","0.8","0.2","0.6","","","","","0.5053851794","0.2519777133","0.3585854149","0.1362234148","","","","","","","","","","72","H","0","img/none_selected.jpg","","148","main_expt",""
"","bandit","228","686633","0.0-190.0-0.0","56268858","wem/bandit_party_2","A2XU1TSQD45EB4","either","4","470","","","","","","","0","1","0","","0.5431256022","0.4","0.8","0.2","0.6","0.5431256022","0.2996109941","0.284478414","0.1244444975","","","","","","","","","","","","","","72","H","0","img/none_selected.jpg","","149","main_expt",""
"","bandit","229","688610","0.0-191.0-0.0","56268858","wem/bandit_party_2","A2XU1TSQD45EB4","either","4","447","","","","","","","0","0","1","0.422574086","","0.4","0.8","0.2","0.6","","","","","0.422574086","0.2963563975","0.2617238314","0.1109305632","","","","","","","","","","72","H","0","img/none_selected.jpg","","150","main_expt",""
"","bandit","230","690779","0.0-192.0-0.0","56268858","wem/bandit_party_2","A2XU1TSQD45EB4","either","4","647","","","","","","","1","0","0","0.3907227364","","0.4","0.8","0.2","0.6","","","","","0.3907227364","0.4327396174","0.2709462114","0.11412436","","","","","","","","","","72","H","0","img/none_selected.jpg","","151","main_expt",""
"","bandit","231","694784","0.0-193.0-0.0","56268858","wem/bandit_party_2","A2XU1TSQD45EB4","either","4","2474","","","","","","","0","1","0","","0.5580814469","0.4","0.8","0.2","0.6","0.5580814469","0.4303068123","0.2993716907","0.1469045903","","","","","","","","","","","","","","72","H","0","img/none_selected.jpg","","152","main_expt",""
"","bandit","232","698496","0.0-194.0-0.0","56268858","wem/bandit_party_2","A2XU1TSQD45EB4","either","4","2186","","","","","","","0","1","0","","0.51223936","0.4","0.8","0.2","0.6","0.51223936","0.455197397","0.2733354782","0.1633028487","","","","","","","","","","","","","","72","H","0","img/none_selected.jpg","","153","main_expt",""
"","bandit","233","704775","0.0-195.0-0.0","56268858","wem/bandit_party_2","A2XU1TSQD45EB4","either","4","4744","","","","","","","0","0","1","0.4811601507","","0.4","0.8","0.2","0.6","","","","","0.4811601507","0.6184454144","0.3264007987","0.1340882311","","","","","","","","","","72","H","0","img/none_selected.jpg","","154","main_expt",""
"","bandit","234","708930","0.0-196.0-0.0","56268858","wem/bandit_party_2","A2XU1TSQD45EB4","either","4","2627","","","","","","","0","0","1","","0.575425417","0.4","0.8","0.2","0.6","0.575425417","0.5833601464","0.204433578","0.1041462846","","","","","","","","","","","","","","72","H","0","img/none_selected.jpg","","155","main_expt",""
"","bandit","235","710808","0.0-197.0-0.0","56268858","wem/bandit_party_2","A2XU1TSQD45EB4","either","4","353","","","","","","","0","0","1","","0.6109018817","0.4","0.8","0.2","0.6","0.6109018817","0.646897734","0.07451572188","0.08564190031","","","","","","","","","","","","","","72","H","0","img/none_selected.jpg","","156","main_expt",""
"","bandit","236","713245","0.0-198.0-0.0","56268858","wem/bandit_party_2","A2XU1TSQD45EB4","either","4","915","","","","","","","0","1","0","","0.6912470103","0.4","0.8","0.2","0.6","0.6812883852","0.6912470103","0.1251686374","0.06977116317","","","","","","","","","","","","","","74","J","1","","","157","main_expt",""
"","bandit","237","715417","0.0-199.0-0.0","56268858","wem/bandit_party_2","A2XU1TSQD45EB4","either","4","643","","","","","","","0","1","0","","0.1292052795","0.4","0.8","0.2","0.6","0.73777041","0.7865398282","0.1292052795","0.1504927074","","","","","","","","","","","","","","75","K","2","","","158","main_expt",""
"","bandit","238","717277","0.0-200.0-0.0","56268858","wem/bandit_party_2","A2XU1TSQD45EB4","either","4","330","","","","","","","0","1","0","","0.1200050714","0.4","0.8","0.2","0.6","0.8388849062","0.7220910122","0.1200050714","0.1429264201","","","","","","","","","","","","","","75","K","2","","","159","main_expt",""
"","bandit","239","719169","0.0-201.0-0.0","56268858","wem/bandit_party_2","A2XU1TSQD45EB4","either","4","362","","","","","","","0","0","1","","0.1156014834","0.4","0.8","0.2","0.6","0.8006667519","0.710563805","0.1156014834","0.1832893837","","","","","","","","","","","","","","75","K","2","","","160","main_expt",""
"","bandit","240","721254","0.0-202.0-0.0","56268858","wem/bandit_party_2","A2XU1TSQD45EB4","either","4","556","","","","","","","0","0","1","0.1425751263","","0.4","0.8","0.2","0.6","","","","","0.7406956812","0.6205281072","0.1425751263","0.2337310763","","","","","","","","","","75","K","2","","","161","main_expt",""
"","bandit","241","723072","0.0-203.0-0.0","56268858","wem/bandit_party_2","A2XU1TSQD45EB4","either","4","286","","","","","","","0","0","1","0.2326198937","","0.4","0.8","0.2","0.6","","","","","0.775259894","0.5246840185","0.2108345254","0.2326198937","","","","","","","","","","76","L","3","","","162","main_expt",""
"","bandit","242","724884","0.0-204.0-0.0","56268858","wem/bandit_party_2","A2XU1TSQD45EB4","either","4","284","","","","","","","1","0","0","0.569340372","","0.4","0.8","0.2","0.6","","","","","0.6539471222","0.569340372","0.1664621688","0.1584290897","","","","","","","","","","74","J","1","","","163","main_expt",""
"","bandit","243","726827","0.0-205.0-0.0","56268858","wem/bandit_party_2","A2XU1TSQD45EB4","either","4","424","","","","","","","1","0","0","0.5688323765","","0.4","0.8","0.2","0.6","","","","","0.7914062868","0.5688323765","0.1741279052","0.1417900361","","","","","","","","","","74","J","1","","","164","main_expt",""
"","bandit","244","728852","0.0-206.0-0.0","56268858","wem/bandit_party_2","A2XU1TSQD45EB4","either","4","499","","","","","","","0","0","1","","0.5195648955","0.4","0.8","0.2","0.6","0.8415061218","0.5195648955","0.1891196979","0.08849486786","","","","","","","","","","","","","","74","J","1","","","165","main_expt",""
"","bandit","245","731492","0.0-207.0-0.0","56268858","wem/bandit_party_2","A2XU1TSQD45EB4","either","4","1122","","","","","","","0","0","1","0.536500984","","0.4","0.8","0.2","0.6","","","","","0.9084068317","0.536500984","0.3016440744","0.1010416226","","","","","","","","","","74","J","1","","","166","main_expt",""
"","bandit","246","733649","0.0-208.0-0.0","56268858","wem/bandit_party_2","A2XU1TSQD45EB4","either","4","643","","","","","","","1","0","0","0.4243381616","","0.4","0.8","0.2","0.6","","","","","0.8857506799","0.4243381616","0.3427468607","0.1506776516","","","","","","","","","","74","J","1","","","167","main_expt",""
"","bandit","247","735515","0.0-209.0-0.0","56268858","wem/bandit_party_2","A2XU1TSQD45EB4","either","4","345","","","","","","","0","0","1","0.4877327119","","0.4","0.8","0.2","0.6","","","","","0.9247721234","0.4877327119","0.3759001064","0.2532220847","","","","","","","","","","74","J","1","","","168","main_expt",""
"","bandit","248","738225","0.0-210.0-0.0","56268858","wem/bandit_party_2","A2XU1TSQD45EB4","either","4","1162","","","","","","","0","0","1","0.5096331713","","0.4","0.8","0.2","0.6","","","","","0.8870410368","0.5096331713","0.3824832387","0.2223654062","","","","","","","","","","74","J","1","","","169","main_expt",""
"","bandit","249","740219","0.0-211.0-0.0","56268858","wem/bandit_party_2","A2XU1TSQD45EB4","either","4","464","","","","","","","0","0","1","0.6111595203","","0.4","0.8","0.2","0.6","","","","","0.8782412079","0.6111595203","0.3257043992","0.2161840498","","","","","","","","","","74","J","1","","","170","main_expt",""
"","bandit","250","741850","0.0-212.0-0.0","56268858","wem/bandit_party_2","A2XU1TSQD45EB4","either","4","106","","","","","","","0","1","0","","0.7978982074","0.4","0.8","0.2","0.6","0.7978982074","0.5888321224","0.2943589708","0.1996440145","","","","","","","","","","","","","","72","H","0","img/none_selected.jpg","","171","main_expt",""
"","bandit","251","743897","0.0-213.0-0.0","56268858","wem/bandit_party_2","A2XU1TSQD45EB4","either","4","508","","","","","","","0","1","0","","0.7896885826","0.4","0.8","0.2","0.6","0.7896885826","0.6295404033","0.4298537702","0.275753823","","","","","","","","","","","","","","72","H","0","img/none_selected.jpg","","172","main_expt",""
"","bandit","252","747570","0.0-214.0-0.0","56268858","wem/bandit_party_2","A2XU1TSQD45EB4","either","4","2143","","","","","","","1","0","0","0.7771385218","","0.4","0.8","0.2","0.6","","","","","0.7771385218","0.5976712981","0.4196262671","0.2850946521","","","","","","","","","","72","H","0","img/none_selected.jpg","","173","main_expt",""
"","bandit","253","749807","0.0-215.0-0.0","56268858","wem/bandit_party_2","A2XU1TSQD45EB4","either","4","711","","","","","","","1","0","0","0.8412209493","","0.4","0.8","0.2","0.6","","","","","0.8412209493","0.5936331925","0.4056978145","0.2836726952","","","","","","","","","","72","H","0","img/none_selected.jpg","","174","main_expt",""
"","bandit","254","754138","0.0-216.0-0.0","56268858","wem/bandit_party_2","A2XU1TSQD45EB4","either","4","2798","","","","","","","0","1","0","","0.8433491626","0.4","0.8","0.2","0.6","0.8433491626","0.544145328","0.3323311207","0.27413619","","","","","","","","","","","","","","72","H","0","img/none_selected.jpg","","175","main_expt",""
"","bandit","255","756139","0.0-217.0-0.0","56268858","wem/bandit_party_2","A2XU1TSQD45EB4","either","4","478","","","","","","","0","0","1","0.778586436","","0.4","0.8","0.2","0.6","","","","","0.778586436","0.3584947592","0.3087900888","0.2369491767","","","","","","","","","","72","H","0","img/none_selected.jpg","","176","main_expt",""
"","bandit","256","758541","0.0-218.0-0.0","56268858","wem/bandit_party_2","A2XU1TSQD45EB4","either","4","885","","","","","","","1","0","0","0.7488794252","","0.4","0.8","0.2","0.6","","","","","0.7488794252","0.436171931","0.3898613412","0.3440943848","","","","","","","","","","72","H","0","img/none_selected.jpg","","177","main_expt",""
"","bandit","257","761067","0.0-219.0-0.0","56268858","wem/bandit_party_2","A2XU1TSQD45EB4","either","4","994","","","","","","","0","0","1","","0.7738581751","0.4","0.8","0.2","0.6","0.7738581751","0.5193680035","0.5236321052","0.3529135521","","","","","","","","","","","","","","72","H","0","img/none_selected.jpg","","178","main_expt",""
"","bandit","258","763789","0.0-220.0-0.0","56268858","wem/bandit_party_2","A2XU1TSQD45EB4","either","4","1193","","","","","","","0","0","1","0.7527820287","","0.4","0.8","0.2","0.6","","","","","0.7527820287","0.3957798075","0.2955080601","0.3787243664","","","","","","","","","","72","H","0","img/none_selected.jpg","","179","main_expt",""
"","bandit","259","767186","0.0-221.0-0.0","56268858","wem/bandit_party_2","A2XU1TSQD45EB4","either","4","1865","","","","","","","0","1","0","","0.8022950929","0.4","0.8","0.2","0.6","0.8022950929","0.4249873197","0.3174151272","0.3092677326","","","","","","","","","","","","","","72","H","0","img/none_selected.jpg","","180","main_expt",""
"","bandit","260","769416","0.0-222.0-0.0","56268858","wem/bandit_party_2","A2XU1TSQD45EB4","either","4","707","","","","","","","0","0","1","0.7505347306","","0.4","0.8","0.2","0.6","","","","","0.7505347306","0.4260342439","0.3560995969","0.3701559146","","","","","","","","","","72","H","0","img/none_selected.jpg","","181","main_expt",""
"","bandit","261","771773","0.0-223.0-0.0","56268858","wem/bandit_party_2","A2XU1TSQD45EB4","either","4","836","","","","","","","0","0","1","0.603349844","","0.4","0.8","0.2","0.6","","","","","0.603349844","0.4305619521","0.4649908644","0.2672844749","","","","","","","","","","72","H","0","img/none_selected.jpg","","182","main_expt",""
"","bandit","262","774095","0.0-224.0-0.0","56268858","wem/bandit_party_2","A2XU1TSQD45EB4","either","4","783","","","","","","","0","0","1","0.4638513582","","0.4","0.8","0.2","0.6","","","","","0.6464544124","0.4638513582","0.4588174784","0.3046315644","","","","","","","","","","74","J","1","","","183","main_expt",""
"","bandit","263","775931","0.0-225.0-0.0","56268858","wem/bandit_party_2","A2XU1TSQD45EB4","either","4","307","","","","","","","0","0","1","","0.509799977","0.4","0.8","0.2","0.6","0.6606024443","0.5084330557","0.509799977","0.3507685813","","","","","","","","","","","","","","75","K","2","","","184","main_expt",""
"","bandit","264","777873","0.0-226.0-0.0","56268858","wem/bandit_party_2","A2XU1TSQD45EB4","either","4","404","","","","","","","0","0","1","","0.3250269766","0.4","0.8","0.2","0.6","0.7034535028","0.5853778332","0.4557178443","0.3250269766","","","","","","","","","","","","","","76","L","3","","","185","main_expt",""
"","bandit","265","779943","0.0-227.0-0.0","56268858","wem/bandit_party_2","A2XU1TSQD45EB4","either","4","552","","","","","","","1","0","0","0.7672503758","","0.4","0.8","0.2","0.6","","","","","0.7672503758","0.5009207633","0.3250172706","0.3636669497","","","","","","","","","","72","H","0","img/none_selected.jpg","","186","main_expt",""
"","bandit","266","782057","0.0-228.0-0.0","56268858","wem/bandit_party_2","A2XU1TSQD45EB4","either","4","579","","","","","","","0","0","1","0.4376492532","","0.4","0.8","0.2","0.6","","","","","0.7505037824","0.4376492532","0.2982192525","0.4095027401","","","","","","","","","","74","J","1","","","187","main_expt",""
"","bandit","267","783843","0.0-229.0-0.0","56268858","wem/bandit_party_2","A2XU1TSQD45EB4","either","4","262","","","","","","","0","0","1","","0.2647713636","0.4","0.8","0.2","0.6","0.7458261356","0.317868257","0.2647713636","0.3356624093","","","","","","","","","","","","","","75","K","2","","","188","main_expt",""
"","bandit","268","785694","0.0-230.0-0.0","56268858","wem/bandit_party_2","A2XU1TSQD45EB4","either","4","324","","","","","","","1","0","0","0.3717951419","","0.4","0.8","0.2","0.6","","","","","0.747965221","0.3700786551","0.2798663258","0.3717951419","","","","","","","","","","76","L","3","","","189","main_expt",""
"","bandit","269","787537","0.0-231.0-0.0","56268858","wem/bandit_party_2","A2XU1TSQD45EB4","either","4","322","","","","","","","1","0","0","0.3266606931","","0.4","0.8","0.2","0.6","","","","","0.7459095382","0.3423477616","0.2146362806","0.3266606931","","","","","","","","","","76","L","3","","","190","main_expt",""
"","bandit","270","789623","0.0-232.0-0.0","56268858","wem/bandit_party_2","A2XU1TSQD45EB4","either","4","567","","","","","","","0","1","0","","0.4206899072","0.4","0.8","0.2","0.6","0.6299055833","0.2488230813","0.3132783624","0.4206899072","","","","","","","","","","","","","","76","L","3","","","191","main_expt",""
"","bandit","271","792410","0.0-233.0-0.0","56268858","wem/bandit_party_2","A2XU1TSQD45EB4","either","4","1264","","","","","","","1","0","0","0.4982817076","","0.4","0.8","0.2","0.6","","","","","0.688533977","0.2193108308","0.2488083766","0.4982817076","","","","","","","","","","76","L","3","","","192","main_expt",""
"","bandit","272","794526","0.0-234.0-0.0","56268858","wem/bandit_party_2","A2XU1TSQD45EB4","either","4","605","","","","","","","0","0","1","0.4820211017","","0.4","0.8","0.2","0.6","","","","","0.7176496952","0.4057276106","0.225611763","0.4820211017","","","","","","","","","","76","L","3","","","193","main_expt",""
"","bandit","273","796443","0.0-235.0-0.0","56268858","wem/bandit_party_2","A2XU1TSQD45EB4","either","4","395","","","","","","","0","0","1","0.5373891537","","0.4","0.8","0.2","0.6","","","","","0.746212457","0.3826056333","0.2159393038","0.5373891537","","","","","","","","","","76","L","3","","","194","main_expt",""
"","bandit","274","798352","0.0-236.0-0.0","56268858","wem/bandit_party_2","A2XU1TSQD45EB4","either","4","387","","","","","","","0","1","0","","0.3890275207","0.4","0.8","0.2","0.6","0.6800784202","0.4922935908","0.3112228701","0.3890275207","","","","","","","","","","","","","","76","L","3","","","195","main_expt",""
"","bandit","275","801886","0.0-237.0-0.0","56268858","wem/bandit_party_2","A2XU1TSQD45EB4","either","4","1995","","","","","","","1","0","0","0.4329462643","","0.4","0.8","0.2","0.6","","","","","0.5986295964","0.5475793877","0.3249051539","0.4329462643","","","","","","","","","","76","L","3","","","196","main_expt",""
"","bandit","276","804777","0.0-238.0-0.0","56268858","wem/bandit_party_2","A2XU1TSQD45EB4","either","4","1351","","","","","","","1","0","0","0.416825946","","0.4","0.8","0.2","0.6","","","","","0.5323622673","0.6069385875","0.2985018541","0.416825946","","","","","","","","","","76","L","3","","","197","main_expt",""
"","bandit","277","808929","0.0-239.0-0.0","56268858","wem/bandit_party_2","A2XU1TSQD45EB4","either","4","2638","","","","","","","0","0","1","0.4063336836","","0.4","0.8","0.2","0.6","","","","","0.5348043844","0.4946816555","0.3109366799","0.4063336836","","","","","","","","","","76","L","3","","","198","main_expt",""
"","bandit","278","811129","0.0-240.0-0.0","56268858","wem/bandit_party_2","A2XU1TSQD45EB4","either","4","667","","","","","","","1","0","0","0.361264989","","0.4","0.8","0.2","0.6","","","","","0.4534403339","0.479635203","0.3143364341","0.361264989","","","","","","","","","","76","L","3","","","199","main_expt",""
"","bandit","279","814529","0.0-241.0-0.0","56268858","wem/bandit_party_2","A2XU1TSQD45EB4","either","4","1877","","","","","","","0","0","1","","0.4700223374","0.4","0.8","0.2","0.6","0.4185876589","0.4969837249","0.3176919365","0.4700223374","","","","","","","","","","","","","","76","L","3","","","200","main_expt",""
"","bandit","280","821602","0.0-242.0-0.0","56268858","wem/bandit_party_2","A2XU1TSQD45EB4","either","4","5548","","","","","","","0","0","1","","0.4751543938","0.4","0.8","0.2","0.6","0.3812211227","0.4548125401","0.2848283651","0.4751543938","","","","","","","","","","","","","","76","L","3","","","201","main_expt",""
"","bandit","281","823437","0.0-243.0-0.0","56268858","wem/bandit_party_2","A2XU1TSQD45EB4","either","4","304","","","","","","","0","0","1","0.4414728031","","0.4","0.8","0.2","0.6","","","","","0.4414728031","0.5767771981","0.2439676923","0.4044794657","","","","","","","","","","72","H","0","img/none_selected.jpg","","202","main_expt",""
"","bandit","282","825223","0.0-244.0-0.0","56268858","wem/bandit_party_2","A2XU1TSQD45EB4","either","4","261","","","","","","","1","0","0","0.6118171827","","0.4","0.8","0.2","0.6","","","","","0.3698030662","0.6118171827","0.2582922662","0.3321077444","","","","","","","","","","74","J","1","","","203","main_expt",""
"","bandit","283","827139","0.0-245.0-0.0","56268858","wem/bandit_party_2","A2XU1TSQD45EB4","either","4","384","","","","","","","1","0","0","0.5373194108","","0.4","0.8","0.2","0.6","","","","","0.4899087748","0.5373194108","0.3799793739","0.3697340749","","","","","","","","","","74","J","1","","","204","main_expt",""
"","bandit","284","828969","0.0-246.0-0.0","56268858","wem/bandit_party_2","A2XU1TSQD45EB4","either","4","312","","","","","","","1","0","0","0.5501461309","","0.4","0.8","0.2","0.6","","","","","0.4310108402","0.5501461309","0.4441528059","0.3998168993","","","","","","","","","","74","J","1","","","205","main_expt",""
"","bandit","285","830859","0.0-247.0-0.0","56268858","wem/bandit_party_2","A2XU1TSQD45EB4","either","4","370","","","","","","","1","0","0","0.5094027242","","0.4","0.8","0.2","0.6","","","","","0.3912115078","0.5094027242","0.4468516792","0.4929909192","","","","","","","","","","74","J","1","","","206","main_expt",""
"","bandit","286","832923","0.0-248.0-0.0","56268858","wem/bandit_party_2","A2XU1TSQD45EB4","either","4","540","","","","","","","1","0","0","0.6449696869","","0.4","0.8","0.2","0.6","","","","","0.3195818707","0.6449696869","0.399366085","0.4960693894","","","","","","","","","","74","J","1","","","207","main_expt",""
"","bandit","287","834920","0.0-249.0-0.0","56268858","wem/bandit_party_2","A2XU1TSQD45EB4","either","4","469","","","","","","","1","0","0","0.549996868","","0.4","0.8","0.2","0.6","","","","","0.2378171997","0.549996868","0.4206610772","0.3912862986","","","","","","","","","","74","J","1","","","208","main_expt",""
"","bandit","288","836919","0.0-250.0-0.0","56268858","wem/bandit_party_2","A2XU1TSQD45EB4","either","4","475","","","","","","","0","0","1","0.5258833792","","0.4","0.8","0.2","0.6","","","","","0.2339104391","0.5258833792","0.5145499259","0.4218938049","","","","","","","","","","74","J","1","","","209","main_expt",""
"","bandit","289","839881","0.0-251.0-0.0","56268858","wem/bandit_party_2","A2XU1TSQD45EB4","either","4","1427","","","","","","","0","1","0","","0.5453980868","0.4","0.8","0.2","0.6","0.2506558306","0.5453980868","0.3497539355","0.6003160005","","","","","","","","","","","","","","74","J","1","","","210","main_expt",""
"","bandit","290","841815","0.0-252.0-0.0","56268858","wem/bandit_party_2","A2XU1TSQD45EB4","either","4","400","","","","","","","0","1","0","","0.5370950561","0.4","0.8","0.2","0.6","0.3466578502","0.5370950561","0.3335821388","0.5481562991","","","","","","","","","","","","","","74","J","1","","","211","main_expt",""
"","bandit","291","843658","0.0-253.0-0.0","56268858","wem/bandit_party_2","A2XU1TSQD45EB4","either","4","328","","","","","","","0","0","1","0.5774996514","","0.4","0.8","0.2","0.6","","","","","0.4162959965","0.5774996514","0.2778022227","0.6210595125","","","","","","","","","","74","J","1","","","212","main_expt",""
"","bandit","292","845670","0.0-254.0-0.0","56268858","wem/bandit_party_2","A2XU1TSQD45EB4","either","4","409","","","","","","","0","0","1","0.4826056363","","0.4","0.8","0.2","0.6","","","","","0.545788555","0.4826056363","0.2949104287","0.7732161257","","","","","","","","","","74","J","1","","","213","main_expt",""
"","bandit","293","848771","0.0-255.0-0.0","56268858","wem/bandit_party_2","A2XU1TSQD45EB4","either","4","1567","","","","","","","0","0","1","0.4913277851","","0.4","0.8","0.2","0.6","","","","","0.6077749924","0.4913277851","0.2443343027","0.7689771773","","","","","","","","","","74","J","1","","","214","main_expt",""
"","bandit","294","850625","0.0-256.0-0.0","56268858","wem/bandit_party_2","A2XU1TSQD45EB4","either","4","325","","","","","","","0","0","1","0.5415006571","","0.4","0.8","0.2","0.6","","","","","0.4883429648","0.5415006571","0.2232989174","0.6841712945","","","","","","","","","","74","J","1","","","215","main_expt",""
"","bandit","295","852740","0.0-257.0-0.0","56268858","wem/bandit_party_2","A2XU1TSQD45EB4","either","4","588","","","","","","","0","0","1","0.5198015267","","0.4","0.8","0.2","0.6","","","","","0.3309854328","0.5198015267","0.2918619336","0.7019934296","","","","","","","","","","74","J","1","","","216","main_expt",""
"","bandit","296","856028","0.0-258.0-0.0","56268858","wem/bandit_party_2","A2XU1TSQD45EB4","either","4","1759","","","","","","","0","0","1","","0.3310528633","0.4","0.8","0.2","0.6","0.3310528633","0.545097872","0.3571058798","0.7537099884","","","","","","","","","","","","","","72","H","0","img/none_selected.jpg","","217","main_expt",""
"","bandit","297","857585","0.0-259.0-0.0","56268858","wem/bandit_party_2","A2XU1TSQD45EB4","either","4","37","","","","","","","0","1","0","","0.3738303097","0.4","0.8","0.2","0.6","0.4147218791","0.5776025334","0.3738303097","0.8428980993","","","","","","","","","","","","","","75","K","2","","","218","main_expt",""
"","bandit","298","859510","0.0-260.0-0.0","56268858","wem/bandit_party_2","A2XU1TSQD45EB4","either","4","406","","","","","","","0","0","1","","0.4832874948","0.4","0.8","0.2","0.6","0.3402104323","0.5616346574","0.4832874948","0.8007326434","","","","","","","","","","","","","","75","K","2","","","219","main_expt",""
"","bandit","299","861178","0.0-261.0-0.0","56268858","wem/bandit_party_2","A2XU1TSQD45EB4","either","4","156","","","","","","","0","1","0","","0.475455537","0.4","0.8","0.2","0.6","0.3448871422","0.6261942659","0.475455537","0.8518850648","","","","","","","","","","","","","","75","K","2","","","220","main_expt",""
"","bandit","300","864135","0.0-262.0-0.0","56268858","wem/bandit_party_2","A2XU1TSQD45EB4","either","4","1408","","","","","","","0","0","1","","0.3849790123","0.4","0.8","0.2","0.6","0.4438284365","0.6533416475","0.3849790123","0.8488451861","","","","","","","","","","","","","","75","K","2","","","221","main_expt",""
"","bandit","301","865968","0.0-263.0-0.0","56268858","wem/bandit_party_2","A2XU1TSQD45EB4","either","4","311","","","","","","","1","0","0","0.8202185963","","0.4","0.8","0.2","0.6","","","","","0.3768672835","0.6780524799","0.2708628555","0.8202185963","","","","","","","","","","76","L","3","","","222","main_expt",""
"","bandit","302","868557","0.0-264.0-0.0","56268858","wem/bandit_party_2","A2XU1TSQD45EB4","either","4","1070","","","","","","","1","0","0","0.839196386","","0.4","0.8","0.2","0.6","","","","","0.4599748191","0.638470603","0.3886191555","0.839196386","","","","","","","","","","76","L","3","","","223","main_expt",""
"","bandit","303","870632","0.0-265.0-0.0","56268858","wem/bandit_party_2","A2XU1TSQD45EB4","either","4","556","","","","","","","1","0","0","0.8340435664","","0.4","0.8","0.2","0.6","","","","","0.5868274652","0.560582988","0.3352763987","0.8340435664","","","","","","","","","","76","L","3","","","224","main_expt",""
"","bandit","304","873211","0.0-266.0-0.0","56268858","wem/bandit_party_2","A2XU1TSQD45EB4","either","4","962","","","","","","","1","0","0","0.8229669419","","0.4","0.8","0.2","0.6","","","","","0.510759767","0.5004803289","0.3948846532","0.8229669419","","","","","","","","","","76","L","3","","","225","main_expt",""
"","bandit","305","875216","0.0-267.0-0.0","56268858","wem/bandit_party_2","A2XU1TSQD45EB4","either","4","466","","","","","","","1","0","0","0.8326575293","","0.4","0.8","0.2","0.6","","","","","0.6026028704","0.5109709899","0.385279681","0.8326575293","","","","","","","","","","76","L","3","","","226","main_expt",""
"","bandit","306","877282","0.0-268.0-0.0","56268858","wem/bandit_party_2","A2XU1TSQD45EB4","either","4","555","","","","","","","0","0","1","0.8904476858","","0.4","0.8","0.2","0.6","","","","","0.588132951","0.4271661703","0.3296530349","0.8904476858","","","","","","","","","","76","L","3","","","227","main_expt",""
"","bandit","307","879073","0.0-269.0-0.0","56268858","wem/bandit_party_2","A2XU1TSQD45EB4","either","4","254","","","","","","","0","1","0","","0.8877596604","0.4","0.8","0.2","0.6","0.5754590721","0.374673526","0.4227788413","0.8877596604","","","","","","","","","","","","","","76","L","3","","","228","main_expt",""
"","bandit","308","881100","0.0-270.0-0.0","56268858","wem/bandit_party_2","A2XU1TSQD45EB4","either","4","497","","","","","","","0","1","0","","0.8647697669","0.4","0.8","0.2","0.6","0.6311951266","0.393435759","0.4470353227","0.8647697669","","","","","","","","","","","","","","76","L","3","","","229","main_expt",""
"","bandit","309","885042","0.0-271.0-0.0","56268858","wem/bandit_party_2","A2XU1TSQD45EB4","either","4","2411","","","","","","","0","0","1","0.8704214291","","0.4","0.8","0.2","0.6","","","","","0.6164228117","0.3299431778","0.2986819632","0.8704214291","","","","","","","","","","76","L","3","","","230","main_expt",""
"","bandit","310","886852","0.0-272.0-0.0","56268858","wem/bandit_party_2","A2XU1TSQD45EB4","either","4","285","","","","","","","0","0","1","0.8598686354","","0.4","0.8","0.2","0.6","","","","","0.5943568022","0.3477061432","0.4508866759","0.8598686354","","","","","","","","","","76","L","3","","","231","main_expt",""
"","bandit","311","888651","0.0-273.0-0.0","56268858","wem/bandit_party_2","A2XU1TSQD45EB4","either","4","262","","","","","","","0","0","1","","0.6032910051","0.4","0.8","0.2","0.6","0.6032910051","0.3430234075","0.5125968159","0.7939027672","","","","","","","","","","","","","","72","H","0","img/none_selected.jpg","","232","main_expt",""
"","bandit","312","890266","0.0-274.0-0.0","56268858","wem/bandit_party_2","A2XU1TSQD45EB4","either","4","69","","","","","","","0","0","1","0.2812772396","","0.4","0.8","0.2","0.6","","","","","0.7225660168","0.2812772396","0.6020802482","0.7930400566","","","","","","","","","","74","J","1","","","233","main_expt",""
"","bandit","313","892012","0.0-275.0-0.0","56268858","wem/bandit_party_2","A2XU1TSQD45EB4","either","4","213","","","","","","","0","1","0","","0.5927943616","0.4","0.8","0.2","0.6","0.6718439238","0.2049555934","0.5927943616","0.7549101179","","","","","","","","","","","","","","75","K","2","","","234","main_expt",""
"","bandit","314","893878","0.0-276.0-0.0","56268858","wem/bandit_party_2","A2XU1TSQD45EB4","either","4","339","","","","","","","0","0","1","","0.5814417759","0.4","0.8","0.2","0.6","0.6025803433","0.144612338","0.5814417759","0.7654291135","","","","","","","","","","","","","","75","K","2","","","235","main_expt",""
