"consent","trial_type","trial_index","time_elapsed","internal_node_id","subjID","study","MID","cond","drift","rt","responses","button_pressed","key_press","like","value","connected","gems","bombs","no_reward","GemPrChosen","BombPrChosen","GainOverPainPr_0","GainOverPainPr_1","GainOverPainPr_2","GainOverPainPr_3","LosePr_0","LosePr_1","LosePr_2","LosePr_3","WinPr_0","WinPr_1","WinPr_2","WinPr_3","Q0","Q1","Q2","gender","age","ethnicity","label","expt_phase","target","respCharCode","respKey","respChoiceNum","respChoice","practice","trial_counter","trial_label","Q0_index","view_history"
"GDM/GDM_behavioral_consent_30min_online.html","consent","0","25352","0.0-0.0","56962933","wem/bandit_party_2","A2SY2N44N1RWVA","either","2","","","","","","","","","","","","","","","","","","","","","","","","","","","","","","","","","","","","","","","","","",""
"","survey-text","1","30577","0.0-1.0","56962933","wem/bandit_party_2","A2SY2N44N1RWVA","either","2","4109","{""Q0"":""A2SY2N44N1RWVA""}","","","","","","","","","","","","","","","","","","","","","","","","","","","","","","","","","","","","","","","",""
"","button-response","2","34260","0.0-2.0","56962933","wem/bandit_party_2","A2SY2N44N1RWVA","either","2","2649","","1","","","","","","","","","","","","","","","","","","","","","","","","","","","","","","","","","","","","","","",""
"","text-replacement","3","84694","0.0-3.0","56962933","wem/bandit_party_2","A2SY2N44N1RWVA","either","2","49421","","","32","","","","","","","","","","","","","","","","","","","","","","","","","","","","","","","","","","","","","",""
"","text-replacement","4","101969","0.0-4.0","56962933","wem/bandit_party_2","A2SY2N44N1RWVA","either","2","17268","","","32","","","","","","","","","","","","","","","","","","","","","","","","","","","","","","","","","","","","","",""
"","identification","5","113343","0.0-6.0-0.0","56962933","wem/bandit_party_2","A2SY2N44N1RWVA","either","2","11255","","","","5","3","5","","","","","","","","","","","","","","","","","","","","","","","","pre","identification_pre","the Democratic Party","","","","","","","","",""
"","identification","6","120410","0.0-6.0-1.0","56962933","wem/bandit_party_2","A2SY2N44N1RWVA","either","2","6000","","","","3","3","1","","","","","","","","","","","","","","","","","","","","","","","","pre","identification_pre","the Republican Party","","","","","","","","",""
"","text-replacement","7","136353","0.0-7.0","56962933","wem/bandit_party_2","A2SY2N44N1RWVA","either","2","14935","","","32","","","","","","","","","","","","","","","","","","","","","","","","","","","","","","","","","","","","","",""
"","text-replacement","8","144573","0.0-8.0","56962933","wem/bandit_party_2","A2SY2N44N1RWVA","either","2","8214","","","32","","","","","","","","","","","","","","","","","","","","","","","","","","","","","","","","","","","","","",""
"","text-replacement","9","157744","0.0-9.0","56962933","wem/bandit_party_2","A2SY2N44N1RWVA","either","2","13162","","","32","","","","","","","","","","","","","","","","","","","","","","","","","","","","","","","","","","","","","",""
"","text-replacement","10","162428","0.0-10.0","56962933","wem/bandit_party_2","A2SY2N44N1RWVA","either","2","4678","","","32","","","","","","","","","","","","","","","","","","","","","","","","","","","","","","","","","","","","","",""
"","text-replacement","11","170499","0.0-11.0","56962933","wem/bandit_party_2","A2SY2N44N1RWVA","either","2","8065","","","32","","","","","","","","","","","","","","","","","","","","","","","","","","","","","","","","","","","","","",""
"","bandit","12","174217","0.0-12.0-0.0","56962933","wem/bandit_party_2","A2SY2N44N1RWVA","either","2","2186","","","","","","","0","0","1","0","0","","","","","0","","","","0","","","","","","","","","","","","","74","J","0","img/none_selected_demo.jpg","true","0","","",""
"","bandit","13","177110","0.0-13.0-0.0","56962933","wem/bandit_party_2","A2SY2N44N1RWVA","either","2","1357","","","","","","","0","0","1","0","0","","","","","0","","","","0","","","","","","","","","","","","","75","K","0","img/none_selected_demo.jpg","true","0","","",""
"","text-replacement","14","182601","0.0-14.0","56962933","wem/bandit_party_2","A2SY2N44N1RWVA","either","2","5482","","","32","","","","","","","","","","","","","","","","","","","","","","","","","","","","","","","","","","","","","",""
"","text-replacement","15","187669","0.0-15.0","56962933","wem/bandit_party_2","A2SY2N44N1RWVA","either","2","5059","","","32","","","","","","","","","","","","","","","","","","","","","","","","","","","","","","","","","","","","","",""
"","text-replacement","16","194548","0.0-16.0","56962933","wem/bandit_party_2","A2SY2N44N1RWVA","either","2","6874","","","32","","","","","","","","","","","","","","","","","","","","","","","","","","","","","","","","","","","","","",""
"","text-replacement","17","200273","0.0-17.0","56962933","wem/bandit_party_2","A2SY2N44N1RWVA","either","2","5718","","","32","","","","","","","","","","","","","","","","","","","","","","","","","","","","","","","","","","","","","",""
"","bandit","18","204107","0.0-18.0-0.0","56962933","wem/bandit_party_2","A2SY2N44N1RWVA","either","2","2306","","","","","","","1","0","0","0.8","","0.5","0.5","","","","","","","0.8","0.2","","","","","","","","","","","","74","J","0","img/none_selected_demo.jpg","true","0","80_20_practice","",""
"","bandit","19","207094","0.0-18.0-1.0","56962933","wem/bandit_party_2","A2SY2N44N1RWVA","either","2","1454","","","","","","","1","0","0","0.2","","0.5","0.5","","","","","","","0.8","0.2","","","","","","","","","","","","75","K","1","","true","0","80_20_practice","",""
"","bandit","20","209311","0.0-18.0-2.0","56962933","wem/bandit_party_2","A2SY2N44N1RWVA","either","2","696","","","","","","","0","0","1","0.2","","0.5","0.5","","","","","","","0.8","0.2","","","","","","","","","","","","75","K","1","","true","0","80_20_practice","",""
"","bandit","21","211580","0.0-18.0-3.0","56962933","wem/bandit_party_2","A2SY2N44N1RWVA","either","2","751","","","","","","","0","1","0","","0.8","0.5","0.5","","","0.8","0.2","","","","","","","","","","","","","","","","74","J","0","img/none_selected_demo.jpg","true","0","80_20_practice","",""
"","bandit","22","220623","0.0-18.0-4.0","56962933","wem/bandit_party_2","A2SY2N44N1RWVA","either","2","7519","","","","","","","0","1","0","","0.8","0.5","0.5","","","0.8","0.2","","","","","","","","","","","","","","","","74","J","0","img/none_selected_demo.jpg","true","0","80_20_practice","",""
"","bandit","23","223845","0.0-18.0-5.0","56962933","wem/bandit_party_2","A2SY2N44N1RWVA","either","2","1691","","","","","","","1","0","0","0.2","","0.5","0.5","","","","","","","0.8","0.2","","","","","","","","","","","","75","K","1","","true","0","80_20_practice","",""
"","bandit","24","226173","0.0-18.0-6.0","56962933","wem/bandit_party_2","A2SY2N44N1RWVA","either","2","805","","","","","","","1","0","0","0.8","","0.5","0.5","","","","","","","0.8","0.2","","","","","","","","","","","","74","J","0","img/none_selected_demo.jpg","true","0","80_20_practice","",""
"","bandit","25","228248","0.0-18.0-7.0","56962933","wem/bandit_party_2","A2SY2N44N1RWVA","either","2","554","","","","","","","0","0","1","","0.8","0.5","0.5","","","0.8","0.2","","","","","","","","","","","","","","","","74","J","0","img/none_selected_demo.jpg","true","0","80_20_practice","",""
"","bandit","26","230236","0.0-18.0-8.0","56962933","wem/bandit_party_2","A2SY2N44N1RWVA","either","2","464","","","","","","","0","0","1","","0.2","0.5","0.5","","","0.8","0.2","","","","","","","","","","","","","","","","75","K","1","","true","0","80_20_practice","",""
"","bandit","27","232219","0.0-18.0-9.0","56962933","wem/bandit_party_2","A2SY2N44N1RWVA","either","2","464","","","","","","","0","0","1","0.2","","0.5","0.5","","","","","","","0.8","0.2","","","","","","","","","","","","75","K","1","","true","0","80_20_practice","",""
"","bandit","28","234225","0.0-18.0-10.0","56962933","wem/bandit_party_2","A2SY2N44N1RWVA","either","2","481","","","","","","","1","0","0","0.8","","0.5","0.5","","","","","","","0.8","0.2","","","","","","","","","","","","74","J","0","img/none_selected_demo.jpg","true","0","80_20_practice","",""
"","bandit","29","236006","0.0-18.0-11.0","56962933","wem/bandit_party_2","A2SY2N44N1RWVA","either","2","264","","","","","","","1","0","0","0.8","","0.5","0.5","","","","","","","0.8","0.2","","","","","","","","","","","","74","J","0","img/none_selected_demo.jpg","true","0","80_20_practice","",""
"","bandit","30","237650","0.0-18.0-12.0","56962933","wem/bandit_party_2","A2SY2N44N1RWVA","either","2","125","","","","","","","1","0","0","0.8","","0.5","0.5","","","","","","","0.8","0.2","","","","","","","","","","","","74","J","0","img/none_selected_demo.jpg","true","0","80_20_practice","",""
"","bandit","31","240936","0.0-18.0-13.0","56962933","wem/bandit_party_2","A2SY2N44N1RWVA","either","2","1765","","","","","","","0","1","0","","0.8","0.5","0.5","","","0.8","0.2","","","","","","","","","","","","","","","","74","J","0","img/none_selected_demo.jpg","true","0","80_20_practice","",""
"","bandit","32","242852","0.0-18.0-14.0","56962933","wem/bandit_party_2","A2SY2N44N1RWVA","either","2","395","","","","","","","0","1","0","","0.8","0.5","0.5","","","0.8","0.2","","","","","","","","","","","","","","","","74","J","0","img/none_selected_demo.jpg","true","0","80_20_practice","",""
"","bandit","33","244742","0.0-18.0-15.0","56962933","wem/bandit_party_2","A2SY2N44N1RWVA","either","2","366","","","","","","","0","0","1","0.8","","0.5","0.5","","","","","","","0.8","0.2","","","","","","","","","","","","74","J","0","img/none_selected_demo.jpg","true","0","80_20_practice","",""
"","bandit","34","246980","0.0-18.0-16.0","56962933","wem/bandit_party_2","A2SY2N44N1RWVA","either","2","720","","","","","","","0","0","1","","0.8","0.5","0.5","","","0.8","0.2","","","","","","","","","","","","","","","","74","J","0","img/none_selected_demo.jpg","true","0","80_20_practice","",""
"","bandit","35","248843","0.0-18.0-17.0","56962933","wem/bandit_party_2","A2SY2N44N1RWVA","either","2","338","","","","","","","0","0","1","","0.2","0.5","0.5","","","0.8","0.2","","","","","","","","","","","","","","","","75","K","1","","true","0","80_20_practice","",""
"","bandit","36","250546","0.0-18.0-18.0","56962933","wem/bandit_party_2","A2SY2N44N1RWVA","either","2","184","","","","","","","0","1","0","","0.8","0.5","0.5","","","0.8","0.2","","","","","","","","","","","","","","","","74","J","0","img/none_selected_demo.jpg","true","0","80_20_practice","",""
"","bandit","37","252597","0.0-18.0-19.0","56962933","wem/bandit_party_2","A2SY2N44N1RWVA","either","2","530","","","","","","","0","1","0","","0.8","0.5","0.5","","","0.8","0.2","","","","","","","","","","","","","","","","74","J","0","img/none_selected_demo.jpg","true","0","80_20_practice","",""
"","text-replacement","38","260066","0.0-19.0","56962933","wem/bandit_party_2","A2SY2N44N1RWVA","either","2","7458","","","32","","","","","","","","","","","","","","","","","","","","","","","","","","","","","","","","","","","","","",""
"","bandit","39","264416","0.0-20.0-0.0","56962933","wem/bandit_party_2","A2SY2N44N1RWVA","either","2","2828","","","","","","","1","0","0","1","0","","","","","0","1","","","1","0","","","","","","","","","","","","74","J","0","img/none_selected_demo.jpg","true","0","","",""
"","text-replacement","40","271614","0.0-21.0","56962933","wem/bandit_party_2","A2SY2N44N1RWVA","either","2","7190","","","32","","","","","","","","","","","","","","","","","","","","","","","","","","","","","","","","","","","","","",""
"","text-replacement","41","286041","0.0-22.0","56962933","wem/bandit_party_2","A2SY2N44N1RWVA","either","2","14418","","","32","","","","","","","","","","","","","","","","","","","","","","","","","","","","","","","","","","","","","",""
"","text-replacement","42","288574","0.0-23.0","56962933","wem/bandit_party_2","A2SY2N44N1RWVA","either","2","2526","","","32","","","","","","","","","","","","","","","","","","","","","","","","","","","","","","","","","","","","","",""
"","text-replacement","43","291333","0.0-24.0","56962933","wem/bandit_party_2","A2SY2N44N1RWVA","either","2","2750","","","32","","","","","","","","","","","","","","","","","","","","","","","","","","","","","","","","","","","","","",""
"","text-replacement","44","298762","0.0-25.0","56962933","wem/bandit_party_2","A2SY2N44N1RWVA","either","2","7423","","","32","","","","","","","","","","","","","","","","","","","","","","","","","","","","","","","","","","","","","",""
"","text-replacement","45","303244","0.0-26.0","56962933","wem/bandit_party_2","A2SY2N44N1RWVA","either","2","4475","","","32","","","","","","","","","","","","","","","","","","","","","","","","","","","","","","","","","","","","","",""
"","text-replacement","46","309174","0.0-27.0","56962933","wem/bandit_party_2","A2SY2N44N1RWVA","either","2","5923","","","32","","","","","","","","","","","","","","","","","","","","","","","","","","","","","","","","","","","","","",""
"","text-replacement","47","313108","0.0-28.0","56962933","wem/bandit_party_2","A2SY2N44N1RWVA","either","2","3927","","","32","","","","","","","","","","","","","","","","","","","","","","","","","","","","","","","","","","","","","",""
"","text-replacement","48","319004","0.0-29.0","56962933","wem/bandit_party_2","A2SY2N44N1RWVA","either","2","5888","","","32","","","","","","","","","","","","","","","","","","","","","","","","","","","","","","","","","","","","","",""
"","text-replacement","49","321933","0.0-30.0","56962933","wem/bandit_party_2","A2SY2N44N1RWVA","either","2","2918","","","32","","","","","","","","","","","","","","","","","","","","","","","","","","","","","","","","","","","","","",""
"","text-replacement","50","328319","0.0-31.0","56962933","wem/bandit_party_2","A2SY2N44N1RWVA","either","2","6378","","","32","","","","","","","","","","","","","","","","","","","","","","","","","","","","","","","","","","","","","",""
"","bandit","51","339329","0.0-32.0-0.0","56962933","wem/bandit_party_2","A2SY2N44N1RWVA","either","2","9442","","","","","","","1","0","0","0.8","","0.5","0.5","0.5","0.5","","","","","0.8","0.2","0.6","0.2","","","","","","","","","","72","H","0","img/none_selected.jpg","true","0","full_practice","",""
"","bandit","52","341340","0.0-32.0-1.0","56962933","wem/bandit_party_2","A2SY2N44N1RWVA","either","2","486","","","","","","","0","1","0","","0.8","0.5","0.5","0.5","0.5","0.8","0.2","0.6","0.2","","","","","","","","","","","","","","72","H","0","img/none_selected.jpg","true","0","full_practice","",""
"","bandit","53","343266","0.0-32.0-2.0","56962933","wem/bandit_party_2","A2SY2N44N1RWVA","either","2","405","","","","","","","1","0","0","0.8","","0.5","0.5","0.5","0.5","","","","","0.8","0.2","0.6","0.2","","","","","","","","","","72","H","0","img/none_selected.jpg","true","0","full_practice","",""
"","bandit","54","345101","0.0-32.0-3.0","56962933","wem/bandit_party_2","A2SY2N44N1RWVA","either","2","310","","","","","","","1","0","0","0.8","","0.5","0.5","0.5","0.5","","","","","0.8","0.2","0.6","0.2","","","","","","","","","","72","H","0","img/none_selected.jpg","true","0","full_practice","",""
"","bandit","55","347916","0.0-32.0-4.0","56962933","wem/bandit_party_2","A2SY2N44N1RWVA","either","2","1297","","","","","","","1","0","0","0.8","","0.5","0.5","0.5","0.5","","","","","0.8","0.2","0.6","0.2","","","","","","","","","","72","H","0","img/none_selected.jpg","true","0","full_practice","",""
"","bandit","56","349605","0.0-32.0-5.0","56962933","wem/bandit_party_2","A2SY2N44N1RWVA","either","2","163","","","","","","","0","1","0","","0.8","0.5","0.5","0.5","0.5","0.8","0.2","0.6","0.2","","","","","","","","","","","","","","72","H","0","img/none_selected.jpg","true","0","full_practice","",""
"","bandit","57","351236","0.0-32.0-6.0","56962933","wem/bandit_party_2","A2SY2N44N1RWVA","either","2","105","","","","","","","0","0","1","","0.8","0.5","0.5","0.5","0.5","0.8","0.2","0.6","0.2","","","","","","","","","","","","","","72","H","0","img/none_selected.jpg","true","0","full_practice","",""
"","bandit","58","354423","0.0-32.0-7.0","56962933","wem/bandit_party_2","A2SY2N44N1RWVA","either","2","1667","","","","","","","0","0","1","0.2","","0.5","0.5","0.5","0.5","","","","","0.8","0.2","0.6","0.2","","","","","","","","","","76","L","3","","true","0","full_practice","",""
"","bandit","59","356640","0.0-32.0-8.0","56962933","wem/bandit_party_2","A2SY2N44N1RWVA","either","2","696","","","","","","","0","0","1","","0.2","0.5","0.5","0.5","0.5","0.8","0.2","0.6","0.2","","","","","","","","","","","","","","76","L","3","","true","0","full_practice","",""
"","bandit","60","358669","0.0-32.0-9.0","56962933","wem/bandit_party_2","A2SY2N44N1RWVA","either","2","506","","","","","","","0","0","1","0.6","","0.5","0.5","0.5","0.5","","","","","0.8","0.2","0.6","0.2","","","","","","","","","","75","K","2","","true","0","full_practice","",""
"","bandit","61","360398","0.0-32.0-10.0","56962933","wem/bandit_party_2","A2SY2N44N1RWVA","either","2","184","","","","","","","0","0","1","0.2","","0.5","0.5","0.5","0.5","","","","","0.8","0.2","0.6","0.2","","","","","","","","","","74","J","1","","true","0","full_practice","",""
"","bandit","62","363595","0.0-32.0-11.0","56962933","wem/bandit_party_2","A2SY2N44N1RWVA","either","2","1676","","","","","","","1","0","0","0.8","","0.5","0.5","0.5","0.5","","","","","0.8","0.2","0.6","0.2","","","","","","","","","","72","H","0","img/none_selected.jpg","true","0","full_practice","",""
"","bandit","63","366698","0.0-32.0-12.0","56962933","wem/bandit_party_2","A2SY2N44N1RWVA","either","2","1576","","","","","","","1","0","0","0.8","","0.5","0.5","0.5","0.5","","","","","0.8","0.2","0.6","0.2","","","","","","","","","","72","H","0","img/none_selected.jpg","true","0","full_practice","",""
"","bandit","64","368562","0.0-32.0-13.0","56962933","wem/bandit_party_2","A2SY2N44N1RWVA","either","2","345","","","","","","","0","0","1","0.8","","0.5","0.5","0.5","0.5","","","","","0.8","0.2","0.6","0.2","","","","","","","","","","72","H","0","img/none_selected.jpg","true","0","full_practice","",""
"","bandit","65","370498","0.0-32.0-14.0","56962933","wem/bandit_party_2","A2SY2N44N1RWVA","either","2","393","","","","","","","0","0","1","","0.2","0.5","0.5","0.5","0.5","0.8","0.2","0.6","0.2","","","","","","","","","","","","","","74","J","1","","true","0","full_practice","",""
"","bandit","66","373615","0.0-32.0-15.0","56962933","wem/bandit_party_2","A2SY2N44N1RWVA","either","2","1581","","","","","","","0","1","0","","0.8","0.5","0.5","0.5","0.5","0.8","0.2","0.6","0.2","","","","","","","","","","","","","","72","H","0","img/none_selected.jpg","true","0","full_practice","",""
"","bandit","67","377062","0.0-32.0-16.0","56962933","wem/bandit_party_2","A2SY2N44N1RWVA","either","2","1921","","","","","","","1","0","0","0.8","","0.5","0.5","0.5","0.5","","","","","0.8","0.2","0.6","0.2","","","","","","","","","","72","H","0","img/none_selected.jpg","true","0","full_practice","",""
"","bandit","68","379047","0.0-32.0-17.0","56962933","wem/bandit_party_2","A2SY2N44N1RWVA","either","2","461","","","","","","","0","1","0","","0.8","0.5","0.5","0.5","0.5","0.8","0.2","0.6","0.2","","","","","","","","","","","","","","72","H","0","img/none_selected.jpg","true","0","full_practice","",""
"","bandit","69","383933","0.0-32.0-18.0","56962933","wem/bandit_party_2","A2SY2N44N1RWVA","either","2","3365","","","","","","","0","0","1","","0.8","0.5","0.5","0.5","0.5","0.8","0.2","0.6","0.2","","","","","","","","","","","","","","72","H","0","img/none_selected.jpg","true","0","full_practice","",""
"","bandit","70","385753","0.0-32.0-19.0","56962933","wem/bandit_party_2","A2SY2N44N1RWVA","either","2","295","","","","","","","0","0","1","","0.2","0.5","0.5","0.5","0.5","0.8","0.2","0.6","0.2","","","","","","","","","","","","","","74","J","1","","true","0","full_practice","",""
"","text","71","389733","0.0-33.0","56962933","wem/bandit_party_2","A2SY2N44N1RWVA","either","2","3940","","","32","","","","","","","","","","","","","","","","","","","","","","","","","","","","","","","","","","","","","",""
"","text-replacement","72","430736","0.0-34.0","56962933","wem/bandit_party_2","A2SY2N44N1RWVA","either","2","39993","","","32","","","","","","","","","","","","","","","","","","","","","","","","","","","","","","","","","","","","","",""
"","text-replacement","73","445337","0.0-35.0","56962933","wem/bandit_party_2","A2SY2N44N1RWVA","either","2","14589","","","32","","","","","","","","","","","","","","","","","","","","","","","","","","","","","","","","","","","","","",""
"","text-replacement","74","450255","0.0-36.0","56962933","wem/bandit_party_2","A2SY2N44N1RWVA","either","2","4896","","","32","","","","","","","","","","","","","","","","","","","","","","","","","","","","","","","","","","","","","",""
"","text-replacement","75","455877","0.0-37.0","56962933","wem/bandit_party_2","A2SY2N44N1RWVA","either","2","5612","","","32","","","","","","","","","","","","","","","","","","","","","","","","","","","","","","","","","","","","","",""
"","text-replacement","76","460979","0.0-38.0","56962933","wem/bandit_party_2","A2SY2N44N1RWVA","either","2","5084","","","32","","","","","","","","","","","","","","","","","","","","","","","","","","","","","","","","","","","","","",""
"","survey-multi-choice-replacement","77","472953","0.0-39.0-0.0","56962933","wem/bandit_party_2","A2SY2N44N1RWVA","either","2","11940","","","","","","","","","","","","","","","","","","","","","","","","Money will be added to the pool for <span style='color:blue;'>DEMOCRATS</span>","","","","","","","attn_check","","","","","","","","","0",""
"","survey-multi-choice-replacement","78","487500","0.0-40.0-0.0","56962933","wem/bandit_party_2","A2SY2N44N1RWVA","either","2","13511","","","","","","","","","","","","","","","","","","","","","","","","Money will be subtracted from the pool for <span style='color:red;'>REPUBLICANS</span>","","","","","","","attn_check","","","","","","","","","1",""
"","instructions","79","490453","0.0-40.0-1.0-0.0","56962933","wem/bandit_party_2","A2SY2N44N1RWVA","either","2","1932","","","","","","","","","","","","","","","","","","","","","","","","","","","","","","","","","","","","","","","","","[{""page_index"":0,""viewing_time"":1929}]"
"","survey-multi-choice-replacement","80","549728","0.0-40.1-0.1","56962933","wem/bandit_party_2","A2SY2N44N1RWVA","either","2","58240","","","","","","","","","","","","","","","","","","","","","","","","Money will be subtracted from the pool for <span style='color:red;'>REPUBLICANS</span>","","","","","","","attn_check","","","","","","","","","1",""
"","instructions","81","556438","0.0-40.1-1.1-0.1","56962933","wem/bandit_party_2","A2SY2N44N1RWVA","either","2","5696","","","","","","","","","","","","","","","","","","","","","","","","","","","","","","","","","","","","","","","","","[{""page_index"":0,""viewing_time"":5695}]"
"","survey-multi-choice-replacement","82","577369","0.0-40.2-0.2","56962933","wem/bandit_party_2","A2SY2N44N1RWVA","either","2","19894","","","","","","","","","","","","","","","","","","","","","","","","Money will be added to the pool for <span style='color:blue;'>DEMOCRATS</span>","","","","","","","attn_check","","","","","","","","","0",""
"","instructions","83","580560","0.0-40.2-1.2-0.2","56962933","wem/bandit_party_2","A2SY2N44N1RWVA","either","2","2176","","","","","","","","","","","","","","","","","","","","","","","","","","","","","","","","","","","","","","","","","[{""page_index"":0,""viewing_time"":2174}]"
"","survey-multi-choice-replacement","84","590651","0.0-40.3-0.3","56962933","wem/bandit_party_2","A2SY2N44N1RWVA","either","2","9059","","","","","","","","","","","","","","","","","","","","","","","","Equal amounts of money will be added to the pool for <span style='color:blue;'>DEMOCRATS</span> and subtracted from the pool for <span style='color:red;'>REPUBLICANS</span>","","","","","","","attn_check","","","","","","","","","2",""
"","survey-multi-choice-replacement","85","601644","0.0-41.0-0.0","56962933","wem/bandit_party_2","A2SY2N44N1RWVA","either","2","9917","","","","","","","","","","","","","","","","","","","","","","","","No money will be added to either pool","","","","","","","attn_check","","","","","","","","","3",""
"","bandit","86","606923","0.0-42.0-0.0","56962933","wem/bandit_party_2","A2SY2N44N1RWVA","either","2","2735","","","","","","","1","0","0","0.7092854079","","0.8","0.6","0.4","0.2","","","","","0.7961415707","0.4841938304","0.7092854079","0.9925337928","","","","","","","","","","75","K","2","","","1","main_expt","",""
"","bandit","87","609737","0.0-43.0-0.0","56962933","wem/bandit_party_2","A2SY2N44N1RWVA","either","2","1285","","","","","","","0","1","0","","0.7343230146","0.8","0.6","0.4","0.2","0.7739630809","0.5300888233","0.7343230146","0.9909612399","","","","","","","","","","","","","","75","K","2","","","2","main_expt","",""
"","bandit","88","612379","0.0-44.0-0.0","56962933","wem/bandit_party_2","A2SY2N44N1RWVA","either","2","1109","","","","","","","1","0","0","0.4747636274","","0.8","0.6","0.4","0.2","","","","","0.807852523","0.4747636274","0.7616266478","0.9875934203","","","","","","","","","","74","J","1","","","3","main_expt","",""
"","bandit","89","614414","0.0-45.0-0.0","56962933","wem/bandit_party_2","A2SY2N44N1RWVA","either","2","509","","","","","","","0","0","1","0.4841015375","","0.8","0.6","0.4","0.2","","","","","0.7922386472","0.4841015375","0.7555889459","0.9782241123","","","","","","","","","","74","J","1","","","4","main_expt","",""
"","bandit","90","616481","0.0-46.0-0.0","56962933","wem/bandit_party_2","A2SY2N44N1RWVA","either","2","546","","","","","","","0","0","1","0.865094385","","0.8","0.6","0.4","0.2","","","","","0.865094385","0.5545204825","0.733520678","0.9756627961","","","","","","","","","","72","H","0","img/none_selected.jpg","","5","main_expt","",""
"","bandit","91","618141","0.0-47.0-0.0","56962933","wem/bandit_party_2","A2SY2N44N1RWVA","either","2","126","","","","","","","0","1","0","","0.6705264102","0.8","0.6","0.4","0.2","0.800956518","0.6032406034","0.6705264102","0.967089612","","","","","","","","","","","","","","75","K","2","","","6","main_expt","",""
"","bandit","92","620236","0.0-48.0-0.0","56962933","wem/bandit_party_2","A2SY2N44N1RWVA","either","2","569","","","","","","","0","1","0","","0.6395389268","0.8","0.6","0.4","0.2","0.826484282","0.6629125932","0.6395389268","0.9581374084","","","","","","","","","","","","","","75","K","2","","","7","main_expt","",""
"","bandit","93","622499","0.0-49.0-0.0","56962933","wem/bandit_party_2","A2SY2N44N1RWVA","either","2","722","","","","","","","0","0","1","0.6463283336","","0.8","0.6","0.4","0.2","","","","","0.8721258401","0.6179372523","0.6463283336","0.9470057872","","","","","","","","","","75","K","2","","","8","main_expt","",""
"","bandit","94","624349","0.0-50.0-0.0","56962933","wem/bandit_party_2","A2SY2N44N1RWVA","either","2","327","","","","","","","0","1","0","","0.9776699295","0.8","0.6","0.4","0.2","0.9123847657","0.7126464358","0.5257156782","0.9776699295","","","","","","","","","","","","","","76","L","3","","","9","main_expt","",""
"","bandit","95","626178","0.0-51.0-0.0","56962933","wem/bandit_party_2","A2SY2N44N1RWVA","either","2","301","","","","","","","1","0","0","0.9728878591","","0.8","0.6","0.4","0.2","","","","","0.8996742502","0.7356985298","0.4763364632","0.9728878591","","","","","","","","","","76","L","3","","","10","main_expt","",""
"","bandit","96","628173","0.0-52.0-0.0","56962933","wem/bandit_party_2","A2SY2N44N1RWVA","either","2","464","","","","","","","1","0","0","0.9593139104","","0.8","0.6","0.4","0.2","","","","","0.9131723876","0.768711937","0.4284616273","0.9593139104","","","","","","","","","","76","L","3","","","11","main_expt","",""
"","bandit","97","630417","0.0-53.0-0.0","56962933","wem/bandit_party_2","A2SY2N44N1RWVA","either","2","717","","","","","","","1","0","0","0.9498917819","","0.8","0.6","0.4","0.2","","","","","0.8766857583","0.775032537","0.3846657661","0.9498917819","","","","","","","","","","76","L","3","","","12","main_expt","",""
"","bandit","98","632628","0.0-54.0-0.0","56962933","wem/bandit_party_2","A2SY2N44N1RWVA","either","2","683","","","","","","","1","0","0","0.9541602679","","0.8","0.6","0.4","0.2","","","","","0.8395211377","0.8005481332","0.4534267517","0.9541602679","","","","","","","","","","76","L","3","","","13","main_expt","",""
"","bandit","99","635353","0.0-55.0-0.0","56962933","wem/bandit_party_2","A2SY2N44N1RWVA","either","2","1201","","","","","","","0","1","0","","0.9457654821","0.8","0.6","0.4","0.2","0.8716273459","0.8437703121","0.5781166702","0.9457654821","","","","","","","","","","","","","","76","L","3","","","14","main_expt","",""
"","bandit","100","637783","0.0-56.0-0.0","56962933","wem/bandit_party_2","A2SY2N44N1RWVA","either","2","905","","","","","","","0","1","0","","0.961431504","0.8","0.6","0.4","0.2","0.8884181174","0.7878475566","0.6683268695","0.961431504","","","","","","","","","","","","","","76","L","3","","","15","main_expt","",""
"","bandit","101","639675","0.0-57.0-0.0","56962933","wem/bandit_party_2","A2SY2N44N1RWVA","either","2","348","","","","","","","1","0","0","0.9614480804","","0.8","0.6","0.4","0.2","","","","","0.9144873871","0.7873795395","0.6948649322","0.9614480804","","","","","","","","","","76","L","3","","","16","main_expt","",""
"","bandit","102","641360","0.0-58.0-0.0","56962933","wem/bandit_party_2","A2SY2N44N1RWVA","either","2","160","","","","","","","0","1","0","","0.981184269","0.8","0.6","0.4","0.2","0.915766025","0.8084550093","0.7674725463","0.981184269","","","","","","","","","","","","","","76","L","3","","","17","main_expt","",""
"","bandit","103","643418","0.0-59.0-0.0","56962933","wem/bandit_party_2","A2SY2N44N1RWVA","either","2","536","","","","","","","0","1","0","","0.9861919244","0.8","0.6","0.4","0.2","0.9357816117","0.8436933745","0.7706733977","0.9861919244","","","","","","","","","","","","","","76","L","3","","","18","main_expt","",""
"","bandit","104","645377","0.0-60.0-0.0","56962933","wem/bandit_party_2","A2SY2N44N1RWVA","either","2","436","","","","","","","0","1","0","","0.986789567","0.8","0.6","0.4","0.2","0.9482019282","0.8059530903","0.7396491891","0.986789567","","","","","","","","","","","","","","76","L","3","","","19","main_expt","",""
"","bandit","105","647411","0.0-61.0-0.0","56962933","wem/bandit_party_2","A2SY2N44N1RWVA","either","2","508","","","","","","","0","1","0","","0.986183881","0.8","0.6","0.4","0.2","0.9433726768","0.7839513496","0.6712916173","0.986183881","","","","","","","","","","","","","","76","L","3","","","20","main_expt","",""
"","bandit","106","649264","0.0-62.0-0.0","56962933","wem/bandit_party_2","A2SY2N44N1RWVA","either","2","316","","","","","","","0","1","0","","0.9887099493","0.8","0.6","0.4","0.2","0.9488284628","0.7841815244","0.6728887443","0.9887099493","","","","","","","","","","","","","","76","L","3","","","21","main_expt","",""
"","bandit","107","651125","0.0-63.0-0.0","56962933","wem/bandit_party_2","A2SY2N44N1RWVA","either","2","331","","","","","","","1","0","0","0.992558567","","0.8","0.6","0.4","0.2","","","","","0.9500515088","0.8256278583","0.7838502077","0.992558567","","","","","","","","","","76","L","3","","","22","main_expt","",""
"","bandit","108","652953","0.0-64.0-0.0","56962933","wem/bandit_party_2","A2SY2N44N1RWVA","either","2","294","","","","","","","0","1","0","","0.9906074595","0.8","0.6","0.4","0.2","0.9645760881","0.7043778873","0.8711917965","0.9906074595","","","","","","","","","","","","","","76","L","3","","","23","main_expt","",""
"","bandit","109","654836","0.0-65.0-0.0","56962933","wem/bandit_party_2","A2SY2N44N1RWVA","either","2","357","","","","","","","1","0","0","0.9828703082","","0.8","0.6","0.4","0.2","","","","","0.946785539","0.7662705475","0.861124964","0.9828703082","","","","","","","","","","76","L","3","","","24","main_expt","",""
"","bandit","110","656860","0.0-66.0-0.0","56962933","wem/bandit_party_2","A2SY2N44N1RWVA","either","2","501","","","","","","","0","1","0","","0.984618899","0.8","0.6","0.4","0.2","0.9229473608","0.6915147264","0.8551403996","0.984618899","","","","","","","","","","","","","","76","L","3","","","25","main_expt","",""
"","bandit","111","658702","0.0-67.0-0.0","56962933","wem/bandit_party_2","A2SY2N44N1RWVA","either","2","309","","","","","","","0","1","0","","0.9780938917","0.8","0.6","0.4","0.2","0.8729820127","0.6844606422","0.8959771014","0.9780938917","","","","","","","","","","","","","","76","L","3","","","26","main_expt","",""
"","bandit","112","660558","0.0-68.0-0.0","56962933","wem/bandit_party_2","A2SY2N44N1RWVA","either","2","334","","","","","","","0","1","0","","0.9634866904","0.8","0.6","0.4","0.2","0.859067388","0.7953701942","0.8786292531","0.9634866904","","","","","","","","","","","","","","76","L","3","","","27","main_expt","",""
"","bandit","113","662346","0.0-69.0-0.0","56962933","wem/bandit_party_2","A2SY2N44N1RWVA","either","2","263","","","","","","","0","1","0","","0.946494378","0.8","0.6","0.4","0.2","0.836267867","0.622657036","0.8920593834","0.946494378","","","","","","","","","","","","","","76","L","3","","","28","main_expt","",""
"","bandit","114","664211","0.0-70.0-0.0","56962933","wem/bandit_party_2","A2SY2N44N1RWVA","either","2","341","","","","","","","0","0","1","","0.9338647731","0.8","0.6","0.4","0.2","0.7158546556","0.5757463716","0.8234517222","0.9338647731","","","","","","","","","","","","","","76","L","3","","","29","main_expt","",""
"","bandit","115","666433","0.0-71.0-0.0","56962933","wem/bandit_party_2","A2SY2N44N1RWVA","either","2","692","","","","","","","0","1","0","","0.9354801528","0.8","0.6","0.4","0.2","0.7262950886","0.6048158844","0.7963444676","0.9354801528","","","","","","","","","","","","","","76","L","3","","","30","main_expt","",""
"","bandit","116","668025","0.0-72.0-0.0","56962933","wem/bandit_party_2","A2SY2N44N1RWVA","either","2","62","","","","","","","1","0","0","0.9323861487","","0.8","0.6","0.4","0.2","","","","","0.7049485024","0.4831208743","0.6847131082","0.9323861487","","","","","","","","","","76","L","3","","","31","main_expt","",""
"","bandit","117","669826","0.0-73.0-0.0","56962933","wem/bandit_party_2","A2SY2N44N1RWVA","either","2","271","","","","","","","1","0","0","0.9159531952","","0.8","0.6","0.4","0.2","","","","","0.6294605358","0.4413454117","0.7745616343","0.9159531952","","","","","","","","","","76","L","3","","","32","main_expt","",""
"","bandit","118","671394","0.0-74.0-0.0","56962933","wem/bandit_party_2","A2SY2N44N1RWVA","either","2","36","","","","","","","0","1","0","","0.9501333659","0.8","0.6","0.4","0.2","0.7097184707","0.589686364","0.8111568365","0.9501333659","","","","","","","","","","","","","","76","L","3","","","33","main_expt","",""
"","bandit","119","673208","0.0-75.0-0.0","56962933","wem/bandit_party_2","A2SY2N44N1RWVA","either","2","289","","","","","","","0","1","0","","0.9485118263","0.8","0.6","0.4","0.2","0.6324728327","0.5789977489","0.7291364049","0.9485118263","","","","","","","","","","","","","","76","L","3","","","34","main_expt","",""
"","bandit","120","675297","0.0-76.0-0.0","56962933","wem/bandit_party_2","A2SY2N44N1RWVA","either","2","562","","","","","","","1","0","0","0.959491173","","0.8","0.6","0.4","0.2","","","","","0.6809104991","0.5605822786","0.7920219322","0.959491173","","","","","","","","","","76","L","3","","","35","main_expt","",""
"","bandit","121","682082","0.0-77.0-0.0","56962933","wem/bandit_party_2","A2SY2N44N1RWVA","either","2","5259","","","","","","","1","0","0","0.9523687656","","0.8","0.6","0.4","0.2","","","","","0.5745256001","0.3330948712","0.7889809596","0.9523687656","","","","","","","","","","76","L","3","","","36","main_expt","",""
"","bandit","122","685704","0.0-78.0-0.0","56962933","wem/bandit_party_2","A2SY2N44N1RWVA","either","2","2096","","","","","","","0","1","0","","0.9504344127","0.8","0.6","0.4","0.2","0.6249275122","0.2430176499","0.8060385269","0.9504344127","","","","","","","","","","","","","","76","L","3","","","37","main_expt","",""
"","bandit","123","688268","0.0-79.0-0.0","56962933","wem/bandit_party_2","A2SY2N44N1RWVA","either","2","1030","","","","","","","0","1","0","","0.9321408283","0.8","0.6","0.4","0.2","0.5582777804","0.3106083343","0.7188782676","0.9321408283","","","","","","","","","","","","","","76","L","3","","","38","main_expt","",""
"","bandit","124","691862","0.0-80.0-0.0","56962933","wem/bandit_party_2","A2SY2N44N1RWVA","either","2","2048","","","","","","","0","0","1","","0.9135525369","0.8","0.6","0.4","0.2","0.6619895395","0.3239447463","0.7387945131","0.9135525369","","","","","","","","","","","","","","76","L","3","","","39","main_expt","",""
"","bandit","125","693831","0.0-81.0-0.0","56962933","wem/bandit_party_2","A2SY2N44N1RWVA","either","2","440","","","","","","","0","1","0","","0.8840916364","0.8","0.6","0.4","0.2","0.6522152691","0.2946631509","0.7478035428","0.8840916364","","","","","","","","","","","","","","76","L","3","","","40","main_expt","",""
"","bandit","126","695668","0.0-82.0-0.0","56962933","wem/bandit_party_2","A2SY2N44N1RWVA","either","2","302","","","","","","","0","0","1","","0.8747037504","0.8","0.6","0.4","0.2","0.6714070371","0.193597671","0.7802386085","0.8747037504","","","","","","","","","","","","","","76","L","3","","","41","main_expt","",""
"","bandit","127","697647","0.0-83.0-0.0","56962933","wem/bandit_party_2","A2SY2N44N1RWVA","either","2","448","","","","","","","0","1","0","","0.826315498","0.8","0.6","0.4","0.2","0.6390104416","0.1834529884","0.7994277013","0.826315498","","","","","","","","","","","","","","76","L","3","","","42","main_expt","",""
"","bandit","128","699714","0.0-84.0-0.0","56962933","wem/bandit_party_2","A2SY2N44N1RWVA","either","2","542","","","","","","","0","1","0","","0.7681371561","0.8","0.6","0.4","0.2","0.6318841448","0.1558663495","0.8718069658","0.7681371561","","","","","","","","","","","","","","76","L","3","","","43","main_expt","",""
"","bandit","129","701517","0.0-85.0-0.0","56962933","wem/bandit_party_2","A2SY2N44N1RWVA","either","2","275","","","","","","","0","1","0","","0.7584360225","0.8","0.6","0.4","0.2","0.5708139437","0.1573065196","0.7725207311","0.7584360225","","","","","","","","","","","","","","76","L","3","","","44","main_expt","",""
"","bandit","130","703585","0.0-86.0-0.0","56962933","wem/bandit_party_2","A2SY2N44N1RWVA","either","2","534","","","","","","","0","1","0","","0.816959585","0.8","0.6","0.4","0.2","0.5703812278","0.1743203636","0.8399140445","0.816959585","","","","","","","","","","","","","","76","L","3","","","45","main_expt","",""
"","bandit","131","705193","0.0-87.0-0.0","56962933","wem/bandit_party_2","A2SY2N44N1RWVA","either","2","80","","","","","","","0","1","0","","0.7571269921","0.8","0.6","0.4","0.2","0.4520700595","0.1234040722","0.7830678696","0.7571269921","","","","","","","","","","","","","","76","L","3","","","46","main_expt","",""
"","bandit","132","707907","0.0-88.0-0.0","56962933","wem/bandit_party_2","A2SY2N44N1RWVA","either","2","1187","","","","","","","0","1","0","","0.7086567283","0.8","0.6","0.4","0.2","0.4953600952","0.1592846429","0.8255209912","0.7086567283","","","","","","","","","","","","","","76","L","3","","","47","main_expt","",""
"","bandit","133","711102","0.0-89.0-0.0","56962933","wem/bandit_party_2","A2SY2N44N1RWVA","either","2","1663","","","","","","","0","0","1","","0.6428227569","0.8","0.6","0.4","0.2","0.4912921637","0.1880090658","0.7728754614","0.6428227569","","","","","","","","","","","","","","76","L","3","","","48","main_expt","",""
"","bandit","134","713019","0.0-90.0-0.0","56962933","wem/bandit_party_2","A2SY2N44N1RWVA","either","2","389","","","","","","","0","0","1","","0.7004196772","0.8","0.6","0.4","0.2","0.4694413912","0.3190576765","0.8607162984","0.7004196772","","","","","","","","","","","","","","76","L","3","","","49","main_expt","",""
"","bandit","135","714630","0.0-91.0-0.0","56962933","wem/bandit_party_2","A2SY2N44N1RWVA","either","2","70","","","","","","","0","1","0","","0.8526113732","0.8","0.6","0.4","0.2","0.5835687148","0.277770718","0.8526113732","0.6418514465","","","","","","","","","","","","","","75","K","2","","","50","main_expt","",""
"","bandit","136","717644","0.0-92.0-0.0","56962933","wem/bandit_party_2","A2SY2N44N1RWVA","either","2","1440","","","","","","","1","0","0","0.8630835666","","0.8","0.6","0.4","0.2","","","","","0.581499138","0.3304163056","0.8630835666","0.6322169777","","","","","","","","","","75","K","2","","","51","main_expt","",""
"","bandit","137","719491","0.0-93.0-0.0","56962933","wem/bandit_party_2","A2SY2N44N1RWVA","either","2","317","","","","","","","1","0","0","0.8689990829","","0.8","0.6","0.4","0.2","","","","","0.6521379128","0.3074301744","0.8689990829","0.6160259873","","","","","","","","","","75","K","2","","","52","main_expt","",""
"","bandit","138","721098","0.0-94.0-0.0","56962933","wem/bandit_party_2","A2SY2N44N1RWVA","either","2","72","","","","","","","0","1","0","","0.8829627288","0.8","0.6","0.4","0.2","0.5743957808","0.3292402402","0.8829627288","0.6635838846","","","","","","","","","","","","","","75","K","2","","","53","main_expt","",""
"","bandit","139","722954","0.0-95.0-0.0","56962933","wem/bandit_party_2","A2SY2N44N1RWVA","either","2","324","","","","","","","0","1","0","","0.8577096669","0.8","0.6","0.4","0.2","0.4765250731","0.3701383524","0.8577096669","0.7334380463","","","","","","","","","","","","","","75","K","2","","","54","main_expt","",""
"","bandit","140","724818","0.0-96.0-0.0","56962933","wem/bandit_party_2","A2SY2N44N1RWVA","either","2","336","","","","","","","0","0","1","","0.7951355038","0.8","0.6","0.4","0.2","0.472038817","0.4023440482","0.7951355038","0.6625049704","","","","","","","","","","","","","","75","K","2","","","55","main_expt","",""
"","bandit","141","726691","0.0-97.0-0.0","56962933","wem/bandit_party_2","A2SY2N44N1RWVA","either","2","334","","","","","","","0","1","0","","0.7832403428","0.8","0.6","0.4","0.2","0.6060805283","0.3320470731","0.7832403428","0.6244126183","","","","","","","","","","","","","","75","K","2","","","56","main_expt","",""
"","bandit","142","728571","0.0-98.0-0.0","56962933","wem/bandit_party_2","A2SY2N44N1RWVA","either","2","335","","","","","","","0","1","0","","0.7165346004","0.8","0.6","0.4","0.2","0.5733746242","0.3398704556","0.7165346004","0.693445159","","","","","","","","","","","","","","75","K","2","","","57","main_expt","",""
"","bandit","143","730476","0.0-99.0-0.0","56962933","wem/bandit_party_2","A2SY2N44N1RWVA","either","2","379","","","","","","","1","0","0","0.7840704931","","0.8","0.6","0.4","0.2","","","","","0.5268086549","0.3171476707","0.7840704931","0.6603141298","","","","","","","","","","75","K","2","","","58","main_expt","",""
"","bandit","144","732352","0.0-100.0-0.0","56962933","wem/bandit_party_2","A2SY2N44N1RWVA","either","2","346","","","","","","","1","0","0","0.7166558068","","0.8","0.6","0.4","0.2","","","","","0.5298916697","0.1868584885","0.7166558068","0.6435133917","","","","","","","","","","75","K","2","","","59","main_expt","",""
"","bandit","145","735238","0.0-101.0-0.0","56962933","wem/bandit_party_2","A2SY2N44N1RWVA","either","2","1349","","","","","","","0","1","0","","0.6505055492","0.8","0.6","0.4","0.2","0.5547432704","0.2163153633","0.6505055492","0.6720075741","","","","","","","","","","","","","","75","K","2","","","60","main_expt","",""
"","bandit","146","736831","0.0-102.0-0.0","56962933","wem/bandit_party_2","A2SY2N44N1RWVA","either","2","57","","","","","","","0","0","1","0.6465946667","","0.8","0.6","0.4","0.2","","","","","0.5407031957","0.2086512551","0.6465946667","0.6703611074","","","","","","","","","","75","K","2","","","61","main_expt","",""
"","bandit","147","738450","0.0-103.0-0.0","56962933","wem/bandit_party_2","A2SY2N44N1RWVA","either","2","73","","","","","","","0","1","0","","0.709990362","0.8","0.6","0.4","0.2","0.6993449034","0.2250062338","0.709990362","0.64477312","","","","","","","","","","","","","","75","K","2","","","62","main_expt","",""
"","bandit","148","740278","0.0-104.0-0.0","56962933","wem/bandit_party_2","A2SY2N44N1RWVA","either","2","295","","","","","","","0","0","1","","0.7542168012","0.8","0.6","0.4","0.2","0.6342967703","0.2739380208","0.7542168012","0.509049177","","","","","","","","","","","","","","75","K","2","","","63","main_expt","",""
"","bandit","149","742060","0.0-105.0-0.0","56962933","wem/bandit_party_2","A2SY2N44N1RWVA","either","2","254","","","","","","","0","1","0","","0.7660604158","0.8","0.6","0.4","0.2","0.5961490325","0.3449536465","0.7660604158","0.5535424332","","","","","","","","","","","","","","75","K","2","","","64","main_expt","",""
"","bandit","150","743916","0.0-106.0-0.0","56962933","wem/bandit_party_2","A2SY2N44N1RWVA","either","2","326","","","","","","","1","0","0","0.7572602099","","0.8","0.6","0.4","0.2","","","","","0.5771190674","0.34640195","0.7572602099","0.6608621899","","","","","","","","","","75","K","2","","","65","main_expt","",""
"","bandit","151","745687","0.0-107.0-0.0","56962933","wem/bandit_party_2","A2SY2N44N1RWVA","either","2","242","","","","","","","1","0","0","0.686926195","","0.8","0.6","0.4","0.2","","","","","0.4765921407","0.5266288285","0.686926195","0.6535341977","","","","","","","","","","75","K","2","","","66","main_expt","",""
"","bandit","152","747459","0.0-108.0-0.0","56962933","wem/bandit_party_2","A2SY2N44N1RWVA","either","2","236","","","","","","","0","1","0","","0.7334195653","0.8","0.6","0.4","0.2","0.5714361875","0.5588671697","0.7334195653","0.6592628399","","","","","","","","","","","","","","75","K","2","","","67","main_expt","",""
"","bandit","153","749315","0.0-109.0-0.0","56962933","wem/bandit_party_2","A2SY2N44N1RWVA","either","2","326","","","","","","","0","1","0","","0.6114245881","0.8","0.6","0.4","0.2","0.6231829193","0.6097536784","0.6114245881","0.6735013879","","","","","","","","","","","","","","75","K","2","","","68","main_expt","",""
"","bandit","154","750980","0.0-110.0-0.0","56962933","wem/bandit_party_2","A2SY2N44N1RWVA","either","2","137","","","","","","","1","0","0","0.6460921668","","0.8","0.6","0.4","0.2","","","","","0.5130256365","0.533457584","0.6460921668","0.7209687993","","","","","","","","","","75","K","2","","","69","main_expt","",""
"","bandit","155","752543","0.0-111.0-0.0","56962933","wem/bandit_party_2","A2SY2N44N1RWVA","either","2","28","","","","","","","0","0","1","0.6700702736","","0.8","0.6","0.4","0.2","","","","","0.5167166","0.4124750721","0.6700702736","0.690528825","","","","","","","","","","75","K","2","","","70","main_expt","",""
"","bandit","156","754476","0.0-112.0-0.0","56962933","wem/bandit_party_2","A2SY2N44N1RWVA","either","2","401","","","","","","","0","1","0","","0.6388012411","0.8","0.6","0.4","0.2","0.6448170737","0.4486526525","0.6388012411","0.6453310316","","","","","","","","","","","","","","75","K","2","","","71","main_expt","",""
"","bandit","157","756270","0.0-113.0-0.0","56962933","wem/bandit_party_2","A2SY2N44N1RWVA","either","2","267","","","","","","","0","1","0","","0.6046900378","0.8","0.6","0.4","0.2","0.5640434706","0.4313602212","0.6046900378","0.8140348339","","","","","","","","","","","","","","75","K","2","","","72","main_expt","",""
"","bandit","158","758094","0.0-114.0-0.0","56962933","wem/bandit_party_2","A2SY2N44N1RWVA","either","2","289","","","","","","","0","0","1","","0.6062428704","0.8","0.6","0.4","0.2","0.6296110197","0.3639072561","0.6062428704","0.820931829","","","","","","","","","","","","","","75","K","2","","","73","main_expt","",""
"","bandit","159","759997","0.0-115.0-0.0","56962933","wem/bandit_party_2","A2SY2N44N1RWVA","either","2","364","","","","","","","1","0","0","0.6237194739","","0.8","0.6","0.4","0.2","","","","","0.6730210969","0.2882181569","0.6237194739","0.8096233945","","","","","","","","","","75","K","2","","","74","main_expt","",""
"","bandit","160","762658","0.0-116.0-0.0","56962933","wem/bandit_party_2","A2SY2N44N1RWVA","either","2","1121","","","","","","","0","0","1","0.5971007372","","0.8","0.6","0.4","0.2","","","","","0.5720403827","0.3561187133","0.5971007372","0.7615001707","","","","","","","","","","75","K","2","","","75","main_expt","",""
"","bandit","161","764529","0.0-117.0-0.0","56962933","wem/bandit_party_2","A2SY2N44N1RWVA","either","2","342","","","","","","","0","0","1","","0.5810032438","0.8","0.6","0.4","0.2","0.6303512149","0.4480894403","0.5810032438","0.8147365981","","","","","","","","","","","","","","75","K","2","","","76","main_expt","",""
"","bandit","162","766439","0.0-118.0-0.0","56962933","wem/bandit_party_2","A2SY2N44N1RWVA","either","2","379","","","","","","","0","0","1","0.3220850356","","0.8","0.6","0.4","0.2","","","","","0.5531797874","0.3220850356","0.5792233978","0.8926338818","","","","","","","","","","74","J","1","","","77","main_expt","",""
"","bandit","163","768331","0.0-119.0-0.0","56962933","wem/bandit_party_2","A2SY2N44N1RWVA","either","2","338","","","","","","","0","0","1","0.3281133775","","0.8","0.6","0.4","0.2","","","","","0.5449672882","0.3281133775","0.692511921","0.8669072201","","","","","","","","","","74","J","1","","","78","main_expt","",""
"","bandit","164","770406","0.0-120.0-0.0","56962933","wem/bandit_party_2","A2SY2N44N1RWVA","either","2","539","","","","","","","1","0","0","0.4484013318","","0.8","0.6","0.4","0.2","","","","","0.4484013318","0.3814329202","0.7019625083","0.9114006046","","","","","","","","","","72","H","0","img/none_selected.jpg","","79","main_expt","",""
"","bandit","165","772253","0.0-121.0-0.0","56962933","wem/bandit_party_2","A2SY2N44N1RWVA","either","2","313","","","","","","","1","0","0","0.5041425745","","0.8","0.6","0.4","0.2","","","","","0.5041425745","0.3512572076","0.6785675641","0.9268398106","","","","","","","","","","72","H","0","img/none_selected.jpg","","80","main_expt","",""
"","bandit","166","774053","0.0-122.0-0.0","56962933","wem/bandit_party_2","A2SY2N44N1RWVA","either","2","269","","","","","","","0","0","1","","0.3462078978","0.8","0.6","0.4","0.2","0.3462078978","0.3624285329","0.7101061672","0.9582858862","","","","","","","","","","","","","","72","H","0","img/none_selected.jpg","","81","main_expt","",""
"","bandit","167","775938","0.0-123.0-0.0","56962933","wem/bandit_party_2","A2SY2N44N1RWVA","either","2","346","","","","","","","0","0","1","0.3226795418","","0.8","0.6","0.4","0.2","","","","","0.3226795418","0.3111883408","0.7217376576","0.9590071975","","","","","","","","","","72","H","0","img/none_selected.jpg","","82","main_expt","",""
"","bandit","168","778582","0.0-124.0-0.0","56962933","wem/bandit_party_2","A2SY2N44N1RWVA","either","2","1106","","","","","","","0","0","1","0.243162563","","0.8","0.6","0.4","0.2","","","","","0.3023868023","0.243162563","0.6437777395","0.9379973093","","","","","","","","","","74","J","1","","","83","main_expt","",""
"","bandit","169","780483","0.0-125.0-0.0","56962933","wem/bandit_party_2","A2SY2N44N1RWVA","either","2","373","","","","","","","0","1","0","","0.347146949","0.8","0.6","0.4","0.2","0.4040419094","0.347146949","0.6533183273","0.9411979228","","","","","","","","","","","","","","74","J","1","","","84","main_expt","",""
"","bandit","170","782383","0.0-126.0-0.0","56962933","wem/bandit_party_2","A2SY2N44N1RWVA","either","2","366","","","","","","","0","0","1","","0.4416309426","0.8","0.6","0.4","0.2","0.4716136817","0.4416309426","0.7469548387","0.9441700551","","","","","","","","","","","","","","74","J","1","","","85","main_expt","",""
"","bandit","171","784216","0.0-127.0-0.0","56962933","wem/bandit_party_2","A2SY2N44N1RWVA","either","2","294","","","","","","","1","0","0","0.4523797492","","0.8","0.6","0.4","0.2","","","","","0.4455883603","0.4523797492","0.7366570046","0.9323605113","","","","","","","","","","74","J","1","","","86","main_expt","",""
"","bandit","172","786033","0.0-128.0-0.0","56962933","wem/bandit_party_2","A2SY2N44N1RWVA","either","2","285","","","","","","","0","0","1","","0.4621103264","0.8","0.6","0.4","0.2","0.5952575165","0.4621103264","0.7142428019","0.8871332711","","","","","","","","","","","","","","74","J","1","","","87","main_expt","",""
"","bandit","173","787752","0.0-129.0-0.0","56962933","wem/bandit_party_2","A2SY2N44N1RWVA","either","2","182","","","","","","","0","0","1","0.3800084876","","0.8","0.6","0.4","0.2","","","","","0.5333825583","0.3800084876","0.7057172343","0.8520973281","","","","","","","","","","74","J","1","","","88","main_expt","",""
"","bandit","174","789313","0.0-130.0-0.0","56962933","wem/bandit_party_2","A2SY2N44N1RWVA","either","2","31","","","","","","","0","0","1","0.2354372355","","0.8","0.6","0.4","0.2","","","","","0.4583166828","0.2354372355","0.7289934888","0.7882210871","","","","","","","","","","74","J","1","","","89","main_expt","",""
"","bandit","175","792378","0.0-131.0-0.0","56962933","wem/bandit_party_2","A2SY2N44N1RWVA","either","2","1526","","","","","","","0","1","0","","0.720110267","0.8","0.6","0.4","0.2","0.4782349553","0.2978482647","0.7475354559","0.720110267","","","","","","","","","","","","","","76","L","3","","","90","main_expt","",""
"","bandit","176","794234","0.0-132.0-0.0","56962933","wem/bandit_party_2","A2SY2N44N1RWVA","either","2","324","","","","","","","0","1","0","","0.7390342074","0.8","0.6","0.4","0.2","0.464138054","0.3723871884","0.6316706059","0.7390342074","","","","","","","","","","","","","","76","L","3","","","91","main_expt","",""
"","bandit","177","796073","0.0-133.0-0.0","56962933","wem/bandit_party_2","A2SY2N44N1RWVA","either","2","300","","","","","","","0","1","0","","0.8135224625","0.8","0.6","0.4","0.2","0.5084128334","0.5400298203","0.6957908828","0.8135224625","","","","","","","","","","","","","","76","L","3","","","92","main_expt","",""
"","bandit","178","797640","0.0-134.0-0.0","56962933","wem/bandit_party_2","A2SY2N44N1RWVA","either","2","2","","","","","","","0","1","0","","0.7814404678","0.8","0.6","0.4","0.2","0.5211356389","0.5134744583","0.6812665662","0.7814404678","","","","","","","","","","","","","","76","L","3","","","93","main_expt","",""
"","bandit","179","799495","0.0-135.0-0.0","56962933","wem/bandit_party_2","A2SY2N44N1RWVA","either","2","297","","","","","","","0","1","0","","0.7672416568","0.8","0.6","0.4","0.2","0.4554037602","0.4101580275","0.6412933588","0.7672416568","","","","","","","","","","","","","","76","L","3","","","94","main_expt","",""
"","bandit","180","801830","0.0-136.0-0.0","56962933","wem/bandit_party_2","A2SY2N44N1RWVA","either","2","799","","","","","","","1","0","0","0.7573973965","","0.8","0.6","0.4","0.2","","","","","0.4195046205","0.2995167601","0.5696630174","0.7573973965","","","","","","","","","","76","L","3","","","95","main_expt","",""
"","bandit","181","803598","0.0-137.0-0.0","56962933","wem/bandit_party_2","A2SY2N44N1RWVA","either","2","228","","","","","","","0","1","0","","0.8177369732","0.8","0.6","0.4","0.2","0.3638478563","0.2934894425","0.6076398096","0.8177369732","","","","","","","","","","","","","","76","L","3","","","96","main_expt","",""
"","bandit","182","805651","0.0-138.0-0.0","56962933","wem/bandit_party_2","A2SY2N44N1RWVA","either","2","509","","","","","","","0","1","0","","0.8124666872","0.8","0.6","0.4","0.2","0.2839735208","0.2802715202","0.5551612935","0.8124666872","","","","","","","","","","","","","","76","L","3","","","97","main_expt","",""
"","bandit","183","808201","0.0-139.0-0.0","56962933","wem/bandit_party_2","A2SY2N44N1RWVA","either","2","1012","","","","","","","0","1","0","","0.881496875","0.8","0.6","0.4","0.2","0.2109275999","0.2703087955","0.6354974245","0.881496875","","","","","","","","","","","","","","76","L","3","","","98","main_expt","",""
"","bandit","184","810082","0.0-140.0-0.0","56962933","wem/bandit_party_2","A2SY2N44N1RWVA","either","2","349","","","","","","","1","0","0","0.8785981907","","0.8","0.6","0.4","0.2","","","","","0.1531506719","0.3027543159","0.5945745664","0.8785981907","","","","","","","","","","76","L","3","","","99","main_expt","",""
"","bandit","185","812102","0.0-141.0-0.0","56962933","wem/bandit_party_2","A2SY2N44N1RWVA","either","2","481","","","","","","","0","1","0","","0.8494581726","0.8","0.6","0.4","0.2","0.1262108991","0.3645318829","0.5679097985","0.8494581726","","","","","","","","","","","","","","76","L","3","","","100","main_expt","",""
"","bandit","186","813882","0.0-142.0-0.0","56962933","wem/bandit_party_2","A2SY2N44N1RWVA","either","2","237","","","","","","","1","0","0","0.7754784616","","0.8","0.6","0.4","0.2","","","","","0.1340220502","0.4315832637","0.6430580454","0.7754784616","","","","","","","","","","76","L","3","","","101","main_expt","",""
"","bandit","187","815612","0.0-143.0-0.0","56962933","wem/bandit_party_2","A2SY2N44N1RWVA","either","2","167","","","","","","","0","1","0","","0.7626736499","0.8","0.6","0.4","0.2","0.2167126086","0.3608531129","0.6340200926","0.7626736499","","","","","","","","","","","","","","76","L","3","","","102","main_expt","",""
"","bandit","188","817483","0.0-144.0-0.0","56962933","wem/bandit_party_2","A2SY2N44N1RWVA","either","2","340","","","","","","","0","1","0","","0.7329996306","0.8","0.6","0.4","0.2","0.2796352144","0.3688981903","0.6377668076","0.7329996306","","","","","","","","","","","","","","76","L","3","","","103","main_expt","",""
"","bandit","189","819302","0.0-145.0-0.0","56962933","wem/bandit_party_2","A2SY2N44N1RWVA","either","2","280","","","","","","","1","0","0","0.7467689404","","0.8","0.6","0.4","0.2","","","","","0.3556406549","0.3758155051","0.6578341575","0.7467689404","","","","","","","","","","76","L","3","","","104","main_expt","",""
"","bandit","190","821199","0.0-146.0-0.0","56962933","wem/bandit_party_2","A2SY2N44N1RWVA","either","2","357","","","","","","","0","1","0","","0.737018723","0.8","0.6","0.4","0.2","0.3233911601","0.4508947075","0.6727034752","0.737018723","","","","","","","","","","","","","","76","L","3","","","105","main_expt","",""
"","bandit","191","823154","0.0-147.0-0.0","56962933","wem/bandit_party_2","A2SY2N44N1RWVA","either","2","417","","","","","","","0","1","0","","0.655194185","0.8","0.6","0.4","0.2","0.2024631506","0.4132181144","0.6386482702","0.655194185","","","","","","","","","","","","","","76","L","3","","","106","main_expt","",""
"","bandit","192","825708","0.0-148.0-0.0","56962933","wem/bandit_party_2","A2SY2N44N1RWVA","either","2","1015","","","","","","","0","1","0","","0.7122819559","0.8","0.6","0.4","0.2","0.2290393164","0.4393512677","0.6788938686","0.7122819559","","","","","","","","","","","","","","76","L","3","","","107","main_expt","",""
"","bandit","193","827386","0.0-149.0-0.0","56962933","wem/bandit_party_2","A2SY2N44N1RWVA","either","2","139","","","","","","","0","1","0","","0.7326995505","0.8","0.6","0.4","0.2","0.2217712157","0.4964319729","0.7076498576","0.7326995505","","","","","","","","","","","","","","76","L","3","","","108","main_expt","",""
"","bandit","194","831069","0.0-150.0-0.0","56962933","wem/bandit_party_2","A2SY2N44N1RWVA","either","2","1305","","","","","","","1","0","0","0.7165499475","","0.8","0.6","0.4","0.2","","","","","0.1566860935","0.4790921069","0.6932550908","0.7165499475","","","","","","","","","","76","L","3","","","109","main_expt","",""
"","bandit","195","834581","0.0-151.0-0.0","56962933","wem/bandit_party_2","A2SY2N44N1RWVA","either","2","1975","","","","","","","0","1","0","","0.6058017554","0.8","0.6","0.4","0.2","0.1083987113","0.5856434505","0.7436061547","0.6058017554","","","","","","","","","","","","","","76","L","3","","","110","main_expt","",""
"","bandit","196","836415","0.0-152.0-0.0","56962933","wem/bandit_party_2","A2SY2N44N1RWVA","either","2","304","","","","","","","0","1","0","","0.5476823758","0.8","0.6","0.4","0.2","0.217828795","0.6444230696","0.657194241","0.5476823758","","","","","","","","","","","","","","76","L","3","","","111","main_expt","",""
"","bandit","197","838143","0.0-153.0-0.0","56962933","wem/bandit_party_2","A2SY2N44N1RWVA","either","2","195","","","","","","","0","0","1","","0.5688313193","0.8","0.6","0.4","0.2","0.2212119155","0.603417252","0.6317228327","0.5688313193","","","","","","","","","","","","","","76","L","3","","","112","main_expt","",""
"","bandit","198","840080","0.0-154.0-0.0","56962933","wem/bandit_party_2","A2SY2N44N1RWVA","either","2","399","","","","","","","0","1","0","","0.50852785","0.8","0.6","0.4","0.2","0.2374112476","0.420613871","0.4985892417","0.50852785","","","","","","","","","","","","","","76","L","3","","","113","main_expt","",""
"","bandit","199","841970","0.0-155.0-0.0","56962933","wem/bandit_party_2","A2SY2N44N1RWVA","either","2","350","","","","","","","0","1","0","","0.5711084253","0.8","0.6","0.4","0.2","0.2703699348","0.2851569533","0.579071345","0.5711084253","","","","","","","","","","","","","","76","L","3","","","114","main_expt","",""
"","bandit","200","843788","0.0-156.0-0.0","56962933","wem/bandit_party_2","A2SY2N44N1RWVA","either","2","279","","","","","","","0","0","1","","0.4177754351","0.8","0.6","0.4","0.2","0.1928485376","0.3166589884","0.4595939904","0.4177754351","","","","","","","","","","","","","","76","L","3","","","115","main_expt","",""
"","bandit","201","845728","0.0-157.0-0.0","56962933","wem/bandit_party_2","A2SY2N44N1RWVA","either","2","402","","","","","","","0","1","0","","0.387840809","0.8","0.6","0.4","0.2","0.136356343","0.3928451607","0.3744567546","0.387840809","","","","","","","","","","","","","","76","L","3","","","116","main_expt","",""
"","bandit","202","850148","0.0-158.0-0.0","56962933","wem/bandit_party_2","A2SY2N44N1RWVA","either","2","2882","","","","","","","0","0","1","","0.4456731606","0.8","0.6","0.4","0.2","0.2193113504","0.560845346","0.302145019","0.4456731606","","","","","","","","","","","","","","76","L","3","","","117","main_expt","",""
"","bandit","203","853289","0.0-159.0-0.0","56962933","wem/bandit_party_2","A2SY2N44N1RWVA","either","2","1599","","","","","","","0","0","1","0.3045880574","","0.8","0.6","0.4","0.2","","","","","0.2686792008","0.5536818424","0.3522466686","0.3045880574","","","","","","","","","","76","L","3","","","118","main_expt","",""
"","bandit","204","855788","0.0-160.0-0.0","56962933","wem/bandit_party_2","A2SY2N44N1RWVA","either","2","962","","","","","","","0","0","1","","0.3994134075","0.8","0.6","0.4","0.2","0.2668270476","0.3617659687","0.4425542362","0.3994134075","","","","","","","","","","","","","","76","L","3","","","119","main_expt","",""
"","bandit","205","859295","0.0-161.0-0.0","56962933","wem/bandit_party_2","A2SY2N44N1RWVA","either","2","1968","","","","","","","0","0","1","","0.3377532805","0.8","0.6","0.4","0.2","0.3723992114","0.3454740543","0.3377532805","0.351449483","","","","","","","","","","","","","","75","K","2","","","120","main_expt","",""
"","bandit","206","861172","0.0-162.0-0.0","56962933","wem/bandit_party_2","A2SY2N44N1RWVA","either","2","346","","","","","","","0","0","1","0.2929504356","","0.8","0.6","0.4","0.2","","","","","0.4001238515","0.2798257893","0.2929504356","0.3641911367","","","","","","","","","","75","K","2","","","121","main_expt","",""
"","bandit","207","862843","0.0-163.0-0.0","56962933","wem/bandit_party_2","A2SY2N44N1RWVA","either","2","133","","","","","","","0","0","1","","0.2261540995","0.8","0.6","0.4","0.2","0.4090120715","0.2261540995","0.2504028886","0.2673706252","","","","","","","","","","","","","","74","J","1","","","122","main_expt","",""
"","bandit","208","864387","0.0-164.0-0.0","56962933","wem/bandit_party_2","A2SY2N44N1RWVA","either","2","7","","","","","","","0","0","1","","0.2766663047","0.8","0.6","0.4","0.2","0.4746108064","0.2766663047","0.2414849785","0.3455372181","","","","","","","","","","","","","","74","J","1","","","123","main_expt","",""
"","bandit","209","866339","0.0-165.0-0.0","56962933","wem/bandit_party_2","A2SY2N44N1RWVA","either","2","414","","","","","","","0","0","1","0.453231646","","0.8","0.6","0.4","0.2","","","","","0.453231646","0.3126864395","0.1791255979","0.3524137631","","","","","","","","","","72","H","0","img/none_selected.jpg","","124","main_expt","",""
"","bandit","210","867917","0.0-166.0-0.0","56962933","wem/bandit_party_2","A2SY2N44N1RWVA","either","2","35","","","","","","","0","0","1","0.4888945922","","0.8","0.6","0.4","0.2","","","","","0.4888945922","0.2772507379","0.1952456852","0.3680881866","","","","","","","","","","72","H","0","img/none_selected.jpg","","125","main_expt","",""
"","bandit","211","870416","0.0-167.0-0.0","56962933","wem/bandit_party_2","A2SY2N44N1RWVA","either","2","965","","","","","","","0","1","0","","0.2884444508","0.8","0.6","0.4","0.2","0.396932523","0.2441417391","0.2614303707","0.2884444508","","","","","","","","","","","","","","76","L","3","","","126","main_expt","",""
"","bandit","212","872478","0.0-168.0-0.0","56962933","wem/bandit_party_2","A2SY2N44N1RWVA","either","2","522","","","","","","","0","1","0","","0.2931854252","0.8","0.6","0.4","0.2","0.4026562496","0.2304038214","0.267511235","0.2931854252","","","","","","","","","","","","","","76","L","3","","","127","main_expt","",""
"","bandit","213","874078","0.0-169.0-0.0","56962933","wem/bandit_party_2","A2SY2N44N1RWVA","either","2","62","","","","","","","0","1","0","","0.3115494401","0.8","0.6","0.4","0.2","0.3072143153","0.2463692943","0.2582460394","0.3115494401","","","","","","","","","","","","","","76","L","3","","","128","main_expt","",""
"","bandit","214","876635","0.0-170.0-0.0","56962933","wem/bandit_party_2","A2SY2N44N1RWVA","either","2","1006","","","","","","","0","0","1","","0.287093163","0.8","0.6","0.4","0.2","0.3024431642","0.262841392","0.249100023","0.287093163","","","","","","","","","","","","","","76","L","3","","","129","main_expt","",""
"","bandit","215","880727","0.0-171.0-0.0","56962933","wem/bandit_party_2","A2SY2N44N1RWVA","either","2","2556","","","","","","","0","0","1","","0.242368994","0.8","0.6","0.4","0.2","0.383823705","0.3044503748","0.2014680341","0.242368994","","","","","","","","","","","","","","76","L","3","","","130","main_expt","",""
"","bandit","216","883473","0.0-172.0-0.0","56962933","wem/bandit_party_2","A2SY2N44N1RWVA","either","2","1208","","","","","","","0","0","1","","0.3141093292","0.8","0.6","0.4","0.2","0.5448185218","0.2231782293","0.2514612397","0.3141093292","","","","","","","","","","","","","","76","L","3","","","131","main_expt","",""
"","bandit","217","885503","0.0-173.0-0.0","56962933","wem/bandit_party_2","A2SY2N44N1RWVA","either","2","491","","","","","","","0","0","1","","0.1719215191","0.8","0.6","0.4","0.2","0.5741986762","0.265126842","0.1719215191","0.3186943837","","","","","","","","","","","","","","75","K","2","","","132","main_expt","",""
"","bandit","218","887041","0.0-174.0-0.0","56962933","wem/bandit_party_2","A2SY2N44N1RWVA","either","2","1","","","","","","","0","1","0","","0.3218599317","0.8","0.6","0.4","0.2","0.54298015","0.1996467811","0.151851594","0.3218599317","","","","","","","","","","","","","","76","L","3","","","133","main_expt","",""
"","bandit","219","889810","0.0-175.0-0.0","56962933","wem/bandit_party_2","A2SY2N44N1RWVA","either","2","1230","","","","","","","0","0","1","","0.3372263261","0.8","0.6","0.4","0.2","0.5504084981","0.1900899503","0.1693242304","0.3372263261","","","","","","","","","","","","","","76","L","3","","","134","main_expt","",""
"","bandit","220","891741","0.0-176.0-0.0","56962933","wem/bandit_party_2","A2SY2N44N1RWVA","either","2","392","","","","","","","0","0","1","","0.1541174352","0.8","0.6","0.4","0.2","0.4874659601","0.172295534","0.1541174352","0.3515125386","","","","","","","","","","","","","","75","K","2","","","135","main_expt","",""
"","bandit","221","894361","0.0-177.0-0.0","56962933","wem/bandit_party_2","A2SY2N44N1RWVA","either","2","1062","","","","","","","1","0","0","0.2312583875","","0.8","0.6","0.4","0.2","","","","","0.3677382912","0.1171098277","0.1374012581","0.2312583875","","","","","","","","","","76","L","3","","","136","main_expt","",""
"","bandit","222","896217","0.0-178.0-0.0","56962933","wem/bandit_party_2","A2SY2N44N1RWVA","either","2","314","","","","","","","0","1","0","","0.3496768842","0.8","0.6","0.4","0.2","0.2944012193","0.1390909791","0.2889288236","0.3496768842","","","","","","","","","","","","","","76","L","3","","","137","main_expt","",""
"","bandit","223","898290","0.0-179.0-0.0","56962933","wem/bandit_party_2","A2SY2N44N1RWVA","either","2","539","","","","","","","0","0","1","0.4217982028","","0.8","0.6","0.4","0.2","","","","","0.3020033879","0.1209370274","0.2177367931","0.4217982028","","","","","","","","","","76","L","3","","","138","main_expt","",""
"","bandit","224","900190","0.0-180.0-0.0","56962933","wem/bandit_party_2","A2SY2N44N1RWVA","either","2","363","","","","","","","0","0","1","","0.5123523738","0.8","0.6","0.4","0.2","0.2908104057","0.1441291996","0.1704259453","0.5123523738","","","","","","","","","","","","","","76","L","3","","","139","main_expt","",""
"","bandit","225","902567","0.0-181.0-0.0","56962933","wem/bandit_party_2","A2SY2N44N1RWVA","either","2","839","","","","","","","0","0","1","","0.1827322183","0.8","0.6","0.4","0.2","0.2738290205","0.1380406349","0.1827322183","0.3892042576","","","","","","","","","","","","","","75","K","2","","","140","main_expt","",""
"","bandit","226","904577","0.0-182.0-0.0","56962933","wem/bandit_party_2","A2SY2N44N1RWVA","either","2","467","","","","","","","0","0","1","","0.2030288612","0.8","0.6","0.4","0.2","0.3865798498","0.1312769784","0.2030288612","0.4680147771","","","","","","","","","","","","","","75","K","2","","","141","main_expt","",""
"","bandit","227","906602","0.0-183.0-0.0","56962933","wem/bandit_party_2","A2SY2N44N1RWVA","either","2","485","","","","","","","0","1","0","","0.1760536641","0.8","0.6","0.4","0.2","0.3507917403","0.1880730553","0.1760536641","0.3970866904","","","","","","","","","","","","","","75","K","2","","","142","main_expt","",""
"","bandit","228","908500","0.0-184.0-0.0","56962933","wem/bandit_party_2","A2SY2N44N1RWVA","either","2","355","","","","","","","0","0","1","","0.1428921374","0.8","0.6","0.4","0.2","0.2787839286","0.1798266991","0.1428921374","0.3609481858","","","","","","","","","","","","","","75","K","2","","","143","main_expt","",""
"","bandit","229","910687","0.0-185.0-0.0","56962933","wem/bandit_party_2","A2SY2N44N1RWVA","either","2","647","","","","","","","0","1","0","","0.1260474704","0.8","0.6","0.4","0.2","0.2106619402","0.1881666754","0.1260474704","0.3701270871","","","","","","","","","","","","","","75","K","2","","","144","main_expt","",""
"","bandit","230","912481","0.0-186.0-0.0","56962933","wem/bandit_party_2","A2SY2N44N1RWVA","either","2","255","","","","","","","0","0","1","0.151337539","","0.8","0.6","0.4","0.2","","","","","0.3211677341","0.1683386122","0.151337539","0.3110645609","","","","","","","","","","75","K","2","","","145","main_expt","",""
"","bandit","231","914293","0.0-187.0-0.0","56962933","wem/bandit_party_2","A2SY2N44N1RWVA","either","2","271","","","","","","","0","0","1","","0.1600114734","0.8","0.6","0.4","0.2","0.4417580917","0.2609121533","0.1600114734","0.356964637","","","","","","","","","","","","","","75","K","2","","","146","main_expt","",""
"","bandit","232","915975","0.0-188.0-0.0","56962933","wem/bandit_party_2","A2SY2N44N1RWVA","either","2","142","","","","","","","1","0","0","0.280259565","","0.8","0.6","0.4","0.2","","","","","0.278611551","0.280259565","0.1262446547","0.5143633813","","","","","","","","","","74","J","1","","","147","main_expt","",""
"","bandit","233","917774","0.0-189.0-0.0","56962933","wem/bandit_party_2","A2SY2N44N1RWVA","either","2","255","","","","","","","0","0","1","","0.2972918914","0.8","0.6","0.4","0.2","0.2811332351","0.2972918914","0.1030311585","0.5086187798","","","","","","","","","","","","","","74","J","1","","","148","main_expt","",""
"","bandit","234","920222","0.0-190.0-0.0","56962933","wem/bandit_party_2","A2SY2N44N1RWVA","either","2","904","","","","","","","0","0","1","0.3284309668","","0.8","0.6","0.4","0.2","","","","","0.2606345315","0.3284309668","0.123834606","0.4676315778","","","","","","","","","","74","J","1","","","149","main_expt","",""
"","bandit","235","922679","0.0-191.0-0.0","56962933","wem/bandit_party_2","A2SY2N44N1RWVA","either","2","907","","","","","","","0","0","1","","0.260677327","0.8","0.6","0.4","0.2","0.260677327","0.3186890608","0.06566206942","0.4737351686","","","","","","","","","","","","","","72","H","0","img/none_selected.jpg","","150","main_expt","",""
"","bandit","236","924961","0.0-192.0-0.0","56962933","wem/bandit_party_2","A2SY2N44N1RWVA","either","2","745","","","","","","","0","0","1","0.2579624968","","0.8","0.6","0.4","0.2","","","","","0.2579624968","0.3331747037","0.06342121736","0.5387476985","","","","","","","","","","72","H","0","img/none_selected.jpg","","151","main_expt","",""
"","bandit","237","926728","0.0-193.0-0.0","56962933","wem/bandit_party_2","A2SY2N44N1RWVA","either","2","223","","","","","","","1","0","0","0.2536911072","","0.8","0.6","0.4","0.2","","","","","0.2536911072","0.364096089","0.1162046696","0.5065138565","","","","","","","","","","72","H","0","img/none_selected.jpg","","152","main_expt","",""
"","bandit","238","928754","0.0-194.0-0.0","56962933","wem/bandit_party_2","A2SY2N44N1RWVA","either","2","473","","","","","","","0","1","0","","0.1427943183","0.8","0.6","0.4","0.2","0.1427943183","0.3189440566","0.1388943584","0.5190676077","","","","","","","","","","","","","","72","H","0","img/none_selected.jpg","","153","main_expt","",""
"","bandit","239","930681","0.0-195.0-0.0","56962933","wem/bandit_party_2","A2SY2N44N1RWVA","either","2","387","","","","","","","0","0","1","","0.08934943386","0.8","0.6","0.4","0.2","0.08934943386","0.486858514","0.1188489222","0.4944482457","","","","","","","","","","","","","","72","H","0","img/none_selected.jpg","","154","main_expt","",""
"","bandit","240","933497","0.0-196.0-0.0","56962933","wem/bandit_party_2","A2SY2N44N1RWVA","either","2","1280","","","","","","","0","0","1","","0.1255079792","0.8","0.6","0.4","0.2","0.1048919666","0.398958755","0.1255079792","0.4987902374","","","","","","","","","","","","","","75","K","2","","","155","main_expt","",""
"","bandit","241","936702","0.0-197.0-0.0","56962933","wem/bandit_party_2","A2SY2N44N1RWVA","either","2","1667","","","","","","","0","0","1","","0.4151199053","0.8","0.6","0.4","0.2","0.1348874752","0.3508932217","0.1705129017","0.4151199053","","","","","","","","","","","","","","76","L","3","","","156","main_expt","",""
"","bandit","242","938676","0.0-198.0-0.0","56962933","wem/bandit_party_2","A2SY2N44N1RWVA","either","2","427","","","","","","","0","0","1","","0.1892203872","0.8","0.6","0.4","0.2","0.1197456909","0.3736640956","0.1892203872","0.4215128153","","","","","","","","","","","","","","75","K","2","","","157","main_expt","",""
"","bandit","243","940402","0.0-199.0-0.0","56962933","wem/bandit_party_2","A2SY2N44N1RWVA","either","2","185","","","","","","","0","0","1","","0.3215678611","0.8","0.6","0.4","0.2","0.1343935597","0.3215678611","0.1589595026","0.3666899102","","","","","","","","","","","","","","74","J","1","","","158","main_expt","",""
"","bandit","244","943591","0.0-200.0-0.0","56962933","wem/bandit_party_2","A2SY2N44N1RWVA","either","2","1645","","","","","","","0","0","1","0.04604274909","","0.8","0.6","0.4","0.2","","","","","0.04604274909","0.2732838962","0.1426383857","0.3906786657","","","","","","","","","","72","H","0","img/none_selected.jpg","","159","main_expt","",""
"","bandit","245","945843","0.0-201.0-0.0","56962933","wem/bandit_party_2","A2SY2N44N1RWVA","either","2","716","","","","","","","0","0","1","0.2323229575","","0.8","0.6","0.4","0.2","","","","","0.08927965808","0.2323229575","0.2747613825","0.4769972016","","","","","","","","","","74","J","1","","","160","main_expt","",""
"","bandit","246","947673","0.0-202.0-0.0","56962933","wem/bandit_party_2","A2SY2N44N1RWVA","either","2","288","","","","","","","1","0","0","0.2046882866","","0.8","0.6","0.4","0.2","","","","","0.1038156196","0.399022808","0.2046882866","0.4405879513","","","","","","","","","","75","K","2","","","161","main_expt","",""
"","bandit","247","949946","0.0-203.0-0.0","56962933","wem/bandit_party_2","A2SY2N44N1RWVA","either","2","737","","","","","","","0","0","1","0.1715152701","","0.8","0.6","0.4","0.2","","","","","0.1470739062","0.4967313539","0.1715152701","0.44055992","","","","","","","","","","75","K","2","","","162","main_expt","",""
"","bandit","248","952001","0.0-204.0-0.0","56962933","wem/bandit_party_2","A2SY2N44N1RWVA","either","2","511","","","","","","","0","0","1","","0.2396687428","0.8","0.6","0.4","0.2","0.1214264794","0.5245029489","0.2396687428","0.3434222481","","","","","","","","","","","","","","75","K","2","","","163","main_expt","",""
"","bandit","249","953909","0.0-205.0-0.0","56962933","wem/bandit_party_2","A2SY2N44N1RWVA","either","2","361","","","","","","","0","0","1","","0.3862652833","0.8","0.6","0.4","0.2","0.1563758897","0.5808119749","0.3359744524","0.3862652833","","","","","","","","","","","","","","76","L","3","","","164","main_expt","",""
"","bandit","250","955889","0.0-206.0-0.0","56962933","wem/bandit_party_2","A2SY2N44N1RWVA","either","2","436","","","","","","","0","0","1","","0.4270444342","0.8","0.6","0.4","0.2","0.1311500467","0.6473032069","0.4940159592","0.4270444342","","","","","","","","","","","","","","76","L","3","","","165","main_expt","",""
"","bandit","251","958082","0.0-207.0-0.0","56962933","wem/bandit_party_2","A2SY2N44N1RWVA","either","2","651","","","","","","","0","0","1","","0.5922229292","0.8","0.6","0.4","0.2","0.1419689761","0.6790689848","0.5922229292","0.5073102058","","","","","","","","","","","","","","75","K","2","","","166","main_expt","",""
"","bandit","252","960119","0.0-208.0-0.0","56962933","wem/bandit_party_2","A2SY2N44N1RWVA","either","2","494","","","","","","","0","0","1","","0.5562626425","0.8","0.6","0.4","0.2","0.150246256","0.5959653185","0.5562626425","0.5417092253","","","","","","","","","","","","","","75","K","2","","","167","main_expt","",""
"","bandit","253","963076","0.0-209.0-0.0","56962933","wem/bandit_party_2","A2SY2N44N1RWVA","either","2","1414","","","","","","","1","0","0","0.6489587791","","0.8","0.6","0.4","0.2","","","","","0.2070971521","0.361841396","0.6489587791","0.6505471885","","","","","","","","","","75","K","2","","","168","main_expt","",""
"","bandit","254","964904","0.0-210.0-0.0","56962933","wem/bandit_party_2","A2SY2N44N1RWVA","either","2","286","","","","","","","0","0","1","","0.5652428614","0.8","0.6","0.4","0.2","0.2564452127","0.2594844845","0.5652428614","0.6226729341","","","","","","","","","","","","","","75","K","2","","","169","main_expt","",""
"","bandit","255","967011","0.0-211.0-0.0","56962933","wem/bandit_party_2","A2SY2N44N1RWVA","either","2","568","","","","","","","0","1","0","","0.7574543886","0.8","0.6","0.4","0.2","0.2845729388","0.1987556041","0.5344749526","0.7574543886","","","","","","","","","","","","","","76","L","3","","","170","main_expt","",""
"","bandit","256","968901","0.0-212.0-0.0","56962933","wem/bandit_party_2","A2SY2N44N1RWVA","either","2","350","","","","","","","0","0","1","","0.774201251","0.8","0.6","0.4","0.2","0.2360657399","0.1583585206","0.6364900983","0.774201251","","","","","","","","","","","","","","76","L","3","","","171","main_expt","",""
"","bandit","257","971234","0.0-213.0-0.0","56962933","wem/bandit_party_2","A2SY2N44N1RWVA","either","2","791","","","","","","","0","0","1","0.1494938987","","0.8","0.6","0.4","0.2","","","","","0.3453554921","0.1494938987","0.5516193693","0.7739789177","","","","","","","","","","74","J","1","","","172","main_expt","",""
"","bandit","258","973775","0.0-214.0-0.0","56962933","wem/bandit_party_2","A2SY2N44N1RWVA","either","2","992","","","","","","","0","0","1","0.1996494969","","0.8","0.6","0.4","0.2","","","","","0.2909261263","0.1996494969","0.5081608063","0.7146420849","","","","","","","","","","74","J","1","","","173","main_expt","",""
"","bandit","259","975793","0.0-215.0-0.0","56962933","wem/bandit_party_2","A2SY2N44N1RWVA","either","2","472","","","","","","","0","1","0","","0.3807546558","0.8","0.6","0.4","0.2","0.3807546558","0.2200767262","0.5247340446","0.683245412","","","","","","","","","","","","","","72","H","0","img/none_selected.jpg","","174","main_expt","",""
"","bandit","260","977978","0.0-216.0-0.0","56962933","wem/bandit_party_2","A2SY2N44N1RWVA","either","2","642","","","","","","","0","1","0","","0.3889518003","0.8","0.6","0.4","0.2","0.3889518003","0.1929710708","0.5823110366","0.7163731774","","","","","","","","","","","","","","72","H","0","img/none_selected.jpg","","175","main_expt","",""
"","bandit","261","979860","0.0-217.0-0.0","56962933","wem/bandit_party_2","A2SY2N44N1RWVA","either","2","324","","","","","","","1","0","0","0.3662842853","","0.8","0.6","0.4","0.2","","","","","0.3662842853","0.1756556012","0.7693722391","0.6676116703","","","","","","","","","","72","H","0","img/none_selected.jpg","","176","main_expt","",""
"","bandit","262","981687","0.0-218.0-0.0","56962933","wem/bandit_party_2","A2SY2N44N1RWVA","either","2","286","","","","","","","0","0","1","0.3102656016","","0.8","0.6","0.4","0.2","","","","","0.3102656016","0.2404611203","0.8048595062","0.711116056","","","","","","","","","","72","H","0","img/none_selected.jpg","","177","main_expt","",""
"","bandit","263","993581","0.0-219.0-0.0","56962933","wem/bandit_party_2","A2SY2N44N1RWVA","either","2","10351","","","","","","","1","0","0","0.3272385177","","0.8","0.6","0.4","0.2","","","","","0.3272385177","0.1651874793","0.8147320782","0.6541247318","","","","","","","","","","72","H","0","img/none_selected.jpg","","178","main_expt","",""
"","bandit","264","995513","0.0-220.0-0.0","56962933","wem/bandit_party_2","A2SY2N44N1RWVA","either","2","388","","","","","","","0","0","1","0.3185807274","","0.8","0.6","0.4","0.2","","","","","0.3185807274","0.1297692321","0.7755432213","0.600925469","","","","","","","","","","72","H","0","img/none_selected.jpg","","179","main_expt","",""
"","bandit","265","997330","0.0-221.0-0.0","56962933","wem/bandit_party_2","A2SY2N44N1RWVA","either","2","274","","","","","","","0","0","1","","0.3896265469","0.8","0.6","0.4","0.2","0.3896265469","0.1311169289","0.7309951384","0.6321701674","","","","","","","","","","","","","","72","H","0","img/none_selected.jpg","","180","main_expt","",""
"","bandit","266","1000157","0.0-222.0-0.0","56962933","wem/bandit_party_2","A2SY2N44N1RWVA","either","2","1284","","","","","","","0","0","1","0.2184653543","","0.8","0.6","0.4","0.2","","","","","0.4381139349","0.2184653543","0.8068071681","0.7040606398","","","","","","","","","","74","J","1","","","181","main_expt","",""
"","bandit","267","1001895","0.0-223.0-0.0","56962933","wem/bandit_party_2","A2SY2N44N1RWVA","either","2","190","","","","","","","1","0","0","0.8096694819","","0.8","0.6","0.4","0.2","","","","","0.4339703771","0.156745214","0.8096694819","0.6551517927","","","","","","","","","","75","K","2","","","182","main_expt","",""
"","bandit","268","1004161","0.0-224.0-0.0","56962933","wem/bandit_party_2","A2SY2N44N1RWVA","either","2","717","","","","","","","0","0","1","","0.07710569088","0.8","0.6","0.4","0.2","0.5270594011","0.07710569088","0.8522040983","0.7709035389","","","","","","","","","","","","","","74","J","1","","","183","main_expt","",""
"","bandit","269","1005813","0.0-225.0-0.0","56962933","wem/bandit_party_2","A2SY2N44N1RWVA","either","2","106","","","","","","","0","1","0","","0.8636776132","0.8","0.6","0.4","0.2","0.4791569234","0.07901501252","0.8636776132","0.7869666122","","","","","","","","","","","","","","75","K","2","","","184","main_expt","",""
"","bandit","270","1008131","0.0-226.0-0.0","56962933","wem/bandit_party_2","A2SY2N44N1RWVA","either","2","772","","","","","","","0","1","0","","0.8605951951","0.8","0.6","0.4","0.2","0.464074867","0.05695362571","0.8605951951","0.804571828","","","","","","","","","","","","","","75","K","2","","","185","main_expt","",""
"","bandit","271","1010027","0.0-227.0-0.0","56962933","wem/bandit_party_2","A2SY2N44N1RWVA","either","2","354","","","","","","","0","1","0","","0.8578427848","0.8","0.6","0.4","0.2","0.4654947356","0.03796608352","0.8578427848","0.7866627628","","","","","","","","","","","","","","75","K","2","","","186","main_expt","",""
"","bandit","272","1011818","0.0-228.0-0.0","56962933","wem/bandit_party_2","A2SY2N44N1RWVA","either","2","247","","","","","","","0","1","0","","0.8253306036","0.8","0.6","0.4","0.2","0.4338668179","0.05986429342","0.8253306036","0.8006736442","","","","","","","","","","","","","","75","K","2","","","187","main_expt","",""
"","bandit","273","1013406","0.0-229.0-0.0","56962933","wem/bandit_party_2","A2SY2N44N1RWVA","either","2","31","","","","","","","0","1","0","","0.8118593573","0.8","0.6","0.4","0.2","0.4679469354","0.05827831728","0.8118593573","0.7687627789","","","","","","","","","","","","","","75","K","2","","","188","main_expt","",""
"","bandit","274","1016034","0.0-230.0-0.0","56962933","wem/bandit_party_2","A2SY2N44N1RWVA","either","2","1083","","","","","","","1","0","0","0.8319104568","","0.8","0.6","0.4","0.2","","","","","0.4645116859","0.06499387038","0.8319104568","0.7009429779","","","","","","","","","","75","K","2","","","189","main_expt","",""
"","bandit","275","1020568","0.0-231.0-0.0","56962933","wem/bandit_party_2","A2SY2N44N1RWVA","either","2","2988","","","","","","","1","0","0","0.8949986836","","0.8","0.6","0.4","0.2","","","","","0.4260553166","0.0878029059","0.8949986836","0.7531121838","","","","","","","","","","75","K","2","","","190","main_expt","",""
"","bandit","276","1022795","0.0-232.0-0.0","56962933","wem/bandit_party_2","A2SY2N44N1RWVA","either","2","673","","","","","","","0","1","0","","0.9258368343","0.8","0.6","0.4","0.2","0.5323747461","0.1101088583","0.9258368343","0.6174616994","","","","","","","","","","","","","","75","K","2","","","191","main_expt","",""
"","bandit","277","1024549","0.0-233.0-0.0","56962933","wem/bandit_party_2","A2SY2N44N1RWVA","either","2","205","","","","","","","0","1","0","","0.9221438833","0.8","0.6","0.4","0.2","0.6013900654","0.1559643099","0.9221438833","0.6331996982","","","","","","","","","","","","","","75","K","2","","","192","main_expt","",""
"","bandit","278","1026664","0.0-234.0-0.0","56962933","wem/bandit_party_2","A2SY2N44N1RWVA","either","2","564","","","","","","","0","1","0","","0.878376231","0.8","0.6","0.4","0.2","0.5332063066","0.1348882638","0.878376231","0.5596167322","","","","","","","","","","","","","","75","K","2","","","193","main_expt","",""
"","bandit","279","1028457","0.0-235.0-0.0","56962933","wem/bandit_party_2","A2SY2N44N1RWVA","either","2","240","","","","","","","1","0","0","0.7914694382","","0.8","0.6","0.4","0.2","","","","","0.5499496643","0.243093686","0.7914694382","0.5887018809","","","","","","","","","","75","K","2","","","194","main_expt","",""
"","bandit","280","1030110","0.0-236.0-0.0","56962933","wem/bandit_party_2","A2SY2N44N1RWVA","either","2","72","","","","","","","0","0","1","0.7843027812","","0.8","0.6","0.4","0.2","","","","","0.4170732774","0.2792315856","0.7843027812","0.561552955","","","","","","","","","","75","K","2","","","195","main_expt","",""
"","bandit","281","1031767","0.0-237.0-0.0","56962933","wem/bandit_party_2","A2SY2N44N1RWVA","either","2","106","","","","","","","0","0","1","0.7888241066","","0.8","0.6","0.4","0.2","","","","","0.4050854298","0.2075419965","0.7888241066","0.6199522587","","","","","","","","","","75","K","2","","","196","main_expt","",""
"","bandit","282","1034447","0.0-238.0-0.0","56962933","wem/bandit_party_2","A2SY2N44N1RWVA","either","2","1101","","","","","","","0","1","0","","0.6886125155","0.8","0.6","0.4","0.2","0.4522405917","0.1899284635","0.8145025162","0.6886125155","","","","","","","","","","","","","","76","L","3","","","197","main_expt","",""
"","bandit","283","1036392","0.0-239.0-0.0","56962933","wem/bandit_party_2","A2SY2N44N1RWVA","either","2","400","","","","","","","0","1","0","","0.6468609917","0.8","0.6","0.4","0.2","0.4547961131","0.1632143895","0.8795467387","0.6468609917","","","","","","","","","","","","","","76","L","3","","","198","main_expt","",""
"","bandit","284","1038297","0.0-240.0-0.0","56962933","wem/bandit_party_2","A2SY2N44N1RWVA","either","2","355","","","","","","","0","1","0","","0.7134983028","0.8","0.6","0.4","0.2","0.456709553","0.1580048483","0.8716255916","0.7134983028","","","","","","","","","","","","","","76","L","3","","","199","main_expt","",""
"","bandit","285","1039886","0.0-241.0-0.0","56962933","wem/bandit_party_2","A2SY2N44N1RWVA","either","2","41","","","","","","","0","0","1","","0.6545285445","0.8","0.6","0.4","0.2","0.4197111003","0.1815025648","0.8596876402","0.6545285445","","","","","","","","","","","","","","76","L","3","","","200","main_expt","",""
"","bandit","286","1041890","0.0-242.0-0.0","56962933","wem/bandit_party_2","A2SY2N44N1RWVA","either","2","426","","","","","","","0","1","0","","0.6827561938","0.8","0.6","0.4","0.2","0.4468864226","0.1453003075","0.8714244785","0.6827561938","","","","","","","","","","","","","","76","L","3","","","201","main_expt","",""
"","bandit","287","1043923","0.0-243.0-0.0","56962933","wem/bandit_party_2","A2SY2N44N1RWVA","either","2","468","","","","","","","0","1","0","","0.6590680519","0.8","0.6","0.4","0.2","0.3852152277","0.1061510446","0.8679491409","0.6590680519","","","","","","","","","","","","","","76","L","3","","","202","main_expt","",""
"","bandit","288","1045481","0.0-244.0-0.0","56962933","wem/bandit_party_2","A2SY2N44N1RWVA","either","2","2","","","","","","","0","1","0","","0.67998256","0.8","0.6","0.4","0.2","0.3481501846","0.09667757311","0.8421855008","0.67998256","","","","","","","","","","","","","","76","L","3","","","203","main_expt","",""
"","bandit","289","1048584","0.0-245.0-0.0","56962933","wem/bandit_party_2","A2SY2N44N1RWVA","either","2","1557","","","","","","","0","1","0","","0.7157802034","0.8","0.6","0.4","0.2","0.3688904748","0.109576977","0.8741547355","0.7157802034","","","","","","","","","","","","","","76","L","3","","","204","main_expt","",""
"","bandit","290","1050176","0.0-246.0-0.0","56962933","wem/bandit_party_2","A2SY2N44N1RWVA","either","2","45","","","","","","","0","1","0","","0.6750594522","0.8","0.6","0.4","0.2","0.4196025605","0.1370524017","0.8589537271","0.6750594522","","","","","","","","","","","","","","76","L","3","","","205","main_expt","",""
"","bandit","291","1053369","0.0-247.0-0.0","56962933","wem/bandit_party_2","A2SY2N44N1RWVA","either","2","1642","","","","","","","0","0","1","","0.7170784861","0.8","0.6","0.4","0.2","0.3558717694","0.1005848846","0.8009191088","0.7170784861","","","","","","","","","","","","","","76","L","3","","","206","main_expt","",""
"","bandit","292","1055932","0.0-248.0-0.0","56962933","wem/bandit_party_2","A2SY2N44N1RWVA","either","2","1015","","","","","","","0","0","1","","0.6886550294","0.8","0.6","0.4","0.2","0.3978287694","0.1100528349","0.8146279372","0.6886550294","","","","","","","","","","","","","","76","L","3","","","207","main_expt","",""
"","bandit","293","1058969","0.0-249.0-0.0","56962933","wem/bandit_party_2","A2SY2N44N1RWVA","either","2","1484","","","","","","","0","1","0","","0.7340041914","0.8","0.6","0.4","0.2","0.3647175361","0.1165568201","0.7498886323","0.7340041914","","","","","","","","","","","","","","76","L","3","","","208","main_expt","",""
"","bandit","294","1061823","0.0-250.0-0.0","56962933","wem/bandit_party_2","A2SY2N44N1RWVA","either","2","1278","","","","","","","0","0","1","","0.7108339061","0.8","0.6","0.4","0.2","0.2942091963","0.1607141963","0.781298432","0.7108339061","","","","","","","","","","","","","","76","L","3","","","209","main_expt","",""
"","bandit","295","1064287","0.0-251.0-0.0","56962933","wem/bandit_party_2","A2SY2N44N1RWVA","either","2","911","","","","","","","0","0","1","","0.7322658343","0.8","0.6","0.4","0.2","0.3228874634","0.2005879304","0.8374694261","0.7322658343","","","","","","","","","","","","","","76","L","3","","","210","main_expt","",""
"","bandit","296","1066430","0.0-252.0-0.0","56962933","wem/bandit_party_2","A2SY2N44N1RWVA","either","2","601","","","","","","","0","1","0","","0.6220956771","0.8","0.6","0.4","0.2","0.3300931135","0.1999716741","0.7461264045","0.6220956771","","","","","","","","","","","","","","76","L","3","","","211","main_expt","",""
"","bandit","297","1068933","0.0-253.0-0.0","56962933","wem/bandit_party_2","A2SY2N44N1RWVA","either","2","949","","","","","","","1","0","0","0.5400145011","","0.8","0.6","0.4","0.2","","","","","0.4044608811","0.2135957141","0.7267359419","0.5400145011","","","","","","","","","","76","L","3","","","212","main_expt","",""
"","bandit","298","1071734","0.0-254.0-0.0","56962933","wem/bandit_party_2","A2SY2N44N1RWVA","either","2","1215","","","","","","","0","1","0","","0.5419994818","0.8","0.6","0.4","0.2","0.4916994921","0.2041793084","0.6529835343","0.5419994818","","","","","","","","","","","","","","76","L","3","","","213","main_expt","",""
"","bandit","299","1073439","0.0-255.0-0.0","56962933","wem/bandit_party_2","A2SY2N44N1RWVA","either","2","156","","","","","","","0","0","1","","0.6195319152","0.8","0.6","0.4","0.2","0.5387088508","0.2563089198","0.5734554779","0.6195319152","","","","","","","","","","","","","","76","L","3","","","214","main_expt","",""
"","bandit","300","1076778","0.0-256.0-0.0","56962933","wem/bandit_party_2","A2SY2N44N1RWVA","either","2","1796","","","","","","","0","0","1","","0.7405966814","0.8","0.6","0.4","0.2","0.567041903","0.2870699064","0.7056003711","0.7405966814","","","","","","","","","","","","","","76","L","3","","","215","main_expt","",""
"","bandit","301","1078423","0.0-257.0-0.0","56962933","wem/bandit_party_2","A2SY2N44N1RWVA","either","2","90","","","","","","","0","1","0","","0.8005734678","0.8","0.6","0.4","0.2","0.539749723","0.2715554895","0.7717913507","0.8005734678","","","","","","","","","","","","","","76","L","3","","","216","main_expt","",""
"","bandit","302","1080236","0.0-258.0-0.0","56962933","wem/bandit_party_2","A2SY2N44N1RWVA","either","2","265","","","","","","","0","1","0","","0.8392159132","0.8","0.6","0.4","0.2","0.3803352486","0.2027777883","0.834894728","0.8392159132","","","","","","","","","","","","","","76","L","3","","","217","main_expt","",""
"","bandit","303","1082090","0.0-259.0-0.0","56962933","wem/bandit_party_2","A2SY2N44N1RWVA","either","2","286","","","","","","","0","0","1","0.7445585264","","0.8","0.6","0.4","0.2","","","","","0.3236333655","0.2169787163","0.868580258","0.7445585264","","","","","","","","","","76","L","3","","","218","main_expt","",""
"","bandit","304","1083973","0.0-260.0-0.0","56962933","wem/bandit_party_2","A2SY2N44N1RWVA","either","2","332","","","","","","","0","1","0","","0.7174829008","0.8","0.6","0.4","0.2","0.2612589469","0.2292932202","0.8236231074","0.7174829008","","","","","","","","","","","","","","76","L","3","","","219","main_expt","",""
"","bandit","305","1089138","0.0-261.0-0.0","56962933","wem/bandit_party_2","A2SY2N44N1RWVA","either","2","3614","","","","","","","0","0","1","","0.6601767392","0.8","0.6","0.4","0.2","0.2228319794","0.2829053382","0.7719294443","0.6601767392","","","","","","","","","","","","","","76","L","3","","","220","main_expt","",""
"","bandit","306","1091100","0.0-262.0-0.0","56962933","wem/bandit_party_2","A2SY2N44N1RWVA","either","2","383","","","","","","","0","0","1","","0.703996204","0.8","0.6","0.4","0.2","0.2204856404","0.2691731019","0.7609360252","0.703996204","","","","","","","","","","","","","","76","L","3","","","221","main_expt","",""
"","bandit","307","1094135","0.0-263.0-0.0","56962933","wem/bandit_party_2","A2SY2N44N1RWVA","either","2","1484","","","","","","","0","1","0","","0.6188024556","0.8","0.6","0.4","0.2","0.2269951902","0.1974112065","0.7319851961","0.6188024556","","","","","","","","","","","","","","76","L","3","","","222","main_expt","",""
"","bandit","308","1096012","0.0-264.0-0.0","56962933","wem/bandit_party_2","A2SY2N44N1RWVA","either","2","329","","","","","","","1","0","0","0.5695888615","","0.8","0.6","0.4","0.2","","","","","0.3417830843","0.08486155027","0.6994646324","0.5695888615","","","","","","","","","","76","L","3","","","223","main_expt","",""
"","bandit","309","1100338","0.0-265.0-0.0","56962933","wem/bandit_party_2","A2SY2N44N1RWVA","either","2","2767","","","","","","","1","0","0","0.6590173842","","0.8","0.6","0.4","0.2","","","","","0.4057490183","0.1930609847","0.6817307813","0.6590173842","","","","","","","","","","76","L","3","","","224","main_expt","",""
"","bandit","310","1108056","0.0-266.0-0.0","56962933","wem/bandit_party_2","A2SY2N44N1RWVA","either","2","6167","","","","","","","0","0","1","","0.6779124893","0.8","0.6","0.4","0.2","0.4266979185","0.2026087193","0.67394888","0.6779124893","","","","","","","","","","","","","","76","L","3","","","225","main_expt","",""
"","bandit","311","1110188","0.0-267.0-0.0","56962933","wem/bandit_party_2","A2SY2N44N1RWVA","either","2","583","","","","","","","0","1","0","","0.6433757785","0.8","0.6","0.4","0.2","0.4723095555","0.1295559036","0.6520670614","0.6433757785","","","","","","","","","","","","","","76","L","3","","","226","main_expt","",""
"","bandit","312","1112438","0.0-268.0-0.0","56962933","wem/bandit_party_2","A2SY2N44N1RWVA","either","2","684","","","","","","","0","0","1","","0.6050090536","0.8","0.6","0.4","0.2","0.4396274322","0.1014701128","0.6598054912","0.6050090536","","","","","","","","","","","","","","76","L","3","","","227","main_expt","",""
"","bandit","313","1114234","0.0-269.0-0.0","56962933","wem/bandit_party_2","A2SY2N44N1RWVA","either","2","244","","","","","","","0","0","1","","0.5614220587","0.8","0.6","0.4","0.2","0.4581465293","0.1374428951","0.7313296172","0.5614220587","","","","","","","","","","","","","","76","L","3","","","228","main_expt","",""
"","bandit","314","1116166","0.0-270.0-0.0","56962933","wem/bandit_party_2","A2SY2N44N1RWVA","either","2","372","","","","","","","0","1","0","","0.536938762","0.8","0.6","0.4","0.2","0.3635076811","0.2147377822","0.5771612872","0.536938762","","","","","","","","","","","","","","76","L","3","","","229","main_expt","",""
"","bandit","315","1118079","0.0-271.0-0.0","56962933","wem/bandit_party_2","A2SY2N44N1RWVA","either","2","364","","","","","","","0","0","1","0.4691369301","","0.8","0.6","0.4","0.2","","","","","0.4109812081","0.2128984172","0.6474737632","0.4691369301","","","","","","","","","","76","L","3","","","230","main_expt","",""
