"consent","trial_type","trial_index","time_elapsed","internal_node_id","subjID","study","MID","cond","drift","rt","responses","button_pressed","key_press","like","value","connected","gems","bombs","no_reward","GemPrChosen","BombPrChosen","GainOverPainPr_0","GainOverPainPr_1","GainOverPainPr_2","GainOverPainPr_3","LosePr_0","LosePr_1","LosePr_2","LosePr_3","WinPr_0","WinPr_1","WinPr_2","WinPr_3","Q0","Q1","Q2","gender","age","ethnicity","label","expt_phase","target","respCharCode","respKey","respChoiceNum","respChoice","practice","trial_counter","trial_label","Q0_index"
"GDM/GDM_behavioral_consent_30min_online.html","consent","0","16180","0.0-0.0","57102519","wem/bandit_party_2","A2EAIMII6MSIO5","either","8","","","","","","","","","","","","","","","","","","","","","","","","","","","","","","","","","","","","","","","","",""
"","survey-text","1","26489","0.0-1.0","57102519","wem/bandit_party_2","A2EAIMII6MSIO5","either","8","9262","{""Q0"":""A2EAIMII6MSIO5""}","","","","","","","","","","","","","","","","","","","","","","","","","","","","","","","","","","","","","","",""
"","button-response","2","29649","0.0-2.0","57102519","wem/bandit_party_2","A2EAIMII6MSIO5","either","8","2136","","1","","","","","","","","","","","","","","","","","","","","","","","","","","","","","","","","","","","","","",""
"","text-replacement","3","37669","0.0-3.0","57102519","wem/bandit_party_2","A2EAIMII6MSIO5","either","8","7002","","","32","","","","","","","","","","","","","","","","","","","","","","","","","","","","","","","","","","","","",""
"","text-replacement","4","45767","0.0-4.0","57102519","wem/bandit_party_2","A2EAIMII6MSIO5","either","8","8090","","","32","","","","","","","","","","","","","","","","","","","","","","","","","","","","","","","","","","","","",""
"","identification","5","57811","0.0-6.0-0.0","57102519","wem/bandit_party_2","A2EAIMII6MSIO5","either","8","11997","","","","1","2","0","","","","","","","","","","","","","","","","","","","","","","","","pre","identification_pre","the Republican Party","","","","","","","",""
"","identification","6","67393","0.0-6.0-1.0","57102519","wem/bandit_party_2","A2EAIMII6MSIO5","either","8","8524","","","","5","5","5","","","","","","","","","","","","","","","","","","","","","","","","pre","identification_pre","the Democratic Party","","","","","","","",""
"","text-replacement","7","75635","0.0-7.0","57102519","wem/bandit_party_2","A2EAIMII6MSIO5","either","8","7230","","","32","","","","","","","","","","","","","","","","","","","","","","","","","","","","","","","","","","","","",""
"","text-replacement","8","80922","0.0-8.0","57102519","wem/bandit_party_2","A2EAIMII6MSIO5","either","8","5278","","","32","","","","","","","","","","","","","","","","","","","","","","","","","","","","","","","","","","","","",""
"","text-replacement","9","90614","0.0-9.0","57102519","wem/bandit_party_2","A2EAIMII6MSIO5","either","8","9683","","","32","","","","","","","","","","","","","","","","","","","","","","","","","","","","","","","","","","","","",""
"","text-replacement","10","95199","0.0-10.0","57102519","wem/bandit_party_2","A2EAIMII6MSIO5","either","8","4574","","","32","","","","","","","","","","","","","","","","","","","","","","","","","","","","","","","","","","","","",""
"","text-replacement","11","98566","0.0-11.0","57102519","wem/bandit_party_2","A2EAIMII6MSIO5","either","8","3357","","","32","","","","","","","","","","","","","","","","","","","","","","","","","","","","","","","","","","","","",""
"","bandit","12","101402","0.0-12.0-0.0","57102519","wem/bandit_party_2","A2EAIMII6MSIO5","either","8","1300","","","","","","","0","0","1","0","0","","","","","0","","","","0","","","","","","","","","","","","","74","J","0","img/none_selected_demo.jpg","true","0","",""
"","bandit","13","104086","0.0-13.0-0.0","57102519","wem/bandit_party_2","A2EAIMII6MSIO5","either","8","1142","","","","","","","0","0","1","0","0","","","","","0","","","","0","","","","","","","","","","","","","75","K","0","img/none_selected_demo.jpg","true","0","",""
"","text-replacement","14","111244","0.0-14.0","57102519","wem/bandit_party_2","A2EAIMII6MSIO5","either","8","7146","","","32","","","","","","","","","","","","","","","","","","","","","","","","","","","","","","","","","","","","",""
"","text-replacement","15","114478","0.0-15.0","57102519","wem/bandit_party_2","A2EAIMII6MSIO5","either","8","3224","","","32","","","","","","","","","","","","","","","","","","","","","","","","","","","","","","","","","","","","",""
"","text-replacement","16","120103","0.0-16.0","57102519","wem/bandit_party_2","A2EAIMII6MSIO5","either","8","5615","","","32","","","","","","","","","","","","","","","","","","","","","","","","","","","","","","","","","","","","",""
"","text-replacement","17","123028","0.0-17.0","57102519","wem/bandit_party_2","A2EAIMII6MSIO5","either","8","2914","","","32","","","","","","","","","","","","","","","","","","","","","","","","","","","","","","","","","","","","",""
"","bandit","18","125313","0.0-18.0-0.0","57102519","wem/bandit_party_2","A2EAIMII6MSIO5","either","8","749","","","","","","","0","0","1","","0.2","0.5","0.5","","","0.8","0.2","","","","","","","","","","","","","","","","75","K","1","","true","0","80_20_practice",""
"","bandit","19","127740","0.0-18.0-1.0","57102519","wem/bandit_party_2","A2EAIMII6MSIO5","either","8","887","","","","","","","0","1","0","","0.8","0.5","0.5","","","0.8","0.2","","","","","","","","","","","","","","","","74","J","0","img/none_selected_demo.jpg","true","0","80_20_practice",""
"","bandit","20","130220","0.0-18.0-2.0","57102519","wem/bandit_party_2","A2EAIMII6MSIO5","either","8","937","","","","","","","0","0","1","0.2","","0.5","0.5","","","","","","","0.8","0.2","","","","","","","","","","","","75","K","1","","true","0","80_20_practice",""
"","bandit","21","132095","0.0-18.0-3.0","57102519","wem/bandit_party_2","A2EAIMII6MSIO5","either","8","327","","","","","","","1","0","0","0.8","","0.5","0.5","","","","","","","0.8","0.2","","","","","","","","","","","","74","J","0","img/none_selected_demo.jpg","true","0","80_20_practice",""
"","bandit","22","134019","0.0-18.0-4.0","57102519","wem/bandit_party_2","A2EAIMII6MSIO5","either","8","383","","","","","","","0","0","1","","0.8","0.5","0.5","","","0.8","0.2","","","","","","","","","","","","","","","","74","J","0","img/none_selected_demo.jpg","true","0","80_20_practice",""
"","bandit","23","136167","0.0-18.0-5.0","57102519","wem/bandit_party_2","A2EAIMII6MSIO5","either","8","621","","","","","","","1","0","0","0.8","","0.5","0.5","","","","","","","0.8","0.2","","","","","","","","","","","","74","J","0","img/none_selected_demo.jpg","true","0","80_20_practice",""
"","bandit","24","138660","0.0-18.0-6.0","57102519","wem/bandit_party_2","A2EAIMII6MSIO5","either","8","961","","","","","","","0","0","1","0.2","","0.5","0.5","","","","","","","0.8","0.2","","","","","","","","","","","","75","K","1","","true","0","80_20_practice",""
"","bandit","25","140553","0.0-18.0-7.0","57102519","wem/bandit_party_2","A2EAIMII6MSIO5","either","8","353","","","","","","","0","1","0","","0.8","0.5","0.5","","","0.8","0.2","","","","","","","","","","","","","","","","74","J","0","img/none_selected_demo.jpg","true","0","80_20_practice",""
"","bandit","26","142852","0.0-18.0-8.0","57102519","wem/bandit_party_2","A2EAIMII6MSIO5","either","8","770","","","","","","","1","0","0","0.8","","0.5","0.5","","","","","","","0.8","0.2","","","","","","","","","","","","74","J","0","img/none_selected_demo.jpg","true","0","80_20_practice",""
"","bandit","27","145194","0.0-18.0-9.0","57102519","wem/bandit_party_2","A2EAIMII6MSIO5","either","8","804","","","","","","","1","0","0","0.8","","0.5","0.5","","","","","","","0.8","0.2","","","","","","","","","","","","74","J","0","img/none_selected_demo.jpg","true","0","80_20_practice",""
"","bandit","28","147676","0.0-18.0-10.0","57102519","wem/bandit_party_2","A2EAIMII6MSIO5","either","8","938","","","","","","","0","0","1","0.8","","0.5","0.5","","","","","","","0.8","0.2","","","","","","","","","","","","74","J","0","img/none_selected_demo.jpg","true","0","80_20_practice",""
"","bandit","29","149749","0.0-18.0-11.0","57102519","wem/bandit_party_2","A2EAIMII6MSIO5","either","8","527","","","","","","","0","0","1","","0.2","0.5","0.5","","","0.8","0.2","","","","","","","","","","","","","","","","75","K","1","","true","0","80_20_practice",""
"","bandit","30","151740","0.0-18.0-12.0","57102519","wem/bandit_party_2","A2EAIMII6MSIO5","either","8","453","","","","","","","0","1","0","","0.8","0.5","0.5","","","0.8","0.2","","","","","","","","","","","","","","","","74","J","0","img/none_selected_demo.jpg","true","0","80_20_practice",""
"","bandit","31","153559","0.0-18.0-13.0","57102519","wem/bandit_party_2","A2EAIMII6MSIO5","either","8","280","","","","","","","0","0","1","0.2","","0.5","0.5","","","","","","","0.8","0.2","","","","","","","","","","","","75","K","1","","true","0","80_20_practice",""
"","bandit","32","155460","0.0-18.0-14.0","57102519","wem/bandit_party_2","A2EAIMII6MSIO5","either","8","357","","","","","","","0","1","0","","0.8","0.5","0.5","","","0.8","0.2","","","","","","","","","","","","","","","","74","J","0","img/none_selected_demo.jpg","true","0","80_20_practice",""
"","bandit","33","158472","0.0-18.0-15.0","57102519","wem/bandit_party_2","A2EAIMII6MSIO5","either","8","1474","","","","","","","0","1","0","","0.8","0.5","0.5","","","0.8","0.2","","","","","","","","","","","","","","","","74","J","0","img/none_selected_demo.jpg","true","0","80_20_practice",""
"","bandit","34","160710","0.0-18.0-16.0","57102519","wem/bandit_party_2","A2EAIMII6MSIO5","either","8","689","","","","","","","1","0","0","0.8","","0.5","0.5","","","","","","","0.8","0.2","","","","","","","","","","","","74","J","0","img/none_selected_demo.jpg","true","0","80_20_practice",""
"","bandit","35","162729","0.0-18.0-17.0","57102519","wem/bandit_party_2","A2EAIMII6MSIO5","either","8","486","","","","","","","1","0","0","0.8","","0.5","0.5","","","","","","","0.8","0.2","","","","","","","","","","","","74","J","0","img/none_selected_demo.jpg","true","0","80_20_practice",""
"","bandit","36","165698","0.0-18.0-18.0","57102519","wem/bandit_party_2","A2EAIMII6MSIO5","either","8","1425","","","","","","","0","1","0","","0.8","0.5","0.5","","","0.8","0.2","","","","","","","","","","","","","","","","74","J","0","img/none_selected_demo.jpg","true","0","80_20_practice",""
"","bandit","37","168294","0.0-18.0-19.0","57102519","wem/bandit_party_2","A2EAIMII6MSIO5","either","8","1060","","","","","","","0","0","1","","0.8","0.5","0.5","","","0.8","0.2","","","","","","","","","","","","","","","","74","J","0","img/none_selected_demo.jpg","true","0","80_20_practice",""
"","text-replacement","38","171968","0.0-19.0","57102519","wem/bandit_party_2","A2EAIMII6MSIO5","either","8","3662","","","32","","","","","","","","","","","","","","","","","","","","","","","","","","","","","","","","","","","","",""
"","bandit","39","174170","0.0-20.0-0.0","57102519","wem/bandit_party_2","A2EAIMII6MSIO5","either","8","670","","","","","","","1","0","0","1","0","","","","","0","1","","","1","0","","","","","","","","","","","","74","J","0","img/none_selected_demo.jpg","true","0","",""
"","text-replacement","40","185314","0.0-21.0","57102519","wem/bandit_party_2","A2EAIMII6MSIO5","either","8","11134","","","32","","","","","","","","","","","","","","","","","","","","","","","","","","","","","","","","","","","","",""
"","text-replacement","41","188459","0.0-22.0","57102519","wem/bandit_party_2","A2EAIMII6MSIO5","either","8","3135","","","32","","","","","","","","","","","","","","","","","","","","","","","","","","","","","","","","","","","","",""
"","text-replacement","42","190595","0.0-23.0","57102519","wem/bandit_party_2","A2EAIMII6MSIO5","either","8","2128","","","32","","","","","","","","","","","","","","","","","","","","","","","","","","","","","","","","","","","","",""
"","text-replacement","43","194695","0.0-24.0","57102519","wem/bandit_party_2","A2EAIMII6MSIO5","either","8","4083","","","32","","","","","","","","","","","","","","","","","","","","","","","","","","","","","","","","","","","","",""
"","text-replacement","44","198261","0.0-25.0","57102519","wem/bandit_party_2","A2EAIMII6MSIO5","either","8","3555","","","32","","","","","","","","","","","","","","","","","","","","","","","","","","","","","","","","","","","","",""
"","text-replacement","45","203937","0.0-26.0","57102519","wem/bandit_party_2","A2EAIMII6MSIO5","either","8","5664","","","32","","","","","","","","","","","","","","","","","","","","","","","","","","","","","","","","","","","","",""
"","text-replacement","46","206997","0.0-27.0","57102519","wem/bandit_party_2","A2EAIMII6MSIO5","either","8","3045","","","32","","","","","","","","","","","","","","","","","","","","","","","","","","","","","","","","","","","","",""
"","text-replacement","47","211356","0.0-28.0","57102519","wem/bandit_party_2","A2EAIMII6MSIO5","either","8","4347","","","32","","","","","","","","","","","","","","","","","","","","","","","","","","","","","","","","","","","","",""
"","text-replacement","48","215181","0.0-29.0","57102519","wem/bandit_party_2","A2EAIMII6MSIO5","either","8","3814","","","32","","","","","","","","","","","","","","","","","","","","","","","","","","","","","","","","","","","","",""
"","text-replacement","49","216919","0.0-30.0","57102519","wem/bandit_party_2","A2EAIMII6MSIO5","either","8","1726","","","32","","","","","","","","","","","","","","","","","","","","","","","","","","","","","","","","","","","","",""
"","text-replacement","50","218553","0.0-31.0","57102519","wem/bandit_party_2","A2EAIMII6MSIO5","either","8","1622","","","32","","","","","","","","","","","","","","","","","","","","","","","","","","","","","","","","","","","","",""
"","bandit","51","223560","0.0-32.0-0.0","57102519","wem/bandit_party_2","A2EAIMII6MSIO5","either","8","3462","","","","","","","0","0","1","","0.8","0.5","0.5","0.5","0.5","0.8","0.2","0.6","0.2","","","","","","","","","","","","","","72","H","0","img/none_selected.jpg","true","0","full_practice",""
"","bandit","52","225546","0.0-32.0-1.0","57102519","wem/bandit_party_2","A2EAIMII6MSIO5","either","8","453","","","","","","","0","0","1","","0.2","0.5","0.5","0.5","0.5","0.8","0.2","0.6","0.2","","","","","","","","","","","","","","74","J","1","","true","0","full_practice",""
"","bandit","53","227371","0.0-32.0-2.0","57102519","wem/bandit_party_2","A2EAIMII6MSIO5","either","8","284","","","","","","","1","0","0","0.6","","0.5","0.5","0.5","0.5","","","","","0.8","0.2","0.6","0.2","","","","","","","","","","75","K","2","","true","0","full_practice",""
"","bandit","54","229283","0.0-32.0-3.0","57102519","wem/bandit_party_2","A2EAIMII6MSIO5","either","8","371","","","","","","","0","1","0","","0.2","0.5","0.5","0.5","0.5","0.8","0.2","0.6","0.2","","","","","","","","","","","","","","76","L","3","","true","0","full_practice",""
"","bandit","55","231048","0.0-32.0-4.0","57102519","wem/bandit_party_2","A2EAIMII6MSIO5","either","8","227","","","","","","","1","0","0","0.6","","0.5","0.5","0.5","0.5","","","","","0.8","0.2","0.6","0.2","","","","","","","","","","75","K","2","","true","0","full_practice",""
"","bandit","56","232857","0.0-32.0-5.0","57102519","wem/bandit_party_2","A2EAIMII6MSIO5","either","8","270","","","","","","","0","0","1","","0.6","0.5","0.5","0.5","0.5","0.8","0.2","0.6","0.2","","","","","","","","","","","","","","75","K","2","","true","0","full_practice",""
"","bandit","57","234748","0.0-32.0-6.0","57102519","wem/bandit_party_2","A2EAIMII6MSIO5","either","8","346","","","","","","","0","0","1","","0.2","0.5","0.5","0.5","0.5","0.8","0.2","0.6","0.2","","","","","","","","","","","","","","74","J","1","","true","0","full_practice",""
"","bandit","58","236586","0.0-32.0-7.0","57102519","wem/bandit_party_2","A2EAIMII6MSIO5","either","8","318","","","","","","","1","0","0","0.8","","0.5","0.5","0.5","0.5","","","","","0.8","0.2","0.6","0.2","","","","","","","","","","72","H","0","img/none_selected.jpg","true","0","full_practice",""
"","bandit","59","238574","0.0-32.0-8.0","57102519","wem/bandit_party_2","A2EAIMII6MSIO5","either","8","459","","","","","","","1","0","0","0.8","","0.5","0.5","0.5","0.5","","","","","0.8","0.2","0.6","0.2","","","","","","","","","","72","H","0","img/none_selected.jpg","true","0","full_practice",""
"","bandit","60","240482","0.0-32.0-9.0","57102519","wem/bandit_party_2","A2EAIMII6MSIO5","either","8","379","","","","","","","1","0","0","0.8","","0.5","0.5","0.5","0.5","","","","","0.8","0.2","0.6","0.2","","","","","","","","","","72","H","0","img/none_selected.jpg","true","0","full_practice",""
"","bandit","61","242573","0.0-32.0-10.0","57102519","wem/bandit_party_2","A2EAIMII6MSIO5","either","8","551","","","","","","","1","0","0","0.8","","0.5","0.5","0.5","0.5","","","","","0.8","0.2","0.6","0.2","","","","","","","","","","72","H","0","img/none_selected.jpg","true","0","full_practice",""
"","bandit","62","244640","0.0-32.0-11.0","57102519","wem/bandit_party_2","A2EAIMII6MSIO5","either","8","521","","","","","","","0","0","1","","0.8","0.5","0.5","0.5","0.5","0.8","0.2","0.6","0.2","","","","","","","","","","","","","","72","H","0","img/none_selected.jpg","true","0","full_practice",""
"","bandit","63","246707","0.0-32.0-12.0","57102519","wem/bandit_party_2","A2EAIMII6MSIO5","either","8","530","","","","","","","0","0","1","0.2","","0.5","0.5","0.5","0.5","","","","","0.8","0.2","0.6","0.2","","","","","","","","","","76","L","3","","true","0","full_practice",""
"","bandit","64","248609","0.0-32.0-13.0","57102519","wem/bandit_party_2","A2EAIMII6MSIO5","either","8","361","","","","","","","0","0","1","","0.6","0.5","0.5","0.5","0.5","0.8","0.2","0.6","0.2","","","","","","","","","","","","","","75","K","2","","true","0","full_practice",""
"","bandit","65","250478","0.0-32.0-14.0","57102519","wem/bandit_party_2","A2EAIMII6MSIO5","either","8","342","","","","","","","0","0","1","","0.2","0.5","0.5","0.5","0.5","0.8","0.2","0.6","0.2","","","","","","","","","","","","","","74","J","1","","true","0","full_practice",""
"","bandit","66","252901","0.0-32.0-15.0","57102519","wem/bandit_party_2","A2EAIMII6MSIO5","either","8","875","","","","","","","1","0","0","0.8","","0.5","0.5","0.5","0.5","","","","","0.8","0.2","0.6","0.2","","","","","","","","","","72","H","0","img/none_selected.jpg","true","0","full_practice",""
"","bandit","67","255101","0.0-32.0-16.0","57102519","wem/bandit_party_2","A2EAIMII6MSIO5","either","8","660","","","","","","","0","1","0","","0.8","0.5","0.5","0.5","0.5","0.8","0.2","0.6","0.2","","","","","","","","","","","","","","72","H","0","img/none_selected.jpg","true","0","full_practice",""
"","bandit","68","257151","0.0-32.0-17.0","57102519","wem/bandit_party_2","A2EAIMII6MSIO5","either","8","504","","","","","","","0","0","1","","0.8","0.5","0.5","0.5","0.5","0.8","0.2","0.6","0.2","","","","","","","","","","","","","","72","H","0","img/none_selected.jpg","true","0","full_practice",""
"","bandit","69","259866","0.0-32.0-18.0","57102519","wem/bandit_party_2","A2EAIMII6MSIO5","either","8","1169","","","","","","","0","0","1","","0.6","0.5","0.5","0.5","0.5","0.8","0.2","0.6","0.2","","","","","","","","","","","","","","75","K","2","","true","0","full_practice",""
"","bandit","70","261858","0.0-32.0-19.0","57102519","wem/bandit_party_2","A2EAIMII6MSIO5","either","8","451","","","","","","","0","0","1","","0.2","0.5","0.5","0.5","0.5","0.8","0.2","0.6","0.2","","","","","","","","","","","","","","76","L","3","","true","0","full_practice",""
"","text","71","266841","0.0-33.0","57102519","wem/bandit_party_2","A2EAIMII6MSIO5","either","8","4960","","","32","","","","","","","","","","","","","","","","","","","","","","","","","","","","","","","","","","","","",""
"","text-replacement","72","281654","0.0-34.0","57102519","wem/bandit_party_2","A2EAIMII6MSIO5","either","8","13798","","","32","","","","","","","","","","","","","","","","","","","","","","","","","","","","","","","","","","","","",""
"","text-replacement","73","288437","0.0-35.0","57102519","wem/bandit_party_2","A2EAIMII6MSIO5","either","8","6770","","","32","","","","","","","","","","","","","","","","","","","","","","","","","","","","","","","","","","","","",""
"","text-replacement","74","295473","0.0-36.0","57102519","wem/bandit_party_2","A2EAIMII6MSIO5","either","8","7027","","","32","","","","","","","","","","","","","","","","","","","","","","","","","","","","","","","","","","","","",""
"","text-replacement","75","302531","0.0-37.0","57102519","wem/bandit_party_2","A2EAIMII6MSIO5","either","8","7044","","","32","","","","","","","","","","","","","","","","","","","","","","","","","","","","","","","","","","","","",""
"","text-replacement","76","304396","0.0-38.0","57102519","wem/bandit_party_2","A2EAIMII6MSIO5","either","8","1847","","","32","","","","","","","","","","","","","","","","","","","","","","","","","","","","","","","","","","","","",""
"","survey-multi-choice-replacement","77","311324","0.0-39.0-0.0","57102519","wem/bandit_party_2","A2EAIMII6MSIO5","either","8","6887","","","","","","","","","","","","","","","","","","","","","","","","Money will be added to the pool for <span style='color:blue;'>DEMOCRATS</span>","","","","","","","attn_check","","","","","","","","","0"
"","survey-multi-choice-replacement","78","315900","0.0-40.0-0.0","57102519","wem/bandit_party_2","A2EAIMII6MSIO5","either","8","3540","","","","","","","","","","","","","","","","","","","","","","","","Equal amounts of money will be added to the pool for <span style='color:blue;'>DEMOCRATS</span> and subtracted from the pool for <span style='color:red;'>REPUBLICANS</span>","","","","","","","attn_check","","","","","","","","","2"
"","survey-multi-choice-replacement","79","319949","0.0-41.0-0.0","57102519","wem/bandit_party_2","A2EAIMII6MSIO5","either","8","3004","","","","","","","","","","","","","","","","","","","","","","","","No money will be added to either pool","","","","","","","attn_check","","","","","","","","","3"
"","bandit","80","326675","0.0-42.0-0.0","57102519","wem/bandit_party_2","A2EAIMII6MSIO5","either","8","4179","","","","","","","0","0","1","0.2428949588","","0.6","0.4","0.8","0.2","","","","","0.3040937467","0.2428949588","0.6337563202","0.4468950172","","","","","","","","","","74","J","1","","","1","main_expt",""
"","bandit","81","328746","0.0-43.0-0.0","57102519","wem/bandit_party_2","A2EAIMII6MSIO5","either","8","535","","","","","","","0","0","1","","0.2687625136","0.6","0.4","0.8","0.2","0.2687625136","0.248961424","0.7380673114","0.3846124694","","","","","","","","","","","","","","72","H","0","img/none_selected.jpg","","2","main_expt",""
"","bandit","82","330612","0.0-44.0-0.0","57102519","wem/bandit_party_2","A2EAIMII6MSIO5","either","8","324","","","","","","","0","1","0","","0.3885967974","0.6","0.4","0.8","0.2","0.3017919557","0.1878604038","0.7715549737","0.3885967974","","","","","","","","","","","","","","76","L","3","","","3","main_expt",""
"","bandit","83","332607","0.0-45.0-0.0","57102519","wem/bandit_party_2","A2EAIMII6MSIO5","either","8","453","","","","","","","0","0","1","","0.8257013646","0.6","0.4","0.8","0.2","0.3388517529","0.1194049449","0.8257013646","0.2891644394","","","","","","","","","","","","","","75","K","2","","","4","main_expt",""
"","bandit","84","334538","0.0-46.0-0.0","57102519","wem/bandit_party_2","A2EAIMII6MSIO5","either","8","395","","","","","","","0","0","1","","0.2654579937","0.6","0.4","0.8","0.2","0.389096829","0.197046458","0.8617886559","0.2654579937","","","","","","","","","","","","","","76","L","3","","","5","main_expt",""
"","bandit","85","336526","0.0-47.0-0.0","57102519","wem/bandit_party_2","A2EAIMII6MSIO5","either","8","440","","","","","","","0","0","1","","0.2312720201","0.6","0.4","0.8","0.2","0.4799636182","0.2312720201","0.8452125903","0.355160999","","","","","","","","","","","","","","74","J","1","","","6","main_expt",""
"","bandit","86","338358","0.0-48.0-0.0","57102519","wem/bandit_party_2","A2EAIMII6MSIO5","either","8","304","","","","","","","1","0","0","0.5316557606","","0.6","0.4","0.8","0.2","","","","","0.5316557606","0.3255591742","0.8765288384","0.4733904832","","","","","","","","","","72","H","0","img/none_selected.jpg","","7","main_expt",""
"","bandit","87","340203","0.0-49.0-0.0","57102519","wem/bandit_party_2","A2EAIMII6MSIO5","either","8","313","","","","","","","0","0","1","","0.4935712437","0.6","0.4","0.8","0.2","0.4935712437","0.163151729","0.8625068071","0.4900136729","","","","","","","","","","","","","","72","H","0","img/none_selected.jpg","","8","main_expt",""
"","bandit","88","342056","0.0-50.0-0.0","57102519","wem/bandit_party_2","A2EAIMII6MSIO5","either","8","315","","","","","","","0","0","1","0.8385781597","","0.6","0.4","0.8","0.2","","","","","0.5400450001","0.1671639775","0.8385781597","0.4543552171","","","","","","","","","","75","K","2","","","9","main_expt",""
"","bandit","89","344699","0.0-51.0-0.0","57102519","wem/bandit_party_2","A2EAIMII6MSIO5","either","8","1061","","","","","","","0","1","0","","0.6510952772","0.6","0.4","0.8","0.2","0.6510952772","0.1315225434","0.833356221","0.4523920981","","","","","","","","","","","","","","72","H","0","img/none_selected.jpg","","10","main_expt",""
"","bandit","90","346604","0.0-52.0-0.0","57102519","wem/bandit_party_2","A2EAIMII6MSIO5","either","8","367","","","","","","","0","0","1","","0.1287002637","0.6","0.4","0.8","0.2","0.6117649901","0.1287002637","0.9030756702","0.4053083118","","","","","","","","","","","","","","74","J","1","","","11","main_expt",""
"","bandit","91","348656","0.0-53.0-0.0","57102519","wem/bandit_party_2","A2EAIMII6MSIO5","either","8","504","","","","","","","0","0","1","0.6360746298","","0.6","0.4","0.8","0.2","","","","","0.6360746298","0.1026596936","0.9129290363","0.4059907931","","","","","","","","","","72","H","0","img/none_selected.jpg","","12","main_expt",""
"","bandit","92","350479","0.0-54.0-0.0","57102519","wem/bandit_party_2","A2EAIMII6MSIO5","either","8","281","","","","","","","0","1","0","","0.2934167972","0.6","0.4","0.8","0.2","0.5673960652","0.1287514256","0.8638417716","0.2934167972","","","","","","","","","","","","","","76","L","3","","","13","main_expt",""
"","bandit","93","352414","0.0-55.0-0.0","57102519","wem/bandit_party_2","A2EAIMII6MSIO5","either","8","390","","","","","","","0","0","1","","0.3260927596","0.6","0.4","0.8","0.2","0.6747725803","0.1786171179","0.787806988","0.3260927596","","","","","","","","","","","","","","76","L","3","","","14","main_expt",""
"","bandit","94","354342","0.0-56.0-0.0","57102519","wem/bandit_party_2","A2EAIMII6MSIO5","either","8","379","","","","","","","0","0","1","","0.6277188345","0.6","0.4","0.8","0.2","0.6277188345","0.1459410532","0.7254212376","0.3355382734","","","","","","","","","","","","","","72","H","0","img/none_selected.jpg","","15","main_expt",""
"","bandit","95","356222","0.0-57.0-0.0","57102519","wem/bandit_party_2","A2EAIMII6MSIO5","either","8","338","","","","","","","1","0","0","0.3040928121","","0.6","0.4","0.8","0.2","","","","","0.5435568235","0.2255600906","0.7238415528","0.3040928121","","","","","","","","","","76","L","3","","","16","main_expt",""
"","bandit","96","358129","0.0-58.0-0.0","57102519","wem/bandit_party_2","A2EAIMII6MSIO5","either","8","366","","","","","","","0","0","1","0.2730366263","","0.6","0.4","0.8","0.2","","","","","0.4180161478","0.2052013943","0.7796243455","0.2730366263","","","","","","","","","","76","L","3","","","17","main_expt",""
"","bandit","97","360273","0.0-59.0-0.0","57102519","wem/bandit_party_2","A2EAIMII6MSIO5","either","8","617","","","","","","","0","0","1","0.1780354615","","0.6","0.4","0.8","0.2","","","","","0.4961111773","0.1780354615","0.6928902724","0.4105298721","","","","","","","","","","74","J","1","","","18","main_expt",""
"","bandit","98","362023","0.0-60.0-0.0","57102519","wem/bandit_party_2","A2EAIMII6MSIO5","either","8","209","","","","","","","1","0","0","0.7658630901","","0.6","0.4","0.8","0.2","","","","","0.445530788","0.1576496117","0.7658630901","0.3586923344","","","","","","","","","","75","K","2","","","19","main_expt",""
"","bandit","99","363904","0.0-61.0-0.0","57102519","wem/bandit_party_2","A2EAIMII6MSIO5","either","8","336","","","","","","","0","0","1","0.7584200513","","0.6","0.4","0.8","0.2","","","","","0.3443163705","0.1618752313","0.7584200513","0.3220075653","","","","","","","","","","75","K","2","","","20","main_expt",""
"","bandit","100","365518","0.0-62.0-0.0","57102519","wem/bandit_party_2","A2EAIMII6MSIO5","either","8","80","","","","","","","0","0","1","0.2152187387","","0.6","0.4","0.8","0.2","","","","","0.3012808647","0.2152187387","0.7727038765","0.2729660799","","","","","","","","","","74","J","1","","","21","main_expt",""
"","bandit","101","367937","0.0-63.0-0.0","57102519","wem/bandit_party_2","A2EAIMII6MSIO5","either","8","885","","","","","","","0","0","1","","0.2712352107","0.6","0.4","0.8","0.2","0.2882062485","0.3547982299","0.8152565923","0.2712352107","","","","","","","","","","","","","","76","L","3","","","22","main_expt",""
"","bandit","102","369718","0.0-64.0-0.0","57102519","wem/bandit_party_2","A2EAIMII6MSIO5","either","8","239","","","","","","","0","0","1","0.2113421372","","0.6","0.4","0.8","0.2","","","","","0.2113421372","0.323805638","0.7537075358","0.3390855774","","","","","","","","","","72","H","0","img/none_selected.jpg","","23","main_expt",""
"","bandit","103","371696","0.0-65.0-0.0","57102519","wem/bandit_party_2","A2EAIMII6MSIO5","either","8","438","","","","","","","0","0","1","0.7108822858","","0.6","0.4","0.8","0.2","","","","","0.2201805416","0.3588909826","0.7108822858","0.3483259141","","","","","","","","","","75","K","2","","","24","main_expt",""
"","bandit","104","373523","0.0-66.0-0.0","57102519","wem/bandit_party_2","A2EAIMII6MSIO5","either","8","287","","","","","","","0","1","0","","0.3885553436","0.6","0.4","0.8","0.2","0.2580956466","0.3885553436","0.6930515954","0.3416976173","","","","","","","","","","","","","","74","J","1","","","25","main_expt",""
"","bandit","105","375672","0.0-67.0-0.0","57102519","wem/bandit_party_2","A2EAIMII6MSIO5","either","8","623","","","","","","","0","0","1","0.4871556374","","0.6","0.4","0.8","0.2","","","","","0.2153432854","0.4871556374","0.6905393417","0.4243476322","","","","","","","","","","74","J","1","","","26","main_expt",""
"","bandit","106","377566","0.0-68.0-0.0","57102519","wem/bandit_party_2","A2EAIMII6MSIO5","either","8","348","","","","","","","0","0","1","","0.5257754898","0.6","0.4","0.8","0.2","0.1727955236","0.4934119911","0.7531652131","0.5257754898","","","","","","","","","","","","","","76","L","3","","","27","main_expt",""
"","bandit","107","379112","0.0-69.0-0.0","57102519","wem/bandit_party_2","A2EAIMII6MSIO5","either","8","10","","","","","","","0","1","0","","0.1894296703","0.6","0.4","0.8","0.2","0.1894296703","0.4322092846","0.8001777041","0.5246232361","","","","","","","","","","","","","","72","H","0","img/none_selected.jpg","","28","main_expt",""
"","bandit","108","381440","0.0-70.0-0.0","57102519","wem/bandit_party_2","A2EAIMII6MSIO5","either","8","787","","","","","","","0","0","1","","0.2128919211","0.6","0.4","0.8","0.2","0.2128919211","0.3459113699","0.8118404327","0.375994784","","","","","","","","","","","","","","72","H","0","img/none_selected.jpg","","29","main_expt",""
"","bandit","109","383723","0.0-71.0-0.0","57102519","wem/bandit_party_2","A2EAIMII6MSIO5","either","8","738","","","","","","","0","0","1","0.2936890161","","0.6","0.4","0.8","0.2","","","","","0.206056468","0.280789843","0.7839534503","0.2936890161","","","","","","","","","","76","L","3","","","30","main_expt",""
"","bandit","110","386074","0.0-72.0-0.0","57102519","wem/bandit_party_2","A2EAIMII6MSIO5","either","8","803","","","","","","","0","0","1","0.2613810438","","0.6","0.4","0.8","0.2","","","","","0.1725623241","0.2613810438","0.8066372971","0.2878812258","","","","","","","","","","74","J","1","","","31","main_expt",""
"","bandit","111","388326","0.0-73.0-0.0","57102519","wem/bandit_party_2","A2EAIMII6MSIO5","either","8","710","","","","","","","0","0","1","","0.1629883914","0.6","0.4","0.8","0.2","0.1629883914","0.3821585683","0.8049259064","0.2451492808","","","","","","","","","","","","","","72","H","0","img/none_selected.jpg","","32","main_expt",""
"","bandit","112","390391","0.0-74.0-0.0","57102519","wem/bandit_party_2","A2EAIMII6MSIO5","either","8","532","","","","","","","1","0","0","0.7891664673","","0.6","0.4","0.8","0.2","","","","","0.2107911223","0.2714925976","0.7891664673","0.2802113289","","","","","","","","","","75","K","2","","","33","main_expt",""
"","bandit","113","392417","0.0-75.0-0.0","57102519","wem/bandit_party_2","A2EAIMII6MSIO5","either","8","469","","","","","","","1","0","0","0.7854278051","","0.6","0.4","0.8","0.2","","","","","0.1025901997","0.2755575364","0.7854278051","0.2892342718","","","","","","","","","","75","K","2","","","34","main_expt",""
"","bandit","114","394591","0.0-76.0-0.0","57102519","wem/bandit_party_2","A2EAIMII6MSIO5","either","8","640","","","","","","","1","0","0","0.7260182018","","0.6","0.4","0.8","0.2","","","","","0.1289879153","0.2697856654","0.7260182018","0.2486893666","","","","","","","","","","75","K","2","","","35","main_expt",""
"","bandit","115","396794","0.0-77.0-0.0","57102519","wem/bandit_party_2","A2EAIMII6MSIO5","either","8","669","","","","","","","0","0","1","0.7910957192","","0.6","0.4","0.8","0.2","","","","","0.1645491317","0.2483646443","0.7910957192","0.3536408983","","","","","","","","","","75","K","2","","","36","main_expt",""
"","bandit","116","398728","0.0-78.0-0.0","57102519","wem/bandit_party_2","A2EAIMII6MSIO5","either","8","392","","","","","","","0","1","0","","0.2493566902","0.6","0.4","0.8","0.2","0.1698046746","0.2103950957","0.7996551039","0.2493566902","","","","","","","","","","","","","","76","L","3","","","37","main_expt",""
"","bandit","117","400666","0.0-79.0-0.0","57102519","wem/bandit_party_2","A2EAIMII6MSIO5","either","8","403","","","","","","","0","1","0","","0.2281502886","0.6","0.4","0.8","0.2","0.2281502886","0.2128944509","0.6717479894","0.2948354516","","","","","","","","","","","","","","72","H","0","img/none_selected.jpg","","38","main_expt",""
"","bandit","118","402558","0.0-80.0-0.0","57102519","wem/bandit_party_2","A2EAIMII6MSIO5","either","8","345","","","","","","","0","0","1","","0.3373274679","0.6","0.4","0.8","0.2","0.1561271762","0.2965153327","0.7121128808","0.3373274679","","","","","","","","","","","","","","76","L","3","","","39","main_expt",""
"","bandit","119","405176","0.0-81.0-0.0","57102519","wem/bandit_party_2","A2EAIMII6MSIO5","either","8","1064","","","","","","","0","1","0","","0.1543620621","0.6","0.4","0.8","0.2","0.1543620621","0.4447532253","0.7157410044","0.4138768052","","","","","","","","","","","","","","72","H","0","img/none_selected.jpg","","40","main_expt",""
"","bandit","120","407339","0.0-82.0-0.0","57102519","wem/bandit_party_2","A2EAIMII6MSIO5","either","8","620","","","","","","","1","0","0","0.2271499981","","0.6","0.4","0.8","0.2","","","","","0.2271499981","0.5330008696","0.681196038","0.438096834","","","","","","","","","","72","H","0","img/none_selected.jpg","","41","main_expt",""
"","bandit","121","410517","0.0-83.0-0.0","57102519","wem/bandit_party_2","A2EAIMII6MSIO5","either","8","1629","","","","","","","0","0","1","0.2882452936","","0.6","0.4","0.8","0.2","","","","","0.2882452936","0.573861049","0.6504320647","0.4185173612","","","","","","","","","","72","H","0","img/none_selected.jpg","","42","main_expt",""
"","bandit","122","412552","0.0-84.0-0.0","57102519","wem/bandit_party_2","A2EAIMII6MSIO5","either","8","490","","","","","","","0","0","1","0.6654349765","","0.6","0.4","0.8","0.2","","","","","0.298522686","0.6654349765","0.7369830744","0.3796335567","","","","","","","","","","74","J","1","","","43","main_expt",""
"","bandit","123","414455","0.0-85.0-0.0","57102519","wem/bandit_party_2","A2EAIMII6MSIO5","either","8","352","","","","","","","0","0","1","","0.31766129","0.6","0.4","0.8","0.2","0.3188886026","0.691198465","0.6797935378","0.31766129","","","","","","","","","","","","","","76","L","3","","","44","main_expt",""
"","bandit","124","416178","0.0-86.0-0.0","57102519","wem/bandit_party_2","A2EAIMII6MSIO5","either","8","182","","","","","","","0","1","0","","0.6507473666","0.6","0.4","0.8","0.2","0.2705760174","0.7652674903","0.6507473666","0.4047397141","","","","","","","","","","","","","","75","K","2","","","45","main_expt",""
"","bandit","125","417867","0.0-87.0-0.0","57102519","wem/bandit_party_2","A2EAIMII6MSIO5","either","8","140","","","","","","","0","0","1","0.6334510787","","0.6","0.4","0.8","0.2","","","","","0.2506880939","0.8065230058","0.6334510787","0.4961613307","","","","","","","","","","75","K","2","","","46","main_expt",""
"","bandit","126","420685","0.0-88.0-0.0","57102519","wem/bandit_party_2","A2EAIMII6MSIO5","either","8","1270","","","","","","","0","0","1","0.2491585872","","0.6","0.4","0.8","0.2","","","","","0.2491585872","0.7774474893","0.6143175143","0.4624468315","","","","","","","","","","72","H","0","img/none_selected.jpg","","47","main_expt",""
"","bandit","127","422500","0.0-89.0-0.0","57102519","wem/bandit_party_2","A2EAIMII6MSIO5","either","8","268","","","","","","","1","0","0","0.7693176975","","0.6","0.4","0.8","0.2","","","","","0.1997021219","0.7693176975","0.6404512611","0.4886537242","","","","","","","","","","74","J","1","","","48","main_expt",""
"","bandit","128","424412","0.0-90.0-0.0","57102519","wem/bandit_party_2","A2EAIMII6MSIO5","either","8","373","","","","","","","1","0","0","0.807419373","","0.6","0.4","0.8","0.2","","","","","0.2119577724","0.807419373","0.6758621215","0.4270302022","","","","","","","","","","74","J","1","","","49","main_expt",""
"","bandit","129","427070","0.0-91.0-0.0","57102519","wem/bandit_party_2","A2EAIMII6MSIO5","either","8","1120","","","","","","","0","1","0","","0.8562769227","0.6","0.4","0.8","0.2","0.2615271711","0.8562769227","0.6873234502","0.5151345658","","","","","","","","","","","","","","74","J","1","","","50","main_expt",""
"","bandit","130","429001","0.0-92.0-0.0","57102519","wem/bandit_party_2","A2EAIMII6MSIO5","either","8","384","","","","","","","0","0","1","","0.5134524181","0.6","0.4","0.8","0.2","0.2764427577","0.8705114925","0.7776044395","0.5134524181","","","","","","","","","","","","","","76","L","3","","","51","main_expt",""
"","bandit","131","431260","0.0-93.0-0.0","57102519","wem/bandit_party_2","A2EAIMII6MSIO5","either","8","716","","","","","","","1","0","0","0.9310361031","","0.6","0.4","0.8","0.2","","","","","0.3833776697","0.9310361031","0.8403410939","0.4842684999","","","","","","","","","","74","J","1","","","52","main_expt",""
"","bandit","132","433064","0.0-94.0-0.0","57102519","wem/bandit_party_2","A2EAIMII6MSIO5","either","8","274","","","","","","","1","0","0","0.905794742","","0.6","0.4","0.8","0.2","","","","","0.4356502318","0.905794742","0.8151983534","0.4412850773","","","","","","","","","","74","J","1","","","53","main_expt",""
"","bandit","133","435721","0.0-95.0-0.0","57102519","wem/bandit_party_2","A2EAIMII6MSIO5","either","8","1123","","","","","","","0","1","0","","0.9391541593","0.6","0.4","0.8","0.2","0.4120588364","0.9391541593","0.8081222638","0.4397693946","","","","","","","","","","","","","","74","J","1","","","54","main_expt",""
"","bandit","134","437694","0.0-96.0-0.0","57102519","wem/bandit_party_2","A2EAIMII6MSIO5","either","8","432","","","","","","","1","0","0","0.742009976","","0.6","0.4","0.8","0.2","","","","","0.2714296105","0.9596285882","0.742009976","0.3928202278","","","","","","","","","","75","K","2","","","55","main_expt",""
"","bandit","135","439531","0.0-97.0-0.0","57102519","wem/bandit_party_2","A2EAIMII6MSIO5","either","8","314","","","","","","","1","0","0","0.7065076074","","0.6","0.4","0.8","0.2","","","","","0.2122311877","0.9565658233","0.7065076074","0.4593665993","","","","","","","","","","75","K","2","","","56","main_expt",""
"","bandit","136","441590","0.0-98.0-0.0","57102519","wem/bandit_party_2","A2EAIMII6MSIO5","either","8","515","","","","","","","1","0","0","0.6860695476","","0.6","0.4","0.8","0.2","","","","","0.2282278588","0.9681540372","0.6860695476","0.4006145211","","","","","","","","","","75","K","2","","","57","main_expt",""
"","bandit","137","443768","0.0-99.0-0.0","57102519","wem/bandit_party_2","A2EAIMII6MSIO5","either","8","636","","","","","","","1","0","0","0.742301155","","0.6","0.4","0.8","0.2","","","","","0.1392076118","0.9207083952","0.742301155","0.4597890412","","","","","","","","","","75","K","2","","","58","main_expt",""
"","bandit","138","445710","0.0-100.0-0.0","57102519","wem/bandit_party_2","A2EAIMII6MSIO5","either","8","390","","","","","","","0","1","0","","0.5291004622","0.6","0.4","0.8","0.2","0.1706239206","0.9178227258","0.5291004622","0.4232266093","","","","","","","","","","","","","","75","K","2","","","59","main_expt",""
"","bandit","139","447648","0.0-101.0-0.0","57102519","wem/bandit_party_2","A2EAIMII6MSIO5","either","8","394","","","","","","","1","0","0","0.6348838793","","0.6","0.4","0.8","0.2","","","","","0.1674269281","0.8951285427","0.6348838793","0.3565880291","","","","","","","","","","75","K","2","","","60","main_expt",""
"","bandit","140","449678","0.0-102.0-0.0","57102519","wem/bandit_party_2","A2EAIMII6MSIO5","either","8","484","","","","","","","1","0","0","0.6796423313","","0.6","0.4","0.8","0.2","","","","","0.2182313474","0.8506814954","0.6796423313","0.3663276413","","","","","","","","","","75","K","2","","","61","main_expt",""
"","bandit","141","451665","0.0-103.0-0.0","57102519","wem/bandit_party_2","A2EAIMII6MSIO5","either","8","435","","","","","","","1","0","0","0.6928172916","","0.6","0.4","0.8","0.2","","","","","0.2949218256","0.8513854559","0.6928172916","0.3193005293","","","","","","","","","","75","K","2","","","62","main_expt",""
"","bandit","142","453852","0.0-104.0-0.0","57102519","wem/bandit_party_2","A2EAIMII6MSIO5","either","8","637","","","","","","","1","0","0","0.6996506825","","0.6","0.4","0.8","0.2","","","","","0.3170222383","0.8927579502","0.6996506825","0.1562068481","","","","","","","","","","75","K","2","","","63","main_expt",""
"","bandit","143","455998","0.0-105.0-0.0","57102519","wem/bandit_party_2","A2EAIMII6MSIO5","either","8","612","","","","","","","0","0","1","0.7294442249","","0.6","0.4","0.8","0.2","","","","","0.3033511374","0.9217936765","0.7294442249","0.2300477965","","","","","","","","","","75","K","2","","","64","main_expt",""
"","bandit","144","457913","0.0-106.0-0.0","57102519","wem/bandit_party_2","A2EAIMII6MSIO5","either","8","377","","","","","","","0","1","0","","0.9357047413","0.6","0.4","0.8","0.2","0.3973690147","0.9357047413","0.6605354899","0.2869838185","","","","","","","","","","","","","","74","J","1","","","65","main_expt",""
"","bandit","145","459924","0.0-107.0-0.0","57102519","wem/bandit_party_2","A2EAIMII6MSIO5","either","8","462","","","","","","","0","1","0","","0.910343843","0.6","0.4","0.8","0.2","0.4320294497","0.910343843","0.6959621059","0.3287476356","","","","","","","","","","","","","","74","J","1","","","66","main_expt",""
"","bandit","146","462144","0.0-108.0-0.0","57102519","wem/bandit_party_2","A2EAIMII6MSIO5","either","8","672","","","","","","","1","0","0","0.9022080512","","0.6","0.4","0.8","0.2","","","","","0.3208465419","0.9022080512","0.653899752","0.3018365728","","","","","","","","","","74","J","1","","","67","main_expt",""
"","bandit","147","464098","0.0-109.0-0.0","57102519","wem/bandit_party_2","A2EAIMII6MSIO5","either","8","406","","","","","","","0","0","1","","0.8492414063","0.6","0.4","0.8","0.2","0.3570730799","0.8492414063","0.6517851336","0.3208616414","","","","","","","","","","","","","","74","J","1","","","68","main_expt",""
"","bandit","148","465915","0.0-110.0-0.0","57102519","wem/bandit_party_2","A2EAIMII6MSIO5","either","8","272","","","","","","","0","0","1","","0.3451514791","0.6","0.4","0.8","0.2","0.3451514791","0.768219052","0.7011615004","0.386863802","","","","","","","","","","","","","","72","H","0","img/none_selected.jpg","","69","main_expt",""
"","bandit","149","467481","0.0-111.0-0.0","57102519","wem/bandit_party_2","A2EAIMII6MSIO5","either","8","25","","","","","","","0","0","1","","0.3628244161","0.6","0.4","0.8","0.2","0.3127714871","0.7996218848","0.6278947594","0.3628244161","","","","","","","","","","","","","","76","L","3","","","70","main_expt",""
"","bandit","150","469316","0.0-112.0-0.0","57102519","wem/bandit_party_2","A2EAIMII6MSIO5","either","8","292","","","","","","","0","0","1","","0.2969295023","0.6","0.4","0.8","0.2","0.3855297895","0.9130189757","0.688517509","0.2969295023","","","","","","","","","","","","","","76","L","3","","","71","main_expt",""
"","bandit","151","471200","0.0-113.0-0.0","57102519","wem/bandit_party_2","A2EAIMII6MSIO5","either","8","335","","","","","","","0","1","0","","0.9016843832","0.6","0.4","0.8","0.2","0.3555010044","0.9016843832","0.6125440106","0.3512325323","","","","","","","","","","","","","","74","J","1","","","72","main_expt",""
"","bandit","152","473085","0.0-114.0-0.0","57102519","wem/bandit_party_2","A2EAIMII6MSIO5","either","8","337","","","","","","","1","0","0","0.9166584401","","0.6","0.4","0.8","0.2","","","","","0.3278360739","0.9166584401","0.4884410468","0.3845321254","","","","","","","","","","74","J","1","","","73","main_expt",""
"","bandit","153","474708","0.0-115.0-0.0","57102519","wem/bandit_party_2","A2EAIMII6MSIO5","either","8","101","","","","","","","0","1","0","","0.8699410266","0.6","0.4","0.8","0.2","0.3275161349","0.8699410266","0.5800760741","0.3760614253","","","","","","","","","","","","","","74","J","1","","","74","main_expt",""
"","bandit","154","478457","0.0-116.0-0.0","57102519","wem/bandit_party_2","A2EAIMII6MSIO5","either","8","2196","","","","","","","0","1","0","","0.6614390465","0.6","0.4","0.8","0.2","0.3454333807","0.8192171788","0.6614390465","0.370831352","","","","","","","","","","","","","","75","K","2","","","75","main_expt",""
"","bandit","155","480299","0.0-117.0-0.0","57102519","wem/bandit_party_2","A2EAIMII6MSIO5","either","8","293","","","","","","","1","0","0","0.6861570843","","0.6","0.4","0.8","0.2","","","","","0.4213924804","0.8990587115","0.6861570843","0.4008199491","","","","","","","","","","75","K","2","","","76","main_expt",""
"","bandit","156","482341","0.0-118.0-0.0","57102519","wem/bandit_party_2","A2EAIMII6MSIO5","either","8","499","","","","","","","0","0","1","0.5980737028","","0.6","0.4","0.8","0.2","","","","","0.439510692","0.9062137116","0.5980737028","0.3928984844","","","","","","","","","","75","K","2","","","77","main_expt",""
"","bandit","157","484753","0.0-119.0-0.0","57102519","wem/bandit_party_2","A2EAIMII6MSIO5","either","8","865","","","","","","","0","0","1","0.6754083514","","0.6","0.4","0.8","0.2","","","","","0.4419424199","0.9215914722","0.6754083514","0.4709058574","","","","","","","","","","75","K","2","","","78","main_expt",""
"","bandit","158","486343","0.0-120.0-0.0","57102519","wem/bandit_party_2","A2EAIMII6MSIO5","either","8","48","","","","","","","0","1","0","","0.895443078","0.6","0.4","0.8","0.2","0.5056762283","0.895443078","0.7012934339","0.4971614577","","","","","","","","","","","","","","74","J","1","","","79","main_expt",""
"","bandit","159","488305","0.0-121.0-0.0","57102519","wem/bandit_party_2","A2EAIMII6MSIO5","either","8","429","","","","","","","1","0","0","0.7789772955","","0.6","0.4","0.8","0.2","","","","","0.4558190996","0.7789772955","0.7067798052","0.4828267768","","","","","","","","","","74","J","1","","","80","main_expt",""
"","bandit","160","490114","0.0-122.0-0.0","57102519","wem/bandit_party_2","A2EAIMII6MSIO5","either","8","281","","","","","","","0","1","0","","0.755426824","0.6","0.4","0.8","0.2","0.4774921548","0.755426824","0.7259433061","0.4280570329","","","","","","","","","","","","","","74","J","1","","","81","main_expt",""
"","bandit","161","492187","0.0-123.0-0.0","57102519","wem/bandit_party_2","A2EAIMII6MSIO5","either","8","534","","","","","","","0","1","0","","0.8356426425","0.6","0.4","0.8","0.2","0.3611036613","0.8356426425","0.7022130872","0.486136241","","","","","","","","","","","","","","74","J","1","","","82","main_expt",""
"","bandit","162","494313","0.0-124.0-0.0","57102519","wem/bandit_party_2","A2EAIMII6MSIO5","either","8","576","","","","","","","1","0","0","0.8783145762","","0.6","0.4","0.8","0.2","","","","","0.3341354767","0.8783145762","0.75927227","0.3539143083","","","","","","","","","","74","J","1","","","83","main_expt",""
"","bandit","163","495884","0.0-125.0-0.0","57102519","wem/bandit_party_2","A2EAIMII6MSIO5","either","8","31","","","","","","","0","1","0","","0.9087743635","0.6","0.4","0.8","0.2","0.288479151","0.9087743635","0.8556046088","0.374811954","","","","","","","","","","","","","","74","J","1","","","84","main_expt",""
"","bandit","164","498046","0.0-126.0-0.0","57102519","wem/bandit_party_2","A2EAIMII6MSIO5","either","8","610","","","","","","","1","0","0","0.8632011641","","0.6","0.4","0.8","0.2","","","","","0.3061923995","0.8632011641","0.7835234447","0.4518264681","","","","","","","","","","74","J","1","","","85","main_expt",""
"","bandit","165","500236","0.0-127.0-0.0","57102519","wem/bandit_party_2","A2EAIMII6MSIO5","either","8","634","","","","","","","0","1","0","","0.8341253046","0.6","0.4","0.8","0.2","0.3370204437","0.8341253046","0.7037548709","0.461936863","","","","","","","","","","","","","","74","J","1","","","86","main_expt",""
"","bandit","166","502259","0.0-128.0-0.0","57102519","wem/bandit_party_2","A2EAIMII6MSIO5","either","8","474","","","","","","","1","0","0","0.8728746981","","0.6","0.4","0.8","0.2","","","","","0.3900809043","0.8728746981","0.6903674631","0.3681660755","","","","","","","","","","74","J","1","","","87","main_expt",""
"","bandit","167","505797","0.0-129.0-0.0","57102519","wem/bandit_party_2","A2EAIMII6MSIO5","either","8","1978","","","","","","","0","0","1","","0.8408980459","0.6","0.4","0.8","0.2","0.4296615172","0.8408980459","0.5883284312","0.3788462328","","","","","","","","","","","","","","74","J","1","","","88","main_expt",""
"","bandit","168","507709","0.0-130.0-0.0","57102519","wem/bandit_party_2","A2EAIMII6MSIO5","either","8","357","","","","","","","1","0","0","0.4636560077","","0.6","0.4","0.8","0.2","","","","","0.4636560077","0.8585781628","0.5258490985","0.3316952272","","","","","","","","","","72","H","0","img/none_selected.jpg","","89","main_expt",""
"","bandit","169","510541","0.0-131.0-0.0","57102519","wem/bandit_party_2","A2EAIMII6MSIO5","either","8","1280","","","","","","","1","0","0","0.4463585346","","0.6","0.4","0.8","0.2","","","","","0.4463585346","0.925840658","0.6395041767","0.438068917","","","","","","","","","","72","H","0","img/none_selected.jpg","","90","main_expt",""
"","bandit","170","512456","0.0-132.0-0.0","57102519","wem/bandit_party_2","A2EAIMII6MSIO5","either","8","379","","","","","","","0","0","1","0.4734463503","","0.6","0.4","0.8","0.2","","","","","0.4734463503","0.9201841885","0.6931091445","0.5158843935","","","","","","","","","","72","H","0","img/none_selected.jpg","","91","main_expt",""
"","bandit","171","514797","0.0-133.0-0.0","57102519","wem/bandit_party_2","A2EAIMII6MSIO5","either","8","790","","","","","","","0","0","1","","0.5182757575","0.6","0.4","0.8","0.2","0.5248255385","0.8508076908","0.6725373887","0.5182757575","","","","","","","","","","","","","","76","L","3","","","92","main_expt",""
"","bandit","172","516913","0.0-134.0-0.0","57102519","wem/bandit_party_2","A2EAIMII6MSIO5","either","8","566","","","","","","","0","1","0","","0.7388835399","0.6","0.4","0.8","0.2","0.3386726181","0.8106711147","0.7388835399","0.5498130742","","","","","","","","","","","","","","75","K","2","","","93","main_expt",""
"","bandit","173","519502","0.0-135.0-0.0","57102519","wem/bandit_party_2","A2EAIMII6MSIO5","either","8","1031","","","","","","","0","0","1","0.697373586","","0.6","0.4","0.8","0.2","","","","","0.3718894848","0.8543263914","0.697373586","0.6049407638","","","","","","","","","","75","K","2","","","94","main_expt",""
"","bandit","174","521914","0.0-136.0-0.0","57102519","wem/bandit_party_2","A2EAIMII6MSIO5","either","8","861","","","","","","","0","0","1","","0.6604115927","0.6","0.4","0.8","0.2","0.4005278521","0.8387782901","0.7550322224","0.6604115927","","","","","","","","","","","","","","76","L","3","","","95","main_expt",""
"","bandit","175","523617","0.0-137.0-0.0","57102519","wem/bandit_party_2","A2EAIMII6MSIO5","either","8","155","","","","","","","0","1","0","","0.6576962358","0.6","0.4","0.8","0.2","0.3694595514","0.8208071174","0.6576962358","0.7003847986","","","","","","","","","","","","","","75","K","2","","","96","main_expt",""
"","bandit","176","526046","0.0-138.0-0.0","57102519","wem/bandit_party_2","A2EAIMII6MSIO5","either","8","878","","","","","","","1","0","0","0.6802484638","","0.6","0.4","0.8","0.2","","","","","0.3186037095","0.765358829","0.6802484638","0.6793148949","","","","","","","","","","75","K","2","","","97","main_expt",""
"","bandit","177","528695","0.0-139.0-0.0","57102519","wem/bandit_party_2","A2EAIMII6MSIO5","either","8","1091","","","","","","","0","0","1","0.7042077447","","0.6","0.4","0.8","0.2","","","","","0.2786717818","0.7823463211","0.7042077447","0.6204607354","","","","","","","","","","75","K","2","","","98","main_expt",""
"","bandit","178","530569","0.0-140.0-0.0","57102519","wem/bandit_party_2","A2EAIMII6MSIO5","either","8","328","","","","","","","0","0","1","0.7523003034","","0.6","0.4","0.8","0.2","","","","","0.32929866","0.7523003034","0.7355617892","0.6166262367","","","","","","","","","","74","J","1","","","99","main_expt",""
"","bandit","179","532410","0.0-141.0-0.0","57102519","wem/bandit_party_2","A2EAIMII6MSIO5","either","8","289","","","","","","","0","0","1","","0.3115323478","0.6","0.4","0.8","0.2","0.3115323478","0.7174790615","0.7117411671","0.5347115766","","","","","","","","","","","","","","72","H","0","img/none_selected.jpg","","100","main_expt",""
"","bandit","180","534744","0.0-142.0-0.0","57102519","wem/bandit_party_2","A2EAIMII6MSIO5","either","8","782","","","","","","","1","0","0","0.7263903312","","0.6","0.4","0.8","0.2","","","","","0.4221749579","0.7660578318","0.7263903312","0.3418016043","","","","","","","","","","75","K","2","","","101","main_expt",""
"","bandit","181","536636","0.0-143.0-0.0","57102519","wem/bandit_party_2","A2EAIMII6MSIO5","either","8","347","","","","","","","1","0","0","0.7357346189","","0.6","0.4","0.8","0.2","","","","","0.2718078598","0.7201180075","0.7357346189","0.2550922237","","","","","","","","","","75","K","2","","","102","main_expt",""
"","bandit","182","538638","0.0-144.0-0.0","57102519","wem/bandit_party_2","A2EAIMII6MSIO5","either","8","455","","","","","","","0","0","1","0.7026134783","","0.6","0.4","0.8","0.2","","","","","0.3011307106","0.8452780714","0.7026134783","0.3181696353","","","","","","","","","","75","K","2","","","103","main_expt",""
"","bandit","183","540712","0.0-145.0-0.0","57102519","wem/bandit_party_2","A2EAIMII6MSIO5","either","8","534","","","","","","","0","0","1","0.7236924273","","0.6","0.4","0.8","0.2","","","","","0.3659291838","0.7236924273","0.8073666152","0.3383579412","","","","","","","","","","74","J","1","","","104","main_expt",""
"","bandit","184","542706","0.0-146.0-0.0","57102519","wem/bandit_party_2","A2EAIMII6MSIO5","either","8","446","","","","","","","1","0","0","0.824483439","","0.6","0.4","0.8","0.2","","","","","0.3499435223","0.743719778","0.824483439","0.2354673658","","","","","","","","","","75","K","2","","","105","main_expt",""
"","bandit","185","544635","0.0-147.0-0.0","57102519","wem/bandit_party_2","A2EAIMII6MSIO5","either","8","382","","","","","","","0","0","1","0.9208810438","","0.6","0.4","0.8","0.2","","","","","0.3602262465","0.7985687284","0.9208810438","0.159398249","","","","","","","","","","75","K","2","","","106","main_expt",""
"","bandit","186","546605","0.0-148.0-0.0","57102519","wem/bandit_party_2","A2EAIMII6MSIO5","either","8","419","","","","","","","0","0","1","0.3252215163","","0.6","0.4","0.8","0.2","","","","","0.3252215163","0.799345197","0.8911910097","0.1295169146","","","","","","","","","","72","H","0","img/none_selected.jpg","","107","main_expt",""
"","bandit","187","548700","0.0-149.0-0.0","57102519","wem/bandit_party_2","A2EAIMII6MSIO5","either","8","563","","","","","","","0","0","1","","0.07754053308","0.6","0.4","0.8","0.2","0.2812406992","0.8681690713","0.8450149587","0.07754053308","","","","","","","","","","","","","","76","L","3","","","108","main_expt",""
"","bandit","188","550545","0.0-150.0-0.0","57102519","wem/bandit_party_2","A2EAIMII6MSIO5","either","8","308","","","","","","","1","0","0","0.868327257","","0.6","0.4","0.8","0.2","","","","","0.2559497519","0.8556732204","0.868327257","0.06591215473","","","","","","","","","","75","K","2","","","109","main_expt",""
"","bandit","189","552555","0.0-151.0-0.0","57102519","wem/bandit_party_2","A2EAIMII6MSIO5","either","8","458","","","","","","","1","0","0","0.8868335222","","0.6","0.4","0.8","0.2","","","","","0.2817400418","0.8669893864","0.8868335222","0.1189546392","","","","","","","","","","75","K","2","","","110","main_expt",""
"","bandit","190","554901","0.0-152.0-0.0","57102519","wem/bandit_party_2","A2EAIMII6MSIO5","either","8","788","","","","","","","1","0","0","0.8770728171","","0.6","0.4","0.8","0.2","","","","","0.2773620367","0.799383849","0.8770728171","0.09523351692","","","","","","","","","","75","K","2","","","111","main_expt",""
"","bandit","191","556829","0.0-153.0-0.0","57102519","wem/bandit_party_2","A2EAIMII6MSIO5","either","8","383","","","","","","","1","0","0","0.8481710002","","0.6","0.4","0.8","0.2","","","","","0.2833316415","0.859799476","0.8481710002","0.107489667","","","","","","","","","","75","K","2","","","112","main_expt",""
"","bandit","192","560039","0.0-154.0-0.0","57102519","wem/bandit_party_2","A2EAIMII6MSIO5","either","8","1675","","","","","","","1","0","0","0.8573528835","","0.6","0.4","0.8","0.2","","","","","0.3433702059","0.7932436089","0.8573528835","0.1026187258","","","","","","","","","","75","K","2","","","113","main_expt",""
"","bandit","193","562203","0.0-155.0-0.0","57102519","wem/bandit_party_2","A2EAIMII6MSIO5","either","8","616","","","","","","","1","0","0","0.8291807482","","0.6","0.4","0.8","0.2","","","","","0.4828882278","0.849407262","0.8291807482","0.1044839951","","","","","","","","","","75","K","2","","","114","main_expt",""
"","bandit","194","563882","0.0-156.0-0.0","57102519","wem/bandit_party_2","A2EAIMII6MSIO5","either","8","135","","","","","","","1","0","0","0.761972944","","0.6","0.4","0.8","0.2","","","","","0.54932579","0.8882716547","0.761972944","0.1213931844","","","","","","","","","","75","K","2","","","115","main_expt",""
"","bandit","195","565594","0.0-157.0-0.0","57102519","wem/bandit_party_2","A2EAIMII6MSIO5","either","8","175","","","","","","","0","1","0","","0.786197192","0.6","0.4","0.8","0.2","0.6971345968","0.8741354715","0.786197192","0.1184144227","","","","","","","","","","","","","","75","K","2","","","116","main_expt",""
"","bandit","196","567886","0.0-158.0-0.0","57102519","wem/bandit_party_2","A2EAIMII6MSIO5","either","8","744","","","","","","","1","0","0","0.7834453561","","0.6","0.4","0.8","0.2","","","","","0.5396272374","0.8083823922","0.7834453561","0.1983931569","","","","","","","","","","75","K","2","","","117","main_expt",""
"","bandit","197","570238","0.0-159.0-0.0","57102519","wem/bandit_party_2","A2EAIMII6MSIO5","either","8","801","","","","","","","1","0","0","0.6742380839","","0.6","0.4","0.8","0.2","","","","","0.5544567993","0.868525306","0.6742380839","0.2840039584","","","","","","","","","","75","K","2","","","118","main_expt",""
"","bandit","198","572422","0.0-160.0-0.0","57102519","wem/bandit_party_2","A2EAIMII6MSIO5","either","8","635","","","","","","","0","0","1","","0.7350700153","0.6","0.4","0.8","0.2","0.5504896642","0.8386471998","0.7350700153","0.3563325119","","","","","","","","","","","","","","75","K","2","","","119","main_expt",""
"","bandit","199","574558","0.0-161.0-0.0","57102519","wem/bandit_party_2","A2EAIMII6MSIO5","either","8","582","","","","","","","0","1","0","","0.8103559508","0.6","0.4","0.8","0.2","0.5812137135","0.8103559508","0.70601835","0.5682387565","","","","","","","","","","","","","","74","J","1","","","120","main_expt",""
"","bandit","200","576789","0.0-162.0-0.0","57102519","wem/bandit_party_2","A2EAIMII6MSIO5","either","8","688","","","","","","","0","1","0","","0.8193015173","0.6","0.4","0.8","0.2","0.6033058466","0.8193015173","0.7347719752","0.5189107771","","","","","","","","","","","","","","74","J","1","","","121","main_expt",""
"","bandit","201","578815","0.0-163.0-0.0","57102519","wem/bandit_party_2","A2EAIMII6MSIO5","either","8","480","","","","","","","0","0","1","","0.8025146027","0.6","0.4","0.8","0.2","0.6102220397","0.8025146027","0.8270923978","0.4428493372","","","","","","","","","","","","","","74","J","1","","","122","main_expt",""
"","bandit","202","582374","0.0-164.0-0.0","57102519","wem/bandit_party_2","A2EAIMII6MSIO5","either","8","2010","","","","","","","1","0","0","0.6108151959","","0.6","0.4","0.8","0.2","","","","","0.6108151959","0.8121847492","0.7980631313","0.472724465","","","","","","","","","","72","H","0","img/none_selected.jpg","","123","main_expt",""
"","bandit","203","584311","0.0-165.0-0.0","57102519","wem/bandit_party_2","A2EAIMII6MSIO5","either","8","382","","","","","","","1","0","0","0.7117385939","","0.6","0.4","0.8","0.2","","","","","0.7117385939","0.8299418439","0.7369852887","0.4799585558","","","","","","","","","","72","H","0","img/none_selected.jpg","","124","main_expt",""
"","bandit","204","586523","0.0-166.0-0.0","57102519","wem/bandit_party_2","A2EAIMII6MSIO5","either","8","662","","","","","","","0","1","0","","0.7554186078","0.6","0.4","0.8","0.2","0.7554186078","0.825688343","0.7465944313","0.5080184993","","","","","","","","","","","","","","72","H","0","img/none_selected.jpg","","125","main_expt",""
"","bandit","205","588674","0.0-167.0-0.0","57102519","wem/bandit_party_2","A2EAIMII6MSIO5","either","8","607","","","","","","","1","0","0","0.8855751833","","0.6","0.4","0.8","0.2","","","","","0.8855751833","0.8372054396","0.7596834852","0.4555098289","","","","","","","","","","72","H","0","img/none_selected.jpg","","126","main_expt",""
"","bandit","206","590597","0.0-168.0-0.0","57102519","wem/bandit_party_2","A2EAIMII6MSIO5","either","8","387","","","","","","","1","0","0","0.8003015049","","0.6","0.4","0.8","0.2","","","","","0.8003015049","0.7906689898","0.7398299979","0.5475411796","","","","","","","","","","72","H","0","img/none_selected.jpg","","127","main_expt",""
"","bandit","207","593445","0.0-169.0-0.0","57102519","wem/bandit_party_2","A2EAIMII6MSIO5","either","8","1295","","","","","","","1","0","0","0.8403113951","","0.6","0.4","0.8","0.2","","","","","0.8403113951","0.8008571507","0.7764866849","0.612647382","","","","","","","","","","72","H","0","img/none_selected.jpg","","128","main_expt",""
"","bandit","208","595754","0.0-170.0-0.0","57102519","wem/bandit_party_2","A2EAIMII6MSIO5","either","8","760","","","","","","","1","0","0","0.8826872071","","0.6","0.4","0.8","0.2","","","","","0.8826872071","0.7829297973","0.6435675963","0.7128970287","","","","","","","","","","72","H","0","img/none_selected.jpg","","129","main_expt",""
"","bandit","209","597851","0.0-171.0-0.0","57102519","wem/bandit_party_2","A2EAIMII6MSIO5","either","8","541","","","","","","","1","0","0","0.8641000085","","0.6","0.4","0.8","0.2","","","","","0.8641000085","0.6898445721","0.7030252038","0.7309911721","","","","","","","","","","72","H","0","img/none_selected.jpg","","130","main_expt",""
"","bandit","210","600370","0.0-172.0-0.0","57102519","wem/bandit_party_2","A2EAIMII6MSIO5","either","8","962","","","","","","","0","1","0","","0.8752037592","0.6","0.4","0.8","0.2","0.8752037592","0.5864867529","0.6829232191","0.73180147","","","","","","","","","","","","","","72","H","0","img/none_selected.jpg","","131","main_expt",""
"","bandit","211","602592","0.0-173.0-0.0","57102519","wem/bandit_party_2","A2EAIMII6MSIO5","either","8","666","","","","","","","1","0","0","0.8279556795","","0.6","0.4","0.8","0.2","","","","","0.8279556795","0.560122833","0.7406452387","0.8467134838","","","","","","","","","","72","H","0","img/none_selected.jpg","","132","main_expt",""
"","bandit","212","604233","0.0-174.0-0.0","57102519","wem/bandit_party_2","A2EAIMII6MSIO5","either","8","90","","","","","","","0","1","0","","0.8194722428","0.6","0.4","0.8","0.2","0.8194722428","0.48439517","0.6666234363","0.8481264083","","","","","","","","","","","","","","72","H","0","img/none_selected.jpg","","133","main_expt",""
"","bandit","213","606563","0.0-175.0-0.0","57102519","wem/bandit_party_2","A2EAIMII6MSIO5","either","8","768","","","","","","","1","0","0","0.8037084922","","0.6","0.4","0.8","0.2","","","","","0.8037084922","0.3919863126","0.680542061","0.8771050955","","","","","","","","","","72","H","0","img/none_selected.jpg","","134","main_expt",""
"","bandit","214","608262","0.0-176.0-0.0","57102519","wem/bandit_party_2","A2EAIMII6MSIO5","either","8","160","","","","","","","1","0","0","0.8155916457","","0.6","0.4","0.8","0.2","","","","","0.8155916457","0.5174750093","0.7006187635","0.9103241533","","","","","","","","","","72","H","0","img/none_selected.jpg","","135","main_expt",""
"","bandit","215","610761","0.0-177.0-0.0","57102519","wem/bandit_party_2","A2EAIMII6MSIO5","either","8","941","","","","","","","1","0","0","0.8281957705","","0.6","0.4","0.8","0.2","","","","","0.8281957705","0.4264762493","0.6936815578","0.9126032517","","","","","","","","","","72","H","0","img/none_selected.jpg","","136","main_expt",""
"","bandit","216","613602","0.0-178.0-0.0","57102519","wem/bandit_party_2","A2EAIMII6MSIO5","either","8","1286","","","","","","","1","0","0","0.7055403129","","0.6","0.4","0.8","0.2","","","","","0.7055403129","0.5351999402","0.6531428085","0.8983360858","","","","","","","","","","72","H","0","img/none_selected.jpg","","137","main_expt",""
"","bandit","217","615920","0.0-179.0-0.0","57102519","wem/bandit_party_2","A2EAIMII6MSIO5","either","8","762","","","","","","","1","0","0","0.6884351598","","0.6","0.4","0.8","0.2","","","","","0.6884351598","0.4758748922","0.6769758131","0.8851370462","","","","","","","","","","72","H","0","img/none_selected.jpg","","138","main_expt",""
"","bandit","218","617955","0.0-180.0-0.0","57102519","wem/bandit_party_2","A2EAIMII6MSIO5","either","8","483","","","","","","","0","0","1","0.6090423031","","0.6","0.4","0.8","0.2","","","","","0.6090423031","0.4039793023","0.7649589049","0.8662270416","","","","","","","","","","72","H","0","img/none_selected.jpg","","139","main_expt",""
"","bandit","219","619941","0.0-181.0-0.0","57102519","wem/bandit_party_2","A2EAIMII6MSIO5","either","8","448","","","","","","","1","0","0","0.7674202191","","0.6","0.4","0.8","0.2","","","","","0.7000077187","0.384774136","0.7674202191","0.8345767194","","","","","","","","","","75","K","2","","","140","main_expt",""
"","bandit","220","621885","0.0-182.0-0.0","57102519","wem/bandit_party_2","A2EAIMII6MSIO5","either","8","392","","","","","","","0","1","0","","0.327254859","0.6","0.4","0.8","0.2","0.6643185619","0.327254859","0.8575114448","0.8783670964","","","","","","","","","","","","","","74","J","1","","","141","main_expt",""
"","bandit","221","623847","0.0-183.0-0.0","57102519","wem/bandit_party_2","A2EAIMII6MSIO5","either","8","424","","","","","","","1","0","0","0.8134430427","","0.6","0.4","0.8","0.2","","","","","0.7079845674","0.4536641492","0.8134430427","0.8895828315","","","","","","","","","","75","K","2","","","142","main_expt",""
"","bandit","222","625758","0.0-184.0-0.0","57102519","wem/bandit_party_2","A2EAIMII6MSIO5","either","8","357","","","","","","","1","0","0","0.8345505038","","0.6","0.4","0.8","0.2","","","","","0.6624187643","0.4348486293","0.8345505038","0.9053928798","","","","","","","","","","75","K","2","","","143","main_expt",""
"","bandit","223","627725","0.0-185.0-0.0","57102519","wem/bandit_party_2","A2EAIMII6MSIO5","either","8","412","","","","","","","0","0","1","0.7482817554","","0.6","0.4","0.8","0.2","","","","","0.6779247185","0.4086594597","0.7482817554","0.9033088386","","","","","","","","","","75","K","2","","","144","main_expt",""
"","bandit","224","629610","0.0-186.0-0.0","57102519","wem/bandit_party_2","A2EAIMII6MSIO5","either","8","321","","","","","","","0","0","1","0.4420772456","","0.6","0.4","0.8","0.2","","","","","0.7216102374","0.4420772456","0.7400387939","0.8572864227","","","","","","","","","","74","J","1","","","145","main_expt",""
"","bandit","225","631417","0.0-187.0-0.0","57102519","wem/bandit_party_2","A2EAIMII6MSIO5","either","8","270","","","","","","","0","1","0","","0.8687508917","0.6","0.4","0.8","0.2","0.7837267619","0.508741462","0.795971973","0.8687508917","","","","","","","","","","","","","","76","L","3","","","146","main_expt",""
"","bandit","226","633383","0.0-188.0-0.0","57102519","wem/bandit_party_2","A2EAIMII6MSIO5","either","8","406","","","","","","","0","1","0","","0.8657621525","0.6","0.4","0.8","0.2","0.7652264833","0.4624398998","0.7503502301","0.8657621525","","","","","","","","","","","","","","76","L","3","","","147","main_expt",""
"","bandit","227","635492","0.0-189.0-0.0","57102519","wem/bandit_party_2","A2EAIMII6MSIO5","either","8","559","","","","","","","0","1","0","","0.8362891365","0.6","0.4","0.8","0.2","0.7358716413","0.4062589849","0.8200474043","0.8362891365","","","","","","","","","","","","","","76","L","3","","","148","main_expt",""
"","bandit","228","637662","0.0-190.0-0.0","57102519","wem/bandit_party_2","A2EAIMII6MSIO5","either","8","621","","","","","","","0","0","1","0.8144386017","","0.6","0.4","0.8","0.2","","","","","0.7129200786","0.4895331913","0.8509010271","0.8144386017","","","","","","","","","","76","L","3","","","149","main_expt",""
"","bandit","229","639533","0.0-191.0-0.0","57102519","wem/bandit_party_2","A2EAIMII6MSIO5","either","8","309","","","","","","","0","1","0","","0.4704746919","0.6","0.4","0.8","0.2","0.705531668","0.4704746919","0.8298908313","0.6948055455","","","","","","","","","","","","","","74","J","1","","","150","main_expt",""
"","bandit","230","641467","0.0-192.0-0.0","57102519","wem/bandit_party_2","A2EAIMII6MSIO5","either","8","394","","","","","","","0","0","1","","0.4725745774","0.6","0.4","0.8","0.2","0.5744604188","0.4725745774","0.7362749002","0.6231991314","","","","","","","","","","","","","","74","J","1","","","151","main_expt",""
"","bandit","231","644406","0.0-193.0-0.0","57102519","wem/bandit_party_2","A2EAIMII6MSIO5","either","8","1387","","","","","","","0","0","1","","0.5372669321","0.6","0.4","0.8","0.2","0.5372669321","0.4943906398","0.7601791643","0.7045057733","","","","","","","","","","","","","","72","H","0","img/none_selected.jpg","","152","main_expt",""
"","bandit","232","646353","0.0-194.0-0.0","57102519","wem/bandit_party_2","A2EAIMII6MSIO5","either","8","387","","","","","","","1","0","0","0.7590648118","","0.6","0.4","0.8","0.2","","","","","0.5447545218","0.4639524782","0.7590648118","0.5331338622","","","","","","","","","","75","K","2","","","153","main_expt",""
"","bandit","233","648239","0.0-195.0-0.0","57102519","wem/bandit_party_2","A2EAIMII6MSIO5","either","8","339","","","","","","","1","0","0","0.7805387907","","0.6","0.4","0.8","0.2","","","","","0.4191749193","0.3935792086","0.7805387907","0.5096720896","","","","","","","","","","75","K","2","","","154","main_expt",""
"","bandit","234","649843","0.0-196.0-0.0","57102519","wem/bandit_party_2","A2EAIMII6MSIO5","either","8","70","","","","","","","1","0","0","0.8450805748","","0.6","0.4","0.8","0.2","","","","","0.4269770229","0.4127348605","0.8450805748","0.4719011365","","","","","","","","","","75","K","2","","","155","main_expt",""
"","bandit","235","651972","0.0-197.0-0.0","57102519","wem/bandit_party_2","A2EAIMII6MSIO5","either","8","604","","","","","","","1","0","0","0.8513110265","","0.6","0.4","0.8","0.2","","","","","0.4589862704","0.3697675558","0.8513110265","0.5818713095","","","","","","","","","","75","K","2","","","156","main_expt",""
"","bandit","236","654178","0.0-198.0-0.0","57102519","wem/bandit_party_2","A2EAIMII6MSIO5","either","8","645","","","","","","","1","0","0","0.8226236001","","0.6","0.4","0.8","0.2","","","","","0.5370818316","0.3604398023","0.8226236001","0.5804022203","","","","","","","","","","75","K","2","","","157","main_expt",""
"","bandit","237","655898","0.0-199.0-0.0","57102519","wem/bandit_party_2","A2EAIMII6MSIO5","either","8","181","","","","","","","1","0","0","0.8843141367","","0.6","0.4","0.8","0.2","","","","","0.4757376888","0.4061750625","0.8843141367","0.4773166223","","","","","","","","","","75","K","2","","","158","main_expt",""
"","bandit","238","658000","0.0-200.0-0.0","57102519","wem/bandit_party_2","A2EAIMII6MSIO5","either","8","539","","","","","","","0","1","0","","0.8078798749","0.6","0.4","0.8","0.2","0.4887287223","0.4696417586","0.8078798749","0.419048585","","","","","","","","","","","","","","75","K","2","","","159","main_expt",""
"","bandit","239","660097","0.0-201.0-0.0","57102519","wem/bandit_party_2","A2EAIMII6MSIO5","either","8","549","","","","","","","0","0","1","","0.7689164465","0.6","0.4","0.8","0.2","0.4588489809","0.4659569923","0.7689164465","0.4672574386","","","","","","","","","","","","","","75","K","2","","","160","main_expt",""
"","bandit","240","662549","0.0-202.0-0.0","57102519","wem/bandit_party_2","A2EAIMII6MSIO5","either","8","888","","","","","","","0","0","1","","0.3947207546","0.6","0.4","0.8","0.2","0.4920004413","0.3947207546","0.7863156869","0.5612985374","","","","","","","","","","","","","","74","J","1","","","161","main_expt",""
"","bandit","241","666077","0.0-203.0-0.0","57102519","wem/bandit_party_2","A2EAIMII6MSIO5","either","8","1975","","","","","","","0","0","1","0.5389881207","","0.6","0.4","0.8","0.2","","","","","0.5389881207","0.2460097942","0.8098475403","0.5288680036","","","","","","","","","","72","H","0","img/none_selected.jpg","","162","main_expt",""
"","bandit","242","668640","0.0-204.0-0.0","57102519","wem/bandit_party_2","A2EAIMII6MSIO5","either","8","1003","","","","","","","0","1","0","","0.6096883849","0.6","0.4","0.8","0.2","0.6040136001","0.3603606056","0.8222712862","0.6096883849","","","","","","","","","","","","","","76","L","3","","","163","main_expt",""
"","bandit","243","671386","0.0-205.0-0.0","57102519","wem/bandit_party_2","A2EAIMII6MSIO5","either","8","1198","","","","","","","1","0","0","0.4868922288","","0.6","0.4","0.8","0.2","","","","","0.623756827","0.2507209727","0.7876031225","0.4868922288","","","","","","","","","","76","L","3","","","164","main_expt",""
"","bandit","244","673584","0.0-206.0-0.0","57102519","wem/bandit_party_2","A2EAIMII6MSIO5","either","8","641","","","","","","","0","0","1","","0.4055552053","0.6","0.4","0.8","0.2","0.6164515281","0.2162043423","0.7435052823","0.4055552053","","","","","","","","","","","","","","76","L","3","","","165","main_expt",""
"","bandit","245","675898","0.0-207.0-0.0","57102519","wem/bandit_party_2","A2EAIMII6MSIO5","either","8","779","","","","","","","1","0","0","0.6545739251","","0.6","0.4","0.8","0.2","","","","","0.4660222187","0.2573409732","0.6545739251","0.4748236382","","","","","","","","","","75","K","2","","","166","main_expt",""
"","bandit","246","678453","0.0-208.0-0.0","57102519","wem/bandit_party_2","A2EAIMII6MSIO5","either","8","1005","","","","","","","1","0","0","0.6645907447","","0.6","0.4","0.8","0.2","","","","","0.3336058786","0.4016088623","0.6645907447","0.4725242185","","","","","","","","","","75","K","2","","","167","main_expt",""
"","bandit","247","680625","0.0-209.0-0.0","57102519","wem/bandit_party_2","A2EAIMII6MSIO5","either","8","623","","","","","","","1","0","0","0.7243751722","","0.6","0.4","0.8","0.2","","","","","0.2887723434","0.5522858252","0.7243751722","0.4775208721","","","","","","","","","","75","K","2","","","168","main_expt",""
"","bandit","248","683057","0.0-210.0-0.0","57102519","wem/bandit_party_2","A2EAIMII6MSIO5","either","8","871","","","","","","","0","0","1","","0.6453105543","0.6","0.4","0.8","0.2","0.3357056981","0.5461138513","0.6453105543","0.4682732781","","","","","","","","","","","","","","75","K","2","","","169","main_expt",""
"","bandit","249","685077","0.0-211.0-0.0","57102519","wem/bandit_party_2","A2EAIMII6MSIO5","either","8","458","","","","","","","0","0","1","","0.4402798015","0.6","0.4","0.8","0.2","0.4179693295","0.4402798015","0.5334010147","0.4246621539","","","","","","","","","","","","","","74","J","1","","","170","main_expt",""
"","bandit","250","687359","0.0-212.0-0.0","57102519","wem/bandit_party_2","A2EAIMII6MSIO5","either","8","730","","","","","","","0","0","1","0.3050406521","","0.6","0.4","0.8","0.2","","","","","0.3050406521","0.450294849","0.498122785","0.2843380906","","","","","","","","","","72","H","0","img/none_selected.jpg","","171","main_expt",""
"","bandit","251","689875","0.0-213.0-0.0","57102519","wem/bandit_party_2","A2EAIMII6MSIO5","either","8","968","","","","","","","0","0","1","","0.2668952485","0.6","0.4","0.8","0.2","0.3364500029","0.6475755847","0.4356988635","0.2668952485","","","","","","","","","","","","","","76","L","3","","","172","main_expt",""
"","bandit","252","691790","0.0-214.0-0.0","57102519","wem/bandit_party_2","A2EAIMII6MSIO5","either","8","385","","","","","","","0","0","1","0.3964199688","","0.6","0.4","0.8","0.2","","","","","0.421339117","0.6095255177","0.3964199688","0.3802819164","","","","","","","","","","75","K","2","","","173","main_expt",""
"","bandit","253","694195","0.0-215.0-0.0","57102519","wem/bandit_party_2","A2EAIMII6MSIO5","either","8","848","","","","","","","1","0","0","0.3194345802","","0.6","0.4","0.8","0.2","","","","","0.4913704717","0.5003628493","0.3194345802","0.4042455133","","","","","","","","","","75","K","2","","","174","main_expt",""
"","bandit","254","696361","0.0-216.0-0.0","57102519","wem/bandit_party_2","A2EAIMII6MSIO5","either","8","611","","","","","","","0","0","1","","0.2865230234","0.6","0.4","0.8","0.2","0.5882611891","0.5576212716","0.2865230234","0.4393989914","","","","","","","","","","","","","","75","K","2","","","175","main_expt",""
"","bandit","255","698610","0.0-217.0-0.0","57102519","wem/bandit_party_2","A2EAIMII6MSIO5","either","8","694","","","","","","","0","0","1","0.3352692614","","0.6","0.4","0.8","0.2","","","","","0.6313830356","0.6230679906","0.3352692614","0.4705173801","","","","","","","","","","75","K","2","","","176","main_expt",""
"","bandit","256","700668","0.0-218.0-0.0","57102519","wem/bandit_party_2","A2EAIMII6MSIO5","either","8","505","","","","","","","0","0","1","0.6501784685","","0.6","0.4","0.8","0.2","","","","","0.5531265137","0.6501784685","0.3389264817","0.4698597734","","","","","","","","","","74","J","1","","","177","main_expt",""
"","bandit","257","702564","0.0-219.0-0.0","57102519","wem/bandit_party_2","A2EAIMII6MSIO5","either","8","335","","","","","","","1","0","0","0.4621004187","","0.6","0.4","0.8","0.2","","","","","0.4621004187","0.6334155083","0.3709673039","0.3570804947","","","","","","","","","","72","H","0","img/none_selected.jpg","","178","main_expt",""
"","bandit","258","704788","0.0-220.0-0.0","57102519","wem/bandit_party_2","A2EAIMII6MSIO5","either","8","666","","","","","","","1","0","0","0.512884041","","0.6","0.4","0.8","0.2","","","","","0.512884041","0.7548338289","0.2940579202","0.3441184995","","","","","","","","","","72","H","0","img/none_selected.jpg","","179","main_expt",""
"","bandit","259","707021","0.0-221.0-0.0","57102519","wem/bandit_party_2","A2EAIMII6MSIO5","either","8","688","","","","","","","0","0","1","0.506744284","","0.6","0.4","0.8","0.2","","","","","0.506744284","0.8074073351","0.3218724025","0.3646136501","","","","","","","","","","72","H","0","img/none_selected.jpg","","180","main_expt",""
"","bandit","260","709039","0.0-222.0-0.0","57102519","wem/bandit_party_2","A2EAIMII6MSIO5","either","8","456","","","","","","","0","1","0","","0.3777688814","0.6","0.4","0.8","0.2","0.4556494723","0.780721516","0.3633286182","0.3777688814","","","","","","","","","","","","","","76","L","3","","","181","main_expt",""
"","bandit","261","711359","0.0-223.0-0.0","57102519","wem/bandit_party_2","A2EAIMII6MSIO5","either","8","765","","","","","","","0","0","1","0.4578236703","","0.6","0.4","0.8","0.2","","","","","0.4494525508","0.7647415088","0.3324048704","0.4578236703","","","","","","","","","","76","L","3","","","182","main_expt",""
"","bandit","262","713282","0.0-224.0-0.0","57102519","wem/bandit_party_2","A2EAIMII6MSIO5","either","8","367","","","","","","","0","1","0","","0.7349307529","0.6","0.4","0.8","0.2","0.5189143621","0.7349307529","0.3092830871","0.4244895098","","","","","","","","","","","","","","74","J","1","","","183","main_expt",""
"","bandit","263","715583","0.0-225.0-0.0","57102519","wem/bandit_party_2","A2EAIMII6MSIO5","either","8","750","","","","","","","1","0","0","0.8298088288","","0.6","0.4","0.8","0.2","","","","","0.5167606333","0.8298088288","0.3905692936","0.3566779322","","","","","","","","","","74","J","1","","","184","main_expt",""
"","bandit","264","718219","0.0-226.0-0.0","57102519","wem/bandit_party_2","A2EAIMII6MSIO5","either","8","1079","","","","","","","0","1","0","","0.7894193193","0.6","0.4","0.8","0.2","0.5270237034","0.7894193193","0.4626192444","0.3737416658","","","","","","","","","","","","","","74","J","1","","","185","main_expt",""
"","bandit","265","720428","0.0-227.0-0.0","57102519","wem/bandit_party_2","A2EAIMII6MSIO5","either","8","649","","","","","","","1","0","0","0.7665022487","","0.6","0.4","0.8","0.2","","","","","0.5556036571","0.7665022487","0.6061762586","0.3120176694","","","","","","","","","","74","J","1","","","186","main_expt",""
"","bandit","266","722403","0.0-228.0-0.0","57102519","wem/bandit_party_2","A2EAIMII6MSIO5","either","8","412","","","","","","","0","1","0","","0.7394266891","0.6","0.4","0.8","0.2","0.5865134094","0.7394266891","0.530958695","0.4134691065","","","","","","","","","","","","","","74","J","1","","","187","main_expt",""
"","bandit","267","724272","0.0-229.0-0.0","57102519","wem/bandit_party_2","A2EAIMII6MSIO5","either","8","317","","","","","","","0","1","0","","0.6567361442","0.6","0.4","0.8","0.2","0.5034866795","0.6567361442","0.380024655","0.4637770407","","","","","","","","","","","","","","74","J","1","","","188","main_expt",""
"","bandit","268","726272","0.0-230.0-0.0","57102519","wem/bandit_party_2","A2EAIMII6MSIO5","either","8","438","","","","","","","0","1","0","","0.6572443956","0.6","0.4","0.8","0.2","0.5761715841","0.6572443956","0.4563575644","0.5739034088","","","","","","","","","","","","","","74","J","1","","","189","main_expt",""
"","bandit","269","728172","0.0-231.0-0.0","57102519","wem/bandit_party_2","A2EAIMII6MSIO5","either","8","349","","","","","","","1","0","0","0.6735764162","","0.6","0.4","0.8","0.2","","","","","0.5325489933","0.6735764162","0.4540853102","0.5859504021","","","","","","","","","","74","J","1","","","190","main_expt",""
"","bandit","270","731600","0.0-232.0-0.0","57102519","wem/bandit_party_2","A2EAIMII6MSIO5","either","8","1864","","","","","","","1","0","0","0.5997518312","","0.6","0.4","0.8","0.2","","","","","0.5614919892","0.5997518312","0.4328006462","0.5325822721","","","","","","","","","","74","J","1","","","191","main_expt",""
"","bandit","271","733989","0.0-233.0-0.0","57102519","wem/bandit_party_2","A2EAIMII6MSIO5","either","8","839","","","","","","","0","1","0","","0.6582178794","0.6","0.4","0.8","0.2","0.5972832049","0.6582178794","0.4979354652","0.4622441745","","","","","","","","","","","","","","74","J","1","","","192","main_expt",""
"","bandit","272","735863","0.0-234.0-0.0","57102519","wem/bandit_party_2","A2EAIMII6MSIO5","either","8","311","","","","","","","0","1","0","","0.7246172867","0.6","0.4","0.8","0.2","0.6997951875","0.7246172867","0.4887187701","0.4765036663","","","","","","","","","","","","","","74","J","1","","","193","main_expt",""
"","bandit","273","738433","0.0-235.0-0.0","57102519","wem/bandit_party_2","A2EAIMII6MSIO5","either","8","1012","","","","","","","0","0","1","","0.7721250451","0.6","0.4","0.8","0.2","0.7511051992","0.7721250451","0.4993882896","0.4504155567","","","","","","","","","","","","","","74","J","1","","","194","main_expt",""
"","bandit","274","740338","0.0-236.0-0.0","57102519","wem/bandit_party_2","A2EAIMII6MSIO5","either","8","347","","","","","","","1","0","0","0.5011331455","","0.6","0.4","0.8","0.2","","","","","0.8281457055","0.8366496483","0.5011331455","0.4354252764","","","","","","","","","","75","K","2","","","195","main_expt",""
"","bandit","275","742758","0.0-237.0-0.0","57102519","wem/bandit_party_2","A2EAIMII6MSIO5","either","8","880","","","","","","","0","0","1","0.4487960683","","0.6","0.4","0.8","0.2","","","","","0.8248544968","0.8484646997","0.4487960683","0.4170899215","","","","","","","","","","75","K","2","","","196","main_expt",""
"","bandit","276","744976","0.0-238.0-0.0","57102519","wem/bandit_party_2","A2EAIMII6MSIO5","either","8","659","","","","","","","0","1","0","","0.8734060335","0.6","0.4","0.8","0.2","0.8532714289","0.8734060335","0.3975590019","0.4149059055","","","","","","","","","","","","","","74","J","1","","","197","main_expt",""
"","bandit","277","747343","0.0-239.0-0.0","57102519","wem/bandit_party_2","A2EAIMII6MSIO5","either","8","806","","","","","","","1","0","0","0.8515360685","","0.6","0.4","0.8","0.2","","","","","0.7587337752","0.8515360685","0.4161601929","0.4737306044","","","","","","","","","","74","J","1","","","198","main_expt",""
"","bandit","278","749909","0.0-240.0-0.0","57102519","wem/bandit_party_2","A2EAIMII6MSIO5","either","8","1007","","","","","","","0","1","0","","0.8805923715","0.6","0.4","0.8","0.2","0.8124408481","0.8805923715","0.4483979408","0.4541760911","","","","","","","","","","","","","","74","J","1","","","199","main_expt",""
"","bandit","279","752211","0.0-241.0-0.0","57102519","wem/bandit_party_2","A2EAIMII6MSIO5","either","8","761","","","","","","","0","1","0","","0.9645818821","0.6","0.4","0.8","0.2","0.7935778268","0.9645818821","0.5303380975","0.3964714959","","","","","","","","","","","","","","74","J","1","","","200","main_expt",""
"","bandit","280","754458","0.0-242.0-0.0","57102519","wem/bandit_party_2","A2EAIMII6MSIO5","either","8","688","","","","","","","1","0","0","0.9689478708","","0.6","0.4","0.8","0.2","","","","","0.736942723","0.9689478708","0.4014045657","0.3815447649","","","","","","","","","","74","J","1","","","201","main_expt",""
"","bandit","281","757054","0.0-243.0-0.0","57102519","wem/bandit_party_2","A2EAIMII6MSIO5","either","8","1038","","","","","","","1","0","0","0.9678291885","","0.6","0.4","0.8","0.2","","","","","0.7001951276","0.9678291885","0.5115169607","0.3726367513","","","","","","","","","","74","J","1","","","202","main_expt",""
"","bandit","282","759602","0.0-244.0-0.0","57102519","wem/bandit_party_2","A2EAIMII6MSIO5","either","8","999","","","","","","","0","1","0","","0.9633244117","0.6","0.4","0.8","0.2","0.7209300446","0.9633244117","0.5026191452","0.3062653216","","","","","","","","","","","","","","74","J","1","","","203","main_expt",""
"","bandit","283","762494","0.0-245.0-0.0","57102519","wem/bandit_party_2","A2EAIMII6MSIO5","either","8","1339","","","","","","","0","1","0","","0.9730812582","0.6","0.4","0.8","0.2","0.8574132932","0.9730812582","0.4736298566","0.2848501254","","","","","","","","","","","","","","74","J","1","","","204","main_expt",""
"","bandit","284","764659","0.0-246.0-0.0","57102519","wem/bandit_party_2","A2EAIMII6MSIO5","either","8","603","","","","","","","0","1","0","","0.9521206422","0.6","0.4","0.8","0.2","0.9038760074","0.9521206422","0.6121858428","0.3457586416","","","","","","","","","","","","","","74","J","1","","","205","main_expt",""
"","bandit","285","767444","0.0-247.0-0.0","57102519","wem/bandit_party_2","A2EAIMII6MSIO5","either","8","1225","","","","","","","0","1","0","","0.9614764056","0.6","0.4","0.8","0.2","0.9273356803","0.9614764056","0.6377028942","0.4609097875","","","","","","","","","","","","","","74","J","1","","","206","main_expt",""
"","bandit","286","770164","0.0-248.0-0.0","57102519","wem/bandit_party_2","A2EAIMII6MSIO5","either","8","1158","","","","","","","1","0","0","0.9625830716","","0.6","0.4","0.8","0.2","","","","","0.9502037039","0.9625830716","0.5700483165","0.4980316736","","","","","","","","","","74","J","1","","","207","main_expt",""
"","bandit","287","772231","0.0-249.0-0.0","57102519","wem/bandit_party_2","A2EAIMII6MSIO5","either","8","500","","","","","","","0","1","0","","0.9359306517","0.6","0.4","0.8","0.2","0.944094639","0.9359306517","0.624428721","0.4537691537","","","","","","","","","","","","","","74","J","1","","","208","main_expt",""
"","bandit","288","773784","0.0-250.0-0.0","57102519","wem/bandit_party_2","A2EAIMII6MSIO5","either","8","2","","","","","","","0","1","0","","0.9632917203","0.6","0.4","0.8","0.2","0.9070839441","0.9632917203","0.4861871301","0.4475842875","","","","","","","","","","","","","","74","J","1","","","209","main_expt",""
"","bandit","289","775682","0.0-251.0-0.0","57102519","wem/bandit_party_2","A2EAIMII6MSIO5","either","8","341","","","","","","","1","0","0","0.9633226214","","0.6","0.4","0.8","0.2","","","","","0.8960653589","0.9633226214","0.3956361612","0.4803454055","","","","","","","","","","74","J","1","","","210","main_expt",""
"","bandit","290","778041","0.0-252.0-0.0","57102519","wem/bandit_party_2","A2EAIMII6MSIO5","either","8","805","","","","","","","0","1","0","","0.9719781217","0.6","0.4","0.8","0.2","0.9155455821","0.9719781217","0.3599204452","0.4126443349","","","","","","","","","","","","","","74","J","1","","","211","main_expt",""
"","bandit","291","780361","0.0-253.0-0.0","57102519","wem/bandit_party_2","A2EAIMII6MSIO5","either","8","763","","","","","","","1","0","0","0.9700781686","","0.6","0.4","0.8","0.2","","","","","0.9087954588","0.9700781686","0.3349000901","0.3384802849","","","","","","","","","","74","J","1","","","212","main_expt",""
"","bandit","292","782635","0.0-254.0-0.0","57102519","wem/bandit_party_2","A2EAIMII6MSIO5","either","8","720","","","","","","","0","1","0","","0.971165811","0.6","0.4","0.8","0.2","0.8528540962","0.971165811","0.3183344176","0.3039242722","","","","","","","","","","","","","","74","J","1","","","213","main_expt",""
"","bandit","293","784861","0.0-255.0-0.0","57102519","wem/bandit_party_2","A2EAIMII6MSIO5","either","8","672","","","","","","","0","1","0","","0.9627117","0.6","0.4","0.8","0.2","0.8506041988","0.9627117","0.2390758011","0.4541530846","","","","","","","","","","","","","","74","J","1","","","214","main_expt",""
"","bandit","294","786610","0.0-256.0-0.0","57102519","wem/bandit_party_2","A2EAIMII6MSIO5","either","8","182","","","","","","","0","0","1","0.9552130497","","0.6","0.4","0.8","0.2","","","","","0.8001829978","0.9552130497","0.1997060473","0.5101749692","","","","","","","","","","74","J","1","","","215","main_expt",""
"","bandit","295","788636","0.0-257.0-0.0","57102519","wem/bandit_party_2","A2EAIMII6MSIO5","either","8","459","","","","","","","0","0","1","","0.5580520347","0.6","0.4","0.8","0.2","0.733614842","0.9220350188","0.2326539104","0.5580520347","","","","","","","","","","","","","","76","L","3","","","216","main_expt",""
"","bandit","296","790454","0.0-258.0-0.0","57102519","wem/bandit_party_2","A2EAIMII6MSIO5","either","8","267","","","","","","","0","0","1","0.2319826337","","0.6","0.4","0.8","0.2","","","","","0.7479737912","0.8736667029","0.2319826337","0.4368451062","","","","","","","","","","75","K","2","","","217","main_expt",""
"","bandit","297","792267","0.0-259.0-0.0","57102519","wem/bandit_party_2","A2EAIMII6MSIO5","either","8","281","","","","","","","0","1","0","","0.7713398237","0.6","0.4","0.8","0.2","0.7713398237","0.7602784417","0.3143382807","0.3963441813","","","","","","","","","","","","","","72","H","0","img/none_selected.jpg","","218","main_expt",""
"","bandit","298","794221","0.0-260.0-0.0","57102519","wem/bandit_party_2","A2EAIMII6MSIO5","either","8","401","","","","","","","1","0","0","0.8077055691","","0.6","0.4","0.8","0.2","","","","","0.8077055691","0.7643050859","0.3304972923","0.4809426617","","","","","","","","","","72","H","0","img/none_selected.jpg","","219","main_expt",""
"","bandit","299","796500","0.0-261.0-0.0","57102519","wem/bandit_party_2","A2EAIMII6MSIO5","either","8","724","","","","","","","1","0","0","0.7778114837","","0.6","0.4","0.8","0.2","","","","","0.7778114837","0.7793587236","0.2866104843","0.397759556","","","","","","","","","","72","H","0","img/none_selected.jpg","","220","main_expt",""
"","bandit","300","798786","0.0-262.0-0.0","57102519","wem/bandit_party_2","A2EAIMII6MSIO5","either","8","733","","","","","","","0","0","1","0.7214198583","","0.6","0.4","0.8","0.2","","","","","0.7214198583","0.82086311","0.3602561646","0.4087677593","","","","","","","","","","72","H","0","img/none_selected.jpg","","221","main_expt",""
"","bandit","301","800705","0.0-263.0-0.0","57102519","wem/bandit_party_2","A2EAIMII6MSIO5","either","8","354","","","","","","","0","1","0","","0.8091526303","0.6","0.4","0.8","0.2","0.8091526303","0.8543662658","0.3228749062","0.4561280915","","","","","","","","","","","","","","72","H","0","img/none_selected.jpg","","222","main_expt",""
"","bandit","302","802988","0.0-264.0-0.0","57102519","wem/bandit_party_2","A2EAIMII6MSIO5","either","8","738","","","","","","","1","0","0","0.8240838469","","0.6","0.4","0.8","0.2","","","","","0.8240838469","0.8599459829","0.2549485676","0.4419858618","","","","","","","","","","72","H","0","img/none_selected.jpg","","223","main_expt",""
"","bandit","303","805461","0.0-265.0-0.0","57102519","wem/bandit_party_2","A2EAIMII6MSIO5","either","8","908","","","","","","","0","1","0","","0.7670685714","0.6","0.4","0.8","0.2","0.7670685714","0.8747991669","0.2389333491","0.494409337","","","","","","","","","","","","","","72","H","0","img/none_selected.jpg","","224","main_expt",""
"","bandit","304","807513","0.0-266.0-0.0","57102519","wem/bandit_party_2","A2EAIMII6MSIO5","either","8","497","","","","","","","0","1","0","","0.8775689376","0.6","0.4","0.8","0.2","0.8775689376","0.7910409491","0.1517307125","0.3713348049","","","","","","","","","","","","","","72","H","0","img/none_selected.jpg","","225","main_expt",""
"","bandit","305","809899","0.0-267.0-0.0","57102519","wem/bandit_party_2","A2EAIMII6MSIO5","either","8","848","","","","","","","1","0","0","0.8846504348","","0.6","0.4","0.8","0.2","","","","","0.8846504348","0.7212928749","0.1002450003","0.4013452417","","","","","","","","","","72","H","0","img/none_selected.jpg","","226","main_expt",""
"","bandit","306","812112","0.0-268.0-0.0","57102519","wem/bandit_party_2","A2EAIMII6MSIO5","either","8","671","","","","","","","0","1","0","","0.851087938","0.6","0.4","0.8","0.2","0.851087938","0.7090989562","0.1049945928","0.393451628","","","","","","","","","","","","","","72","H","0","img/none_selected.jpg","","227","main_expt",""
"","bandit","307","814481","0.0-269.0-0.0","57102519","wem/bandit_party_2","A2EAIMII6MSIO5","either","8","805","","","","","","","1","0","0","0.9074720337","","0.6","0.4","0.8","0.2","","","","","0.9074720337","0.6606736223","0.03915988122","0.4175844788","","","","","","","","","","72","H","0","img/none_selected.jpg","","228","main_expt",""
"","bandit","308","816512","0.0-270.0-0.0","57102519","wem/bandit_party_2","A2EAIMII6MSIO5","either","8","466","","","","","","","1","0","0","0.872332114","","0.6","0.4","0.8","0.2","","","","","0.872332114","0.6893924153","0.03767516843","0.408368909","","","","","","","","","","72","H","0","img/none_selected.jpg","","229","main_expt",""
"","bandit","309","818568","0.0-271.0-0.0","57102519","wem/bandit_party_2","A2EAIMII6MSIO5","either","8","505","","","","","","","1","0","0","0.7967167456","","0.6","0.4","0.8","0.2","","","","","0.7967167456","0.6067604319","0.05804790214","0.4777699032","","","","","","","","","","72","H","0","img/none_selected.jpg","","230","main_expt",""
"","bandit","310","820654","0.0-272.0-0.0","57102519","wem/bandit_party_2","A2EAIMII6MSIO5","either","8","543","","","","","","","0","0","1","","0.7760618079","0.6","0.4","0.8","0.2","0.7760618079","0.5037419277","0.04963095007","0.4935442242","","","","","","","","","","","","","","72","H","0","img/none_selected.jpg","","231","main_expt",""
"","bandit","311","822630","0.0-273.0-0.0","57102519","wem/bandit_party_2","A2EAIMII6MSIO5","either","8","407","","","","","","","1","0","0","0.03759782928","","0.6","0.4","0.8","0.2","","","","","0.7765467853","0.4339479185","0.03759782928","0.4889590317","","","","","","","","","","75","K","2","","","232","main_expt",""
"","bandit","312","825066","0.0-274.0-0.0","57102519","wem/bandit_party_2","A2EAIMII6MSIO5","either","8","882","","","","","","","0","0","1","0.03147013274","","0.6","0.4","0.8","0.2","","","","","0.7895219362","0.4525546635","0.03147013274","0.5212294662","","","","","","","","","","75","K","2","","","233","main_expt",""
"","bandit","313","827422","0.0-275.0-0.0","57102519","wem/bandit_party_2","A2EAIMII6MSIO5","either","8","788","","","","","","","0","0","1","","0.03547440544","0.6","0.4","0.8","0.2","0.7491899586","0.3680080929","0.03547440544","0.4420617392","","","","","","","","","","","","","","75","K","2","","","234","main_expt",""
"","bandit","314","830071","0.0-276.0-0.0","57102519","wem/bandit_party_2","A2EAIMII6MSIO5","either","8","1096","","","","","","","0","0","1","","0.4816955248","0.6","0.4","0.8","0.2","0.7397351474","0.3416373547","0.04486782706","0.4816955248","","","","","","","","","","","","","","76","L","3","","","235","main_expt",""
"","bandit","315","832231","0.0-277.0-0.0","57102519","wem/bandit_party_2","A2EAIMII6MSIO5","either","8","604","","","","","","","0","0","1","0.3722877153","","0.6","0.4","0.8","0.2","","","","","0.6587673302","0.3722877153","0.03122339122","0.3028121716","","","","","","","","","","74","J","1","","","236","main_expt",""
"","bandit","316","834179","0.0-278.0-0.0","57102519","wem/bandit_party_2","A2EAIMII6MSIO5","either","8","394","","","","","","","0","1","0","","0.7534934878","0.6","0.4","0.8","0.2","0.7534934878","0.3081002542","0.04191117605","0.3802502189","","","","","","","","","","","","","","72","H","0","img/none_selected.jpg","","237","main_expt",""
