"consent","trial_type","trial_index","time_elapsed","internal_node_id","subjID","study","MID","cond","drift","rt","responses","button_pressed","key_press","like","value","connected","gems","bombs","no_reward","GemPrChosen","BombPrChosen","GainOverPainPr_0","GainOverPainPr_1","GainOverPainPr_2","GainOverPainPr_3","LosePr_0","LosePr_1","LosePr_2","LosePr_3","WinPr_0","WinPr_1","WinPr_2","WinPr_3","Q0","Q1","Q2","gender","age","ethnicity","label","expt_phase","target","respCharCode","respKey","respChoiceNum","respChoice","practice","trial_counter","trial_label","Q0_index"
"GDM/GDM_behavioral_consent_30min_online.html","consent","0","4831","0.0-0.0","57853241","wem/bandit_party_2","A5BMKZRGHNSRT","either","6","","","","","","","","","","","","","","","","","","","","","","","","","","","","","","","","","","","","","","","","",""
"","survey-text","1","8447","0.0-1.0","57853241","wem/bandit_party_2","A5BMKZRGHNSRT","either","6","2611","{""Q0"":""A5BMKZRGHNSRT""}","","","","","","","","","","","","","","","","","","","","","","","","","","","","","","","","","","","","","","",""
"","button-response","2","10438","0.0-2.0","57853241","wem/bandit_party_2","A5BMKZRGHNSRT","either","6","988","","1","","","","","","","","","","","","","","","","","","","","","","","","","","","","","","","","","","","","","",""
"","text-replacement","3","15522","0.0-3.0","57853241","wem/bandit_party_2","A5BMKZRGHNSRT","either","6","4081","","","32","","","","","","","","","","","","","","","","","","","","","","","","","","","","","","","","","","","","",""
"","text-replacement","4","17475","0.0-4.0","57853241","wem/bandit_party_2","A5BMKZRGHNSRT","either","6","1950","","","32","","","","","","","","","","","","","","","","","","","","","","","","","","","","","","","","","","","","",""
"","identification","5","20127","0.0-6.0-0.0","57853241","wem/bandit_party_2","A5BMKZRGHNSRT","either","6","2626","","","","0","0","0","","","","","","","","","","","","","","","","","","","","","","","","pre","identification_pre","the Republican Party","","","","","","","",""
"","identification","6","22854","0.0-6.0-1.0","57853241","wem/bandit_party_2","A5BMKZRGHNSRT","either","6","1703","","","","3","3","3","","","","","","","","","","","","","","","","","","","","","","","","pre","identification_pre","the Democratic Party","","","","","","","",""
"","text-replacement","7","27304","0.0-7.0","57853241","wem/bandit_party_2","A5BMKZRGHNSRT","either","6","3447","","","32","","","","","","","","","","","","","","","","","","","","","","","","","","","","","","","","","","","","",""
"","text-replacement","8","29617","0.0-8.0","57853241","wem/bandit_party_2","A5BMKZRGHNSRT","either","6","2311","","","32","","","","","","","","","","","","","","","","","","","","","","","","","","","","","","","","","","","","",""
"","text-replacement","9","34905","0.0-9.0","57853241","wem/bandit_party_2","A5BMKZRGHNSRT","either","6","5287","","","32","","","","","","","","","","","","","","","","","","","","","","","","","","","","","","","","","","","","",""
"","text-replacement","10","36049","0.0-10.0","57853241","wem/bandit_party_2","A5BMKZRGHNSRT","either","6","1143","","","32","","","","","","","","","","","","","","","","","","","","","","","","","","","","","","","","","","","","",""
"","text-replacement","11","38377","0.0-11.0","57853241","wem/bandit_party_2","A5BMKZRGHNSRT","either","6","2326","","","32","","","","","","","","","","","","","","","","","","","","","","","","","","","","","","","","","","","","",""
"","bandit","12","41151","0.0-12.0-0.0","57853241","wem/bandit_party_2","A5BMKZRGHNSRT","either","6","1269","","","","","","","0","0","1","0","0","","","","","0","","","","0","","","","","","","","","","","","","74","J","0","img/none_selected_demo.jpg","true","0","",""
"","bandit","13","43262","0.0-13.0-0.0","57853241","wem/bandit_party_2","A5BMKZRGHNSRT","either","6","606","","","","","","","0","0","1","0","0","","","","","0","","","","0","","","","","","","","","","","","","75","K","0","img/none_selected_demo.jpg","true","0","",""
"","text-replacement","14","44688","0.0-14.0","57853241","wem/bandit_party_2","A5BMKZRGHNSRT","either","6","1424","","","32","","","","","","","","","","","","","","","","","","","","","","","","","","","","","","","","","","","","",""
"","text-replacement","15","46824","0.0-15.0","57853241","wem/bandit_party_2","A5BMKZRGHNSRT","either","6","2135","","","32","","","","","","","","","","","","","","","","","","","","","","","","","","","","","","","","","","","","",""
"","text-replacement","16","48801","0.0-16.0","57853241","wem/bandit_party_2","A5BMKZRGHNSRT","either","6","1975","","","32","","","","","","","","","","","","","","","","","","","","","","","","","","","","","","","","","","","","",""
"","text-replacement","17","49810","0.0-17.0","57853241","wem/bandit_party_2","A5BMKZRGHNSRT","either","6","1008","","","32","","","","","","","","","","","","","","","","","","","","","","","","","","","","","","","","","","","","",""
"","bandit","18","51791","0.0-18.0-0.0","57853241","wem/bandit_party_2","A5BMKZRGHNSRT","either","6","477","","","","","","","0","0","1","","0.2","0.5","0.5","","","0.8","0.2","","","","","","","","","","","","","","","","75","K","1","","true","0","80_20_practice",""
"","bandit","19","53934","0.0-18.0-1.0","57853241","wem/bandit_party_2","A5BMKZRGHNSRT","either","6","639","","","","","","","0","0","1","0.2","","0.5","0.5","","","","","","","0.8","0.2","","","","","","","","","","","","75","K","1","","true","0","80_20_practice",""
"","bandit","20","55774","0.0-18.0-2.0","57853241","wem/bandit_party_2","A5BMKZRGHNSRT","either","6","336","","","","","","","1","0","0","0.8","","0.5","0.5","","","","","","","0.8","0.2","","","","","","","","","","","","74","J","0","img/none_selected_demo.jpg","true","0","80_20_practice",""
"","bandit","21","57823","0.0-18.0-3.0","57853241","wem/bandit_party_2","A5BMKZRGHNSRT","either","6","545","","","","","","","0","0","1","","0.8","0.5","0.5","","","0.8","0.2","","","","","","","","","","","","","","","","74","J","0","img/none_selected_demo.jpg","true","0","80_20_practice",""
"","bandit","22","59673","0.0-18.0-4.0","57853241","wem/bandit_party_2","A5BMKZRGHNSRT","either","6","344","","","","","","","1","0","0","0.8","","0.5","0.5","","","","","","","0.8","0.2","","","","","","","","","","","","74","J","0","img/none_selected_demo.jpg","true","0","80_20_practice",""
"","bandit","23","61504","0.0-18.0-5.0","57853241","wem/bandit_party_2","A5BMKZRGHNSRT","either","6","327","","","","","","","1","0","0","0.8","","0.5","0.5","","","","","","","0.8","0.2","","","","","","","","","","","","74","J","0","img/none_selected_demo.jpg","true","0","80_20_practice",""
"","bandit","24","63247","0.0-18.0-6.0","57853241","wem/bandit_party_2","A5BMKZRGHNSRT","either","6","239","","","","","","","0","1","0","","0.8","0.5","0.5","","","0.8","0.2","","","","","","","","","","","","","","","","74","J","0","img/none_selected_demo.jpg","true","0","80_20_practice",""
"","bandit","25","65023","0.0-18.0-7.0","57853241","wem/bandit_party_2","A5BMKZRGHNSRT","either","6","271","","","","","","","0","1","0","","0.8","0.5","0.5","","","0.8","0.2","","","","","","","","","","","","","","","","74","J","0","img/none_selected_demo.jpg","true","0","80_20_practice",""
"","bandit","26","66952","0.0-18.0-8.0","57853241","wem/bandit_party_2","A5BMKZRGHNSRT","either","6","424","","","","","","","0","1","0","","0.8","0.5","0.5","","","0.8","0.2","","","","","","","","","","","","","","","","74","J","0","img/none_selected_demo.jpg","true","0","80_20_practice",""
"","bandit","27","68744","0.0-18.0-9.0","57853241","wem/bandit_party_2","A5BMKZRGHNSRT","either","6","288","","","","","","","1","0","0","0.8","","0.5","0.5","","","","","","","0.8","0.2","","","","","","","","","","","","74","J","0","img/none_selected_demo.jpg","true","0","80_20_practice",""
"","bandit","28","70960","0.0-18.0-10.0","57853241","wem/bandit_party_2","A5BMKZRGHNSRT","either","6","712","","","","","","","0","0","1","0.8","","0.5","0.5","","","","","","","0.8","0.2","","","","","","","","","","","","74","J","0","img/none_selected_demo.jpg","true","0","80_20_practice",""
"","bandit","29","72728","0.0-18.0-11.0","57853241","wem/bandit_party_2","A5BMKZRGHNSRT","either","6","264","","","","","","","0","0","1","","0.2","0.5","0.5","","","0.8","0.2","","","","","","","","","","","","","","","","75","K","1","","true","0","80_20_practice",""
"","bandit","30","74391","0.0-18.0-12.0","57853241","wem/bandit_party_2","A5BMKZRGHNSRT","either","6","158","","","","","","","1","0","0","0.2","","0.5","0.5","","","","","","","0.8","0.2","","","","","","","","","","","","75","K","1","","true","0","80_20_practice",""
"","bandit","31","76047","0.0-18.0-13.0","57853241","wem/bandit_party_2","A5BMKZRGHNSRT","either","6","152","","","","","","","0","0","1","","0.2","0.5","0.5","","","0.8","0.2","","","","","","","","","","","","","","","","75","K","1","","true","0","80_20_practice",""
"","bandit","32","77703","0.0-18.0-14.0","57853241","wem/bandit_party_2","A5BMKZRGHNSRT","either","6","152","","","","","","","0","0","1","","0.2","0.5","0.5","","","0.8","0.2","","","","","","","","","","","","","","","","75","K","1","","true","0","80_20_practice",""
"","bandit","33","79303","0.0-18.0-15.0","57853241","wem/bandit_party_2","A5BMKZRGHNSRT","either","6","96","","","","","","","0","0","1","","0.2","0.5","0.5","","","0.8","0.2","","","","","","","","","","","","","","","","75","K","1","","true","0","80_20_practice",""
"","bandit","34","81687","0.0-18.0-16.0","57853241","wem/bandit_party_2","A5BMKZRGHNSRT","either","6","879","","","","","","","0","0","1","","0.8","0.5","0.5","","","0.8","0.2","","","","","","","","","","","","","","","","74","J","0","img/none_selected_demo.jpg","true","0","80_20_practice",""
"","bandit","35","83552","0.0-18.0-17.0","57853241","wem/bandit_party_2","A5BMKZRGHNSRT","either","6","359","","","","","","","0","0","1","0.2","","0.5","0.5","","","","","","","0.8","0.2","","","","","","","","","","","","75","K","1","","true","0","80_20_practice",""
"","bandit","36","85192","0.0-18.0-18.0","57853241","wem/bandit_party_2","A5BMKZRGHNSRT","either","6","135","","","","","","","0","0","1","0.2","","0.5","0.5","","","","","","","0.8","0.2","","","","","","","","","","","","75","K","1","","true","0","80_20_practice",""
"","bandit","37","86754","0.0-18.0-19.0","57853241","wem/bandit_party_2","A5BMKZRGHNSRT","either","6","56","","","","","","","0","0","1","","0.2","0.5","0.5","","","0.8","0.2","","","","","","","","","","","","","","","","75","K","1","","true","0","80_20_practice",""
"","text-replacement","38","87642","0.0-19.0","57853241","wem/bandit_party_2","A5BMKZRGHNSRT","either","6","883","","","32","","","","","","","","","","","","","","","","","","","","","","","","","","","","","","","","","","","","",""
"","bandit","39","90103","0.0-20.0-0.0","57853241","wem/bandit_party_2","A5BMKZRGHNSRT","either","6","958","","","","","","","1","0","0","1","0","","","","","0","1","","","1","0","","","","","","","","","","","","74","J","0","img/none_selected_demo.jpg","true","0","",""
"","text-replacement","40","91193","0.0-21.0","57853241","wem/bandit_party_2","A5BMKZRGHNSRT","either","6","1089","","","32","","","","","","","","","","","","","","","","","","","","","","","","","","","","","","","","","","","","",""
"","text-replacement","41","92418","0.0-22.0","57853241","wem/bandit_party_2","A5BMKZRGHNSRT","either","6","1224","","","32","","","","","","","","","","","","","","","","","","","","","","","","","","","","","","","","","","","","",""
"","text-replacement","42","92834","0.0-23.0","57853241","wem/bandit_party_2","A5BMKZRGHNSRT","either","6","414","","","32","","","","","","","","","","","","","","","","","","","","","","","","","","","","","","","","","","","","",""
"","text-replacement","43","93842","0.0-24.0","57853241","wem/bandit_party_2","A5BMKZRGHNSRT","either","6","1006","","","32","","","","","","","","","","","","","","","","","","","","","","","","","","","","","","","","","","","","",""
"","text-replacement","44","95801","0.0-25.0","57853241","wem/bandit_party_2","A5BMKZRGHNSRT","either","6","1959","","","32","","","","","","","","","","","","","","","","","","","","","","","","","","","","","","","","","","","","",""
"","text-replacement","45","96665","0.0-26.0","57853241","wem/bandit_party_2","A5BMKZRGHNSRT","either","6","863","","","32","","","","","","","","","","","","","","","","","","","","","","","","","","","","","","","","","","","","",""
"","text-replacement","46","97721","0.0-27.0","57853241","wem/bandit_party_2","A5BMKZRGHNSRT","either","6","1055","","","32","","","","","","","","","","","","","","","","","","","","","","","","","","","","","","","","","","","","",""
"","text-replacement","47","98145","0.0-28.0","57853241","wem/bandit_party_2","A5BMKZRGHNSRT","either","6","422","","","32","","","","","","","","","","","","","","","","","","","","","","","","","","","","","","","","","","","","",""
"","text-replacement","48","99041","0.0-29.0","57853241","wem/bandit_party_2","A5BMKZRGHNSRT","either","6","894","","","32","","","","","","","","","","","","","","","","","","","","","","","","","","","","","","","","","","","","",""
"","text-replacement","49","99929","0.0-30.0","57853241","wem/bandit_party_2","A5BMKZRGHNSRT","either","6","886","","","32","","","","","","","","","","","","","","","","","","","","","","","","","","","","","","","","","","","","",""
"","text-replacement","50","100818","0.0-31.0","57853241","wem/bandit_party_2","A5BMKZRGHNSRT","either","6","888","","","32","","","","","","","","","","","","","","","","","","","","","","","","","","","","","","","","","","","","",""
"","bandit","51","102912","0.0-32.0-0.0","57853241","wem/bandit_party_2","A5BMKZRGHNSRT","either","6","589","","","","","","","0","0","1","0.8","","0.5","0.5","0.5","0.5","","","","","0.8","0.2","0.6","0.2","","","","","","","","","","72","H","0","img/none_selected.jpg","true","0","full_practice",""
"","bandit","52","104585","0.0-32.0-1.0","57853241","wem/bandit_party_2","A5BMKZRGHNSRT","either","6","168","","","","","","","0","0","1","0.2","","0.5","0.5","0.5","0.5","","","","","0.8","0.2","0.6","0.2","","","","","","","","","","74","J","1","","true","0","full_practice",""
"","bandit","53","106400","0.0-32.0-2.0","57853241","wem/bandit_party_2","A5BMKZRGHNSRT","either","6","310","","","","","","","1","0","0","0.6","","0.5","0.5","0.5","0.5","","","","","0.8","0.2","0.6","0.2","","","","","","","","","","75","K","2","","true","0","full_practice",""
"","bandit","54","108135","0.0-32.0-3.0","57853241","wem/bandit_party_2","A5BMKZRGHNSRT","either","6","231","","","","","","","0","0","1","","0.2","0.5","0.5","0.5","0.5","0.8","0.2","0.6","0.2","","","","","","","","","","","","","","76","L","3","","true","0","full_practice",""
"","bandit","55","109703","0.0-32.0-4.0","57853241","wem/bandit_party_2","A5BMKZRGHNSRT","either","6","64","","","","","","","0","1","0","","0.8","0.5","0.5","0.5","0.5","0.8","0.2","0.6","0.2","","","","","","","","","","","","","","72","H","0","img/none_selected.jpg","true","0","full_practice",""
"","bandit","56","111239","0.0-32.0-5.0","57853241","wem/bandit_party_2","A5BMKZRGHNSRT","either","6","32","","","","","","","0","0","1","","0.2","0.5","0.5","0.5","0.5","0.8","0.2","0.6","0.2","","","","","","","","","","","","","","74","J","1","","true","0","full_practice",""
"","bandit","57","112975","0.0-32.0-6.0","57853241","wem/bandit_party_2","A5BMKZRGHNSRT","either","6","232","","","","","","","0","1","0","","0.6","0.5","0.5","0.5","0.5","0.8","0.2","0.6","0.2","","","","","","","","","","","","","","75","K","2","","true","0","full_practice",""
"","bandit","58","114611","0.0-32.0-7.0","57853241","wem/bandit_party_2","A5BMKZRGHNSRT","either","6","129","","","","","","","0","0","1","","0.2","0.5","0.5","0.5","0.5","0.8","0.2","0.6","0.2","","","","","","","","","","","","","","76","L","3","","true","0","full_practice",""
"","bandit","59","116487","0.0-32.0-8.0","57853241","wem/bandit_party_2","A5BMKZRGHNSRT","either","6","368","","","","","","","0","0","1","0.8","","0.5","0.5","0.5","0.5","","","","","0.8","0.2","0.6","0.2","","","","","","","","","","72","H","0","img/none_selected.jpg","true","0","full_practice",""
"","bandit","60","118048","0.0-32.0-9.0","57853241","wem/bandit_party_2","A5BMKZRGHNSRT","either","6","55","","","","","","","0","0","1","0.2","","0.5","0.5","0.5","0.5","","","","","0.8","0.2","0.6","0.2","","","","","","","","","","74","J","1","","true","0","full_practice",""
"","bandit","61","119554","0.0-32.0-10.0","57853241","wem/bandit_party_2","A5BMKZRGHNSRT","either","6","1","","","","","","","0","0","1","0.6","","0.5","0.5","0.5","0.5","","","","","0.8","0.2","0.6","0.2","","","","","","","","","","75","K","2","","true","0","full_practice",""
"","bandit","62","121110","0.0-32.0-11.0","57853241","wem/bandit_party_2","A5BMKZRGHNSRT","either","6","52","","","","","","","0","0","1","","0.2","0.5","0.5","0.5","0.5","0.8","0.2","0.6","0.2","","","","","","","","","","","","","","76","L","3","","true","0","full_practice",""
"","bandit","63","122798","0.0-32.0-12.0","57853241","wem/bandit_party_2","A5BMKZRGHNSRT","either","6","184","","","","","","","0","1","0","","0.8","0.5","0.5","0.5","0.5","0.8","0.2","0.6","0.2","","","","","","","","","","","","","","72","H","0","img/none_selected.jpg","true","0","full_practice",""
"","bandit","64","124311","0.0-32.0-13.0","57853241","wem/bandit_party_2","A5BMKZRGHNSRT","either","6","8","","","","","","","0","0","1","","0.2","0.5","0.5","0.5","0.5","0.8","0.2","0.6","0.2","","","","","","","","","","","","","","74","J","1","","true","0","full_practice",""
"","bandit","65","126606","0.0-32.0-14.0","57853241","wem/bandit_party_2","A5BMKZRGHNSRT","either","6","790","","","","","","","0","0","1","0.6","","0.5","0.5","0.5","0.5","","","","","0.8","0.2","0.6","0.2","","","","","","","","","","75","K","2","","true","0","full_practice",""
"","bandit","66","128198","0.0-32.0-15.0","57853241","wem/bandit_party_2","A5BMKZRGHNSRT","either","6","88","","","","","","","0","0","1","","0.2","0.5","0.5","0.5","0.5","0.8","0.2","0.6","0.2","","","","","","","","","","","","","","76","L","3","","true","0","full_practice",""
"","bandit","67","130006","0.0-32.0-16.0","57853241","wem/bandit_party_2","A5BMKZRGHNSRT","either","6","304","","","","","","","0","1","0","","0.8","0.5","0.5","0.5","0.5","0.8","0.2","0.6","0.2","","","","","","","","","","","","","","72","H","0","img/none_selected.jpg","true","0","full_practice",""
"","bandit","68","131694","0.0-32.0-17.0","57853241","wem/bandit_party_2","A5BMKZRGHNSRT","either","6","184","","","","","","","0","0","1","","0.2","0.5","0.5","0.5","0.5","0.8","0.2","0.6","0.2","","","","","","","","","","","","","","74","J","1","","true","0","full_practice",""
"","bandit","69","133430","0.0-32.0-18.0","57853241","wem/bandit_party_2","A5BMKZRGHNSRT","either","6","231","","","","","","","0","0","1","0.6","","0.5","0.5","0.5","0.5","","","","","0.8","0.2","0.6","0.2","","","","","","","","","","75","K","2","","true","0","full_practice",""
"","bandit","70","134990","0.0-32.0-19.0","57853241","wem/bandit_party_2","A5BMKZRGHNSRT","either","6","55","","","","","","","0","1","0","","0.2","0.5","0.5","0.5","0.5","0.8","0.2","0.6","0.2","","","","","","","","","","","","","","76","L","3","","true","0","full_practice",""
"","text","71","136577","0.0-33.0","57853241","wem/bandit_party_2","A5BMKZRGHNSRT","either","6","1582","","","32","","","","","","","","","","","","","","","","","","","","","","","","","","","","","","","","","","","","",""
"","text-replacement","72","141377","0.0-34.0","57853241","wem/bandit_party_2","A5BMKZRGHNSRT","either","6","3797","","","32","","","","","","","","","","","","","","","","","","","","","","","","","","","","","","","","","","","","",""
"","text-replacement","73","142873","0.0-35.0","57853241","wem/bandit_party_2","A5BMKZRGHNSRT","either","6","1494","","","32","","","","","","","","","","","","","","","","","","","","","","","","","","","","","","","","","","","","",""
"","text-replacement","74","143560","0.0-36.0","57853241","wem/bandit_party_2","A5BMKZRGHNSRT","either","6","686","","","32","","","","","","","","","","","","","","","","","","","","","","","","","","","","","","","","","","","","",""
"","text-replacement","75","145521","0.0-37.0","57853241","wem/bandit_party_2","A5BMKZRGHNSRT","either","6","1958","","","32","","","","","","","","","","","","","","","","","","","","","","","","","","","","","","","","","","","","",""
"","text-replacement","76","146584","0.0-38.0","57853241","wem/bandit_party_2","A5BMKZRGHNSRT","either","6","1062","","","32","","","","","","","","","","","","","","","","","","","","","","","","","","","","","","","","","","","","",""
"","survey-multi-choice-replacement","77","149567","0.0-39.0-0.0","57853241","wem/bandit_party_2","A5BMKZRGHNSRT","either","6","2961","","","","","","","","","","","","","","","","","","","","","","","","Money will be added to the pool for <span style='color:blue;'>DEMOCRATS</span>","","","","","","","attn_check","","","","","","","","","0"
"","survey-multi-choice-replacement","78","151622","0.0-40.0-0.0","57853241","wem/bandit_party_2","A5BMKZRGHNSRT","either","6","1034","","","","","","","","","","","","","","","","","","","","","","","","Equal amounts of money will be added to the pool for <span style='color:blue;'>DEMOCRATS</span> and subtracted from the pool for <span style='color:red;'>REPUBLICANS</span>","","","","","","","attn_check","","","","","","","","","2"
"","survey-multi-choice-replacement","79","153687","0.0-41.0-0.0","57853241","wem/bandit_party_2","A5BMKZRGHNSRT","either","6","1045","","","","","","","","","","","","","","","","","","","","","","","","No money will be added to either pool","","","","","","","attn_check","","","","","","","","","3"
"","bandit","80","156759","0.0-42.0-0.0","57853241","wem/bandit_party_2","A5BMKZRGHNSRT","either","6","564","","","","","","","0","0","1","","0.2309914537","0.8","0.2","0.4","0.6","0.2309914537","0.7197236342","0.1947351938","0.3049938501","","","","","","","","","","","","","","72","H","0","img/none_selected.jpg","","1","main_expt",""
"","bandit","81","158712","0.0-43.0-0.0","57853241","wem/bandit_party_2","A5BMKZRGHNSRT","either","6","448","","","","","","","0","1","0","","0.7453792406","0.8","0.2","0.4","0.6","0.2351366282","0.7453792406","0.1865171684","0.3105507028","","","","","","","","","","","","","","74","J","1","","","2","main_expt",""
"","bandit","82","160566","0.0-44.0-0.0","57853241","wem/bandit_party_2","A5BMKZRGHNSRT","either","6","350","","","","","","","0","0","1","","0.7422746785","0.8","0.2","0.4","0.6","0.3338792953","0.7422746785","0.1578482069","0.347932066","","","","","","","","","","","","","","74","J","1","","","3","main_expt",""
"","bandit","83","162190","0.0-45.0-0.0","57853241","wem/bandit_party_2","A5BMKZRGHNSRT","either","6","119","","","","","","","0","0","1","","0.1733557992","0.8","0.2","0.4","0.6","0.2578124611","0.8152876082","0.1733557992","0.294099503","","","","","","","","","","","","","","75","K","2","","","4","main_expt",""
"","bandit","84","163950","0.0-46.0-0.0","57853241","wem/bandit_party_2","A5BMKZRGHNSRT","either","6","256","","","","","","","0","1","0","","0.256228135","0.8","0.2","0.4","0.6","0.152782507","0.8494846052","0.1275681293","0.256228135","","","","","","","","","","","","","","76","L","3","","","5","main_expt",""
"","bandit","85","165631","0.0-47.0-0.0","57853241","wem/bandit_party_2","A5BMKZRGHNSRT","either","6","176","","","","","","","0","0","1","0.3142053347","","0.8","0.2","0.4","0.6","","","","","0.200224935","0.8036792828","0.1776351543","0.3142053347","","","","","","","","","","76","L","3","","","6","main_expt",""
"","bandit","86","167143","0.0-48.0-0.0","57853241","wem/bandit_party_2","A5BMKZRGHNSRT","either","6","6","","","","","","","0","1","0","","0.1412615145","0.8","0.2","0.4","0.6","0.2200442108","0.8659664865","0.1412615145","0.2382568898","","","","","","","","","","","","","","75","K","2","","","7","main_expt",""
"","bandit","87","168649","0.0-49.0-0.0","57853241","wem/bandit_party_2","A5BMKZRGHNSRT","either","6","0","","","","","","","0","1","0","","0.8475436228","0.8","0.2","0.4","0.6","0.1516915951","0.8475436228","0.1508054742","0.220471749","","","","","","","","","","","","","","74","J","1","","","8","main_expt",""
"","bandit","88","170262","0.0-50.0-0.0","57853241","wem/bandit_party_2","A5BMKZRGHNSRT","either","6","109","","","","","","","0","0","1","0.1882404854","","0.8","0.2","0.4","0.6","","","","","0.1468829212","0.8034999265","0.1882404854","0.2842820234","","","","","","","","","","75","K","2","","","9","main_expt",""
"","bandit","89","172151","0.0-51.0-0.0","57853241","wem/bandit_party_2","A5BMKZRGHNSRT","either","6","384","","","","","","","1","0","0","0.7148412232","","0.8","0.2","0.4","0.6","","","","","0.1507643719","0.7148412232","0.1731305678","0.3392415315","","","","","","","","","","74","J","1","","","10","main_expt",""
"","bandit","90","173990","0.0-52.0-0.0","57853241","wem/bandit_party_2","A5BMKZRGHNSRT","either","6","335","","","","","","","0","0","1","0.18301","","0.8","0.2","0.4","0.6","","","","","0.18301","0.7213030285","0.2475279461","0.4470346709","","","","","","","","","","72","H","0","img/none_selected.jpg","","11","main_expt",""
"","bandit","91","175654","0.0-53.0-0.0","57853241","wem/bandit_party_2","A5BMKZRGHNSRT","either","6","160","","","","","","","0","1","0","","0.7396148754","0.8","0.2","0.4","0.6","0.209562337","0.7396148754","0.2068792089","0.5143820195","","","","","","","","","","","","","","74","J","1","","","12","main_expt",""
"","bandit","92","177342","0.0-54.0-0.0","57853241","wem/bandit_party_2","A5BMKZRGHNSRT","either","6","184","","","","","","","0","0","1","","0.1594062408","0.8","0.2","0.4","0.6","0.2133897639","0.6870781676","0.1594062408","0.4934308908","","","","","","","","","","","","","","75","K","2","","","13","main_expt",""
"","bandit","93","179223","0.0-55.0-0.0","57853241","wem/bandit_party_2","A5BMKZRGHNSRT","either","6","375","","","","","","","1","0","0","0.5884397519","","0.8","0.2","0.4","0.6","","","","","0.1865122749","0.6561171826","0.1808320347","0.5884397519","","","","","","","","","","76","L","3","","","14","main_expt",""
"","bandit","94","181112","0.0-56.0-0.0","57853241","wem/bandit_party_2","A5BMKZRGHNSRT","either","6","384","","","","","","","0","0","1","0.3169691733","","0.8","0.2","0.4","0.6","","","","","0.3169691733","0.6255101569","0.2401125286","0.425765204","","","","","","","","","","72","H","0","img/none_selected.jpg","","15","main_expt",""
"","bandit","95","182727","0.0-57.0-0.0","57853241","wem/bandit_party_2","A5BMKZRGHNSRT","either","6","111","","","","","","","0","0","1","","0.6101220295","0.8","0.2","0.4","0.6","0.3927767979","0.6101220295","0.1823220599","0.4458974369","","","","","","","","","","","","","","74","J","1","","","16","main_expt",""
"","bandit","96","184247","0.0-58.0-0.0","57853241","wem/bandit_party_2","A5BMKZRGHNSRT","either","6","16","","","","","","","0","0","1","","0.2076179308","0.8","0.2","0.4","0.6","0.2882183284","0.6233337625","0.2076179308","0.4907358526","","","","","","","","","","","","","","75","K","2","","","17","main_expt",""
"","bandit","97","185983","0.0-59.0-0.0","57853241","wem/bandit_party_2","A5BMKZRGHNSRT","either","6","232","","","","","","","1","0","0","0.4895096529","","0.8","0.2","0.4","0.6","","","","","0.3212622409","0.598865074","0.2310064443","0.4895096529","","","","","","","","","","76","L","3","","","18","main_expt",""
"","bandit","98","187543","0.0-60.0-0.0","57853241","wem/bandit_party_2","A5BMKZRGHNSRT","either","6","55","","","","","","","0","0","1","0.3678238944","","0.8","0.2","0.4","0.6","","","","","0.3678238944","0.6318918302","0.1919199612","0.5437378015","","","","","","","","","","72","H","0","img/none_selected.jpg","","19","main_expt",""
"","bandit","99","189224","0.0-61.0-0.0","57853241","wem/bandit_party_2","A5BMKZRGHNSRT","either","6","174","","","","","","","0","0","1","","0.5667690756","0.8","0.2","0.4","0.6","0.4357360734","0.5667690756","0.2150176637","0.543071052","","","","","","","","","","","","","","74","J","1","","","20","main_expt",""
"","bandit","100","190824","0.0-62.0-0.0","57853241","wem/bandit_party_2","A5BMKZRGHNSRT","either","6","96","","","","","","","0","0","1","0.2980309021","","0.8","0.2","0.4","0.6","","","","","0.4486518506","0.6364396753","0.2980309021","0.5457928974","","","","","","","","","","75","K","2","","","21","main_expt",""
"","bandit","101","192576","0.0-63.0-0.0","57853241","wem/bandit_party_2","A5BMKZRGHNSRT","either","6","247","","","","","","","0","0","1","","0.4531799458","0.8","0.2","0.4","0.6","0.5145372488","0.5563436533","0.3238742104","0.4531799458","","","","","","","","","","","","","","76","L","3","","","22","main_expt",""
"","bandit","102","194207","0.0-64.0-0.0","57853241","wem/bandit_party_2","A5BMKZRGHNSRT","either","6","127","","","","","","","0","0","1","0.4321579995","","0.8","0.2","0.4","0.6","","","","","0.6324996067","0.4555064456","0.4158928209","0.4321579995","","","","","","","","","","76","L","3","","","23","main_expt",""
"","bandit","103","195736","0.0-65.0-0.0","57853241","wem/bandit_party_2","A5BMKZRGHNSRT","either","6","23","","","","","","","1","0","0","0.3892872195","","0.8","0.2","0.4","0.6","","","","","0.6665025749","0.4398961724","0.2798670784","0.3892872195","","","","","","","","","","76","L","3","","","24","main_expt",""
"","bandit","104","197376","0.0-66.0-0.0","57853241","wem/bandit_party_2","A5BMKZRGHNSRT","either","6","134","","","","","","","0","0","1","","0.3932164435","0.8","0.2","0.4","0.6","0.5316582614","0.3810464824","0.3932164435","0.4322880781","","","","","","","","","","","","","","75","K","2","","","25","main_expt",""
"","bandit","105","199087","0.0-67.0-0.0","57853241","wem/bandit_party_2","A5BMKZRGHNSRT","either","6","207","","","","","","","0","0","1","","0.3243459504","0.8","0.2","0.4","0.6","0.4282094451","0.451695138","0.3243459504","0.4560392573","","","","","","","","","","","","","","75","K","2","","","26","main_expt",""
"","bandit","106","200823","0.0-68.0-0.0","57853241","wem/bandit_party_2","A5BMKZRGHNSRT","either","6","232","","","","","","","0","1","0","","0.4266302179","0.8","0.2","0.4","0.6","0.4711380508","0.4423729324","0.4266302179","0.5372901799","","","","","","","","","","","","","","75","K","2","","","27","main_expt",""
"","bandit","107","202543","0.0-69.0-0.0","57853241","wem/bandit_party_2","A5BMKZRGHNSRT","either","6","215","","","","","","","1","0","0","0.4221124674","","0.8","0.2","0.4","0.6","","","","","0.4539290932","0.4221124674","0.4206607535","0.6619872032","","","","","","","","","","74","J","1","","","28","main_expt",""
"","bandit","108","204095","0.0-70.0-0.0","57853241","wem/bandit_party_2","A5BMKZRGHNSRT","either","6","46","","","","","","","0","0","1","","0.489207998","0.8","0.2","0.4","0.6","0.4378511583","0.489207998","0.440099583","0.5939885142","","","","","","","","","","","","","","74","J","1","","","29","main_expt",""
"","bandit","109","205800","0.0-71.0-0.0","57853241","wem/bandit_party_2","A5BMKZRGHNSRT","either","6","199","","","","","","","0","0","1","","0.3425428874","0.8","0.2","0.4","0.6","0.3425428874","0.4406356357","0.3982168329","0.5602145404","","","","","","","","","","","","","","72","H","0","img/none_selected.jpg","","30","main_expt",""
"","bandit","110","207672","0.0-72.0-0.0","57853241","wem/bandit_party_2","A5BMKZRGHNSRT","either","6","366","","","","","","","0","0","1","","0.2354865125","0.8","0.2","0.4","0.6","0.2354865125","0.484130952","0.3573437221","0.5376870091","","","","","","","","","","","","","","72","H","0","img/none_selected.jpg","","31","main_expt",""
"","bandit","111","209351","0.0-73.0-0.0","57853241","wem/bandit_party_2","A5BMKZRGHNSRT","either","6","175","","","","","","","0","1","0","","0.432294219","0.8","0.2","0.4","0.6","0.2552437171","0.432294219","0.3712986889","0.6346195819","","","","","","","","","","","","","","74","J","1","","","32","main_expt",""
"","bandit","112","211095","0.0-74.0-0.0","57853241","wem/bandit_party_2","A5BMKZRGHNSRT","either","6","239","","","","","","","0","0","1","","0.4821309474","0.8","0.2","0.4","0.6","0.2470382599","0.4821309474","0.45096985","0.7540961955","","","","","","","","","","","","","","74","J","1","","","33","main_expt",""
"","bandit","113","212783","0.0-75.0-0.0","57853241","wem/bandit_party_2","A5BMKZRGHNSRT","either","6","184","","","","","","","0","1","0","","0.4702474349","0.8","0.2","0.4","0.6","0.2951894024","0.4702474349","0.5559331637","0.699797925","","","","","","","","","","","","","","74","J","1","","","34","main_expt",""
"","bandit","114","214511","0.0-76.0-0.0","57853241","wem/bandit_party_2","A5BMKZRGHNSRT","either","6","223","","","","","","","0","0","1","","0.5363697359","0.8","0.2","0.4","0.6","0.2596626779","0.5363697359","0.7354386419","0.7410295452","","","","","","","","","","","","","","74","J","1","","","35","main_expt",""
"","bandit","115","216255","0.0-77.0-0.0","57853241","wem/bandit_party_2","A5BMKZRGHNSRT","either","6","239","","","","","","","0","1","0","","0.602250539","0.8","0.2","0.4","0.6","0.3164764808","0.602250539","0.6934166837","0.7332281969","","","","","","","","","","","","","","74","J","1","","","36","main_expt",""
"","bandit","116","217991","0.0-78.0-0.0","57853241","wem/bandit_party_2","A5BMKZRGHNSRT","either","6","232","","","","","","","0","1","0","","0.5337433964","0.8","0.2","0.4","0.6","0.3672962009","0.5337433964","0.6311869688","0.736713329","","","","","","","","","","","","","","74","J","1","","","37","main_expt",""
"","bandit","117","219903","0.0-79.0-0.0","57853241","wem/bandit_party_2","A5BMKZRGHNSRT","either","6","408","","","","","","","0","0","1","","0.5970413872","0.8","0.2","0.4","0.6","0.4056598401","0.5970413872","0.6583504975","0.6860808007","","","","","","","","","","","","","","74","J","1","","","38","main_expt",""
"","bandit","118","221607","0.0-80.0-0.0","57853241","wem/bandit_party_2","A5BMKZRGHNSRT","either","6","199","","","","","","","0","0","1","0.5861321806","","0.8","0.2","0.4","0.6","","","","","0.4236995386","0.6529448079","0.5861321806","0.7498761973","","","","","","","","","","75","K","2","","","39","main_expt",""
"","bandit","119","223256","0.0-81.0-0.0","57853241","wem/bandit_party_2","A5BMKZRGHNSRT","either","6","143","","","","","","","0","1","0","","0.7043283504","0.8","0.2","0.4","0.6","0.4365163158","0.6612991154","0.4892836735","0.7043283504","","","","","","","","","","","","","","76","L","3","","","40","main_expt",""
"","bandit","120","225032","0.0-82.0-0.0","57853241","wem/bandit_party_2","A5BMKZRGHNSRT","either","6","270","","","","","","","0","0","1","","0.6469690382","0.8","0.2","0.4","0.6","0.4854269132","0.7390431107","0.3479900608","0.6469690382","","","","","","","","","","","","","","76","L","3","","","41","main_expt",""
"","bandit","121","226544","0.0-83.0-0.0","57853241","wem/bandit_party_2","A5BMKZRGHNSRT","either","6","7","","","","","","","1","0","0","0.6388905256","","0.8","0.2","0.4","0.6","","","","","0.4753587859","0.7609423287","0.376709287","0.6388905256","","","","","","","","","","76","L","3","","","42","main_expt",""
"","bandit","122","228064","0.0-84.0-0.0","57853241","wem/bandit_party_2","A5BMKZRGHNSRT","either","6","14","","","","","","","0","1","0","","0.4319300722","0.8","0.2","0.4","0.6","0.452202747","0.8039673949","0.4319300722","0.6383372244","","","","","","","","","","","","","","75","K","2","","","43","main_expt",""
"","bandit","123","229815","0.0-85.0-0.0","57853241","wem/bandit_party_2","A5BMKZRGHNSRT","either","6","246","","","","","","","0","1","0","","0.4458636389","0.8","0.2","0.4","0.6","0.5522191005","0.8216753652","0.4458636389","0.6247854939","","","","","","","","","","","","","","75","K","2","","","44","main_expt",""
"","bandit","124","231391","0.0-86.0-0.0","57853241","wem/bandit_party_2","A5BMKZRGHNSRT","either","6","71","","","","","","","0","0","1","","0.4323480181","0.8","0.2","0.4","0.6","0.4878962787","0.7636866317","0.4323480181","0.6341880498","","","","","","","","","","","","","","75","K","2","","","45","main_expt",""
"","bandit","125","233042","0.0-87.0-0.0","57853241","wem/bandit_party_2","A5BMKZRGHNSRT","either","6","144","","","","","","","0","1","0","","0.8203755575","0.8","0.2","0.4","0.6","0.487595293","0.8203755575","0.4348202433","0.5081310512","","","","","","","","","","","","","","74","J","1","","","46","main_expt",""
"","bandit","126","234615","0.0-88.0-0.0","57853241","wem/bandit_party_2","A5BMKZRGHNSRT","either","6","69","","","","","","","0","1","0","","0.8706375764","0.8","0.2","0.4","0.6","0.444754188","0.8706375764","0.3430847618","0.4202927251","","","","","","","","","","","","","","74","J","1","","","47","main_expt",""
"","bandit","127","236279","0.0-89.0-0.0","57853241","wem/bandit_party_2","A5BMKZRGHNSRT","either","6","159","","","","","","","0","1","0","","0.8019506245","0.8","0.2","0.4","0.6","0.5044276746","0.8019506245","0.2601977795","0.4767868938","","","","","","","","","","","","","","74","J","1","","","48","main_expt",""
"","bandit","128","237847","0.0-90.0-0.0","57853241","wem/bandit_party_2","A5BMKZRGHNSRT","either","6","63","","","","","","","0","1","0","","0.7331224435","0.8","0.2","0.4","0.6","0.3766714482","0.7331224435","0.2368144698","0.3749468019","","","","","","","","","","","","","","74","J","1","","","49","main_expt",""
"","bandit","129","239608","0.0-91.0-0.0","57853241","wem/bandit_party_2","A5BMKZRGHNSRT","either","6","255","","","","","","","1","0","0","0.7908344101","","0.8","0.2","0.4","0.6","","","","","0.406992786","0.7908344101","0.2484527115","0.3532902347","","","","","","","","","","74","J","1","","","50","main_expt",""
"","bandit","130","241304","0.0-92.0-0.0","57853241","wem/bandit_party_2","A5BMKZRGHNSRT","either","6","190","","","","","","","0","1","0","","0.7922828235","0.8","0.2","0.4","0.6","0.3854505747","0.7922828235","0.230268934","0.2413466802","","","","","","","","","","","","","","74","J","1","","","51","main_expt",""
"","bandit","131","242904","0.0-93.0-0.0","57853241","wem/bandit_party_2","A5BMKZRGHNSRT","either","6","94","","","","","","","0","1","0","","0.7485378942","0.8","0.2","0.4","0.6","0.3956915145","0.7485378942","0.3429002399","0.2673723166","","","","","","","","","","","","","","74","J","1","","","52","main_expt",""
"","bandit","132","244600","0.0-94.0-0.0","57853241","wem/bandit_party_2","A5BMKZRGHNSRT","either","6","190","","","","","","","1","0","0","0.6603794952","","0.8","0.2","0.4","0.6","","","","","0.3062348001","0.6603794952","0.2871029552","0.2806035608","","","","","","","","","","74","J","1","","","53","main_expt",""
"","bandit","133","246184","0.0-95.0-0.0","57853241","wem/bandit_party_2","A5BMKZRGHNSRT","either","6","78","","","","","","","0","1","0","","0.6931449795","0.8","0.2","0.4","0.6","0.2996500993","0.6931449795","0.2594444468","0.2544312064","","","","","","","","","","","","","","74","J","1","","","54","main_expt",""
"","bandit","134","247991","0.0-96.0-0.0","57853241","wem/bandit_party_2","A5BMKZRGHNSRT","either","6","302","","","","","","","0","1","0","","0.7553272845","0.8","0.2","0.4","0.6","0.2518247787","0.7553272845","0.3333749245","0.3362815808","","","","","","","","","","","","","","74","J","1","","","55","main_expt",""
"","bandit","135","249607","0.0-97.0-0.0","57853241","wem/bandit_party_2","A5BMKZRGHNSRT","either","6","111","","","","","","","1","0","0","0.7231548626","","0.8","0.2","0.4","0.6","","","","","0.3014763065","0.7231548626","0.3049104067","0.3798256012","","","","","","","","","","74","J","1","","","56","main_expt",""
"","bandit","136","251335","0.0-98.0-0.0","57853241","wem/bandit_party_2","A5BMKZRGHNSRT","either","6","223","","","","","","","0","0","1","","0.7485901337","0.8","0.2","0.4","0.6","0.2730843718","0.7485901337","0.3623273811","0.3989549393","","","","","","","","","","","","","","74","J","1","","","57","main_expt",""
"","bandit","137","252887","0.0-99.0-0.0","57853241","wem/bandit_party_2","A5BMKZRGHNSRT","either","6","47","","","","","","","0","0","1","0.797082508","","0.8","0.2","0.4","0.6","","","","","0.367239041","0.797082508","0.3621169042","0.3373398956","","","","","","","","","","74","J","1","","","58","main_expt",""
"","bandit","138","254647","0.0-100.0-0.0","57853241","wem/bandit_party_2","A5BMKZRGHNSRT","either","6","255","","","","","","","0","0","1","","0.4005220403","0.8","0.2","0.4","0.6","0.4005220403","0.7466963627","0.3672848169","0.3381045731","","","","","","","","","","","","","","72","H","0","img/none_selected.jpg","","59","main_expt",""
"","bandit","139","256671","0.0-101.0-0.0","57853241","wem/bandit_party_2","A5BMKZRGHNSRT","either","6","519","","","","","","","0","0","1","0.5123874715","","0.8","0.2","0.4","0.6","","","","","0.4863912708","0.6359615323","0.5123874715","0.4838111383","","","","","","","","","","75","K","2","","","60","main_expt",""
"","bandit","140","258240","0.0-102.0-0.0","57853241","wem/bandit_party_2","A5BMKZRGHNSRT","either","6","62","","","","","","","0","1","0","","0.4290776342","0.8","0.2","0.4","0.6","0.5220595343","0.7125939799","0.5218319631","0.4290776342","","","","","","","","","","","","","","76","L","3","","","61","main_expt",""
"","bandit","141","259768","0.0-103.0-0.0","57853241","wem/bandit_party_2","A5BMKZRGHNSRT","either","6","22","","","","","","","0","0","1","","0.4387439774","0.8","0.2","0.4","0.6","0.5447889898","0.5978650666","0.6482151027","0.4387439774","","","","","","","","","","","","","","76","L","3","","","62","main_expt",""
"","bandit","142","261536","0.0-104.0-0.0","57853241","wem/bandit_party_2","A5BMKZRGHNSRT","either","6","262","","","","","","","0","0","1","0.3670418014","","0.8","0.2","0.4","0.6","","","","","0.5517390004","0.5166338879","0.6966290852","0.3670418014","","","","","","","","","","76","L","3","","","63","main_expt",""
"","bandit","143","263152","0.0-105.0-0.0","57853241","wem/bandit_party_2","A5BMKZRGHNSRT","either","6","110","","","","","","","1","0","0","0.6497033777","","0.8","0.2","0.4","0.6","","","","","0.6576188384","0.4901650138","0.6497033777","0.3470393933","","","","","","","","","","75","K","2","","","64","main_expt",""
"","bandit","144","264832","0.0-106.0-0.0","57853241","wem/bandit_party_2","A5BMKZRGHNSRT","either","6","175","","","","","","","0","1","0","","0.459365688","0.8","0.2","0.4","0.6","0.5156176703","0.459365688","0.6925184903","0.3361574661","","","","","","","","","","","","","","74","J","1","","","65","main_expt",""
"","bandit","145","266495","0.0-107.0-0.0","57853241","wem/bandit_party_2","A5BMKZRGHNSRT","either","6","158","","","","","","","0","0","1","","0.4666104807","0.8","0.2","0.4","0.6","0.3851410914","0.4666104807","0.8298767513","0.34308242","","","","","","","","","","","","","","74","J","1","","","66","main_expt",""
"","bandit","146","268263","0.0-108.0-0.0","57853241","wem/bandit_party_2","A5BMKZRGHNSRT","either","6","263","","","","","","","0","1","0","","0.5547259005","0.8","0.2","0.4","0.6","0.3925250542","0.5547259005","0.8506596021","0.3730603492","","","","","","","","","","","","","","74","J","1","","","67","main_expt",""
"","bandit","147","269919","0.0-109.0-0.0","57853241","wem/bandit_party_2","A5BMKZRGHNSRT","either","6","151","","","","","","","0","0","1","","0.6038719492","0.8","0.2","0.4","0.6","0.3884113518","0.6038719492","0.8536910832","0.4089949532","","","","","","","","","","","","","","74","J","1","","","68","main_expt",""
"","bandit","148","271559","0.0-110.0-0.0","57853241","wem/bandit_party_2","A5BMKZRGHNSRT","either","6","135","","","","","","","0","1","0","","0.6148283845","0.8","0.2","0.4","0.6","0.3434478979","0.6148283845","0.8642538991","0.3749002533","","","","","","","","","","","","","","74","J","1","","","69","main_expt",""
"","bandit","149","273391","0.0-111.0-0.0","57853241","wem/bandit_party_2","A5BMKZRGHNSRT","either","6","327","","","","","","","0","0","1","0.6683283761","","0.8","0.2","0.4","0.6","","","","","0.4426642051","0.6683283761","0.8073802352","0.4133869845","","","","","","","","","","74","J","1","","","70","main_expt",""
"","bandit","150","275104","0.0-112.0-0.0","57853241","wem/bandit_party_2","A5BMKZRGHNSRT","either","6","207","","","","","","","0","0","1","0.738459761","","0.8","0.2","0.4","0.6","","","","","0.4518046004","0.738459761","0.8059201048","0.3302164541","","","","","","","","","","74","J","1","","","71","main_expt",""
"","bandit","151","276824","0.0-113.0-0.0","57853241","wem/bandit_party_2","A5BMKZRGHNSRT","either","6","214","","","","","","","0","0","1","","0.4903223245","0.8","0.2","0.4","0.6","0.4903223245","0.6525166508","0.8262275011","0.2570952275","","","","","","","","","","","","","","72","H","0","img/none_selected.jpg","","72","main_expt",""
"","bandit","152","278480","0.0-114.0-0.0","57853241","wem/bandit_party_2","A5BMKZRGHNSRT","either","6","150","","","","","","","0","0","1","0.5296083002","","0.8","0.2","0.4","0.6","","","","","0.5296083002","0.5715134512","0.7334390718","0.2042885023","","","","","","","","","","72","H","0","img/none_selected.jpg","","73","main_expt",""
"","bandit","153","280120","0.0-115.0-0.0","57853241","wem/bandit_party_2","A5BMKZRGHNSRT","either","6","134","","","","","","","0","0","1","0.4883026933","","0.8","0.2","0.4","0.6","","","","","0.4883026933","0.6228045854","0.7490977197","0.2152837516","","","","","","","","","","72","H","0","img/none_selected.jpg","","74","main_expt",""
"","bandit","154","281791","0.0-116.0-0.0","57853241","wem/bandit_party_2","A5BMKZRGHNSRT","either","6","166","","","","","","","0","1","0","","0.7554087461","0.8","0.2","0.4","0.6","0.4914171484","0.613630376","0.7554087461","0.2044775694","","","","","","","","","","","","","","75","K","2","","","75","main_expt",""
"","bandit","155","283327","0.0-117.0-0.0","57853241","wem/bandit_party_2","A5BMKZRGHNSRT","either","6","31","","","","","","","0","1","0","","0.804443878","0.8","0.2","0.4","0.6","0.6059218973","0.7047266053","0.804443878","0.2247613499","","","","","","","","","","","","","","75","K","2","","","76","main_expt",""
"","bandit","156","285015","0.0-118.0-0.0","57853241","wem/bandit_party_2","A5BMKZRGHNSRT","either","6","183","","","","","","","1","0","0","0.6656620098","","0.8","0.2","0.4","0.6","","","","","0.553792366","0.6910360943","0.6656620098","0.2266335256","","","","","","","","","","75","K","2","","","77","main_expt",""
"","bandit","157","286615","0.0-119.0-0.0","57853241","wem/bandit_party_2","A5BMKZRGHNSRT","either","6","95","","","","","","","0","1","0","","0.5898140708","0.8","0.2","0.4","0.6","0.6884193839","0.5515992215","0.5898140708","0.1659731505","","","","","","","","","","","","","","75","K","2","","","78","main_expt",""
"","bandit","158","288308","0.0-120.0-0.0","57853241","wem/bandit_party_2","A5BMKZRGHNSRT","either","6","185","","","","","","","1","0","0","0.613215191","","0.8","0.2","0.4","0.6","","","","","0.7214277645","0.6448399581","0.613215191","0.2343921172","","","","","","","","","","75","K","2","","","79","main_expt",""
"","bandit","159","290071","0.0-121.0-0.0","57853241","wem/bandit_party_2","A5BMKZRGHNSRT","either","6","255","","","","","","","0","0","1","","0.4605925783","0.8","0.2","0.4","0.6","0.7328142644","0.739479497","0.4605925783","0.2164054515","","","","","","","","","","","","","","75","K","2","","","80","main_expt",""
"","bandit","160","291759","0.0-122.0-0.0","57853241","wem/bandit_party_2","A5BMKZRGHNSRT","either","6","182","","","","","","","0","0","1","0.1361232007","","0.8","0.2","0.4","0.6","","","","","0.7101675561","0.6956071838","0.5390789087","0.1361232007","","","","","","","","","","76","L","3","","","81","main_expt",""
"","bandit","161","293267","0.0-123.0-0.0","57853241","wem/bandit_party_2","A5BMKZRGHNSRT","either","6","1","","","","","","","0","0","1","","0.2275447725","0.8","0.2","0.4","0.6","0.6984384541","0.5886517937","0.621290364","0.2275447725","","","","","","","","","","","","","","76","L","3","","","82","main_expt",""
"","bandit","162","295136","0.0-124.0-0.0","57853241","wem/bandit_party_2","A5BMKZRGHNSRT","either","6","363","","","","","","","0","0","1","0.1900607051","","0.8","0.2","0.4","0.6","","","","","0.7447883659","0.4764182235","0.6359424421","0.1900607051","","","","","","","","","","76","L","3","","","83","main_expt",""
"","bandit","163","297104","0.0-125.0-0.0","57853241","wem/bandit_party_2","A5BMKZRGHNSRT","either","6","463","","","","","","","1","0","0","0.1306868958","","0.8","0.2","0.4","0.6","","","","","0.6900592863","0.5149027494","0.6133664729","0.1306868958","","","","","","","","","","76","L","3","","","84","main_expt",""
"","bandit","164","299464","0.0-126.0-0.0","57853241","wem/bandit_party_2","A5BMKZRGHNSRT","either","6","854","","","","","","","1","0","0","0.1683201849","","0.8","0.2","0.4","0.6","","","","","0.7010597455","0.4908067213","0.7815463305","0.1683201849","","","","","","","","","","76","L","3","","","85","main_expt",""
"","bandit","165","301343","0.0-127.0-0.0","57853241","wem/bandit_party_2","A5BMKZRGHNSRT","either","6","374","","","","","","","0","0","1","0.1290314955","","0.8","0.2","0.4","0.6","","","","","0.6171062652","0.4139472458","0.7355789231","0.1290314955","","","","","","","","","","76","L","3","","","86","main_expt",""
"","bandit","166","302895","0.0-128.0-0.0","57853241","wem/bandit_party_2","A5BMKZRGHNSRT","either","6","46","","","","","","","1","0","0","0.7267399876","","0.8","0.2","0.4","0.6","","","","","0.5629375242","0.4253818619","0.7267399876","0.2297537383","","","","","","","","","","75","K","2","","","87","main_expt",""
"","bandit","167","304656","0.0-129.0-0.0","57853241","wem/bandit_party_2","A5BMKZRGHNSRT","either","6","255","","","","","","","0","0","1","","0.7703195612","0.8","0.2","0.4","0.6","0.6434443074","0.4448862761","0.7703195612","0.1878263516","","","","","","","","","","","","","","75","K","2","","","88","main_expt",""
"","bandit","168","306313","0.0-130.0-0.0","57853241","wem/bandit_party_2","A5BMKZRGHNSRT","either","6","150","","","","","","","0","0","1","","0.81872988","0.8","0.2","0.4","0.6","0.7296698787","0.4295642349","0.81872988","0.1896964823","","","","","","","","","","","","","","75","K","2","","","89","main_expt",""
"","bandit","169","308328","0.0-131.0-0.0","57853241","wem/bandit_party_2","A5BMKZRGHNSRT","either","6","508","","","","","","","0","1","0","","0.8032570632","0.8","0.2","0.4","0.6","0.7042864347","0.3655203192","0.8032570632","0.1614970172","","","","","","","","","","","","","","75","K","2","","","90","main_expt",""
"","bandit","170","310384","0.0-132.0-0.0","57853241","wem/bandit_party_2","A5BMKZRGHNSRT","either","6","548","","","","","","","1","0","0","0.8257352781","","0.8","0.2","0.4","0.6","","","","","0.7606559624","0.402428746","0.8257352781","0.2107705911","","","","","","","","","","75","K","2","","","91","main_expt",""
"","bandit","171","312016","0.0-133.0-0.0","57853241","wem/bandit_party_2","A5BMKZRGHNSRT","either","6","126","","","","","","","0","0","1","0.7762210657","","0.8","0.2","0.4","0.6","","","","","0.8466818248","0.452733603","0.7762210657","0.1317951273","","","","","","","","","","75","K","2","","","92","main_expt",""
"","bandit","172","313529","0.0-134.0-0.0","57853241","wem/bandit_party_2","A5BMKZRGHNSRT","either","6","7","","","","","","","0","0","1","0.5416456901","","0.8","0.2","0.4","0.6","","","","","0.8181600593","0.5416456901","0.8293629201","0.09268613222","","","","","","","","","","74","J","1","","","93","main_expt",""
"","bandit","173","315136","0.0-135.0-0.0","57853241","wem/bandit_party_2","A5BMKZRGHNSRT","either","6","101","","","","","","","0","0","1","0.5246039132","","0.8","0.2","0.4","0.6","","","","","0.7259749053","0.5246039132","0.7849393417","0.06418168538","","","","","","","","","","74","J","1","","","94","main_expt",""
"","bandit","174","316936","0.0-136.0-0.0","57853241","wem/bandit_party_2","A5BMKZRGHNSRT","either","6","294","","","","","","","0","1","0","","0.606801291","0.8","0.2","0.4","0.6","0.6538641892","0.606801291","0.7850226125","0.100072779","","","","","","","","","","","","","","74","J","1","","","95","main_expt",""
"","bandit","175","318759","0.0-137.0-0.0","57853241","wem/bandit_party_2","A5BMKZRGHNSRT","either","6","317","","","","","","","0","0","1","","0.7175242067","0.8","0.2","0.4","0.6","0.6384360591","0.7175242067","0.8013150942","0.09628221604","","","","","","","","","","","","","","74","J","1","","","96","main_expt",""
"","bandit","176","320367","0.0-138.0-0.0","57853241","wem/bandit_party_2","A5BMKZRGHNSRT","either","6","103","","","","","","","0","1","0","","0.7706560561","0.8","0.2","0.4","0.6","0.6836118029","0.7706560561","0.70340399","0.1335622201","","","","","","","","","","","","","","74","J","1","","","97","main_expt",""
"","bandit","177","322256","0.0-139.0-0.0","57853241","wem/bandit_party_2","A5BMKZRGHNSRT","either","6","383","","","","","","","0","0","1","0.7234704616","","0.8","0.2","0.4","0.6","","","","","0.659457158","0.7234704616","0.7562517051","0.167202632","","","","","","","","","","74","J","1","","","98","main_expt",""
"","bandit","178","323975","0.0-140.0-0.0","57853241","wem/bandit_party_2","A5BMKZRGHNSRT","either","6","213","","","","","","","0","0","1","","0.6582042781","0.8","0.2","0.4","0.6","0.7726162223","0.6582042781","0.6514659141","0.1216125457","","","","","","","","","","","","","","74","J","1","","","99","main_expt",""
"","bandit","179","325687","0.0-141.0-0.0","57853241","wem/bandit_party_2","A5BMKZRGHNSRT","either","6","207","","","","","","","0","1","0","","0.6530973887","0.8","0.2","0.4","0.6","0.8446518706","0.6530973887","0.7112237606","0.1163239148","","","","","","","","","","","","","","74","J","1","","","100","main_expt",""
"","bandit","180","327215","0.0-142.0-0.0","57853241","wem/bandit_party_2","A5BMKZRGHNSRT","either","6","22","","","","","","","0","1","0","","0.6690961394","0.8","0.2","0.4","0.6","0.8784151442","0.6690961394","0.6865981462","0.1037928869","","","","","","","","","","","","","","74","J","1","","","101","main_expt",""
"","bandit","181","328761","0.0-143.0-0.0","57853241","wem/bandit_party_2","A5BMKZRGHNSRT","either","6","38","","","","","","","0","0","1","","0.6268844929","0.8","0.2","0.4","0.6","0.8781202538","0.6268844929","0.6663704066","0.0991068806","","","","","","","","","","","","","","74","J","1","","","102","main_expt",""
"","bandit","182","330312","0.0-144.0-0.0","57853241","wem/bandit_party_2","A5BMKZRGHNSRT","either","6","45","","","","","","","0","1","0","","0.6657789595","0.8","0.2","0.4","0.6","0.8123732176","0.6657789595","0.6006744832","0.1226752409","","","","","","","","","","","","","","74","J","1","","","103","main_expt",""
"","bandit","183","332080","0.0-145.0-0.0","57853241","wem/bandit_party_2","A5BMKZRGHNSRT","either","6","262","","","","","","","0","1","0","","0.8461937008","0.8","0.2","0.4","0.6","0.8461937008","0.6951589836","0.518723913","0.1552466415","","","","","","","","","","","","","","72","H","0","img/none_selected.jpg","","104","main_expt",""
"","bandit","184","333743","0.0-146.0-0.0","57853241","wem/bandit_party_2","A5BMKZRGHNSRT","either","6","157","","","","","","","1","0","0","0.8664825842","","0.8","0.2","0.4","0.6","","","","","0.8664825842","0.6382729445","0.5343999165","0.1702138509","","","","","","","","","","72","H","0","img/none_selected.jpg","","105","main_expt",""
"","bandit","185","335489","0.0-147.0-0.0","57853241","wem/bandit_party_2","A5BMKZRGHNSRT","either","6","239","","","","","","","1","0","0","0.8703997655","","0.8","0.2","0.4","0.6","","","","","0.8703997655","0.7139624249","0.4959998489","0.2021425125","","","","","","","","","","72","H","0","img/none_selected.jpg","","106","main_expt",""
"","bandit","186","337327","0.0-148.0-0.0","57853241","wem/bandit_party_2","A5BMKZRGHNSRT","either","6","330","","","","","","","1","0","0","0.8964314806","","0.8","0.2","0.4","0.6","","","","","0.8964314806","0.7718136471","0.5052663648","0.2196373816","","","","","","","","","","72","H","0","img/none_selected.jpg","","107","main_expt",""
"","bandit","187","339063","0.0-149.0-0.0","57853241","wem/bandit_party_2","A5BMKZRGHNSRT","either","6","230","","","","","","","1","0","0","0.9080126319","","0.8","0.2","0.4","0.6","","","","","0.9080126319","0.8818715302","0.4859582203","0.2393661099","","","","","","","","","","72","H","0","img/none_selected.jpg","","108","main_expt",""
"","bandit","188","340815","0.0-150.0-0.0","57853241","wem/bandit_party_2","A5BMKZRGHNSRT","either","6","247","","","","","","","1","0","0","0.8880845243","","0.8","0.2","0.4","0.6","","","","","0.8880845243","0.8757741924","0.523617738","0.2516352594","","","","","","","","","","72","H","0","img/none_selected.jpg","","109","main_expt",""
"","bandit","189","342487","0.0-151.0-0.0","57853241","wem/bandit_party_2","A5BMKZRGHNSRT","either","6","167","","","","","","","0","1","0","","0.899251136","0.8","0.2","0.4","0.6","0.899251136","0.8657151097","0.5492010791","0.2424291788","","","","","","","","","","","","","","72","H","0","img/none_selected.jpg","","110","main_expt",""
"","bandit","190","344280","0.0-152.0-0.0","57853241","wem/bandit_party_2","A5BMKZRGHNSRT","either","6","286","","","","","","","1","0","0","0.9019514556","","0.8","0.2","0.4","0.6","","","","","0.9019514556","0.8457624762","0.5467154696","0.2033086481","","","","","","","","","","72","H","0","img/none_selected.jpg","","111","main_expt",""
"","bandit","191","346088","0.0-153.0-0.0","57853241","wem/bandit_party_2","A5BMKZRGHNSRT","either","6","301","","","","","","","0","1","0","","0.9315537639","0.8","0.2","0.4","0.6","0.9315537639","0.8756116827","0.5396215981","0.208613213","","","","","","","","","","","","","","72","H","0","img/none_selected.jpg","","112","main_expt",""
"","bandit","192","347664","0.0-154.0-0.0","57853241","wem/bandit_party_2","A5BMKZRGHNSRT","either","6","70","","","","","","","1","0","0","0.9254394702","","0.8","0.2","0.4","0.6","","","","","0.9254394702","0.8773181328","0.5542875214","0.2743958833","","","","","","","","","","72","H","0","img/none_selected.jpg","","113","main_expt",""
"","bandit","193","349224","0.0-155.0-0.0","57853241","wem/bandit_party_2","A5BMKZRGHNSRT","either","6","54","","","","","","","0","1","0","","0.9394904604","0.8","0.2","0.4","0.6","0.9394904604","0.8842236373","0.6411428718","0.2657329006","","","","","","","","","","","","","","72","H","0","img/none_selected.jpg","","114","main_expt",""
"","bandit","194","350880","0.0-156.0-0.0","57853241","wem/bandit_party_2","A5BMKZRGHNSRT","either","6","149","","","","","","","1","0","0","0.9533355239","","0.8","0.2","0.4","0.6","","","","","0.9533355239","0.8499121835","0.7261400339","0.3234316928","","","","","","","","","","72","H","0","img/none_selected.jpg","","115","main_expt",""
"","bandit","195","352432","0.0-157.0-0.0","57853241","wem/bandit_party_2","A5BMKZRGHNSRT","either","6","46","","","","","","","1","0","0","0.960842596","","0.8","0.2","0.4","0.6","","","","","0.960842596","0.7890056153","0.7395407697","0.3625587123","","","","","","","","","","72","H","0","img/none_selected.jpg","","116","main_expt",""
"","bandit","196","353959","0.0-158.0-0.0","57853241","wem/bandit_party_2","A5BMKZRGHNSRT","either","6","21","","","","","","","0","1","0","","0.937733065","0.8","0.2","0.4","0.6","0.937733065","0.7709890197","0.8231731708","0.4946904956","","","","","","","","","","","","","","72","H","0","img/none_selected.jpg","","117","main_expt",""
"","bandit","197","355783","0.0-159.0-0.0","57853241","wem/bandit_party_2","A5BMKZRGHNSRT","either","6","319","","","","","","","1","0","0","0.9561499645","","0.8","0.2","0.4","0.6","","","","","0.9561499645","0.7459937787","0.8278750807","0.6246330079","","","","","","","","","","72","H","0","img/none_selected.jpg","","118","main_expt",""
"","bandit","198","358083","0.0-160.0-0.0","57853241","wem/bandit_party_2","A5BMKZRGHNSRT","either","6","790","","","","","","","0","1","0","","0.9595118281","0.8","0.2","0.4","0.6","0.9595118281","0.716881491","0.8715827524","0.5818097722","","","","","","","","","","","","","","72","H","0","img/none_selected.jpg","","119","main_expt",""
"","bandit","199","360736","0.0-161.0-0.0","57853241","wem/bandit_party_2","A5BMKZRGHNSRT","either","6","1143","","","","","","","1","0","0","0.9548463758","","0.8","0.2","0.4","0.6","","","","","0.9548463758","0.6595649419","0.8522670476","0.5990025551","","","","","","","","","","72","H","0","img/none_selected.jpg","","120","main_expt",""
"","bandit","200","362704","0.0-162.0-0.0","57853241","wem/bandit_party_2","A5BMKZRGHNSRT","either","6","462","","","","","","","1","0","0","0.958085665","","0.8","0.2","0.4","0.6","","","","","0.958085665","0.6576447048","0.8266542562","0.6534424477","","","","","","","","","","72","H","0","img/none_selected.jpg","","121","main_expt",""
"","bandit","201","364528","0.0-163.0-0.0","57853241","wem/bandit_party_2","A5BMKZRGHNSRT","either","6","317","","","","","","","1","0","0","0.9630601427","","0.8","0.2","0.4","0.6","","","","","0.9630601427","0.6391957719","0.81688531","0.5952731017","","","","","","","","","","72","H","0","img/none_selected.jpg","","122","main_expt",""
"","bandit","202","366208","0.0-164.0-0.0","57853241","wem/bandit_party_2","A5BMKZRGHNSRT","either","6","174","","","","","","","1","0","0","0.9790283764","","0.8","0.2","0.4","0.6","","","","","0.9790283764","0.5873908865","0.8307363081","0.6469086187","","","","","","","","","","72","H","0","img/none_selected.jpg","","123","main_expt",""
"","bandit","203","367816","0.0-165.0-0.0","57853241","wem/bandit_party_2","A5BMKZRGHNSRT","either","6","102","","","","","","","1","0","0","0.9718765302","","0.8","0.2","0.4","0.6","","","","","0.9718765302","0.6592760984","0.6943824695","0.6911454426","","","","","","","","","","72","H","0","img/none_selected.jpg","","124","main_expt",""
"","bandit","204","369560","0.0-166.0-0.0","57853241","wem/bandit_party_2","A5BMKZRGHNSRT","either","6","237","","","","","","","1","0","0","0.9845173964","","0.8","0.2","0.4","0.6","","","","","0.9845173964","0.6012083746","0.7137568944","0.750572215","","","","","","","","","","72","H","0","img/none_selected.jpg","","125","main_expt",""
"","bandit","205","371311","0.0-167.0-0.0","57853241","wem/bandit_party_2","A5BMKZRGHNSRT","either","6","245","","","","","","","1","0","0","0.9804670004","","0.8","0.2","0.4","0.6","","","","","0.9804670004","0.6043440275","0.6878742658","0.8108432581","","","","","","","","","","72","H","0","img/none_selected.jpg","","126","main_expt",""
"","bandit","206","373016","0.0-168.0-0.0","57853241","wem/bandit_party_2","A5BMKZRGHNSRT","either","6","198","","","","","","","1","0","0","0.9792667249","","0.8","0.2","0.4","0.6","","","","","0.9792667249","0.5043142332","0.6175454059","0.8338196277","","","","","","","","","","72","H","0","img/none_selected.jpg","","127","main_expt",""
"","bandit","207","374848","0.0-169.0-0.0","57853241","wem/bandit_party_2","A5BMKZRGHNSRT","either","6","326","","","","","","","1","0","0","0.9853815399","","0.8","0.2","0.4","0.6","","","","","0.9853815399","0.5778209799","0.5556505876","0.8624128669","","","","","","","","","","72","H","0","img/none_selected.jpg","","128","main_expt",""
"","bandit","208","376559","0.0-170.0-0.0","57853241","wem/bandit_party_2","A5BMKZRGHNSRT","either","6","206","","","","","","","1","0","0","0.9838319732","","0.8","0.2","0.4","0.6","","","","","0.9838319732","0.5806273004","0.5948532478","0.9026068167","","","","","","","","","","72","H","0","img/none_selected.jpg","","129","main_expt",""
"","bandit","209","378164","0.0-171.0-0.0","57853241","wem/bandit_party_2","A5BMKZRGHNSRT","either","6","94","","","","","","","1","0","0","0.9798768453","","0.8","0.2","0.4","0.6","","","","","0.9798768453","0.4152233618","0.6646968067","0.8983636673","","","","","","","","","","72","H","0","img/none_selected.jpg","","130","main_expt",""
"","bandit","210","379759","0.0-172.0-0.0","57853241","wem/bandit_party_2","A5BMKZRGHNSRT","either","6","90","","","","","","","0","0","1","","0.9628017066","0.8","0.2","0.4","0.6","0.9628017066","0.4527057242","0.6676177377","0.888478962","","","","","","","","","","","","","","72","H","0","img/none_selected.jpg","","131","main_expt",""
"","bandit","211","381929","0.0-173.0-0.0","57853241","wem/bandit_party_2","A5BMKZRGHNSRT","either","6","663","","","","","","","0","1","0","","0.9723970119","0.8","0.2","0.4","0.6","0.9723970119","0.5185753891","0.7638630926","0.8470567254","","","","","","","","","","","","","","72","H","0","img/none_selected.jpg","","132","main_expt",""
"","bandit","212","383496","0.0-174.0-0.0","57853241","wem/bandit_party_2","A5BMKZRGHNSRT","either","6","60","","","","","","","1","0","0","0.9754432393","","0.8","0.2","0.4","0.6","","","","","0.9754432393","0.4567386081","0.726350598","0.8852081265","","","","","","","","","","72","H","0","img/none_selected.jpg","","133","main_expt",""
"","bandit","213","385056","0.0-175.0-0.0","57853241","wem/bandit_party_2","A5BMKZRGHNSRT","either","6","53","","","","","","","1","0","0","0.9635376407","","0.8","0.2","0.4","0.6","","","","","0.9635376407","0.4494056808","0.7638059904","0.8317422298","","","","","","","","","","72","H","0","img/none_selected.jpg","","134","main_expt",""
"","bandit","214","386672","0.0-176.0-0.0","57853241","wem/bandit_party_2","A5BMKZRGHNSRT","either","6","109","","","","","","","1","0","0","0.9304273523","","0.8","0.2","0.4","0.6","","","","","0.9304273523","0.4608562393","0.7337835984","0.8121858422","","","","","","","","","","72","H","0","img/none_selected.jpg","","135","main_expt",""
"","bandit","215","388312","0.0-177.0-0.0","57853241","wem/bandit_party_2","A5BMKZRGHNSRT","either","6","133","","","","","","","0","1","0","","0.9295592062","0.8","0.2","0.4","0.6","0.9295592062","0.6684020244","0.7869055623","0.8473276522","","","","","","","","","","","","","","72","H","0","img/none_selected.jpg","","136","main_expt",""
"","bandit","216","390024","0.0-178.0-0.0","57853241","wem/bandit_party_2","A5BMKZRGHNSRT","either","6","205","","","","","","","1","0","0","0.9343332129","","0.8","0.2","0.4","0.6","","","","","0.9343332129","0.614137061","0.8033651193","0.8251243182","","","","","","","","","","72","H","0","img/none_selected.jpg","","137","main_expt",""
"","bandit","217","391767","0.0-179.0-0.0","57853241","wem/bandit_party_2","A5BMKZRGHNSRT","either","6","237","","","","","","","1","0","0","0.9325781127","","0.8","0.2","0.4","0.6","","","","","0.9325781127","0.711021659","0.7620089345","0.7892590299","","","","","","","","","","72","H","0","img/none_selected.jpg","","138","main_expt",""
"","bandit","218","393367","0.0-180.0-0.0","57853241","wem/bandit_party_2","A5BMKZRGHNSRT","either","6","94","","","","","","","1","0","0","0.9687763229","","0.8","0.2","0.4","0.6","","","","","0.9687763229","0.5731932267","0.8098853196","0.753698647","","","","","","","","","","72","H","0","img/none_selected.jpg","","139","main_expt",""
"","bandit","219","395063","0.0-181.0-0.0","57853241","wem/bandit_party_2","A5BMKZRGHNSRT","either","6","190","","","","","","","1","0","0","0.9520204639","","0.8","0.2","0.4","0.6","","","","","0.9520204639","0.6553783698","0.8737133651","0.7281837229","","","","","","","","","","72","H","0","img/none_selected.jpg","","140","main_expt",""
"","bandit","220","396599","0.0-182.0-0.0","57853241","wem/bandit_party_2","A5BMKZRGHNSRT","either","6","30","","","","","","","0","1","0","","0.9615613541","0.8","0.2","0.4","0.6","0.9615613541","0.5665224918","0.8464817719","0.7913145473","","","","","","","","","","","","","","72","H","0","img/none_selected.jpg","","141","main_expt",""
"","bandit","221","398216","0.0-183.0-0.0","57853241","wem/bandit_party_2","A5BMKZRGHNSRT","either","6","110","","","","","","","0","1","0","","0.9438722422","0.8","0.2","0.4","0.6","0.9438722422","0.5230460729","0.8457688645","0.7498898283","","","","","","","","","","","","","","72","H","0","img/none_selected.jpg","","142","main_expt",""
"","bandit","222","399736","0.0-184.0-0.0","57853241","wem/bandit_party_2","A5BMKZRGHNSRT","either","6","13","","","","","","","1","0","0","0.9419241064","","0.8","0.2","0.4","0.6","","","","","0.9419241064","0.5401897842","0.8801682128","0.723110339","","","","","","","","","","72","H","0","img/none_selected.jpg","","143","main_expt",""
"","bandit","223","401465","0.0-185.0-0.0","57853241","wem/bandit_party_2","A5BMKZRGHNSRT","either","6","222","","","","","","","1","0","0","0.9383966058","","0.8","0.2","0.4","0.6","","","","","0.9383966058","0.5495292383","0.7806105972","0.7697142539","","","","","","","","","","72","H","0","img/none_selected.jpg","","144","main_expt",""
"","bandit","224","403296","0.0-186.0-0.0","57853241","wem/bandit_party_2","A5BMKZRGHNSRT","either","6","324","","","","","","","0","0","1","0.9442204223","","0.8","0.2","0.4","0.6","","","","","0.9442204223","0.4718854897","0.7384744451","0.8279494337","","","","","","","","","","72","H","0","img/none_selected.jpg","","145","main_expt",""
"","bandit","225","404903","0.0-187.0-0.0","57853241","wem/bandit_party_2","A5BMKZRGHNSRT","either","6","101","","","","","","","0","0","1","","0.3790577705","0.8","0.2","0.4","0.6","0.9461270134","0.3790577705","0.7078417075","0.747104877","","","","","","","","","","","","","","74","J","1","","","146","main_expt",""
"","bandit","226","407263","0.0-188.0-0.0","57853241","wem/bandit_party_2","A5BMKZRGHNSRT","either","6","854","","","","","","","1","0","0","0.7671729372","","0.8","0.2","0.4","0.6","","","","","0.9677113618","0.3671333747","0.7671729372","0.7635883185","","","","","","","","","","75","K","2","","","147","main_expt",""
"","bandit","227","409111","0.0-189.0-0.0","57853241","wem/bandit_party_2","A5BMKZRGHNSRT","either","6","342","","","","","","","0","0","1","0.7515071201","","0.8","0.2","0.4","0.6","","","","","0.9603287673","0.4462771912","0.7515071201","0.6650729927","","","","","","","","","","75","K","2","","","148","main_expt",""
"","bandit","228","410863","0.0-190.0-0.0","57853241","wem/bandit_party_2","A5BMKZRGHNSRT","either","6","245","","","","","","","0","1","0","","0.7582160768","0.8","0.2","0.4","0.6","0.9256305183","0.3929125452","0.7582160768","0.594527628","","","","","","","","","","","","","","75","K","2","","","149","main_expt",""
"","bandit","229","412431","0.0-191.0-0.0","57853241","wem/bandit_party_2","A5BMKZRGHNSRT","either","6","61","","","","","","","1","0","0","0.6843302658","","0.8","0.2","0.4","0.6","","","","","0.9222609783","0.3825194633","0.6843302658","0.5101412162","","","","","","","","","","75","K","2","","","150","main_expt",""
"","bandit","230","414127","0.0-192.0-0.0","57853241","wem/bandit_party_2","A5BMKZRGHNSRT","either","6","190","","","","","","","0","0","1","","0.4980827124","0.8","0.2","0.4","0.6","0.9522131909","0.3889652011","0.4980827124","0.5755011036","","","","","","","","","","","","","","75","K","2","","","151","main_expt",""
"","bandit","231","416192","0.0-193.0-0.0","57853241","wem/bandit_party_2","A5BMKZRGHNSRT","either","6","557","","","","","","","0","0","1","","0.5418861514","0.8","0.2","0.4","0.6","0.9351777179","0.372169082","0.5418861514","0.5415628766","","","","","","","","","","","","","","75","K","2","","","152","main_expt",""
"","bandit","232","417784","0.0-194.0-0.0","57853241","wem/bandit_party_2","A5BMKZRGHNSRT","either","6","85","","","","","","","0","0","1","0.6392888902","","0.8","0.2","0.4","0.6","","","","","0.9526549669","0.4275919172","0.6424708626","0.6392888902","","","","","","","","","","76","L","3","","","153","main_expt",""
"","bandit","233","419384","0.0-195.0-0.0","57853241","wem/bandit_party_2","A5BMKZRGHNSRT","either","6","93","","","","","","","1","0","0","0.6798835142","","0.8","0.2","0.4","0.6","","","","","0.944677936","0.3978897223","0.6200403258","0.6798835142","","","","","","","","","","76","L","3","","","154","main_expt",""
"","bandit","234","421048","0.0-196.0-0.0","57853241","wem/bandit_party_2","A5BMKZRGHNSRT","either","6","157","","","","","","","1","0","0","0.7376683638","","0.8","0.2","0.4","0.6","","","","","0.9443948233","0.4922143253","0.5087788092","0.7376683638","","","","","","","","","","76","L","3","","","155","main_expt",""
"","bandit","235","422600","0.0-197.0-0.0","57853241","wem/bandit_party_2","A5BMKZRGHNSRT","either","6","45","","","","","","","0","1","0","","0.7740838489","0.8","0.2","0.4","0.6","0.9312029685","0.5060601407","0.4397360723","0.7740838489","","","","","","","","","","","","","","76","L","3","","","156","main_expt",""
"","bandit","236","424279","0.0-198.0-0.0","57853241","wem/bandit_party_2","A5BMKZRGHNSRT","either","6","173","","","","","","","1","0","0","0.7526352547","","0.8","0.2","0.4","0.6","","","","","0.9009413449","0.56460533","0.4529934193","0.7526352547","","","","","","","","","","76","L","3","","","157","main_expt",""
"","bandit","237","425938","0.0-199.0-0.0","57853241","wem/bandit_party_2","A5BMKZRGHNSRT","either","6","151","","","","","","","1","0","0","0.807066173","","0.8","0.2","0.4","0.6","","","","","0.8799225656","0.5551408743","0.522014142","0.807066173","","","","","","","","","","76","L","3","","","158","main_expt",""
"","bandit","238","427559","0.0-200.0-0.0","57853241","wem/bandit_party_2","A5BMKZRGHNSRT","either","6","115","","","","","","","0","1","0","","0.8348587906","0.8","0.2","0.4","0.6","0.9103166083","0.6362487126","0.447178695","0.8348587906","","","","","","","","","","","","","","76","L","3","","","159","main_expt",""
"","bandit","239","429207","0.0-201.0-0.0","57853241","wem/bandit_party_2","A5BMKZRGHNSRT","either","6","141","","","","","","","0","1","0","","0.8054329593","0.8","0.2","0.4","0.6","0.9575168601","0.5818198138","0.4293784973","0.8054329593","","","","","","","","","","","","","","76","L","3","","","160","main_expt",""
"","bandit","240","430887","0.0-202.0-0.0","57853241","wem/bandit_party_2","A5BMKZRGHNSRT","either","6","174","","","","","","","0","1","0","","0.8263011938","0.8","0.2","0.4","0.6","0.9323430526","0.5079421761","0.4263694152","0.8263011938","","","","","","","","","","","","","","76","L","3","","","161","main_expt",""
"","bandit","241","432665","0.0-203.0-0.0","57853241","wem/bandit_party_2","A5BMKZRGHNSRT","either","6","269","","","","","","","0","0","1","0.8468561623","","0.8","0.2","0.4","0.6","","","","","0.8731035433","0.3944353318","0.4394756583","0.8468561623","","","","","","","","","","76","L","3","","","162","main_expt",""
"","bandit","242","434400","0.0-204.0-0.0","57853241","wem/bandit_party_2","A5BMKZRGHNSRT","either","6","229","","","","","","","0","0","1","0.866861138","","0.8","0.2","0.4","0.6","","","","","0.860239847","0.4560534757","0.4632532181","0.866861138","","","","","","","","","","76","L","3","","","163","main_expt",""
"","bandit","243","435992","0.0-205.0-0.0","57853241","wem/bandit_party_2","A5BMKZRGHNSRT","either","6","84","","","","","","","0","1","0","","0.469091439","0.8","0.2","0.4","0.6","0.8327160304","0.4338988853","0.469091439","0.8621839131","","","","","","","","","","","","","","75","K","2","","","164","main_expt",""
"","bandit","244","437664","0.0-206.0-0.0","57853241","wem/bandit_party_2","A5BMKZRGHNSRT","either","6","165","","","","","","","0","1","0","","0.4691854483","0.8","0.2","0.4","0.6","0.8780399083","0.3640020004","0.4691854483","0.8368369455","","","","","","","","","","","","","","75","K","2","","","165","main_expt",""
"","bandit","245","439172","0.0-207.0-0.0","57853241","wem/bandit_party_2","A5BMKZRGHNSRT","either","6","1","","","","","","","0","0","1","","0.424594696","0.8","0.2","0.4","0.6","0.8659509199","0.4433911144","0.424594696","0.8543831227","","","","","","","","","","","","","","75","K","2","","","166","main_expt",""
"","bandit","246","440848","0.0-208.0-0.0","57853241","wem/bandit_party_2","A5BMKZRGHNSRT","either","6","169","","","","","","","1","0","0","0.4691217736","","0.8","0.2","0.4","0.6","","","","","0.8458676595","0.4852122499","0.4691217736","0.8444257961","","","","","","","","","","75","K","2","","","167","main_expt",""
"","bandit","247","442416","0.0-209.0-0.0","57853241","wem/bandit_party_2","A5BMKZRGHNSRT","either","6","61","","","","","","","0","0","1","","0.4605946041","0.8","0.2","0.4","0.6","0.7368025647","0.4829488348","0.4605946041","0.8895061166","","","","","","","","","","","","","","75","K","2","","","168","main_expt",""
"","bandit","248","444248","0.0-210.0-0.0","57853241","wem/bandit_party_2","A5BMKZRGHNSRT","either","6","325","","","","","","","0","1","0","","0.4302520818","0.8","0.2","0.4","0.6","0.6811301937","0.467087579","0.4302520818","0.8980662015","","","","","","","","","","","","","","75","K","2","","","169","main_expt",""
"","bandit","249","445967","0.0-211.0-0.0","57853241","wem/bandit_party_2","A5BMKZRGHNSRT","either","6","212","","","","","","","0","1","0","","0.3846086554","0.8","0.2","0.4","0.6","0.6781719117","0.3575164989","0.3846086554","0.9399190154","","","","","","","","","","","","","","75","K","2","","","170","main_expt",""
"","bandit","250","447503","0.0-212.0-0.0","57853241","wem/bandit_party_2","A5BMKZRGHNSRT","either","6","30","","","","","","","0","0","1","","0.4938912128","0.8","0.2","0.4","0.6","0.5779776893","0.3433755155","0.4938912128","0.9199626721","","","","","","","","","","","","","","75","K","2","","","171","main_expt",""
"","bandit","251","449047","0.0-213.0-0.0","57853241","wem/bandit_party_2","A5BMKZRGHNSRT","either","6","37","","","","","","","0","0","1","0.2921203137","","0.8","0.2","0.4","0.6","","","","","0.5461867433","0.2921203137","0.5409242696","0.8885959212","","","","","","","","","","74","J","1","","","172","main_expt",""
"","bandit","252","450712","0.0-214.0-0.0","57853241","wem/bandit_party_2","A5BMKZRGHNSRT","either","6","158","","","","","","","0","0","1","0.5898781272","","0.8","0.2","0.4","0.6","","","","","0.5898781272","0.3237382503","0.4899310385","0.8502068985","","","","","","","","","","72","H","0","img/none_selected.jpg","","173","main_expt",""
"","bandit","253","452472","0.0-215.0-0.0","57853241","wem/bandit_party_2","A5BMKZRGHNSRT","either","6","252","","","","","","","0","0","1","0.5990225055","","0.8","0.2","0.4","0.6","","","","","0.5990225055","0.2935635685","0.4464532747","0.9054067092","","","","","","","","","","72","H","0","img/none_selected.jpg","","174","main_expt",""
"","bandit","254","454048","0.0-216.0-0.0","57853241","wem/bandit_party_2","A5BMKZRGHNSRT","either","6","68","","","","","","","0","0","1","","0.2797951809","0.8","0.2","0.4","0.6","0.6129624105","0.2797951809","0.4363040476","0.9096893241","","","","","","","","","","","","","","74","J","1","","","175","main_expt",""
"","bandit","255","455704","0.0-217.0-0.0","57853241","wem/bandit_party_2","A5BMKZRGHNSRT","either","6","149","","","","","","","1","0","0","0.9081003197","","0.8","0.2","0.4","0.6","","","","","0.5434192492","0.2067270565","0.4198776974","0.9081003197","","","","","","","","","","76","L","3","","","176","main_expt",""
"","bandit","256","457392","0.0-218.0-0.0","57853241","wem/bandit_party_2","A5BMKZRGHNSRT","either","6","181","","","","","","","0","0","1","","0.8417535431","0.8","0.2","0.4","0.6","0.5893108522","0.19266164","0.4001478854","0.8417535431","","","","","","","","","","","","","","76","L","3","","","177","main_expt",""
"","bandit","257","458928","0.0-219.0-0.0","57853241","wem/bandit_party_2","A5BMKZRGHNSRT","either","6","28","","","","","","","1","0","0","0.3015477047","","0.8","0.2","0.4","0.6","","","","","0.4862463398","0.1393448617","0.3015477047","0.8045518304","","","","","","","","","","75","K","2","","","178","main_expt",""
"","bandit","258","461047","0.0-220.0-0.0","57853241","wem/bandit_party_2","A5BMKZRGHNSRT","either","6","613","","","","","","","0","0","1","0.2700131006","","0.8","0.2","0.4","0.6","","","","","0.4227787996","0.1149816072","0.2700131006","0.8250115846","","","","","","","","","","75","K","2","","","179","main_expt",""
"","bandit","259","462655","0.0-221.0-0.0","57853241","wem/bandit_party_2","A5BMKZRGHNSRT","either","6","101","","","","","","","0","0","1","0.3473069","","0.8","0.2","0.4","0.6","","","","","0.3583368423","0.1231561222","0.3473069","0.7418096358","","","","","","","","","","75","K","2","","","180","main_expt",""
"","bandit","260","464295","0.0-222.0-0.0","57853241","wem/bandit_party_2","A5BMKZRGHNSRT","either","6","134","","","","","","","1","0","0","0.7180260456","","0.8","0.2","0.4","0.6","","","","","0.3820052134","0.1134989143","0.3478804011","0.7180260456","","","","","","","","","","76","L","3","","","181","main_expt",""
"","bandit","261","465816","0.0-223.0-0.0","57853241","wem/bandit_party_2","A5BMKZRGHNSRT","either","6","13","","","","","","","0","1","0","","0.6777378447","0.8","0.2","0.4","0.6","0.437769555","0.07317944644","0.3304981007","0.6777378447","","","","","","","","","","","","","","76","L","3","","","182","main_expt",""
"","bandit","262","467463","0.0-224.0-0.0","57853241","wem/bandit_party_2","A5BMKZRGHNSRT","either","6","141","","","","","","","1","0","0","0.6331465848","","0.8","0.2","0.4","0.6","","","","","0.3951330089","0.05085611098","0.2578466268","0.6331465848","","","","","","","","","","76","L","3","","","183","main_expt",""
"","bandit","263","469208","0.0-225.0-0.0","57853241","wem/bandit_party_2","A5BMKZRGHNSRT","either","6","238","","","","","","","1","0","0","0.6578519513","","0.8","0.2","0.4","0.6","","","","","0.4062376343","0.07152820202","0.3550464129","0.6578519513","","","","","","","","","","76","L","3","","","184","main_expt",""
"","bandit","264","471120","0.0-226.0-0.0","57853241","wem/bandit_party_2","A5BMKZRGHNSRT","either","6","404","","","","","","","1","0","0","0.7160298793","","0.8","0.2","0.4","0.6","","","","","0.4035727276","0.08814522307","0.2993299556","0.7160298793","","","","","","","","","","76","L","3","","","185","main_expt",""
"","bandit","265","472913","0.0-227.0-0.0","57853241","wem/bandit_party_2","A5BMKZRGHNSRT","either","6","284","","","","","","","0","1","0","","0.7081703269","0.8","0.2","0.4","0.6","0.4595565904","0.0931487442","0.3985972224","0.7081703269","","","","","","","","","","","","","","76","L","3","","","186","main_expt",""
"","bandit","266","474433","0.0-228.0-0.0","57853241","wem/bandit_party_2","A5BMKZRGHNSRT","either","6","14","","","","","","","1","0","0","0.7670757258","","0.8","0.2","0.4","0.6","","","","","0.4956959756","0.05847154344","0.4563810555","0.7670757258","","","","","","","","","","76","L","3","","","187","main_expt",""
"","bandit","267","477175","0.0-229.0-0.0","57853241","wem/bandit_party_2","A5BMKZRGHNSRT","either","6","1234","","","","","","","0","0","1","","0.7986884496","0.8","0.2","0.4","0.6","0.4295585103","0.05005107021","0.4621092719","0.7986884496","","","","","","","","","","","","","","76","L","3","","","188","main_expt",""
"","bandit","268","478911","0.0-230.0-0.0","57853241","wem/bandit_party_2","A5BMKZRGHNSRT","either","6","230","","","","","","","0","0","1","0.4214675273","","0.8","0.2","0.4","0.6","","","","","0.4121259827","0.05158958255","0.4214675273","0.8113194514","","","","","","","","","","75","K","2","","","189","main_expt",""
"","bandit","269","480591","0.0-231.0-0.0","57853241","wem/bandit_party_2","A5BMKZRGHNSRT","either","6","173","","","","","","","0","0","1","0.4445162903","","0.8","0.2","0.4","0.6","","","","","0.40505342","0.0530996007","0.4445162903","0.8311477635","","","","","","","","","","75","K","2","","","190","main_expt",""
"","bandit","270","482303","0.0-232.0-0.0","57853241","wem/bandit_party_2","A5BMKZRGHNSRT","either","6","206","","","","","","","0","0","1","","0.4077799102","0.8","0.2","0.4","0.6","0.3671493273","0.05342003941","0.4077799102","0.7941336253","","","","","","","","","","","","","","75","K","2","","","191","main_expt",""
"","bandit","271","483951","0.0-233.0-0.0","57853241","wem/bandit_party_2","A5BMKZRGHNSRT","either","6","141","","","","","","","0","0","1","","0.05264216412","0.8","0.2","0.4","0.6","0.3367263454","0.05264216412","0.413117206","0.841847859","","","","","","","","","","","","","","74","J","1","","","192","main_expt",""
"","bandit","272","485664","0.0-234.0-0.0","57853241","wem/bandit_party_2","A5BMKZRGHNSRT","either","6","206","","","","","","","0","0","1","","0.2587514209","0.8","0.2","0.4","0.6","0.2587514209","0.07418965368","0.374663265","0.865127625","","","","","","","","","","","","","","72","H","0","img/none_selected.jpg","","193","main_expt",""
"","bandit","273","487888","0.0-235.0-0.0","57853241","wem/bandit_party_2","A5BMKZRGHNSRT","either","6","717","","","","","","","0","0","1","0.2123696513","","0.8","0.2","0.4","0.6","","","","","0.2123696513","0.1148515542","0.2792309937","0.8369883383","","","","","","","","","","72","H","0","img/none_selected.jpg","","194","main_expt",""
"","bandit","274","489576","0.0-236.0-0.0","57853241","wem/bandit_party_2","A5BMKZRGHNSRT","either","6","181","","","","","","","0","1","0","","0.1102075851","0.8","0.2","0.4","0.6","0.2551117677","0.1102075851","0.3090424304","0.8226177272","","","","","","","","","","","","","","74","J","1","","","195","main_expt",""
"","bandit","275","491257","0.0-237.0-0.0","57853241","wem/bandit_party_2","A5BMKZRGHNSRT","either","6","172","","","","","","","0","0","1","","0.2254203465","0.8","0.2","0.4","0.6","0.2948177706","0.09307195637","0.2254203465","0.8759919892","","","","","","","","","","","","","","75","K","2","","","196","main_expt",""
"","bandit","276","492952","0.0-238.0-0.0","57853241","wem/bandit_party_2","A5BMKZRGHNSRT","either","6","188","","","","","","","1","0","0","0.9413038234","","0.8","0.2","0.4","0.6","","","","","0.2864074111","0.08341332984","0.2104085952","0.9413038234","","","","","","","","","","76","L","3","","","197","main_expt",""
"","bandit","277","495399","0.0-239.0-0.0","57853241","wem/bandit_party_2","A5BMKZRGHNSRT","either","6","940","","","","","","","1","0","0","0.3044962429","","0.8","0.2","0.4","0.6","","","","","0.3044962429","0.06206278739","0.1686499416","0.9384937307","","","","","","","","","","72","H","0","img/none_selected.jpg","","198","main_expt",""
"","bandit","278","497047","0.0-240.0-0.0","57853241","wem/bandit_party_2","A5BMKZRGHNSRT","either","6","141","","","","","","","0","0","1","","0.1015706687","0.8","0.2","0.4","0.6","0.2804127106","0.1015706687","0.1696058054","0.927250614","","","","","","","","","","","","","","74","J","1","","","199","main_expt",""
"","bandit","279","498855","0.0-241.0-0.0","57853241","wem/bandit_party_2","A5BMKZRGHNSRT","either","6","301","","","","","","","1","0","0","0.8840406778","","0.8","0.2","0.4","0.6","","","","","0.3151112274","0.07348353789","0.1940139532","0.8840406778","","","","","","","","","","76","L","3","","","200","main_expt",""
"","bandit","280","500663","0.0-242.0-0.0","57853241","wem/bandit_party_2","A5BMKZRGHNSRT","either","6","302","","","","","","","0","0","1","","0.2384341862","0.8","0.2","0.4","0.6","0.3124471347","0.09218994405","0.2384341862","0.8866639954","","","","","","","","","","","","","","75","K","2","","","201","main_expt",""
"","bandit","281","502177","0.0-243.0-0.0","57853241","wem/bandit_party_2","A5BMKZRGHNSRT","either","6","6","","","","","","","1","0","0","0.3418115628","","0.8","0.2","0.4","0.6","","","","","0.3418115628","0.1662378481","0.2069173963","0.8188103646","","","","","","","","","","72","H","0","img/none_selected.jpg","","202","main_expt",""
"","bandit","282","503912","0.0-244.0-0.0","57853241","wem/bandit_party_2","A5BMKZRGHNSRT","either","6","228","","","","","","","0","0","1","","0.1808123801","0.8","0.2","0.4","0.6","0.2676578736","0.1808123801","0.2502389624","0.8026106274","","","","","","","","","","","","","","74","J","1","","","203","main_expt",""
"","bandit","283","505576","0.0-245.0-0.0","57853241","wem/bandit_party_2","A5BMKZRGHNSRT","either","6","156","","","","","","","0","0","1","0.2513587973","","0.8","0.2","0.4","0.6","","","","","0.2513587973","0.2011980288","0.2226806","0.6613987003","","","","","","","","","","72","H","0","img/none_selected.jpg","","204","main_expt",""
"","bandit","284","507296","0.0-246.0-0.0","57853241","wem/bandit_party_2","A5BMKZRGHNSRT","either","6","213","","","","","","","1","0","0","0.2733703365","","0.8","0.2","0.4","0.6","","","","","0.2733703365","0.1877492959","0.2327973494","0.7402115251","","","","","","","","","","72","H","0","img/none_selected.jpg","","205","main_expt",""
"","bandit","285","508848","0.0-247.0-0.0","57853241","wem/bandit_party_2","A5BMKZRGHNSRT","either","6","44","","","","","","","0","0","1","0.3212331514","","0.8","0.2","0.4","0.6","","","","","0.3212331514","0.1891298069","0.3134624789","0.6792505986","","","","","","","","","","72","H","0","img/none_selected.jpg","","206","main_expt",""
"","bandit","286","510488","0.0-248.0-0.0","57853241","wem/bandit_party_2","A5BMKZRGHNSRT","either","6","132","","","","","","","1","0","0","0.3381772831","","0.8","0.2","0.4","0.6","","","","","0.3381772831","0.2092890992","0.3808856429","0.6510378203","","","","","","","","","","72","H","0","img/none_selected.jpg","","207","main_expt",""
"","bandit","287","512088","0.0-249.0-0.0","57853241","wem/bandit_party_2","A5BMKZRGHNSRT","either","6","92","","","","","","","0","0","1","","0.2563161799","0.8","0.2","0.4","0.6","0.2370260631","0.2563161799","0.318509643","0.5971377862","","","","","","","","","","","","","","74","J","1","","","208","main_expt",""
"","bandit","288","513608","0.0-250.0-0.0","57853241","wem/bandit_party_2","A5BMKZRGHNSRT","either","6","13","","","","","","","1","0","0","0.6040603887","","0.8","0.2","0.4","0.6","","","","","0.2157004535","0.2643940457","0.2932847295","0.6040603887","","","","","","","","","","76","L","3","","","209","main_expt",""
"","bandit","289","515535","0.0-251.0-0.0","57853241","wem/bandit_party_2","A5BMKZRGHNSRT","either","6","421","","","","","","","1","0","0","0.7794442159","","0.8","0.2","0.4","0.6","","","","","0.2655169153","0.2710870001","0.2230023122","0.7794442159","","","","","","","","","","76","L","3","","","210","main_expt",""
"","bandit","290","517271","0.0-252.0-0.0","57853241","wem/bandit_party_2","A5BMKZRGHNSRT","either","6","229","","","","","","","1","0","0","0.8397026392","","0.8","0.2","0.4","0.6","","","","","0.2359505063","0.2056380183","0.1899351836","0.8397026392","","","","","","","","","","76","L","3","","","211","main_expt",""
"","bandit","291","518895","0.0-253.0-0.0","57853241","wem/bandit_party_2","A5BMKZRGHNSRT","either","6","117","","","","","","","1","0","0","0.7883870126","","0.8","0.2","0.4","0.6","","","","","0.2431981852","0.2487045614","0.2593929449","0.7883870126","","","","","","","","","","76","L","3","","","212","main_expt",""
"","bandit","292","520473","0.0-254.0-0.0","57853241","wem/bandit_party_2","A5BMKZRGHNSRT","either","6","69","","","","","","","1","0","0","0.7160446845","","0.8","0.2","0.4","0.6","","","","","0.3385658967","0.3520378668","0.2304425673","0.7160446845","","","","","","","","","","76","L","3","","","213","main_expt",""
"","bandit","293","522176","0.0-255.0-0.0","57853241","wem/bandit_party_2","A5BMKZRGHNSRT","either","6","196","","","","","","","0","0","1","","0.7501162241","0.8","0.2","0.4","0.6","0.445002088","0.3455661114","0.2849244028","0.7501162241","","","","","","","","","","","","","","76","L","3","","","214","main_expt",""
"","bandit","294","523856","0.0-256.0-0.0","57853241","wem/bandit_party_2","A5BMKZRGHNSRT","either","6","172","","","","","","","1","0","0","0.7574589115","","0.8","0.2","0.4","0.6","","","","","0.4340580748","0.3290646698","0.3184819088","0.7574589115","","","","","","","","","","76","L","3","","","215","main_expt",""
"","bandit","295","525464","0.0-257.0-0.0","57853241","wem/bandit_party_2","A5BMKZRGHNSRT","either","6","100","","","","","","","1","0","0","0.7376674805","","0.8","0.2","0.4","0.6","","","","","0.3996931216","0.2737258078","0.2989728513","0.7376674805","","","","","","","","","","76","L","3","","","216","main_expt",""
"","bandit","296","527048","0.0-258.0-0.0","57853241","wem/bandit_party_2","A5BMKZRGHNSRT","either","6","75","","","","","","","0","0","1","0.67262171","","0.8","0.2","0.4","0.6","","","","","0.453570069","0.2401291484","0.5538830624","0.67262171","","","","","","","","","","76","L","3","","","217","main_expt",""
"","bandit","297","528557","0.0-259.0-0.0","57853241","wem/bandit_party_2","A5BMKZRGHNSRT","either","6","1","","","","","","","0","1","0","","0.5331458927","0.8","0.2","0.4","0.6","0.3566620654","0.2395298113","0.5331458927","0.6309662891","","","","","","","","","","","","","","75","K","2","","","218","main_expt",""
"","bandit","298","530120","0.0-260.0-0.0","57853241","wem/bandit_party_2","A5BMKZRGHNSRT","either","6","55","","","","","","","1","0","0","0.409279481","","0.8","0.2","0.4","0.6","","","","","0.3114207129","0.2333127667","0.409279481","0.610488243","","","","","","","","","","75","K","2","","","219","main_expt",""
"","bandit","299","531815","0.0-261.0-0.0","57853241","wem/bandit_party_2","A5BMKZRGHNSRT","either","6","188","","","","","","","0","1","0","","0.3910907299","0.8","0.2","0.4","0.6","0.348491043","0.2097963002","0.3910907299","0.6741838821","","","","","","","","","","","","","","75","K","2","","","220","main_expt",""
"","bandit","300","533479","0.0-262.0-0.0","57853241","wem/bandit_party_2","A5BMKZRGHNSRT","either","6","157","","","","","","","0","0","1","0.37386253","","0.8","0.2","0.4","0.6","","","","","0.325682353","0.1761429423","0.37386253","0.6938787555","","","","","","","","","","75","K","2","","","221","main_expt",""
"","bandit","301","535159","0.0-263.0-0.0","57853241","wem/bandit_party_2","A5BMKZRGHNSRT","either","6","173","","","","","","","0","0","1","0.1770547834","","0.8","0.2","0.4","0.6","","","","","0.3582518194","0.1770547834","0.5460784034","0.622086605","","","","","","","","","","74","J","1","","","222","main_expt",""
"","bandit","302","536871","0.0-264.0-0.0","57853241","wem/bandit_party_2","A5BMKZRGHNSRT","either","6","205","","","","","","","1","0","0","0.6190419158","","0.8","0.2","0.4","0.6","","","","","0.3596631187","0.1494166006","0.5484594206","0.6190419158","","","","","","","","","","76","L","3","","","223","main_expt",""
"","bandit","303","538408","0.0-265.0-0.0","57853241","wem/bandit_party_2","A5BMKZRGHNSRT","either","6","29","","","","","","","1","0","0","0.6525227655","","0.8","0.2","0.4","0.6","","","","","0.4757784632","0.1444184755","0.5156266917","0.6525227655","","","","","","","","","","76","L","3","","","224","main_expt",""
"","bandit","304","540040","0.0-266.0-0.0","57853241","wem/bandit_party_2","A5BMKZRGHNSRT","either","6","124","","","","","","","0","0","1","","0.5739960468","0.8","0.2","0.4","0.6","0.5384710229","0.2381889698","0.5120039273","0.5739960468","","","","","","","","","","","","","","76","L","3","","","225","main_expt",""
"","bandit","305","541760","0.0-267.0-0.0","57853241","wem/bandit_party_2","A5BMKZRGHNSRT","either","6","212","","","","","","","1","0","0","0.6038380469","","0.8","0.2","0.4","0.6","","","","","0.5308581489","0.1429230379","0.5568413113","0.6038380469","","","","","","","","","","76","L","3","","","226","main_expt",""
"","bandit","306","543490","0.0-268.0-0.0","57853241","wem/bandit_party_2","A5BMKZRGHNSRT","either","6","220","","","","","","","1","0","0","0.5203417309","","0.8","0.2","0.4","0.6","","","","","0.488482713","0.124100867","0.5277183188","0.5203417309","","","","","","","","","","76","L","3","","","227","main_expt",""
"","bandit","307","545121","0.0-269.0-0.0","57853241","wem/bandit_party_2","A5BMKZRGHNSRT","either","6","121","","","","","","","0","0","1","0.4263922038","","0.8","0.2","0.4","0.6","","","","","0.4406219513","0.1762219884","0.5041270258","0.4263922038","","","","","","","","","","76","L","3","","","228","main_expt",""
"","bandit","308","546719","0.0-270.0-0.0","57853241","wem/bandit_party_2","A5BMKZRGHNSRT","either","6","92","","","","","","","0","0","1","","0.4541369304","0.8","0.2","0.4","0.6","0.4892119921","0.1910325121","0.4541369304","0.3475105047","","","","","","","","","","","","","","75","K","2","","","229","main_expt",""
"","bandit","309","548447","0.0-271.0-0.0","57853241","wem/bandit_party_2","A5BMKZRGHNSRT","either","6","221","","","","","","","0","1","0","","0.2571549068","0.8","0.2","0.4","0.6","0.5129573662","0.2571549068","0.4504381994","0.3353007417","","","","","","","","","","","","","","74","J","1","","","230","main_expt",""
"","bandit","310","550015","0.0-272.0-0.0","57853241","wem/bandit_party_2","A5BMKZRGHNSRT","either","6","54","","","","","","","0","0","1","0.4382888871","","0.8","0.2","0.4","0.6","","","","","0.4382888871","0.1781345747","0.4698668598","0.2870546929","","","","","","","","","","72","H","0","img/none_selected.jpg","","231","main_expt",""
"","bandit","311","551711","0.0-273.0-0.0","57853241","wem/bandit_party_2","A5BMKZRGHNSRT","either","6","189","","","","","","","1","0","0","0.42174841","","0.8","0.2","0.4","0.6","","","","","0.42174841","0.1748933913","0.5460008395","0.3092655517","","","","","","","","","","72","H","0","img/none_selected.jpg","","232","main_expt",""
"","bandit","312","553319","0.0-274.0-0.0","57853241","wem/bandit_party_2","A5BMKZRGHNSRT","either","6","101","","","","","","","0","0","1","","0.2196371411","0.8","0.2","0.4","0.6","0.4297142637","0.2196371411","0.5345299581","0.4231157335","","","","","","","","","","","","","","74","J","1","","","233","main_expt",""
"","bandit","313","555056","0.0-275.0-0.0","57853241","wem/bandit_party_2","A5BMKZRGHNSRT","either","6","228","","","","","","","0","1","0","","0.5525929145","0.8","0.2","0.4","0.6","0.3016140143","0.2052749597","0.508060833","0.5525929145","","","","","","","","","","","","","","76","L","3","","","234","main_expt",""
"","bandit","314","556728","0.0-276.0-0.0","57853241","wem/bandit_party_2","A5BMKZRGHNSRT","either","6","165","","","","","","","0","0","1","0.4956589368","","0.8","0.2","0.4","0.6","","","","","0.2735586703","0.3158924645","0.4956589368","0.7239072418","","","","","","","","","","75","K","2","","","235","main_expt",""
"","bandit","315","558237","0.0-277.0-0.0","57853241","wem/bandit_party_2","A5BMKZRGHNSRT","either","6","1","","","","","","","0","0","1","","0.8076920848","0.8","0.2","0.4","0.6","0.2536827631","0.3668106878","0.5514737959","0.8076920848","","","","","","","","","","","","","","76","L","3","","","236","main_expt",""
"","bandit","316","559920","0.0-278.0-0.0","57853241","wem/bandit_party_2","A5BMKZRGHNSRT","either","6","174","","","","","","","0","1","0","","0.7703095863","0.8","0.2","0.4","0.6","0.2478783488","0.3866395083","0.5183580196","0.7703095863","","","","","","","","","","","","","","76","L","3","","","237","main_expt",""
"","bandit","317","561640","0.0-279.0-0.0","57853241","wem/bandit_party_2","A5BMKZRGHNSRT","either","6","212","","","","","","","1","0","0","0.6485929649","","0.8","0.2","0.4","0.6","","","","","0.1688186905","0.4108821033","0.5320509842","0.6485929649","","","","","","","","","","76","L","3","","","238","main_expt",""
"","bandit","318","563160","0.0-280.0-0.0","57853241","wem/bandit_party_2","A5BMKZRGHNSRT","either","6","12","","","","","","","0","1","0","","0.7028133827","0.8","0.2","0.4","0.6","0.1232648298","0.4384900471","0.46832295","0.7028133827","","","","","","","","","","","","","","76","L","3","","","239","main_expt",""
