"consent","trial_type","trial_index","time_elapsed","internal_node_id","subjID","study","MID","cond","drift","rt","responses","button_pressed","key_press","like","value","connected","gems","bombs","no_reward","GemPrChosen","BombPrChosen","GainOverPainPr_0","GainOverPainPr_1","GainOverPainPr_2","GainOverPainPr_3","LosePr_0","LosePr_1","LosePr_2","LosePr_3","WinPr_0","WinPr_1","WinPr_2","WinPr_3","Q0","Q1","Q2","gender","age","ethnicity","label","expt_phase","target","respCharCode","respKey","respChoiceNum","respChoice","practice","trial_counter","trial_label","Q0_index"
"GDM/GDM_behavioral_consent_30min_online.html","consent","0","58718","0.0-0.0","59139021","wem/bandit_party_2","A1IW9V75GCJ58P","either","3","","","","","","","","","","","","","","","","","","","","","","","","","","","","","","","","","","","","","","","","",""
"","survey-text","1","65516","0.0-1.0","59139021","wem/bandit_party_2","A1IW9V75GCJ58P","either","3","5790","{""Q0"":""A1IW9V75GCJ58P""}","","","","","","","","","","","","","","","","","","","","","","","","","","","","","","","","","","","","","","",""
"","button-response","2","73054","0.0-2.0","59139021","wem/bandit_party_2","A1IW9V75GCJ58P","either","3","6532","","2","","","","","","","","","","","","","","","","","","","","","","","","","","","","","","","","","","","","","",""
"","text-replacement","3","94776","0.0-3.0","59139021","wem/bandit_party_2","A1IW9V75GCJ58P","either","3","20719","","","32","","","","","","","","","","","","","","","","","","","","","","","","","","","","","","","","","","","","",""
"","text-replacement","4","355597","0.0-4.0","59139021","wem/bandit_party_2","A1IW9V75GCJ58P","either","3","260819","","","32","","","","","","","","","","","","","","","","","","","","","","","","","","","","","","","","","","","","",""
"","text-replacement","5","363097","0.0-5.0-0.0","59139021","wem/bandit_party_2","A1IW9V75GCJ58P","either","3","7498","","","32","","","","","","","","","","","","","","","","","","","","","","","","","","","","","","","","","","","","",""
"","identification","6","368916","0.0-6.0-0.0","59139021","wem/bandit_party_2","A1IW9V75GCJ58P","either","3","5806","","","","3","3","3","","","","","","","","","","","","","","","","","","","","","","","","pre","identification_pre","the Republican Party","","","","","","","",""
"","identification","7","379193","0.0-6.0-1.0","59139021","wem/bandit_party_2","A1IW9V75GCJ58P","either","3","9263","","","","3","4","5","","","","","","","","","","","","","","","","","","","","","","","","pre","identification_pre","the Democratic Party","","","","","","","",""
"","text-replacement","8","398213","0.0-7.0","59139021","wem/bandit_party_2","A1IW9V75GCJ58P","either","3","18017","","","32","","","","","","","","","","","","","","","","","","","","","","","","","","","","","","","","","","","","",""
"","text-replacement","9","405825","0.0-8.0","59139021","wem/bandit_party_2","A1IW9V75GCJ58P","either","3","7610","","","32","","","","","","","","","","","","","","","","","","","","","","","","","","","","","","","","","","","","",""
"","text-replacement","10","417021","0.0-9.0","59139021","wem/bandit_party_2","A1IW9V75GCJ58P","either","3","11194","","","32","","","","","","","","","","","","","","","","","","","","","","","","","","","","","","","","","","","","",""
"","text-replacement","11","422058","0.0-10.0","59139021","wem/bandit_party_2","A1IW9V75GCJ58P","either","3","5035","","","32","","","","","","","","","","","","","","","","","","","","","","","","","","","","","","","","","","","","",""
"","text-replacement","12","429334","0.0-11.0","59139021","wem/bandit_party_2","A1IW9V75GCJ58P","either","3","7275","","","32","","","","","","","","","","","","","","","","","","","","","","","","","","","","","","","","","","","","",""
"","bandit","13","437292","0.0-12.0-0.0","59139021","wem/bandit_party_2","A1IW9V75GCJ58P","either","3","6450","","","","","","","0","0","1","0","0","","","","","0","","","","0","","","","","","","","","","","","","74","J","0","img/none_selected_demo.jpg","true","0","",""
"","bandit","14","440539","0.0-13.0-0.0","59139021","wem/bandit_party_2","A1IW9V75GCJ58P","either","3","1741","","","","","","","0","0","1","0","0","","","","","0","","","","0","","","","","","","","","","","","","75","K","0","img/none_selected_demo.jpg","true","0","",""
"","text-replacement","15","450189","0.0-14.0","59139021","wem/bandit_party_2","A1IW9V75GCJ58P","either","3","9648","","","32","","","","","","","","","","","","","","","","","","","","","","","","","","","","","","","","","","","","",""
"","text-replacement","16","460304","0.0-15.0","59139021","wem/bandit_party_2","A1IW9V75GCJ58P","either","3","10113","","","32","","","","","","","","","","","","","","","","","","","","","","","","","","","","","","","","","","","","",""
"","text-replacement","17","474396","0.0-16.0","59139021","wem/bandit_party_2","A1IW9V75GCJ58P","either","3","14091","","","32","","","","","","","","","","","","","","","","","","","","","","","","","","","","","","","","","","","","",""
"","text-replacement","18","481859","0.0-17.0","59139021","wem/bandit_party_2","A1IW9V75GCJ58P","either","3","7461","","","32","","","","","","","","","","","","","","","","","","","","","","","","","","","","","","","","","","","","",""
"","bandit","19","485011","0.0-18.0-0.0","59139021","wem/bandit_party_2","A1IW9V75GCJ58P","either","3","1646","","","","","","","0","0","1","","0.2","0.5","0.5","","","0.8","0.2","","","","","","","","","","","","","","","","75","K","1","","true","0","80_20_practice",""
"","bandit","20","487978","0.0-18.0-1.0","59139021","wem/bandit_party_2","A1IW9V75GCJ58P","either","3","1462","","","","","","","1","0","0","0.8","","0.5","0.5","","","","","","","0.8","0.2","","","","","","","","","","","","74","J","0","img/none_selected_demo.jpg","true","0","80_20_practice",""
"","bandit","21","491634","0.0-18.0-2.0","59139021","wem/bandit_party_2","A1IW9V75GCJ58P","either","3","2150","","","","","","","0","0","1","0.2","","0.5","0.5","","","","","","","0.8","0.2","","","","","","","","","","","","75","K","1","","true","0","80_20_practice",""
"","bandit","22","494306","0.0-18.0-3.0","59139021","wem/bandit_party_2","A1IW9V75GCJ58P","either","3","1166","","","","","","","0","0","1","","0.2","0.5","0.5","","","0.8","0.2","","","","","","","","","","","","","","","","75","K","1","","true","0","80_20_practice",""
"","bandit","23","497337","0.0-18.0-4.0","59139021","wem/bandit_party_2","A1IW9V75GCJ58P","either","3","1527","","","","","","","0","1","0","","0.8","0.5","0.5","","","0.8","0.2","","","","","","","","","","","","","","","","74","J","0","img/none_selected_demo.jpg","true","0","80_20_practice",""
"","bandit","24","500497","0.0-18.0-5.0","59139021","wem/bandit_party_2","A1IW9V75GCJ58P","either","3","1656","","","","","","","0","0","1","0.8","","0.5","0.5","","","","","","","0.8","0.2","","","","","","","","","","","","74","J","0","img/none_selected_demo.jpg","true","0","80_20_practice",""
"","bandit","25","502361","0.0-18.0-6.0","59139021","wem/bandit_party_2","A1IW9V75GCJ58P","either","3","359","","","","","","","0","0","1","","0.2","0.5","0.5","","","0.8","0.2","","","","","","","","","","","","","","","","75","K","1","","true","0","80_20_practice",""
"","bandit","26","504153","0.0-18.0-7.0","59139021","wem/bandit_party_2","A1IW9V75GCJ58P","either","3","287","","","","","","","0","0","1","0.2","","0.5","0.5","","","","","","","0.8","0.2","","","","","","","","","","","","75","K","1","","true","0","80_20_practice",""
"","bandit","27","506408","0.0-18.0-8.0","59139021","wem/bandit_party_2","A1IW9V75GCJ58P","either","3","752","","","","","","","1","0","0","0.8","","0.5","0.5","","","","","","","0.8","0.2","","","","","","","","","","","","74","J","0","img/none_selected_demo.jpg","true","0","80_20_practice",""
"","bandit","28","509626","0.0-18.0-9.0","59139021","wem/bandit_party_2","A1IW9V75GCJ58P","either","3","1712","","","","","","","1","0","0","0.8","","0.5","0.5","","","","","","","0.8","0.2","","","","","","","","","","","","74","J","0","img/none_selected_demo.jpg","true","0","80_20_practice",""
"","bandit","29","512130","0.0-18.0-10.0","59139021","wem/bandit_party_2","A1IW9V75GCJ58P","either","3","999","","","","","","","1","0","0","0.8","","0.5","0.5","","","","","","","0.8","0.2","","","","","","","","","","","","74","J","0","img/none_selected_demo.jpg","true","0","80_20_practice",""
"","bandit","30","514961","0.0-18.0-11.0","59139021","wem/bandit_party_2","A1IW9V75GCJ58P","either","3","1327","","","","","","","0","1","0","","0.8","0.5","0.5","","","0.8","0.2","","","","","","","","","","","","","","","","74","J","0","img/none_selected_demo.jpg","true","0","80_20_practice",""
"","bandit","31","517233","0.0-18.0-12.0","59139021","wem/bandit_party_2","A1IW9V75GCJ58P","either","3","767","","","","","","","1","0","0","0.8","","0.5","0.5","","","","","","","0.8","0.2","","","","","","","","","","","","74","J","0","img/none_selected_demo.jpg","true","0","80_20_practice",""
"","bandit","32","519465","0.0-18.0-13.0","59139021","wem/bandit_party_2","A1IW9V75GCJ58P","either","3","727","","","","","","","0","1","0","","0.8","0.5","0.5","","","0.8","0.2","","","","","","","","","","","","","","","","74","J","0","img/none_selected_demo.jpg","true","0","80_20_practice",""
"","bandit","33","521369","0.0-18.0-14.0","59139021","wem/bandit_party_2","A1IW9V75GCJ58P","either","3","399","","","","","","","0","0","1","","0.8","0.5","0.5","","","0.8","0.2","","","","","","","","","","","","","","","","74","J","0","img/none_selected_demo.jpg","true","0","80_20_practice",""
"","bandit","34","523665","0.0-18.0-15.0","59139021","wem/bandit_party_2","A1IW9V75GCJ58P","either","3","792","","","","","","","0","0","1","","0.2","0.5","0.5","","","0.8","0.2","","","","","","","","","","","","","","","","75","K","1","","true","0","80_20_practice",""
"","bandit","35","525617","0.0-18.0-16.0","59139021","wem/bandit_party_2","A1IW9V75GCJ58P","either","3","447","","","","","","","0","1","0","","0.8","0.5","0.5","","","0.8","0.2","","","","","","","","","","","","","","","","74","J","0","img/none_selected_demo.jpg","true","0","80_20_practice",""
"","bandit","36","527446","0.0-18.0-17.0","59139021","wem/bandit_party_2","A1IW9V75GCJ58P","either","3","319","","","","","","","0","0","1","0.8","","0.5","0.5","","","","","","","0.8","0.2","","","","","","","","","","","","74","J","0","img/none_selected_demo.jpg","true","0","80_20_practice",""
"","bandit","37","529450","0.0-18.0-18.0","59139021","wem/bandit_party_2","A1IW9V75GCJ58P","either","3","498","","","","","","","0","0","1","0.2","","0.5","0.5","","","","","","","0.8","0.2","","","","","","","","","","","","75","K","1","","true","0","80_20_practice",""
"","bandit","38","531249","0.0-18.0-19.0","59139021","wem/bandit_party_2","A1IW9V75GCJ58P","either","3","294","","","","","","","0","0","1","","0.8","0.5","0.5","","","0.8","0.2","","","","","","","","","","","","","","","","74","J","0","img/none_selected_demo.jpg","true","0","80_20_practice",""
"","text-replacement","39","537275","0.0-19.0","59139021","wem/bandit_party_2","A1IW9V75GCJ58P","either","3","6025","","","32","","","","","","","","","","","","","","","","","","","","","","","","","","","","","","","","","","","","",""
"","bandit","40","541059","0.0-20.0-0.0","59139021","wem/bandit_party_2","A1IW9V75GCJ58P","either","3","2278","","","","","","","1","0","0","1","0","","","","","0","1","","","1","0","","","","","","","","","","","","74","J","0","img/none_selected_demo.jpg","true","0","",""
"","text-replacement","41","609497","0.0-21.0","59139021","wem/bandit_party_2","A1IW9V75GCJ58P","either","3","68436","","","32","","","","","","","","","","","","","","","","","","","","","","","","","","","","","","","","","","","","",""
"","text-replacement","42","612881","0.0-22.0","59139021","wem/bandit_party_2","A1IW9V75GCJ58P","either","3","3382","","","32","","","","","","","","","","","","","","","","","","","","","","","","","","","","","","","","","","","","",""
"","text-replacement","43","616168","0.0-23.0","59139021","wem/bandit_party_2","A1IW9V75GCJ58P","either","3","3286","","","32","","","","","","","","","","","","","","","","","","","","","","","","","","","","","","","","","","","","",""
"","text-replacement","44","619712","0.0-24.0","59139021","wem/bandit_party_2","A1IW9V75GCJ58P","either","3","3543","","","32","","","","","","","","","","","","","","","","","","","","","","","","","","","","","","","","","","","","",""
"","text-replacement","45","630957","0.0-25.0","59139021","wem/bandit_party_2","A1IW9V75GCJ58P","either","3","11243","","","32","","","","","","","","","","","","","","","","","","","","","","","","","","","","","","","","","","","","",""
"","text-replacement","46","634701","0.0-26.0","59139021","wem/bandit_party_2","A1IW9V75GCJ58P","either","3","3743","","","32","","","","","","","","","","","","","","","","","","","","","","","","","","","","","","","","","","","","",""
"","text-replacement","47","641976","0.0-27.0","59139021","wem/bandit_party_2","A1IW9V75GCJ58P","either","3","7274","","","32","","","","","","","","","","","","","","","","","","","","","","","","","","","","","","","","","","","","",""
"","text-replacement","48","645704","0.0-28.0","59139021","wem/bandit_party_2","A1IW9V75GCJ58P","either","3","3727","","","32","","","","","","","","","","","","","","","","","","","","","","","","","","","","","","","","","","","","",""
"","text-replacement","49","652721","0.0-29.0","59139021","wem/bandit_party_2","A1IW9V75GCJ58P","either","3","7015","","","32","","","","","","","","","","","","","","","","","","","","","","","","","","","","","","","","","","","","",""
"","text-replacement","50","655825","0.0-30.0","59139021","wem/bandit_party_2","A1IW9V75GCJ58P","either","3","3102","","","32","","","","","","","","","","","","","","","","","","","","","","","","","","","","","","","","","","","","",""
"","text-replacement","51","664353","0.0-31.0","59139021","wem/bandit_party_2","A1IW9V75GCJ58P","either","3","8526","","","32","","","","","","","","","","","","","","","","","","","","","","","","","","","","","","","","","","","","",""
"","bandit","52","667384","0.0-32.0-0.0","59139021","wem/bandit_party_2","A1IW9V75GCJ58P","either","3","1526","","","","","","","0","0","1","0.8","","0.5","0.5","0.5","0.5","","","","","0.8","0.2","0.6","0.2","","","","","","","","","","72","H","0","img/none_selected.jpg","true","0","full_practice",""
"","bandit","53","669776","0.0-32.0-1.0","59139021","wem/bandit_party_2","A1IW9V75GCJ58P","either","3","886","","","","","","","0","0","1","0.2","","0.5","0.5","0.5","0.5","","","","","0.8","0.2","0.6","0.2","","","","","","","","","","74","J","1","","true","0","full_practice",""
"","bandit","54","671431","0.0-32.0-2.0","59139021","wem/bandit_party_2","A1IW9V75GCJ58P","either","3","151","","","","","","","1","0","0","0.6","","0.5","0.5","0.5","0.5","","","","","0.8","0.2","0.6","0.2","","","","","","","","","","75","K","2","","true","0","full_practice",""
"","bandit","55","673624","0.0-32.0-3.0","59139021","wem/bandit_party_2","A1IW9V75GCJ58P","either","3","687","","","","","","","0","1","0","","0.6","0.5","0.5","0.5","0.5","0.8","0.2","0.6","0.2","","","","","","","","","","","","","","75","K","2","","true","0","full_practice",""
"","bandit","56","675599","0.0-32.0-4.0","59139021","wem/bandit_party_2","A1IW9V75GCJ58P","either","3","471","","","","","","","0","0","1","","0.6","0.5","0.5","0.5","0.5","0.8","0.2","0.6","0.2","","","","","","","","","","","","","","75","K","2","","true","0","full_practice",""
"","bandit","57","677659","0.0-32.0-5.0","59139021","wem/bandit_party_2","A1IW9V75GCJ58P","either","3","551","","","","","","","0","0","1","","0.2","0.5","0.5","0.5","0.5","0.8","0.2","0.6","0.2","","","","","","","","","","","","","","76","L","3","","true","0","full_practice",""
"","bandit","58","679744","0.0-32.0-6.0","59139021","wem/bandit_party_2","A1IW9V75GCJ58P","either","3","579","","","","","","","0","0","1","0.2","","0.5","0.5","0.5","0.5","","","","","0.8","0.2","0.6","0.2","","","","","","","","","","74","J","1","","true","0","full_practice",""
"","bandit","59","681511","0.0-32.0-7.0","59139021","wem/bandit_party_2","A1IW9V75GCJ58P","either","3","263","","","","","","","1","0","0","0.8","","0.5","0.5","0.5","0.5","","","","","0.8","0.2","0.6","0.2","","","","","","","","","","72","H","0","img/none_selected.jpg","true","0","full_practice",""
"","bandit","60","684743","0.0-32.0-8.0","59139021","wem/bandit_party_2","A1IW9V75GCJ58P","either","3","1727","","","","","","","0","0","1","0.2","","0.5","0.5","0.5","0.5","","","","","0.8","0.2","0.6","0.2","","","","","","","","","","74","J","1","","true","0","full_practice",""
"","bandit","61","686576","0.0-32.0-9.0","59139021","wem/bandit_party_2","A1IW9V75GCJ58P","either","3","327","","","","","","","1","0","0","0.8","","0.5","0.5","0.5","0.5","","","","","0.8","0.2","0.6","0.2","","","","","","","","","","72","H","0","img/none_selected.jpg","true","0","full_practice",""
"","bandit","62","688432","0.0-32.0-10.0","59139021","wem/bandit_party_2","A1IW9V75GCJ58P","either","3","351","","","","","","","0","1","0","","0.8","0.5","0.5","0.5","0.5","0.8","0.2","0.6","0.2","","","","","","","","","","","","","","72","H","0","img/none_selected.jpg","true","0","full_practice",""
"","bandit","63","690215","0.0-32.0-11.0","59139021","wem/bandit_party_2","A1IW9V75GCJ58P","either","3","278","","","","","","","1","0","0","0.8","","0.5","0.5","0.5","0.5","","","","","0.8","0.2","0.6","0.2","","","","","","","","","","72","H","0","img/none_selected.jpg","true","0","full_practice",""
"","bandit","64","692135","0.0-32.0-12.0","59139021","wem/bandit_party_2","A1IW9V75GCJ58P","either","3","414","","","","","","","1","0","0","0.8","","0.5","0.5","0.5","0.5","","","","","0.8","0.2","0.6","0.2","","","","","","","","","","72","H","0","img/none_selected.jpg","true","0","full_practice",""
"","bandit","65","693999","0.0-32.0-13.0","59139021","wem/bandit_party_2","A1IW9V75GCJ58P","either","3","359","","","","","","","1","0","0","0.8","","0.5","0.5","0.5","0.5","","","","","0.8","0.2","0.6","0.2","","","","","","","","","","72","H","0","img/none_selected.jpg","true","0","full_practice",""
"","bandit","66","695755","0.0-32.0-14.0","59139021","wem/bandit_party_2","A1IW9V75GCJ58P","either","3","247","","","","","","","0","0","1","0.8","","0.5","0.5","0.5","0.5","","","","","0.8","0.2","0.6","0.2","","","","","","","","","","72","H","0","img/none_selected.jpg","true","0","full_practice",""
"","bandit","67","697750","0.0-32.0-15.0","59139021","wem/bandit_party_2","A1IW9V75GCJ58P","either","3","490","","","","","","","0","0","1","","0.6","0.5","0.5","0.5","0.5","0.8","0.2","0.6","0.2","","","","","","","","","","","","","","75","K","2","","true","0","full_practice",""
"","bandit","68","699559","0.0-32.0-16.0","59139021","wem/bandit_party_2","A1IW9V75GCJ58P","either","3","303","","","","","","","0","0","1","0.2","","0.5","0.5","0.5","0.5","","","","","0.8","0.2","0.6","0.2","","","","","","","","","","74","J","1","","true","0","full_practice",""
"","bandit","69","701943","0.0-32.0-17.0","59139021","wem/bandit_party_2","A1IW9V75GCJ58P","either","3","878","","","","","","","0","0","1","0.2","","0.5","0.5","0.5","0.5","","","","","0.8","0.2","0.6","0.2","","","","","","","","","","76","L","3","","true","0","full_practice",""
"","bandit","70","703791","0.0-32.0-18.0","59139021","wem/bandit_party_2","A1IW9V75GCJ58P","either","3","342","","","","","","","0","1","0","","0.8","0.5","0.5","0.5","0.5","0.8","0.2","0.6","0.2","","","","","","","","","","","","","","72","H","0","img/none_selected.jpg","true","0","full_practice",""
"","bandit","71","705559","0.0-32.0-19.0","59139021","wem/bandit_party_2","A1IW9V75GCJ58P","either","3","262","","","","","","","0","1","0","","0.8","0.5","0.5","0.5","0.5","0.8","0.2","0.6","0.2","","","","","","","","","","","","","","72","H","0","img/none_selected.jpg","true","0","full_practice",""
"","text","72","710464","0.0-33.0","59139021","wem/bandit_party_2","A1IW9V75GCJ58P","either","3","4901","","","32","","","","","","","","","","","","","","","","","","","","","","","","","","","","","","","","","","","","",""
"","text-replacement","73","728252","0.0-34.0","59139021","wem/bandit_party_2","A1IW9V75GCJ58P","either","3","16784","","","32","","","","","","","","","","","","","","","","","","","","","","","","","","","","","","","","","","","","",""
"","text-replacement","74","742536","0.0-35.0","59139021","wem/bandit_party_2","A1IW9V75GCJ58P","either","3","14283","","","32","","","","","","","","","","","","","","","","","","","","","","","","","","","","","","","","","","","","",""
"","text-replacement","75","748944","0.0-36.0","59139021","wem/bandit_party_2","A1IW9V75GCJ58P","either","3","6407","","","32","","","","","","","","","","","","","","","","","","","","","","","","","","","","","","","","","","","","",""
"","text-replacement","76","757947","0.0-37.0","59139021","wem/bandit_party_2","A1IW9V75GCJ58P","either","3","9002","","","32","","","","","","","","","","","","","","","","","","","","","","","","","","","","","","","","","","","","",""
"","text-replacement","77","766194","0.0-38.0","59139021","wem/bandit_party_2","A1IW9V75GCJ58P","either","3","8245","","","32","","","","","","","","","","","","","","","","","","","","","","","","","","","","","","","","","","","","",""
"","survey-multi-choice-replacement","78","773637","0.0-39.0-0.0","59139021","wem/bandit_party_2","A1IW9V75GCJ58P","either","3","7436","","","","","","","","","","","","","","","","","","","","","","","","Money will be added to the pool for <span style='color:blue;'>DEMOCRATS</span>","","","","","","","attn_check","","","","","","","","","0"
"","survey-multi-choice-replacement","79","781247","0.0-40.0-0.0","59139021","wem/bandit_party_2","A1IW9V75GCJ58P","either","3","6603","","","","","","","","","","","","","","","","","","","","","","","","Equal amounts of money will be added to the pool for <span style='color:blue;'>DEMOCRATS</span> and subtracted from the pool for <span style='color:red;'>REPUBLICANS</span>","","","","","","","attn_check","","","","","","","","","2"
"","survey-multi-choice-replacement","80","786663","0.0-41.0-0.0","59139021","wem/bandit_party_2","A1IW9V75GCJ58P","either","3","4405","","","","","","","","","","","","","","","","","","","","","","","","No money will be added to either pool","","","","","","","attn_check","","","","","","","","","3"
"","bandit","81","794472","0.0-42.0-0.0","59139021","wem/bandit_party_2","A1IW9V75GCJ58P","either","3","5301","","","","","","","0","0","1","0.6494041588","","0.6","0.8","0.2","0.4","","","","","0.6494041588","0.6473934842","0.4261870849","0.1387034319","","","","","","","","","","72","H","0","img/none_selected.jpg","","1","main_expt",""
"","bandit","82","796672","0.0-43.0-0.0","59139021","wem/bandit_party_2","A1IW9V75GCJ58P","either","3","694","","","","","","","0","1","0","","0.5221866694","0.6","0.8","0.2","0.4","0.7608835745","0.5221866694","0.3223101542","0.2166337036","","","","","","","","","","","","","","74","J","1","","","2","main_expt",""
"","bandit","83","798856","0.0-44.0-0.0","59139021","wem/bandit_party_2","A1IW9V75GCJ58P","either","3","678","","","","","","","0","1","0","","0.5356292978","0.6","0.8","0.2","0.4","0.7745567172","0.5356292978","0.2541217019","0.3253899216","","","","","","","","","","","","","","74","J","1","","","3","main_expt",""
"","bandit","84","800800","0.0-45.0-0.0","59139021","wem/bandit_party_2","A1IW9V75GCJ58P","either","3","438","","","","","","","0","0","1","0.5154592071","","0.6","0.8","0.2","0.4","","","","","0.8315703218","0.5154592071","0.2272043942","0.3003293127","","","","","","","","","","74","J","1","","","4","main_expt",""
"","bandit","85","802632","0.0-46.0-0.0","59139021","wem/bandit_party_2","A1IW9V75GCJ58P","either","3","327","","","","","","","1","0","0","0.2967729676","","0.6","0.8","0.2","0.4","","","","","0.8380789219","0.4578896037","0.2967729676","0.3839660868","","","","","","","","","","75","K","2","","","5","main_expt",""
"","bandit","86","804391","0.0-47.0-0.0","59139021","wem/bandit_party_2","A1IW9V75GCJ58P","either","3","254","","","","","","","0","0","1","0.3211998527","","0.6","0.8","0.2","0.4","","","","","0.8233568153","0.4825789634","0.3211998527","0.3833463511","","","","","","","","","","75","K","2","","","6","main_expt",""
"","bandit","87","806184","0.0-48.0-0.0","59139021","wem/bandit_party_2","A1IW9V75GCJ58P","either","3","287","","","","","","","0","0","1","0.3173395401","","0.6","0.8","0.2","0.4","","","","","0.8672840292","0.4013658759","0.4190649117","0.3173395401","","","","","","","","","","76","L","3","","","7","main_expt",""
"","bandit","88","808192","0.0-49.0-0.0","59139021","wem/bandit_party_2","A1IW9V75GCJ58P","either","3","502","","","","","","","0","0","1","0.3721769634","","0.6","0.8","0.2","0.4","","","","","0.7921451217","0.3721769634","0.5253498774","0.3265190876","","","","","","","","","","74","J","1","","","8","main_expt",""
"","bandit","89","810080","0.0-50.0-0.0","59139021","wem/bandit_party_2","A1IW9V75GCJ58P","either","3","382","","","","","","","0","0","1","","0.5552176016","0.6","0.8","0.2","0.4","0.7826569337","0.3934089605","0.5552176016","0.4229840653","","","","","","","","","","","","","","75","K","2","","","9","main_expt",""
"","bandit","90","811600","0.0-51.0-0.0","59139021","wem/bandit_party_2","A1IW9V75GCJ58P","either","3","14","","","","","","","1","0","0","0.7150392401","","0.6","0.8","0.2","0.4","","","","","0.7150392401","0.3360942297","0.654745146","0.5107168356","","","","","","","","","","72","H","0","img/none_selected.jpg","","10","main_expt",""
"","bandit","91","813567","0.0-52.0-0.0","59139021","wem/bandit_party_2","A1IW9V75GCJ58P","either","3","462","","","","","","","1","0","0","0.6906605055","","0.6","0.8","0.2","0.4","","","","","0.6906605055","0.4969537907","0.6089063278","0.4383577931","","","","","","","","","","72","H","0","img/none_selected.jpg","","11","main_expt",""
"","bandit","92","815423","0.0-53.0-0.0","59139021","wem/bandit_party_2","A1IW9V75GCJ58P","either","3","351","","","","","","","0","1","0","","0.6725575113","0.6","0.8","0.2","0.4","0.6725575113","0.4760264401","0.559155858","0.5487148549","","","","","","","","","","","","","","72","H","0","img/none_selected.jpg","","12","main_expt",""
"","bandit","93","817232","0.0-54.0-0.0","59139021","wem/bandit_party_2","A1IW9V75GCJ58P","either","3","303","","","","","","","1","0","0","0.7404599176","","0.6","0.8","0.2","0.4","","","","","0.7404599176","0.4008761295","0.6464491645","0.7407599438","","","","","","","","","","72","H","0","img/none_selected.jpg","","13","main_expt",""
"","bandit","94","819199","0.0-55.0-0.0","59139021","wem/bandit_party_2","A1IW9V75GCJ58P","either","3","462","","","","","","","0","0","1","0.6751607758","","0.6","0.8","0.2","0.4","","","","","0.6751607758","0.358486362","0.6936958995","0.8307131687","","","","","","","","","","72","H","0","img/none_selected.jpg","","14","main_expt",""
"","bandit","95","820952","0.0-56.0-0.0","59139021","wem/bandit_party_2","A1IW9V75GCJ58P","either","3","247","","","","","","","0","0","1","0.395258373","","0.6","0.8","0.2","0.4","","","","","0.6115440925","0.395258373","0.731471075","0.8114394421","","","","","","","","","","74","J","1","","","15","main_expt",""
"","bandit","96","822960","0.0-57.0-0.0","59139021","wem/bandit_party_2","A1IW9V75GCJ58P","either","3","502","","","","","","","0","1","0","","0.6487541525","0.6","0.8","0.2","0.4","0.7019001419","0.4197334966","0.6487541525","0.8242397169","","","","","","","","","","","","","","75","K","2","","","16","main_expt",""
"","bandit","97","824807","0.0-58.0-0.0","59139021","wem/bandit_party_2","A1IW9V75GCJ58P","either","3","342","","","","","","","1","0","0","0.7654634758","","0.6","0.8","0.2","0.4","","","","","0.7017998","0.2160816064","0.7654634758","0.8317633157","","","","","","","","","","75","K","2","","","17","main_expt",""
"","bandit","98","826791","0.0-59.0-0.0","59139021","wem/bandit_party_2","A1IW9V75GCJ58P","either","3","479","","","","","","","1","0","0","0.7160830043","","0.6","0.8","0.2","0.4","","","","","0.7672473748","0.2058632209","0.7160830043","0.8158638682","","","","","","","","","","75","K","2","","","18","main_expt",""
"","bandit","99","828767","0.0-60.0-0.0","59139021","wem/bandit_party_2","A1IW9V75GCJ58P","either","3","471","","","","","","","0","0","1","","0.6856656502","0.6","0.8","0.2","0.4","0.7950219121","0.2314559036","0.6856656502","0.8291878069","","","","","","","","","","","","","","75","K","2","","","19","main_expt",""
"","bandit","100","830599","0.0-61.0-0.0","59139021","wem/bandit_party_2","A1IW9V75GCJ58P","either","3","326","","","","","","","0","0","1","0.8665153398","","0.6","0.8","0.2","0.4","","","","","0.8460513568","0.1762066147","0.6829400921","0.8665153398","","","","","","","","","","76","L","3","","","20","main_expt",""
"","bandit","101","832366","0.0-62.0-0.0","59139021","wem/bandit_party_2","A1IW9V75GCJ58P","either","3","262","","","","","","","0","1","0","","0.6849203215","0.6","0.8","0.2","0.4","0.8571228725","0.150477598","0.6849203215","0.8181415858","","","","","","","","","","","","","","75","K","2","","","21","main_expt",""
"","bandit","102","834375","0.0-63.0-0.0","59139021","wem/bandit_party_2","A1IW9V75GCJ58P","either","3","503","","","","","","","0","0","1","","0.6832197831","0.6","0.8","0.2","0.4","0.8498483749","0.1957635407","0.6832197831","0.7731960963","","","","","","","","","","","","","","75","K","2","","","22","main_expt",""
"","bandit","103","836407","0.0-64.0-0.0","59139021","wem/bandit_party_2","A1IW9V75GCJ58P","either","3","525","","","","","","","0","1","0","","0.887495535","0.6","0.8","0.2","0.4","0.887495535","0.2193187944","0.6103957523","0.8004626553","","","","","","","","","","","","","","72","H","0","img/none_selected.jpg","","23","main_expt",""
"","bandit","104","838190","0.0-65.0-0.0","59139021","wem/bandit_party_2","A1IW9V75GCJ58P","either","3","278","","","","","","","0","1","0","","0.918231735","0.6","0.8","0.2","0.4","0.918231735","0.1836328706","0.5485819736","0.7941911222","","","","","","","","","","","","","","72","H","0","img/none_selected.jpg","","24","main_expt",""
"","bandit","105","839959","0.0-66.0-0.0","59139021","wem/bandit_party_2","A1IW9V75GCJ58P","either","3","264","","","","","","","0","1","0","","0.9111146318","0.6","0.8","0.2","0.4","0.9111146318","0.1410441375","0.5852935809","0.7100633829","","","","","","","","","","","","","","72","H","0","img/none_selected.jpg","","25","main_expt",""
"","bandit","106","841767","0.0-67.0-0.0","59139021","wem/bandit_party_2","A1IW9V75GCJ58P","either","3","302","","","","","","","0","1","0","","0.9190640316","0.6","0.8","0.2","0.4","0.9190640316","0.1082593399","0.6097892937","0.6872129375","","","","","","","","","","","","","","72","H","0","img/none_selected.jpg","","26","main_expt",""
"","bandit","107","843543","0.0-68.0-0.0","59139021","wem/bandit_party_2","A1IW9V75GCJ58P","either","3","270","","","","","","","0","1","0","","0.9372614837","0.6","0.8","0.2","0.4","0.9372614837","0.1042047793","0.6653335402","0.6798864795","","","","","","","","","","","","","","72","H","0","img/none_selected.jpg","","27","main_expt",""
"","bandit","108","845215","0.0-69.0-0.0","59139021","wem/bandit_party_2","A1IW9V75GCJ58P","either","3","166","","","","","","","1","0","0","0.9269484959","","0.6","0.8","0.2","0.4","","","","","0.9269484959","0.1153509117","0.6850825106","0.6812343762","","","","","","","","","","72","H","0","img/none_selected.jpg","","28","main_expt",""
"","bandit","109","847074","0.0-70.0-0.0","59139021","wem/bandit_party_2","A1IW9V75GCJ58P","either","3","350","","","","","","","0","1","0","","0.9376772981","0.6","0.8","0.2","0.4","0.9376772981","0.1601566248","0.7309016742","0.5305157647","","","","","","","","","","","","","","72","H","0","img/none_selected.jpg","","29","main_expt",""
"","bandit","110","848958","0.0-71.0-0.0","59139021","wem/bandit_party_2","A1IW9V75GCJ58P","either","3","379","","","","","","","0","1","0","","0.8795505253","0.6","0.8","0.2","0.4","0.8795505253","0.09548927903","0.8141980113","0.4713174284","","","","","","","","","","","","","","72","H","0","img/none_selected.jpg","","30","main_expt",""
"","bandit","111","850959","0.0-72.0-0.0","59139021","wem/bandit_party_2","A1IW9V75GCJ58P","either","3","495","","","","","","","0","0","1","","0.8605863748","0.6","0.8","0.2","0.4","0.8605863748","0.09272353297","0.8926711601","0.2938490869","","","","","","","","","","","","","","72","H","0","img/none_selected.jpg","","31","main_expt",""
"","bandit","112","852815","0.0-73.0-0.0","59139021","wem/bandit_party_2","A1IW9V75GCJ58P","either","3","350","","","","","","","0","1","0","","0.8397563013","0.6","0.8","0.2","0.4","0.757600507","0.09547929832","0.8397563013","0.3005160425","","","","","","","","","","","","","","75","K","2","","","32","main_expt",""
"","bandit","113","854711","0.0-74.0-0.0","59139021","wem/bandit_party_2","A1IW9V75GCJ58P","either","3","390","","","","","","","0","0","1","","0.8251988787","0.6","0.8","0.2","0.4","0.7257103923","0.08683876107","0.8251988787","0.3661211491","","","","","","","","","","","","","","75","K","2","","","33","main_expt",""
"","bandit","114","856550","0.0-75.0-0.0","59139021","wem/bandit_party_2","A1IW9V75GCJ58P","either","3","334","","","","","","","0","0","1","0.08117088791","","0.6","0.8","0.2","0.4","","","","","0.5786815464","0.08117088791","0.7303528712","0.4614725573","","","","","","","","","","74","J","1","","","34","main_expt",""
"","bandit","115","858222","0.0-76.0-0.0","59139021","wem/bandit_party_2","A1IW9V75GCJ58P","either","3","166","","","","","","","0","0","1","0.4597324626","","0.6","0.8","0.2","0.4","","","","","0.4812266686","0.09593582107","0.8093673003","0.4597324626","","","","","","","","","","76","L","3","","","35","main_expt",""
"","bandit","116","859998","0.0-77.0-0.0","59139021","wem/bandit_party_2","A1IW9V75GCJ58P","either","3","271","","","","","","","1","0","0","0.4459447539","","0.6","0.8","0.2","0.4","","","","","0.4459447539","0.1392988708","0.79718131","0.4294742096","","","","","","","","","","72","H","0","img/none_selected.jpg","","36","main_expt",""
"","bandit","117","861758","0.0-78.0-0.0","59139021","wem/bandit_party_2","A1IW9V75GCJ58P","either","3","255","","","","","","","0","1","0","","0.5737218407","0.6","0.8","0.2","0.4","0.5737218407","0.07673209605","0.8157762275","0.5301274199","","","","","","","","","","","","","","72","H","0","img/none_selected.jpg","","37","main_expt",""
"","bandit","118","863526","0.0-79.0-0.0","59139021","wem/bandit_party_2","A1IW9V75GCJ58P","either","3","263","","","","","","","1","0","0","0.6008421093","","0.6","0.8","0.2","0.4","","","","","0.6008421093","0.1078843958","0.7941499978","0.5746889943","","","","","","","","","","72","H","0","img/none_selected.jpg","","38","main_expt",""
"","bandit","119","865351","0.0-80.0-0.0","59139021","wem/bandit_party_2","A1IW9V75GCJ58P","either","3","318","","","","","","","0","1","0","","0.6076920036","0.6","0.8","0.2","0.4","0.6076920036","0.09731722171","0.7352357368","0.6621100331","","","","","","","","","","","","","","72","H","0","img/none_selected.jpg","","39","main_expt",""
"","bandit","120","867302","0.0-81.0-0.0","59139021","wem/bandit_party_2","A1IW9V75GCJ58P","either","3","446","","","","","","","1","0","0","0.6616622706","","0.6","0.8","0.2","0.4","","","","","0.6616622706","0.2123509389","0.7920886563","0.6794361822","","","","","","","","","","72","H","0","img/none_selected.jpg","","40","main_expt",""
"","bandit","121","869230","0.0-82.0-0.0","59139021","wem/bandit_party_2","A1IW9V75GCJ58P","either","3","423","","","","","","","0","0","1","0.6945341382","","0.6","0.8","0.2","0.4","","","","","0.6945341382","0.1265365425","0.8780543775","0.7140523024","","","","","","","","","","72","H","0","img/none_selected.jpg","","41","main_expt",""
"","bandit","122","870862","0.0-83.0-0.0","59139021","wem/bandit_party_2","A1IW9V75GCJ58P","either","3","125","","","","","","","0","0","1","","0.9167256642","0.6","0.8","0.2","0.4","0.6833149102","0.166138795","0.9167256642","0.6669732994","","","","","","","","","","","","","","75","K","2","","","42","main_expt",""
"","bandit","123","872789","0.0-84.0-0.0","59139021","wem/bandit_party_2","A1IW9V75GCJ58P","either","3","422","","","","","","","1","0","0","0.7094953576","","0.6","0.8","0.2","0.4","","","","","0.7094953576","0.1782339186","0.9407985187","0.5435093165","","","","","","","","","","72","H","0","img/none_selected.jpg","","43","main_expt",""
"","bandit","124","874638","0.0-85.0-0.0","59139021","wem/bandit_party_2","A1IW9V75GCJ58P","either","3","342","","","","","","","0","0","1","0.7519468023","","0.6","0.8","0.2","0.4","","","","","0.7519468023","0.1342945815","0.9000978766","0.6002661395","","","","","","","","","","72","H","0","img/none_selected.jpg","","44","main_expt",""
"","bandit","125","876486","0.0-86.0-0.0","59139021","wem/bandit_party_2","A1IW9V75GCJ58P","either","3","342","","","","","","","0","1","0","","0.9190036262","0.6","0.8","0.2","0.4","0.7673203249","0.09086288848","0.9190036262","0.5948203474","","","","","","","","","","","","","","75","K","2","","","45","main_expt",""
"","bandit","126","878390","0.0-87.0-0.0","59139021","wem/bandit_party_2","A1IW9V75GCJ58P","either","3","394","","","","","","","1","0","0","0.8865788656","","0.6","0.8","0.2","0.4","","","","","0.722836051","0.06420934006","0.8865788656","0.6230250108","","","","","","","","","","75","K","2","","","46","main_expt",""
"","bandit","127","880205","0.0-88.0-0.0","59139021","wem/bandit_party_2","A1IW9V75GCJ58P","either","3","310","","","","","","","1","0","0","0.8207935484","","0.6","0.8","0.2","0.4","","","","","0.7392487755","0.02332738683","0.8207935484","0.7239235909","","","","","","","","","","75","K","2","","","47","main_expt",""
"","bandit","128","881990","0.0-89.0-0.0","59139021","wem/bandit_party_2","A1IW9V75GCJ58P","either","3","278","","","","","","","0","0","1","0.8170742187","","0.6","0.8","0.2","0.4","","","","","0.7551111279","0.03517565614","0.8170742187","0.7715310514","","","","","","","","","","75","K","2","","","48","main_expt",""
"","bandit","129","883773","0.0-90.0-0.0","59139021","wem/bandit_party_2","A1IW9V75GCJ58P","either","3","278","","","","","","","0","1","0","","0.6917772817","0.6","0.8","0.2","0.4","0.6917772817","0.04466115719","0.7874830355","0.822179592","","","","","","","","","","","","","","72","H","0","img/none_selected.jpg","","49","main_expt",""
"","bandit","130","885614","0.0-91.0-0.0","59139021","wem/bandit_party_2","A1IW9V75GCJ58P","either","3","335","","","","","","","1","0","0","0.6689959301","","0.6","0.8","0.2","0.4","","","","","0.6689959301","0.05053383529","0.8279472521","0.8108951243","","","","","","","","","","72","H","0","img/none_selected.jpg","","50","main_expt",""
"","bandit","131","887390","0.0-92.0-0.0","59139021","wem/bandit_party_2","A1IW9V75GCJ58P","either","3","270","","","","","","","1","0","0","0.6020608281","","0.6","0.8","0.2","0.4","","","","","0.6020608281","0.04681033125","0.8426817256","0.7649170446","","","","","","","","","","72","H","0","img/none_selected.jpg","","51","main_expt",""
"","bandit","132","889134","0.0-93.0-0.0","59139021","wem/bandit_party_2","A1IW9V75GCJ58P","either","3","238","","","","","","","1","0","0","0.6583182673","","0.6","0.8","0.2","0.4","","","","","0.6583182673","0.09308222201","0.8377647656","0.8169848275","","","","","","","","","","72","H","0","img/none_selected.jpg","","52","main_expt",""
"","bandit","133","890934","0.0-94.0-0.0","59139021","wem/bandit_party_2","A1IW9V75GCJ58P","either","3","294","","","","","","","1","0","0","0.5419436754","","0.6","0.8","0.2","0.4","","","","","0.5419436754","0.1397702629","0.8241398149","0.8843577791","","","","","","","","","","72","H","0","img/none_selected.jpg","","53","main_expt",""
"","bandit","134","892685","0.0-95.0-0.0","59139021","wem/bandit_party_2","A1IW9V75GCJ58P","either","3","246","","","","","","","1","0","0","0.5717614462","","0.6","0.8","0.2","0.4","","","","","0.5717614462","0.110287685","0.7289352116","0.8854515068","","","","","","","","","","72","H","0","img/none_selected.jpg","","54","main_expt",""
"","bandit","135","894238","0.0-96.0-0.0","59139021","wem/bandit_party_2","A1IW9V75GCJ58P","either","3","46","","","","","","","0","1","0","","0.5497935615","0.6","0.8","0.2","0.4","0.5497935615","0.1843384007","0.5895019519","0.8884574585","","","","","","","","","","","","","","72","H","0","img/none_selected.jpg","","55","main_expt",""
"","bandit","136","896150","0.0-97.0-0.0","59139021","wem/bandit_party_2","A1IW9V75GCJ58P","either","3","403","","","","","","","0","0","1","0.4902645195","","0.6","0.8","0.2","0.4","","","","","0.4902645195","0.2056752237","0.4622464331","0.8840911236","","","","","","","","","","72","H","0","img/none_selected.jpg","","56","main_expt",""
"","bandit","137","897926","0.0-98.0-0.0","59139021","wem/bandit_party_2","A1IW9V75GCJ58P","either","3","270","","","","","","","0","0","1","","0.490024734","0.6","0.8","0.2","0.4","0.5258365243","0.3410726922","0.490024734","0.864283103","","","","","","","","","","","","","","75","K","2","","","57","main_expt",""
"","bandit","138","899726","0.0-99.0-0.0","59139021","wem/bandit_party_2","A1IW9V75GCJ58P","either","3","294","","","","","","","0","1","0","","0.6097664349","0.6","0.8","0.2","0.4","0.6097664349","0.3873695161","0.6182628796","0.7377821737","","","","","","","","","","","","","","72","H","0","img/none_selected.jpg","","58","main_expt",""
"","bandit","139","901510","0.0-100.0-0.0","59139021","wem/bandit_party_2","A1IW9V75GCJ58P","either","3","278","","","","","","","0","0","1","0.6016711108","","0.6","0.8","0.2","0.4","","","","","0.6016711108","0.3281321534","0.6976829826","0.7469541206","","","","","","","","","","72","H","0","img/none_selected.jpg","","59","main_expt",""
"","bandit","140","903317","0.0-101.0-0.0","59139021","wem/bandit_party_2","A1IW9V75GCJ58P","either","3","302","","","","","","","0","1","0","","0.675433977","0.6","0.8","0.2","0.4","0.5544917648","0.2380439254","0.675433977","0.8019510571","","","","","","","","","","","","","","75","K","2","","","60","main_expt",""
"","bandit","141","905117","0.0-102.0-0.0","59139021","wem/bandit_party_2","A1IW9V75GCJ58P","either","3","295","","","","","","","0","1","0","","0.7206550838","0.6","0.8","0.2","0.4","0.6842720067","0.2228222105","0.7206550838","0.8943887388","","","","","","","","","","","","","","75","K","2","","","61","main_expt",""
"","bandit","142","906981","0.0-103.0-0.0","59139021","wem/bandit_party_2","A1IW9V75GCJ58P","either","3","358","","","","","","","0","0","1","","0.7184677658","0.6","0.8","0.2","0.4","0.6824345281","0.2489253665","0.7184677658","0.8942973556","","","","","","","","","","","","","","75","K","2","","","62","main_expt",""
"","bandit","143","908761","0.0-104.0-0.0","59139021","wem/bandit_party_2","A1IW9V75GCJ58P","either","3","271","","","","","","","0","1","0","","0.7321168219","0.6","0.8","0.2","0.4","0.7321168219","0.2298237489","0.6785259816","0.8829609874","","","","","","","","","","","","","","72","H","0","img/none_selected.jpg","","63","main_expt",""
"","bandit","144","910558","0.0-105.0-0.0","59139021","wem/bandit_party_2","A1IW9V75GCJ58P","either","3","291","","","","","","","0","1","0","","0.8123013145","0.6","0.8","0.2","0.4","0.8123013145","0.1849055857","0.6349383059","0.8175344892","","","","","","","","","","","","","","72","H","0","img/none_selected.jpg","","64","main_expt",""
"","bandit","145","912437","0.0-106.0-0.0","59139021","wem/bandit_party_2","A1IW9V75GCJ58P","either","3","373","","","","","","","0","0","1","0.8236121316","","0.6","0.8","0.2","0.4","","","","","0.8236121316","0.2285715909","0.629769122","0.7812905168","","","","","","","","","","72","H","0","img/none_selected.jpg","","65","main_expt",""
"","bandit","146","914261","0.0-107.0-0.0","59139021","wem/bandit_party_2","A1IW9V75GCJ58P","either","3","318","","","","","","","0","0","1","","0.7158950816","0.6","0.8","0.2","0.4","0.8270077233","0.2477643906","0.7158950816","0.7848445355","","","","","","","","","","","","","","75","K","2","","","66","main_expt",""
"","bandit","147","916013","0.0-108.0-0.0","59139021","wem/bandit_party_2","A1IW9V75GCJ58P","either","3","246","","","","","","","0","0","1","","0.7601471472","0.6","0.8","0.2","0.4","0.7601471472","0.1801078726","0.6309271871","0.763143195","","","","","","","","","","","","","","72","H","0","img/none_selected.jpg","","67","main_expt",""
"","bandit","148","917669","0.0-109.0-0.0","59139021","wem/bandit_party_2","A1IW9V75GCJ58P","either","3","150","","","","","","","1","0","0","0.7966751536","","0.6","0.8","0.2","0.4","","","","","0.7567750057","0.08479184886","0.617221228","0.7966751536","","","","","","","","","","76","L","3","","","68","main_expt",""
"","bandit","149","919485","0.0-110.0-0.0","59139021","wem/bandit_party_2","A1IW9V75GCJ58P","either","3","310","","","","","","","0","0","1","0.8534335227","","0.6","0.8","0.2","0.4","","","","","0.6871277649","0.06982522498","0.6235929763","0.8534335227","","","","","","","","","","76","L","3","","","69","main_expt",""
"","bandit","150","921597","0.0-111.0-0.0","59139021","wem/bandit_party_2","A1IW9V75GCJ58P","either","3","606","","","","","","","0","0","1","0.05029268469","","0.6","0.8","0.2","0.4","","","","","0.773099018","0.05029268469","0.5543620559","0.8915498471","","","","","","","","","","74","J","1","","","70","main_expt",""
"","bandit","151","923805","0.0-112.0-0.0","59139021","wem/bandit_party_2","A1IW9V75GCJ58P","either","3","701","","","","","","","1","0","0","0.7412476729","","0.6","0.8","0.2","0.4","","","","","0.7412476729","0.06413839938","0.5333999135","0.8736989015","","","","","","","","","","72","H","0","img/none_selected.jpg","","71","main_expt",""
"","bandit","152","925565","0.0-113.0-0.0","59139021","wem/bandit_party_2","A1IW9V75GCJ58P","either","3","254","","","","","","","0","1","0","","0.8080704968","0.6","0.8","0.2","0.4","0.8080704968","0.05155778705","0.5905126671","0.8837551658","","","","","","","","","","","","","","72","H","0","img/none_selected.jpg","","72","main_expt",""
"","bandit","153","927317","0.0-114.0-0.0","59139021","wem/bandit_party_2","A1IW9V75GCJ58P","either","3","245","","","","","","","0","1","0","","0.8270016227","0.6","0.8","0.2","0.4","0.8270016227","0.0232747386","0.6925119087","0.8495494246","","","","","","","","","","","","","","72","H","0","img/none_selected.jpg","","73","main_expt",""
"","bandit","154","929173","0.0-115.0-0.0","59139021","wem/bandit_party_2","A1IW9V75GCJ58P","either","3","350","","","","","","","0","1","0","","0.7872017979","0.6","0.8","0.2","0.4","0.7872017979","0.04751547773","0.7134745341","0.9127472651","","","","","","","","","","","","","","72","H","0","img/none_selected.jpg","","74","main_expt",""
"","bandit","155","930949","0.0-116.0-0.0","59139021","wem/bandit_party_2","A1IW9V75GCJ58P","either","3","270","","","","","","","0","0","1","0.6167225576","","0.6","0.8","0.2","0.4","","","","","0.6167225576","0.05282531612","0.8065440948","0.9199060817","","","","","","","","","","72","H","0","img/none_selected.jpg","","75","main_expt",""
"","bandit","156","932700","0.0-117.0-0.0","59139021","wem/bandit_party_2","A1IW9V75GCJ58P","either","3","246","","","","","","","0","0","1","","0.7849172319","0.6","0.8","0.2","0.4","0.637182095","0.08738729654","0.7849172319","0.8691294168","","","","","","","","","","","","","","75","K","2","","","76","main_expt",""
"","bandit","157","934484","0.0-118.0-0.0","59139021","wem/bandit_party_2","A1IW9V75GCJ58P","either","3","278","","","","","","","1","0","0","0.9111329321","","0.6","0.8","0.2","0.4","","","","","0.7169911294","0.08851312664","0.7818962729","0.9111329321","","","","","","","","","","76","L","3","","","77","main_expt",""
"","bandit","158","936276","0.0-119.0-0.0","59139021","wem/bandit_party_2","A1IW9V75GCJ58P","either","3","286","","","","","","","0","1","0","","0.9286966754","0.6","0.8","0.2","0.4","0.7446448061","0.145228539","0.7002933386","0.9286966754","","","","","","","","","","","","","","76","L","3","","","78","main_expt",""
"","bandit","159","938092","0.0-120.0-0.0","59139021","wem/bandit_party_2","A1IW9V75GCJ58P","either","3","310","","","","","","","0","1","0","","0.9616021792","0.6","0.8","0.2","0.4","0.8152221547","0.1669860915","0.6510109529","0.9616021792","","","","","","","","","","","","","","76","L","3","","","79","main_expt",""
"","bandit","160","939869","0.0-121.0-0.0","59139021","wem/bandit_party_2","A1IW9V75GCJ58P","either","3","270","","","","","","","0","1","0","","0.950571795","0.6","0.8","0.2","0.4","0.810351938","0.1922913003","0.6765614865","0.950571795","","","","","","","","","","","","","","76","L","3","","","80","main_expt",""
"","bandit","161","941829","0.0-122.0-0.0","59139021","wem/bandit_party_2","A1IW9V75GCJ58P","either","3","454","","","","","","","0","1","0","","0.9331160128","0.6","0.8","0.2","0.4","0.8895110989","0.2407870914","0.5908869344","0.9331160128","","","","","","","","","","","","","","76","L","3","","","81","main_expt",""
"","bandit","162","943828","0.0-123.0-0.0","59139021","wem/bandit_party_2","A1IW9V75GCJ58P","either","3","494","","","","","","","0","1","0","","0.9465986336","0.6","0.8","0.2","0.4","0.9046816681","0.3077898034","0.5267531711","0.9465986336","","","","","","","","","","","","","","76","L","3","","","82","main_expt",""
"","bandit","163","945724","0.0-124.0-0.0","59139021","wem/bandit_party_2","A1IW9V75GCJ58P","either","3","389","","","","","","","0","0","1","","0.9371159138","0.6","0.8","0.2","0.4","0.8465278631","0.2337579628","0.6168373964","0.9371159138","","","","","","","","","","","","","","76","L","3","","","83","main_expt",""
"","bandit","164","947484","0.0-125.0-0.0","59139021","wem/bandit_party_2","A1IW9V75GCJ58P","either","3","254","","","","","","","1","0","0","0.7584930438","","0.6","0.8","0.2","0.4","","","","","0.7584930438","0.2781329454","0.5733990252","0.8998840018","","","","","","","","","","72","H","0","img/none_selected.jpg","","84","main_expt",""
"","bandit","165","949268","0.0-126.0-0.0","59139021","wem/bandit_party_2","A1IW9V75GCJ58P","either","3","278","","","","","","","0","1","0","","0.7727946294","0.6","0.8","0.2","0.4","0.7727946294","0.3013149798","0.4719695616","0.9102188985","","","","","","","","","","","","","","72","H","0","img/none_selected.jpg","","85","main_expt",""
"","bandit","166","951036","0.0-127.0-0.0","59139021","wem/bandit_party_2","A1IW9V75GCJ58P","either","3","261","","","","","","","0","0","1","0.8216594778","","0.6","0.8","0.2","0.4","","","","","0.8216594778","0.3231836659","0.6941651786","0.9000055418","","","","","","","","","","72","H","0","img/none_selected.jpg","","86","main_expt",""
"","bandit","167","952804","0.0-128.0-0.0","59139021","wem/bandit_party_2","A1IW9V75GCJ58P","either","3","262","","","","","","","0","1","0","","0.5408952125","0.6","0.8","0.2","0.4","0.7833884788","0.3986379136","0.5408952125","0.8563468124","","","","","","","","","","","","","","75","K","2","","","87","main_expt",""
"","bandit","168","954596","0.0-129.0-0.0","59139021","wem/bandit_party_2","A1IW9V75GCJ58P","either","3","282","","","","","","","0","1","0","","0.5438891422","0.6","0.8","0.2","0.4","0.7804426693","0.4230151841","0.5438891422","0.7349543302","","","","","","","","","","","","","","75","K","2","","","88","main_expt",""
"","bandit","169","956412","0.0-130.0-0.0","59139021","wem/bandit_party_2","A1IW9V75GCJ58P","either","3","309","","","","","","","0","1","0","","0.4294971294","0.6","0.8","0.2","0.4","0.7930928848","0.3761858397","0.4294971294","0.7907967515","","","","","","","","","","","","","","75","K","2","","","89","main_expt",""
"","bandit","170","958204","0.0-131.0-0.0","59139021","wem/bandit_party_2","A1IW9V75GCJ58P","either","3","286","","","","","","","0","1","0","","0.4928337868","0.6","0.8","0.2","0.4","0.7683039237","0.4799086841","0.4928337868","0.7883246469","","","","","","","","","","","","","","75","K","2","","","90","main_expt",""
"","bandit","171","959980","0.0-132.0-0.0","59139021","wem/bandit_party_2","A1IW9V75GCJ58P","either","3","270","","","","","","","0","1","0","","0.5655090935","0.6","0.8","0.2","0.4","0.8072091422","0.4558425901","0.5655090935","0.8389096604","","","","","","","","","","","","","","75","K","2","","","91","main_expt",""
"","bandit","172","961788","0.0-133.0-0.0","59139021","wem/bandit_party_2","A1IW9V75GCJ58P","either","3","302","","","","","","","0","1","0","","0.6154818033","0.6","0.8","0.2","0.4","0.7791444337","0.3781515597","0.6154818033","0.8064187158","","","","","","","","","","","","","","75","K","2","","","92","main_expt",""
"","bandit","173","963540","0.0-134.0-0.0","59139021","wem/bandit_party_2","A1IW9V75GCJ58P","either","3","246","","","","","","","0","1","0","","0.7381217307","0.6","0.8","0.2","0.4","0.8498372391","0.2858753042","0.7381217307","0.7542368763","","","","","","","","","","","","","","75","K","2","","","93","main_expt",""
"","bandit","174","965340","0.0-135.0-0.0","59139021","wem/bandit_party_2","A1IW9V75GCJ58P","either","3","294","","","","","","","0","1","0","","0.7776388333","0.6","0.8","0.2","0.4","0.8440610374","0.3914428564","0.7776388333","0.6932487021","","","","","","","","","","","","","","75","K","2","","","94","main_expt",""
"","bandit","175","967132","0.0-136.0-0.0","59139021","wem/bandit_party_2","A1IW9V75GCJ58P","either","3","286","","","","","","","0","1","0","","0.8299152283","0.6","0.8","0.2","0.4","0.8092418145","0.3800018616","0.8299152283","0.6706070003","","","","","","","","","","","","","","75","K","2","","","95","main_expt",""
"","bandit","176","968931","0.0-137.0-0.0","59139021","wem/bandit_party_2","A1IW9V75GCJ58P","either","3","294","","","","","","","0","0","1","","0.7697811485","0.6","0.8","0.2","0.4","0.8655172998","0.3078584031","0.7697811485","0.6670251336","","","","","","","","","","","","","","75","K","2","","","96","main_expt",""
"","bandit","177","970748","0.0-138.0-0.0","59139021","wem/bandit_party_2","A1IW9V75GCJ58P","either","3","310","","","","","","","0","0","1","0.218486712","","0.6","0.8","0.2","0.4","","","","","0.8735151232","0.218486712","0.7487724405","0.7023758817","","","","","","","","","","74","J","1","","","97","main_expt",""
"","bandit","178","972411","0.0-139.0-0.0","59139021","wem/bandit_party_2","A1IW9V75GCJ58P","either","3","154","","","","","","","0","1","0","","0.7036518389","0.6","0.8","0.2","0.4","0.84409386","0.2037628256","0.7450583294","0.7036518389","","","","","","","","","","","","","","76","L","3","","","98","main_expt",""
"","bandit","179","974171","0.0-140.0-0.0","59139021","wem/bandit_party_2","A1IW9V75GCJ58P","either","3","255","","","","","","","0","0","1","","0.8401346726","0.6","0.8","0.2","0.4","0.8089648913","0.2400196326","0.7227120129","0.8401346726","","","","","","","","","","","","","","76","L","3","","","99","main_expt",""
"","bandit","180","975922","0.0-141.0-0.0","59139021","wem/bandit_party_2","A1IW9V75GCJ58P","either","3","246","","","","","","","0","0","1","","0.7259557377","0.6","0.8","0.2","0.4","0.7259557377","0.3298222115","0.5872141049","0.8640782416","","","","","","","","","","","","","","72","H","0","img/none_selected.jpg","","100","main_expt",""
"","bandit","181","977459","0.0-142.0-0.0","59139021","wem/bandit_party_2","A1IW9V75GCJ58P","either","3","32","","","","","","","0","0","1","","0.8232172207","0.6","0.8","0.2","0.4","0.6332869741","0.3108047587","0.6432213136","0.8232172207","","","","","","","","","","","","","","76","L","3","","","101","main_expt",""
"","bandit","182","979243","0.0-143.0-0.0","59139021","wem/bandit_party_2","A1IW9V75GCJ58P","either","3","278","","","","","","","0","0","1","","0.6009476408","0.6","0.8","0.2","0.4","0.659443461","0.2869381514","0.6009476408","0.8451901448","","","","","","","","","","","","","","75","K","2","","","102","main_expt",""
"","bandit","183","981043","0.0-144.0-0.0","59139021","wem/bandit_party_2","A1IW9V75GCJ58P","either","3","294","","","","","","","0","0","1","","0.246485708","0.6","0.8","0.2","0.4","0.5959971703","0.246485708","0.6120105745","0.8792283932","","","","","","","","","","","","","","74","J","1","","","103","main_expt",""
"","bandit","184","982627","0.0-145.0-0.0","59139021","wem/bandit_party_2","A1IW9V75GCJ58P","either","3","78","","","","","","","0","1","0","","0.5643630141","0.6","0.8","0.2","0.4","0.5643630141","0.2175667678","0.6821098495","0.8887181638","","","","","","","","","","","","","","72","H","0","img/none_selected.jpg","","104","main_expt",""
"","bandit","185","984286","0.0-146.0-0.0","59139021","wem/bandit_party_2","A1IW9V75GCJ58P","either","3","150","","","","","","","0","1","0","","0.5489079514","0.6","0.8","0.2","0.4","0.5489079514","0.2645808036","0.7228510016","0.8013578166","","","","","","","","","","","","","","72","H","0","img/none_selected.jpg","","105","main_expt",""
"","bandit","186","988274","0.0-147.0-0.0","59139021","wem/bandit_party_2","A1IW9V75GCJ58P","either","3","2482","","","","","","","1","0","0","0.7307006529","","0.6","0.8","0.2","0.4","","","","","0.4336033326","0.2652424516","0.6639212405","0.7307006529","","","","","","","","","","76","L","3","","","106","main_expt",""
"","bandit","187","990075","0.0-148.0-0.0","59139021","wem/bandit_party_2","A1IW9V75GCJ58P","either","3","294","","","","","","","0","1","0","","0.7519500851","0.6","0.8","0.2","0.4","0.4779201531","0.2481661544","0.6237034742","0.7519500851","","","","","","","","","","","","","","76","L","3","","","107","main_expt",""
"","bandit","188","991835","0.0-149.0-0.0","59139021","wem/bandit_party_2","A1IW9V75GCJ58P","either","3","253","","","","","","","1","0","0","0.7457577851","","0.6","0.8","0.2","0.4","","","","","0.5075294874","0.2361720859","0.5847293191","0.7457577851","","","","","","","","","","76","L","3","","","108","main_expt",""
"","bandit","189","994643","0.0-150.0-0.0","59139021","wem/bandit_party_2","A1IW9V75GCJ58P","either","3","1301","","","","","","","0","1","0","","0.522842385","0.6","0.8","0.2","0.4","0.522842385","0.2799679389","0.6260859175","0.77583868","","","","","","","","","","","","","","72","H","0","img/none_selected.jpg","","109","main_expt",""
"","bandit","190","996148","0.0-151.0-0.0","59139021","wem/bandit_party_2","A1IW9V75GCJ58P","either","3","0","","","","","","","0","0","1","0.419893696","","0.6","0.8","0.2","0.4","","","","","0.419893696","0.3333098602","0.4788227383","0.7520827962","","","","","","","","","","72","H","0","img/none_selected.jpg","","110","main_expt",""
"","bandit","191","998170","0.0-152.0-0.0","59139021","wem/bandit_party_2","A1IW9V75GCJ58P","either","3","517","","","","","","","0","1","0","","0.6019778282","0.6","0.8","0.2","0.4","0.431092028","0.3669732535","0.6019778282","0.6512809768","","","","","","","","","","","","","","75","K","2","","","111","main_expt",""
"","bandit","192","1000094","0.0-153.0-0.0","59139021","wem/bandit_party_2","A1IW9V75GCJ58P","either","3","414","","","","","","","0","1","0","","0.546445977","0.6","0.8","0.2","0.4","0.3590071368","0.389765336","0.546445977","0.5891937939","","","","","","","","","","","","","","75","K","2","","","112","main_expt",""
"","bandit","193","1003467","0.0-154.0-0.0","59139021","wem/bandit_party_2","A1IW9V75GCJ58P","either","3","1866","","","","","","","0","1","0","","0.6256092846","0.6","0.8","0.2","0.4","0.4498419114","0.3191506652","0.6256092846","0.6490525038","","","","","","","","","","","","","","75","K","2","","","113","main_expt",""
"","bandit","194","1005355","0.0-155.0-0.0","59139021","wem/bandit_party_2","A1IW9V75GCJ58P","either","3","382","","","","","","","0","1","0","","0.6577617598","0.6","0.8","0.2","0.4","0.4829831469","0.2090321438","0.6577617598","0.6283680234","","","","","","","","","","","","","","75","K","2","","","114","main_expt",""
"","bandit","195","1007155","0.0-156.0-0.0","59139021","wem/bandit_party_2","A1IW9V75GCJ58P","either","3","294","","","","","","","0","0","1","","0.7140476354","0.6","0.8","0.2","0.4","0.4846695964","0.2094439124","0.7140476354","0.6064224059","","","","","","","","","","","","","","75","K","2","","","115","main_expt",""
"","bandit","196","1009010","0.0-157.0-0.0","59139021","wem/bandit_party_2","A1IW9V75GCJ58P","either","3","350","","","","","","","0","0","1","0.5396909338","","0.6","0.8","0.2","0.4","","","","","0.5396909338","0.2695181069","0.6589976567","0.545813367","","","","","","","","","","72","H","0","img/none_selected.jpg","","116","main_expt",""
"","bandit","197","1010546","0.0-158.0-0.0","59139021","wem/bandit_party_2","A1IW9V75GCJ58P","either","3","30","","","","","","","0","1","0","","0.5179373022","0.6","0.8","0.2","0.4","0.5378282835","0.3402036285","0.6937703341","0.5179373022","","","","","","","","","","","","","","76","L","3","","","117","main_expt",""
"","bandit","198","1012258","0.0-159.0-0.0","59139021","wem/bandit_party_2","A1IW9V75GCJ58P","either","3","206","","","","","","","0","0","1","","0.4014157923","0.6","0.8","0.2","0.4","0.5729988564","0.3101634078","0.77114399","0.4014157923","","","","","","","","","","","","","","76","L","3","","","118","main_expt",""
"","bandit","199","1013787","0.0-160.0-0.0","59139021","wem/bandit_party_2","A1IW9V75GCJ58P","either","3","21","","","","","","","0","1","0","","0.710000291","0.6","0.8","0.2","0.4","0.5630251564","0.3242193616","0.710000291","0.4360264599","","","","","","","","","","","","","","75","K","2","","","119","main_expt",""
"","bandit","200","1015554","0.0-161.0-0.0","59139021","wem/bandit_party_2","A1IW9V75GCJ58P","either","3","261","","","","","","","0","1","0","","0.6767982245","0.6","0.8","0.2","0.4","0.6482115929","0.3334277272","0.6767982245","0.3297853269","","","","","","","","","","","","","","75","K","2","","","120","main_expt",""
"","bandit","201","1017275","0.0-162.0-0.0","59139021","wem/bandit_party_2","A1IW9V75GCJ58P","either","3","215","","","","","","","0","1","0","","0.7360115258","0.6","0.8","0.2","0.4","0.5688505083","0.4066521311","0.7360115258","0.3767442019","","","","","","","","","","","","","","75","K","2","","","121","main_expt",""
"","bandit","202","1018810","0.0-163.0-0.0","59139021","wem/bandit_party_2","A1IW9V75GCJ58P","either","3","30","","","","","","","0","1","0","","0.7258716992","0.6","0.8","0.2","0.4","0.5349597204","0.5193034213","0.7258716992","0.3589515546","","","","","","","","","","","","","","75","K","2","","","122","main_expt",""
"","bandit","203","1020690","0.0-164.0-0.0","59139021","wem/bandit_party_2","A1IW9V75GCJ58P","either","3","374","","","","","","","0","0","1","0.7848203729","","0.6","0.8","0.2","0.4","","","","","0.412887176","0.5594962391","0.7848203729","0.3461890545","","","","","","","","","","75","K","2","","","123","main_expt",""
"","bandit","204","1022394","0.0-165.0-0.0","59139021","wem/bandit_party_2","A1IW9V75GCJ58P","either","3","198","","","","","","","0","0","1","0.4137060999","","0.6","0.8","0.2","0.4","","","","","0.4137060999","0.6876014299","0.7673004895","0.2287340519","","","","","","","","","","72","H","0","img/none_selected.jpg","","124","main_expt",""
"","bandit","205","1024125","0.0-166.0-0.0","59139021","wem/bandit_party_2","A1IW9V75GCJ58P","either","3","221","","","","","","","1","0","0","0.7354493796","","0.6","0.8","0.2","0.4","","","","","0.3226696341","0.7354493796","0.8020703208","0.2900718705","","","","","","","","","","74","J","1","","","125","main_expt",""
"","bandit","206","1025890","0.0-167.0-0.0","59139021","wem/bandit_party_2","A1IW9V75GCJ58P","either","3","259","","","","","","","0","0","1","0.76840964","","0.6","0.8","0.2","0.4","","","","","0.3904211026","0.76840964","0.8196031782","0.2880997441","","","","","","","","","","74","J","1","","","126","main_expt",""
"","bandit","207","1027610","0.0-168.0-0.0","59139021","wem/bandit_party_2","A1IW9V75GCJ58P","either","3","213","","","","","","","0","0","1","","0.3451069126","0.6","0.8","0.2","0.4","0.4227014292","0.7310750685","0.7095492128","0.3451069126","","","","","","","","","","","","","","76","L","3","","","127","main_expt",""
"","bandit","208","1029282","0.0-169.0-0.0","59139021","wem/bandit_party_2","A1IW9V75GCJ58P","either","3","165","","","","","","","0","0","1","","0.543317668","0.6","0.8","0.2","0.4","0.543317668","0.6582635175","0.711577854","0.3129298861","","","","","","","","","","","","","","72","H","0","img/none_selected.jpg","","128","main_expt",""
"","bandit","209","1031049","0.0-170.0-0.0","59139021","wem/bandit_party_2","A1IW9V75GCJ58P","either","3","262","","","","","","","0","0","1","","0.7022761705","0.6","0.8","0.2","0.4","0.5906282681","0.7529887683","0.7022761705","0.3507055597","","","","","","","","","","","","","","75","K","2","","","129","main_expt",""
"","bandit","210","1032746","0.0-171.0-0.0","59139021","wem/bandit_party_2","A1IW9V75GCJ58P","either","3","190","","","","","","","1","0","0","0.7929301986","","0.6","0.8","0.2","0.4","","","","","0.6636268631","0.7929301986","0.7309419319","0.3753424236","","","","","","","","","","74","J","1","","","130","main_expt",""
"","bandit","211","1034546","0.0-172.0-0.0","59139021","wem/bandit_party_2","A1IW9V75GCJ58P","either","3","293","","","","","","","1","0","0","0.8149544693","","0.6","0.8","0.2","0.4","","","","","0.5686699027","0.8149544693","0.6904825683","0.3473486375","","","","","","","","","","74","J","1","","","131","main_expt",""
"","bandit","212","1036370","0.0-173.0-0.0","59139021","wem/bandit_party_2","A1IW9V75GCJ58P","either","3","318","","","","","","","0","0","1","0.7626544417","","0.6","0.8","0.2","0.4","","","","","0.6564012045","0.7626544417","0.7153166113","0.303679922","","","","","","","","","","74","J","1","","","132","main_expt",""
"","bandit","213","1038290","0.0-174.0-0.0","59139021","wem/bandit_party_2","A1IW9V75GCJ58P","either","3","414","","","","","","","0","0","1","0.7584501248","","0.6","0.8","0.2","0.4","","","","","0.5876654864","0.7584501248","0.8135501627","0.3385565331","","","","","","","","","","74","J","1","","","133","main_expt",""
"","bandit","214","1040138","0.0-175.0-0.0","59139021","wem/bandit_party_2","A1IW9V75GCJ58P","either","3","341","","","","","","","1","0","0","0.5299368298","","0.6","0.8","0.2","0.4","","","","","0.5299368298","0.7905015291","0.7707892239","0.3686406913","","","","","","","","","","72","H","0","img/none_selected.jpg","","134","main_expt",""
"","bandit","215","1041874","0.0-176.0-0.0","59139021","wem/bandit_party_2","A1IW9V75GCJ58P","either","3","229","","","","","","","0","0","1","0.4547966061","","0.6","0.8","0.2","0.4","","","","","0.4547966061","0.7515189777","0.7689088841","0.3672202126","","","","","","","","","","72","H","0","img/none_selected.jpg","","135","main_expt",""
"","bandit","216","1043586","0.0-177.0-0.0","59139021","wem/bandit_party_2","A1IW9V75GCJ58P","either","3","205","","","","","","","0","0","1","","0.4064769993","0.6","0.8","0.2","0.4","0.5290841583","0.7293518859","0.6641324257","0.4064769993","","","","","","","","","","","","","","76","L","3","","","136","main_expt",""
"","bandit","217","1045106","0.0-178.0-0.0","59139021","wem/bandit_party_2","A1IW9V75GCJ58P","either","3","14","","","","","","","0","1","0","","0.635388201","0.6","0.8","0.2","0.4","0.419904672","0.7286216209","0.635388201","0.3492503667","","","","","","","","","","","","","","75","K","2","","","137","main_expt",""
"","bandit","218","1046913","0.0-179.0-0.0","59139021","wem/bandit_party_2","A1IW9V75GCJ58P","either","3","301","","","","","","","0","1","0","","0.6889508363","0.6","0.8","0.2","0.4","0.4532768315","0.7425921641","0.6889508363","0.3315752647","","","","","","","","","","","","","","75","K","2","","","138","main_expt",""
"","bandit","219","1048730","0.0-180.0-0.0","59139021","wem/bandit_party_2","A1IW9V75GCJ58P","either","3","311","","","","","","","0","1","0","","0.6481427694","0.6","0.8","0.2","0.4","0.4194835996","0.7356638012","0.6481427694","0.3080831972","","","","","","","","","","","","","","75","K","2","","","139","main_expt",""
"","bandit","220","1050473","0.0-181.0-0.0","59139021","wem/bandit_party_2","A1IW9V75GCJ58P","either","3","238","","","","","","","0","1","0","","0.6497449761","0.6","0.8","0.2","0.4","0.420008375","0.7334346803","0.6497449761","0.3254670704","","","","","","","","","","","","","","75","K","2","","","140","main_expt",""
"","bandit","221","1052201","0.0-182.0-0.0","59139021","wem/bandit_party_2","A1IW9V75GCJ58P","either","3","222","","","","","","","0","0","1","","0.7328205829","0.6","0.8","0.2","0.4","0.3908595681","0.7737071977","0.7328205829","0.3452870884","","","","","","","","","","","","","","75","K","2","","","141","main_expt",""
"","bandit","222","1053961","0.0-183.0-0.0","59139021","wem/bandit_party_2","A1IW9V75GCJ58P","either","3","255","","","","","","","1","0","0","0.7912630164","","0.6","0.8","0.2","0.4","","","","","0.3994278682","0.7912630164","0.6396752577","0.2659846132","","","","","","","","","","74","J","1","","","142","main_expt",""
"","bandit","223","1055837","0.0-184.0-0.0","59139021","wem/bandit_party_2","A1IW9V75GCJ58P","either","3","366","","","","","","","1","0","0","0.7709923268","","0.6","0.8","0.2","0.4","","","","","0.3137486051","0.7709923268","0.5974809775","0.2549781044","","","","","","","","","","74","J","1","","","143","main_expt",""
"","bandit","224","1057672","0.0-185.0-0.0","59139021","wem/bandit_party_2","A1IW9V75GCJ58P","either","3","330","","","","","","","0","1","0","","0.7492848764","0.6","0.8","0.2","0.4","0.3961992406","0.7492848764","0.5953980303","0.3603981418","","","","","","","","","","","","","","74","J","1","","","144","main_expt",""
"","bandit","225","1059529","0.0-186.0-0.0","59139021","wem/bandit_party_2","A1IW9V75GCJ58P","either","3","351","","","","","","","0","0","1","0.7343485297","","0.6","0.8","0.2","0.4","","","","","0.3186856111","0.7343485297","0.6215671736","0.3682949958","","","","","","","","","","74","J","1","","","145","main_expt",""
"","bandit","226","1061345","0.0-187.0-0.0","59139021","wem/bandit_party_2","A1IW9V75GCJ58P","either","3","310","","","","","","","1","0","0","0.2724247948","","0.6","0.8","0.2","0.4","","","","","0.2724247948","0.7701032705","0.5766937592","0.5028772858","","","","","","","","","","72","H","0","img/none_selected.jpg","","146","main_expt",""
"","bandit","227","1063137","0.0-188.0-0.0","59139021","wem/bandit_party_2","A1IW9V75GCJ58P","either","3","285","","","","","","","0","0","1","0.2844288079","","0.6","0.8","0.2","0.4","","","","","0.2844288079","0.7521601774","0.4600492943","0.4186890645","","","","","","","","","","72","H","0","img/none_selected.jpg","","147","main_expt",""
"","bandit","228","1064864","0.0-189.0-0.0","59139021","wem/bandit_party_2","A1IW9V75GCJ58P","either","3","221","","","","","","","0","1","0","","0.3095389551","0.6","0.8","0.2","0.4","0.3095389551","0.7762143641","0.4575448178","0.3928328601","","","","","","","","","","","","","","72","H","0","img/none_selected.jpg","","148","main_expt",""
"","bandit","229","1066657","0.0-190.0-0.0","59139021","wem/bandit_party_2","A1IW9V75GCJ58P","either","3","286","","","","","","","0","0","1","0.2464654743","","0.6","0.8","0.2","0.4","","","","","0.2464654743","0.716016993","0.3840278576","0.4220063763","","","","","","","","","","72","H","0","img/none_selected.jpg","","149","main_expt",""
"","bandit","230","1068505","0.0-191.0-0.0","59139021","wem/bandit_party_2","A1IW9V75GCJ58P","either","3","341","","","","","","","0","0","1","0.3206822378","","0.6","0.8","0.2","0.4","","","","","0.2088091358","0.7182774931","0.3004406684","0.3206822378","","","","","","","","","","76","L","3","","","150","main_expt",""
"","bandit","231","1070396","0.0-192.0-0.0","59139021","wem/bandit_party_2","A1IW9V75GCJ58P","either","3","384","","","","","","","0","1","0","","0.3380172956","0.6","0.8","0.2","0.4","0.2670014618","0.8028216805","0.2769981479","0.3380172956","","","","","","","","","","","","","","76","L","3","","","151","main_expt",""
"","bandit","232","1072257","0.0-193.0-0.0","59139021","wem/bandit_party_2","A1IW9V75GCJ58P","either","3","354","","","","","","","0","0","1","","0.40565407","0.6","0.8","0.2","0.4","0.3100930243","0.8634692279","0.40565407","0.2461440624","","","","","","","","","","","","","","75","K","2","","","152","main_expt",""
"","bandit","233","1074121","0.0-194.0-0.0","59139021","wem/bandit_party_2","A1IW9V75GCJ58P","either","3","357","","","","","","","0","0","1","","0.1852716423","0.6","0.8","0.2","0.4","0.3796096158","0.7719190238","0.3829351634","0.1852716423","","","","","","","","","","","","","","76","L","3","","","153","main_expt",""
"","bandit","234","1075841","0.0-195.0-0.0","59139021","wem/bandit_party_2","A1IW9V75GCJ58P","either","3","213","","","","","","","1","0","0","0.8343429945","","0.6","0.8","0.2","0.4","","","","","0.2265028128","0.8343429945","0.4912137185","0.1660439368","","","","","","","","","","74","J","1","","","154","main_expt",""
"","bandit","235","1077617","0.0-196.0-0.0","59139021","wem/bandit_party_2","A1IW9V75GCJ58P","either","3","269","","","","","","","1","0","0","0.7908731232","","0.6","0.8","0.2","0.4","","","","","0.2135741777","0.7908731232","0.5312535156","0.2241607793","","","","","","","","","","74","J","1","","","155","main_expt",""
"","bandit","236","1079424","0.0-197.0-0.0","59139021","wem/bandit_party_2","A1IW9V75GCJ58P","either","3","301","","","","","","","1","0","0","0.7848911391","","0.6","0.8","0.2","0.4","","","","","0.1338357519","0.7848911391","0.5747898199","0.1566338899","","","","","","","","","","74","J","1","","","156","main_expt",""
"","bandit","237","1081193","0.0-198.0-0.0","59139021","wem/bandit_party_2","A1IW9V75GCJ58P","either","3","263","","","","","","","0","0","1","0.7467155263","","0.6","0.8","0.2","0.4","","","","","0.1344370697","0.7467155263","0.5948125822","0.1839373886","","","","","","","","","","74","J","1","","","157","main_expt",""
"","bandit","238","1084433","0.0-199.0-0.0","59139021","wem/bandit_party_2","A1IW9V75GCJ58P","either","3","1734","","","","","","","0","0","1","","0.1217930933","0.6","0.8","0.2","0.4","0.1217930933","0.7413618202","0.6533804049","0.155802242","","","","","","","","","","","","","","72","H","0","img/none_selected.jpg","","158","main_expt",""
"","bandit","239","1086457","0.0-200.0-0.0","59139021","wem/bandit_party_2","A1IW9V75GCJ58P","either","3","517","","","","","","","1","0","0","0.6882043704","","0.6","0.8","0.2","0.4","","","","","0.08524485746","0.6882043704","0.5777198579","0.2304237345","","","","","","","","","","74","J","1","","","159","main_expt",""
"","bandit","240","1088281","0.0-201.0-0.0","59139021","wem/bandit_party_2","A1IW9V75GCJ58P","either","3","318","","","","","","","0","0","1","","0.7253096401","0.6","0.8","0.2","0.4","0.07332219892","0.7253096401","0.6777741118","0.2242026456","","","","","","","","","","","","","","74","J","1","","","160","main_expt",""
"","bandit","241","1090176","0.0-202.0-0.0","59139021","wem/bandit_party_2","A1IW9V75GCJ58P","either","3","390","","","","","","","0","0","1","","0.6249074267","0.6","0.8","0.2","0.4","0.1063489691","0.6989182833","0.6249074267","0.2708915048","","","","","","","","","","","","","","75","K","2","","","161","main_expt",""
"","bandit","242","1091944","0.0-203.0-0.0","59139021","wem/bandit_party_2","A1IW9V75GCJ58P","either","3","262","","","","","","","0","0","1","","0.2921592604","0.6","0.8","0.2","0.4","0.09670310095","0.7679575172","0.6755041601","0.2921592604","","","","","","","","","","","","","","76","L","3","","","162","main_expt",""
"","bandit","243","1093736","0.0-204.0-0.0","59139021","wem/bandit_party_2","A1IW9V75GCJ58P","either","3","286","","","","","","","1","0","0","0.6877390752","","0.6","0.8","0.2","0.4","","","","","0.1266359811","0.6877390752","0.6461818487","0.2050535257","","","","","","","","","","74","J","1","","","163","main_expt",""
"","bandit","244","1095808","0.0-205.0-0.0","59139021","wem/bandit_party_2","A1IW9V75GCJ58P","either","3","566","","","","","","","0","1","0","","0.6957575266","0.6","0.8","0.2","0.4","0.1212611996","0.6957575266","0.76368027","0.1998759094","","","","","","","","","","","","","","74","J","1","","","164","main_expt",""
"","bandit","245","1097616","0.0-206.0-0.0","59139021","wem/bandit_party_2","A1IW9V75GCJ58P","either","3","302","","","","","","","1","0","0","0.6760148625","","0.6","0.8","0.2","0.4","","","","","0.1917887173","0.6760148625","0.8400099296","0.1821974317","","","","","","","","","","74","J","1","","","165","main_expt",""
"","bandit","246","1099480","0.0-207.0-0.0","59139021","wem/bandit_party_2","A1IW9V75GCJ58P","either","3","357","","","","","","","1","0","0","0.6463317238","","0.6","0.8","0.2","0.4","","","","","0.1560613016","0.6463317238","0.8573275969","0.2916844583","","","","","","","","","","74","J","1","","","166","main_expt",""
"","bandit","247","1101232","0.0-208.0-0.0","59139021","wem/bandit_party_2","A1IW9V75GCJ58P","either","3","245","","","","","","","1","0","0","0.5613055562","","0.6","0.8","0.2","0.4","","","","","0.2214887095","0.5613055562","0.7735369509","0.3087465624","","","","","","","","","","74","J","1","","","167","main_expt",""
"","bandit","248","1102944","0.0-209.0-0.0","59139021","wem/bandit_party_2","A1IW9V75GCJ58P","either","3","205","","","","","","","0","0","1","0.5586162784","","0.6","0.8","0.2","0.4","","","","","0.3463453368","0.5586162784","0.8091314607","0.3896626528","","","","","","","","","","74","J","1","","","168","main_expt",""
"","bandit","249","1104648","0.0-210.0-0.0","59139021","wem/bandit_party_2","A1IW9V75GCJ58P","either","3","197","","","","","","","1","0","0","0.3222551453","","0.6","0.8","0.2","0.4","","","","","0.3222551453","0.597448185","0.8364166478","0.4458805252","","","","","","","","","","72","H","0","img/none_selected.jpg","","169","main_expt",""
"","bandit","250","1106440","0.0-211.0-0.0","59139021","wem/bandit_party_2","A1IW9V75GCJ58P","either","3","285","","","","","","","0","1","0","","0.2556410415","0.6","0.8","0.2","0.4","0.2556410415","0.5351242352","0.7867883415","0.4844269655","","","","","","","","","","","","","","72","H","0","img/none_selected.jpg","","170","main_expt",""
"","bandit","251","1108199","0.0-212.0-0.0","59139021","wem/bandit_party_2","A1IW9V75GCJ58P","either","3","253","","","","","","","0","0","1","0.2248109201","","0.6","0.8","0.2","0.4","","","","","0.2248109201","0.4819966971","0.8728822524","0.4858642724","","","","","","","","","","72","H","0","img/none_selected.jpg","","171","main_expt",""
"","bandit","252","1109968","0.0-213.0-0.0","59139021","wem/bandit_party_2","A1IW9V75GCJ58P","either","3","262","","","","","","","0","0","1","0.4038669266","","0.6","0.8","0.2","0.4","","","","","0.3468742366","0.4038669266","0.7804912391","0.5060245996","","","","","","","","","","74","J","1","","","172","main_expt",""
"","bandit","253","1113088","0.0-214.0-0.0","59139021","wem/bandit_party_2","A1IW9V75GCJ58P","either","3","1610","","","","","","","0","0","1","0.5413528159","","0.6","0.8","0.2","0.4","","","","","0.234408543","0.3102533384","0.7728490534","0.5413528159","","","","","","","","","","76","L","3","","","173","main_expt",""
"","bandit","254","1115008","0.0-215.0-0.0","59139021","wem/bandit_party_2","A1IW9V75GCJ58P","either","3","413","","","","","","","0","1","0","","0.814185781","0.6","0.8","0.2","0.4","0.1404050277","0.3818943333","0.814185781","0.6505326818","","","","","","","","","","","","","","75","K","2","","","174","main_expt",""
"","bandit","255","1116864","0.0-216.0-0.0","59139021","wem/bandit_party_2","A1IW9V75GCJ58P","either","3","349","","","","","","","0","1","0","","0.8010682597","0.6","0.8","0.2","0.4","0.1081611795","0.2893198216","0.8010682597","0.6470977149","","","","","","","","","","","","","","75","K","2","","","175","main_expt",""
"","bandit","256","1118680","0.0-217.0-0.0","59139021","wem/bandit_party_2","A1IW9V75GCJ58P","either","3","309","","","","","","","0","1","0","","0.7083228223","0.6","0.8","0.2","0.4","0.0730283124","0.226416223","0.7083228223","0.6844229635","","","","","","","","","","","","","","75","K","2","","","176","main_expt",""
"","bandit","257","1120432","0.0-218.0-0.0","59139021","wem/bandit_party_2","A1IW9V75GCJ58P","either","3","245","","","","","","","0","1","0","","0.7408938443","0.6","0.8","0.2","0.4","0.07044941978","0.2786676386","0.7408938443","0.6883244284","","","","","","","","","","","","","","75","K","2","","","177","main_expt",""
"","bandit","258","1122240","0.0-219.0-0.0","59139021","wem/bandit_party_2","A1IW9V75GCJ58P","either","3","301","","","","","","","0","0","1","","0.6621187214","0.6","0.8","0.2","0.4","0.06886985111","0.2279078815","0.6621187214","0.6098590842","","","","","","","","","","","","","","75","K","2","","","178","main_expt",""
"","bandit","259","1124007","0.0-220.0-0.0","59139021","wem/bandit_party_2","A1IW9V75GCJ58P","either","3","262","","","","","","","1","0","0","0.1690126781","","0.6","0.8","0.2","0.4","","","","","0.07254371148","0.1690126781","0.6765487854","0.5924449164","","","","","","","","","","74","J","1","","","179","main_expt",""
"","bandit","260","1125671","0.0-221.0-0.0","59139021","wem/bandit_party_2","A1IW9V75GCJ58P","either","3","158","","","","","","","0","0","1","0.1356066944","","0.6","0.8","0.2","0.4","","","","","0.055057054","0.1356066944","0.7276027883","0.4915111467","","","","","","","","","","74","J","1","","","180","main_expt",""
"","bandit","261","1127904","0.0-222.0-0.0","59139021","wem/bandit_party_2","A1IW9V75GCJ58P","either","3","725","","","","","","","0","0","1","","0.1187845962","0.6","0.8","0.2","0.4","0.1187845962","0.1889441784","0.7083410305","0.4713933083","","","","","","","","","","","","","","72","H","0","img/none_selected.jpg","","181","main_expt",""
"","bandit","262","1129599","0.0-223.0-0.0","59139021","wem/bandit_party_2","A1IW9V75GCJ58P","either","3","189","","","","","","","0","0","1","","0.2163976064","0.6","0.8","0.2","0.4","0.1304227184","0.2163976064","0.6489729838","0.500114893","","","","","","","","","","","","","","74","J","1","","","182","main_expt",""
"","bandit","263","1131183","0.0-224.0-0.0","59139021","wem/bandit_party_2","A1IW9V75GCJ58P","either","3","78","","","","","","","0","0","1","","0.6956751073","0.6","0.8","0.2","0.4","0.1374638341","0.1902524086","0.6956751073","0.4949273894","","","","","","","","","","","","","","75","K","2","","","183","main_expt",""
"","bandit","264","1132791","0.0-225.0-0.0","59139021","wem/bandit_party_2","A1IW9V75GCJ58P","either","3","102","","","","","","","0","0","1","","0.4271361476","0.6","0.8","0.2","0.4","0.1914365344","0.2265805791","0.6066537109","0.4271361476","","","","","","","","","","","","","","76","L","3","","","184","main_expt",""
"","bandit","265","1135655","0.0-226.0-0.0","59139021","wem/bandit_party_2","A1IW9V75GCJ58P","either","3","1358","","","","","","","0","0","1","","0.6337362372","0.6","0.8","0.2","0.4","0.1939872458","0.1843452782","0.6337362372","0.4558255176","","","","","","","","","","","","","","75","K","2","","","185","main_expt",""
"","bandit","266","1137503","0.0-227.0-0.0","59139021","wem/bandit_party_2","A1IW9V75GCJ58P","either","3","342","","","","","","","0","1","0","","0.2219937035","0.6","0.8","0.2","0.4","0.2219937035","0.1898387663","0.5908962551","0.4031301461","","","","","","","","","","","","","","72","H","0","img/none_selected.jpg","","186","main_expt",""
"","bandit","267","1139343","0.0-228.0-0.0","59139021","wem/bandit_party_2","A1IW9V75GCJ58P","either","3","334","","","","","","","0","0","1","0.2024523472","","0.6","0.8","0.2","0.4","","","","","0.2024523472","0.210498268","0.7651761031","0.3993697366","","","","","","","","","","72","H","0","img/none_selected.jpg","","187","main_expt",""
"","bandit","268","1140930","0.0-229.0-0.0","59139021","wem/bandit_party_2","A1IW9V75GCJ58P","either","3","78","","","","","","","0","0","1","0.2368649008","","0.6","0.8","0.2","0.4","","","","","0.1930401344","0.2368649008","0.7928336054","0.4478687375","","","","","","","","","","74","J","1","","","188","main_expt",""
"","bandit","269","1142751","0.0-230.0-0.0","59139021","wem/bandit_party_2","A1IW9V75GCJ58P","either","3","315","","","","","","","0","0","1","","0.3255404916","0.6","0.8","0.2","0.4","0.3255404916","0.291591963","0.8917358491","0.3699601256","","","","","","","","","","","","","","72","H","0","img/none_selected.jpg","","189","main_expt",""
"","bandit","270","1144391","0.0-231.0-0.0","59139021","wem/bandit_party_2","A1IW9V75GCJ58P","either","3","133","","","","","","","1","0","0","0.3723251068","","0.6","0.8","0.2","0.4","","","","","0.2364063212","0.4411779124","0.898448025","0.3723251068","","","","","","","","","","76","L","3","","","190","main_expt",""
"","bandit","271","1146262","0.0-232.0-0.0","59139021","wem/bandit_party_2","A1IW9V75GCJ58P","either","3","365","","","","","","","0","0","1","0.3309849287","","0.6","0.8","0.2","0.4","","","","","0.2662767285","0.3968704403","0.9186708851","0.3309849287","","","","","","","","","","76","L","3","","","191","main_expt",""
"","bandit","272","1148055","0.0-233.0-0.0","59139021","wem/bandit_party_2","A1IW9V75GCJ58P","either","3","286","","","","","","","1","0","0","0.9314477517","","0.6","0.8","0.2","0.4","","","","","0.2815174114","0.4512817608","0.9314477517","0.2865625263","","","","","","","","","","75","K","2","","","192","main_expt",""
"","bandit","273","1149855","0.0-234.0-0.0","59139021","wem/bandit_party_2","A1IW9V75GCJ58P","either","3","293","","","","","","","1","0","0","0.9090465067","","0.6","0.8","0.2","0.4","","","","","0.3461293965","0.4788006455","0.9090465067","0.2862811746","","","","","","","","","","75","K","2","","","193","main_expt",""
"","bandit","274","1151682","0.0-235.0-0.0","59139021","wem/bandit_party_2","A1IW9V75GCJ58P","either","3","317","","","","","","","0","1","0","","0.8762249788","0.6","0.8","0.2","0.4","0.3303735913","0.4651889587","0.8762249788","0.2785288642","","","","","","","","","","","","","","75","K","2","","","194","main_expt",""
"","bandit","275","1153527","0.0-236.0-0.0","59139021","wem/bandit_party_2","A1IW9V75GCJ58P","either","3","338","","","","","","","0","1","0","","0.8623185747","0.6","0.8","0.2","0.4","0.3194565039","0.4718629942","0.8623185747","0.2283941808","","","","","","","","","","","","","","75","K","2","","","195","main_expt",""
"","bandit","276","1155302","0.0-237.0-0.0","59139021","wem/bandit_party_2","A1IW9V75GCJ58P","either","3","269","","","","","","","0","1","0","","0.7745977574","0.6","0.8","0.2","0.4","0.4103944464","0.3825708332","0.7745977574","0.214282227","","","","","","","","","","","","","","75","K","2","","","196","main_expt",""
"","bandit","277","1157207","0.0-238.0-0.0","59139021","wem/bandit_party_2","A1IW9V75GCJ58P","either","3","398","","","","","","","0","1","0","","0.7723069829","0.6","0.8","0.2","0.4","0.4445726534","0.4530864699","0.7723069829","0.1422959513","","","","","","","","","","","","","","75","K","2","","","197","main_expt",""
"","bandit","278","1158975","0.0-239.0-0.0","59139021","wem/bandit_party_2","A1IW9V75GCJ58P","either","3","261","","","","","","","0","0","1","","0.7084082875","0.6","0.8","0.2","0.4","0.4351718099","0.4337652667","0.7084082875","0.1126324943","","","","","","","","","","","","","","75","K","2","","","198","main_expt",""
"","bandit","279","1160751","0.0-240.0-0.0","59139021","wem/bandit_party_2","A1IW9V75GCJ58P","either","3","269","","","","","","","0","0","1","0.4138332966","","0.6","0.8","0.2","0.4","","","","","0.4641294157","0.4138332966","0.7016883558","0.1144166609","","","","","","","","","","74","J","1","","","199","main_expt",""
"","bandit","280","1162871","0.0-241.0-0.0","59139021","wem/bandit_party_2","A1IW9V75GCJ58P","either","3","613","","","","","","","0","0","1","","0.1518003708","0.6","0.8","0.2","0.4","0.4468687069","0.5005175686","0.6504384346","0.1518003708","","","","","","","","","","","","","","76","L","3","","","200","main_expt",""
"","bandit","281","1164646","0.0-242.0-0.0","59139021","wem/bandit_party_2","A1IW9V75GCJ58P","either","3","269","","","","","","","0","0","1","","0.5087435212","0.6","0.8","0.2","0.4","0.5087435212","0.5122642399","0.7904945102","0.1974433607","","","","","","","","","","","","","","72","H","0","img/none_selected.jpg","","201","main_expt",""
"","bandit","282","1166503","0.0-243.0-0.0","59139021","wem/bandit_party_2","A1IW9V75GCJ58P","either","3","349","","","","","","","0","0","1","","0.7039472437","0.6","0.8","0.2","0.4","0.4992132835","0.5414597976","0.7039472437","0.2000842809","","","","","","","","","","","","","","75","K","2","","","202","main_expt",""
"","bandit","283","1168190","0.0-244.0-0.0","59139021","wem/bandit_party_2","A1IW9V75GCJ58P","either","3","181","","","","","","","0","0","1","0.4993649945","","0.6","0.8","0.2","0.4","","","","","0.4859842053","0.4993649945","0.7478807213","0.1715580826","","","","","","","","","","74","J","1","","","203","main_expt",""
"","bandit","284","1169838","0.0-245.0-0.0","59139021","wem/bandit_party_2","A1IW9V75GCJ58P","either","3","142","","","","","","","0","0","1","","0.7346150791","0.6","0.8","0.2","0.4","0.6162755314","0.4056752737","0.7346150791","0.3028604286","","","","","","","","","","","","","","75","K","2","","","204","main_expt",""
"","bandit","285","1171374","0.0-246.0-0.0","59139021","wem/bandit_party_2","A1IW9V75GCJ58P","either","3","30","","","","","","","0","0","1","","0.6204906845","0.6","0.8","0.2","0.4","0.6204906845","0.4174768156","0.7240623961","0.3714949669","","","","","","","","","","","","","","72","H","0","img/none_selected.jpg","","205","main_expt",""
"","bandit","286","1173037","0.0-247.0-0.0","59139021","wem/bandit_party_2","A1IW9V75GCJ58P","either","3","158","","","","","","","0","0","1","","0.3034865557","0.6","0.8","0.2","0.4","0.6390595606","0.4364097613","0.733657826","0.3034865557","","","","","","","","","","","","","","76","L","3","","","206","main_expt",""
"","bandit","287","1174765","0.0-248.0-0.0","59139021","wem/bandit_party_2","A1IW9V75GCJ58P","either","3","223","","","","","","","0","0","1","","0.6797091947","0.6","0.8","0.2","0.4","0.6022157482","0.4666062126","0.6797091947","0.2688105372","","","","","","","","","","","","","","75","K","2","","","207","main_expt",""
"","bandit","288","1176622","0.0-249.0-0.0","59139021","wem/bandit_party_2","A1IW9V75GCJ58P","either","3","351","","","","","","","0","0","1","0.4594719295","","0.6","0.8","0.2","0.4","","","","","0.6598502583","0.4594719295","0.472157919","0.2240001326","","","","","","","","","","74","J","1","","","208","main_expt",""
"","bandit","289","1178505","0.0-250.0-0.0","59139021","wem/bandit_party_2","A1IW9V75GCJ58P","either","3","373","","","","","","","0","0","1","","0.3284172364","0.6","0.8","0.2","0.4","0.6329069529","0.5415101973","0.4993955773","0.3284172364","","","","","","","","","","","","","","76","L","3","","","209","main_expt",""
"","bandit","290","1180052","0.0-251.0-0.0","59139021","wem/bandit_party_2","A1IW9V75GCJ58P","either","3","41","","","","","","","0","1","0","","0.5418549626","0.6","0.8","0.2","0.4","0.5418549626","0.5627952802","0.3923888982","0.3178667136","","","","","","","","","","","","","","72","H","0","img/none_selected.jpg","","210","main_expt",""
"","bandit","291","1181822","0.0-252.0-0.0","59139021","wem/bandit_party_2","A1IW9V75GCJ58P","either","3","262","","","","","","","1","0","0","0.7265410197","","0.6","0.8","0.2","0.4","","","","","0.7265410197","0.5779033475","0.4183885941","0.278360526","","","","","","","","","","72","H","0","img/none_selected.jpg","","211","main_expt",""
"","bandit","292","1183566","0.0-253.0-0.0","59139021","wem/bandit_party_2","A1IW9V75GCJ58P","either","3","237","","","","","","","1","0","0","0.6550819281","","0.6","0.8","0.2","0.4","","","","","0.6550819281","0.6169713091","0.5367383083","0.2720231684","","","","","","","","","","72","H","0","img/none_selected.jpg","","212","main_expt",""
"","bandit","293","1185398","0.0-254.0-0.0","59139021","wem/bandit_party_2","A1IW9V75GCJ58P","either","3","325","","","","","","","0","0","1","0.5812500281","","0.6","0.8","0.2","0.4","","","","","0.5812500281","0.5688165975","0.5779451767","0.3445332441","","","","","","","","","","72","H","0","img/none_selected.jpg","","213","main_expt",""
"","bandit","294","1187262","0.0-255.0-0.0","59139021","wem/bandit_party_2","A1IW9V75GCJ58P","either","3","357","","","","","","","0","0","1","0.6912727382","","0.6","0.8","0.2","0.4","","","","","0.6912727382","0.5354690829","0.5615700258","0.331154659","","","","","","","","","","72","H","0","img/none_selected.jpg","","214","main_expt",""
"","bandit","295","1188889","0.0-256.0-0.0","59139021","wem/bandit_party_2","A1IW9V75GCJ58P","either","3","120","","","","","","","1","0","0","0.695573978","","0.6","0.8","0.2","0.4","","","","","0.695573978","0.4395706401","0.5361399643","0.3168016653","","","","","","","","","","72","H","0","img/none_selected.jpg","","215","main_expt",""
"","bandit","296","1190662","0.0-257.0-0.0","59139021","wem/bandit_party_2","A1IW9V75GCJ58P","either","3","266","","","","","","","0","1","0","","0.6531454011","0.6","0.8","0.2","0.4","0.6531454011","0.4522294324","0.620750855","0.2870858596","","","","","","","","","","","","","","72","H","0","img/none_selected.jpg","","216","main_expt",""
"","bandit","297","1192413","0.0-258.0-0.0","59139021","wem/bandit_party_2","A1IW9V75GCJ58P","either","3","245","","","","","","","1","0","0","0.6459690495","","0.6","0.8","0.2","0.4","","","","","0.6459690495","0.4141575353","0.4812239037","0.2877345098","","","","","","","","","","72","H","0","img/none_selected.jpg","","217","main_expt",""
"","bandit","298","1194214","0.0-259.0-0.0","59139021","wem/bandit_party_2","A1IW9V75GCJ58P","either","3","294","","","","","","","1","0","0","0.6679944541","","0.6","0.8","0.2","0.4","","","","","0.6679944541","0.3009722504","0.4028497994","0.3608492067","","","","","","","","","","72","H","0","img/none_selected.jpg","","218","main_expt",""
"","bandit","299","1196006","0.0-260.0-0.0","59139021","wem/bandit_party_2","A1IW9V75GCJ58P","either","3","285","","","","","","","1","0","0","0.7159195147","","0.6","0.8","0.2","0.4","","","","","0.7159195147","0.2706893249","0.4441021312","0.4380407461","","","","","","","","","","72","H","0","img/none_selected.jpg","","219","main_expt",""
"","bandit","300","1197757","0.0-261.0-0.0","59139021","wem/bandit_party_2","A1IW9V75GCJ58P","either","3","245","","","","","","","0","1","0","","0.6874484601","0.6","0.8","0.2","0.4","0.6874484601","0.3821277721","0.4867825248","0.4769938592","","","","","","","","","","","","","","72","H","0","img/none_selected.jpg","","220","main_expt",""
"","bandit","301","1199518","0.0-262.0-0.0","59139021","wem/bandit_party_2","A1IW9V75GCJ58P","either","3","253","","","","","","","0","0","1","","0.6528128226","0.6","0.8","0.2","0.4","0.6528128226","0.4534214389","0.5428062785","0.4612627877","","","","","","","","","","","","","","72","H","0","img/none_selected.jpg","","221","main_expt",""
"","bandit","302","1201357","0.0-263.0-0.0","59139021","wem/bandit_party_2","A1IW9V75GCJ58P","either","3","333","","","","","","","0","0","1","0.6049712458","","0.6","0.8","0.2","0.4","","","","","0.6836467719","0.6049712458","0.5993321864","0.4192901336","","","","","","","","","","74","J","1","","","222","main_expt",""
"","bandit","303","1203184","0.0-264.0-0.0","59139021","wem/bandit_party_2","A1IW9V75GCJ58P","either","3","318","","","","","","","0","1","0","","0.4920604154","0.6","0.8","0.2","0.4","0.7820879334","0.6389506418","0.4920604154","0.5559965486","","","","","","","","","","","","","","75","K","2","","","223","main_expt",""
"","bandit","304","1204982","0.0-265.0-0.0","59139021","wem/bandit_party_2","A1IW9V75GCJ58P","either","3","290","","","","","","","0","1","0","","0.5344282052","0.6","0.8","0.2","0.4","0.763226653","0.6677375732","0.5344282052","0.6687933923","","","","","","","","","","","","","","75","K","2","","","224","main_expt",""
"","bandit","305","1206773","0.0-266.0-0.0","59139021","wem/bandit_party_2","A1IW9V75GCJ58P","either","3","285","","","","","","","0","0","1","","0.5583452501","0.6","0.8","0.2","0.4","0.6931961842","0.7706853934","0.5583452501","0.5954484576","","","","","","","","","","","","","","75","K","2","","","225","main_expt",""
"","bandit","306","1208605","0.0-267.0-0.0","59139021","wem/bandit_party_2","A1IW9V75GCJ58P","either","3","325","","","","","","","0","1","0","","0.6152447968","0.6","0.8","0.2","0.4","0.6633974694","0.7624197083","0.5126042404","0.6152447968","","","","","","","","","","","","","","76","L","3","","","226","main_expt",""
"","bandit","307","1210389","0.0-268.0-0.0","59139021","wem/bandit_party_2","A1IW9V75GCJ58P","either","3","277","","","","","","","0","1","0","","0.6597553912","0.6","0.8","0.2","0.4","0.6567175756","0.7287840805","0.5720595628","0.6597553912","","","","","","","","","","","","","","76","L","3","","","227","main_expt",""
"","bandit","308","1212149","0.0-269.0-0.0","59139021","wem/bandit_party_2","A1IW9V75GCJ58P","either","3","254","","","","","","","0","0","1","","0.594895186","0.6","0.8","0.2","0.4","0.6052730858","0.7993891034","0.6134710885","0.594895186","","","","","","","","","","","","","","76","L","3","","","228","main_expt",""
"","bandit","309","1214021","0.0-270.0-0.0","59139021","wem/bandit_party_2","A1IW9V75GCJ58P","either","3","365","","","","","","","0","1","0","","0.5669106804","0.6","0.8","0.2","0.4","0.5548990383","0.8374027748","0.5669106804","0.5722559027","","","","","","","","","","","","","","75","K","2","","","229","main_expt",""
"","bandit","310","1215958","0.0-271.0-0.0","59139021","wem/bandit_party_2","A1IW9V75GCJ58P","either","3","429","","","","","","","1","0","0","0.6286782819","","0.6","0.8","0.2","0.4","","","","","0.6017114108","0.8414873787","0.6286782819","0.5409090622","","","","","","","","","","75","K","2","","","230","main_expt",""
"","bandit","311","1217765","0.0-272.0-0.0","59139021","wem/bandit_party_2","A1IW9V75GCJ58P","either","3","300","","","","","","","0","0","1","","0.5594948871","0.6","0.8","0.2","0.4","0.5525336349","0.8531648874","0.5594948871","0.518727512","","","","","","","","","","","","","","75","K","2","","","231","main_expt",""
"","bandit","312","1219596","0.0-273.0-0.0","59139021","wem/bandit_party_2","A1IW9V75GCJ58P","either","3","325","","","","","","","1","0","0","0.8813812612","","0.6","0.8","0.2","0.4","","","","","0.4493361955","0.8813812612","0.5817998964","0.5200298571","","","","","","","","","","74","J","1","","","232","main_expt",""
"","bandit","313","1221405","0.0-274.0-0.0","59139021","wem/bandit_party_2","A1IW9V75GCJ58P","either","3","303","","","","","","","0","1","0","","0.8916766345","0.6","0.8","0.2","0.4","0.5280832246","0.8916766345","0.5971875981","0.4564343731","","","","","","","","","","","","","","74","J","1","","","233","main_expt",""
"","bandit","314","1223173","0.0-275.0-0.0","59139021","wem/bandit_party_2","A1IW9V75GCJ58P","either","3","261","","","","","","","0","0","1","","0.842820862","0.6","0.8","0.2","0.4","0.6814540918","0.842820862","0.5227237997","0.4168065644","","","","","","","","","","","","","","74","J","1","","","234","main_expt",""
