"consent","trial_type","trial_index","time_elapsed","internal_node_id","subjID","study","MID","cond","drift","rt","responses","button_pressed","key_press","like","value","connected","gems","bombs","no_reward","GemPrChosen","BombPrChosen","GainOverPainPr_0","GainOverPainPr_1","GainOverPainPr_2","GainOverPainPr_3","LosePr_0","LosePr_1","LosePr_2","LosePr_3","WinPr_0","WinPr_1","WinPr_2","WinPr_3","Q0","Q1","Q2","gender","age","ethnicity","label","expt_phase","target","respCharCode","respKey","respChoiceNum","respChoice","practice","trial_counter","trial_label","Q0_index","view_history"
"GDM/GDM_behavioral_consent_30min_online.html","consent","0","19323","0.0-0.0","59656463","wem/bandit_party_2","A1T56P6L5730HG","either","6","","","","","","","","","","","","","","","","","","","","","","","","","","","","","","","","","","","","","","","","","",""
"","survey-text","1","21571","0.0-1.0","59656463","wem/bandit_party_2","A1T56P6L5730HG","either","6","1235","{""Q0"":""A1T56P6L5730HG""}","","","","","","","","","","","","","","","","","","","","","","","","","","","","","","","","","","","","","","","",""
"","button-response","2","23922","0.0-2.0","59656463","wem/bandit_party_2","A1T56P6L5730HG","either","6","1337","","1","","","","","","","","","","","","","","","","","","","","","","","","","","","","","","","","","","","","","","",""
"","text-replacement","3","36880","0.0-3.0","59656463","wem/bandit_party_2","A1T56P6L5730HG","either","6","11951","","","32","","","","","","","","","","","","","","","","","","","","","","","","","","","","","","","","","","","","","",""
"","text-replacement","4","38426","0.0-4.0","59656463","wem/bandit_party_2","A1T56P6L5730HG","either","6","1543","","","32","","","","","","","","","","","","","","","","","","","","","","","","","","","","","","","","","","","","","",""
"","identification","5","43812","0.0-6.0-0.0","59656463","wem/bandit_party_2","A1T56P6L5730HG","either","6","5325","","","","1","0","0","","","","","","","","","","","","","","","","","","","","","","","","pre","identification_pre","the Republican Party","","","","","","","","",""
"","identification","6","48186","0.0-6.0-1.0","59656463","wem/bandit_party_2","A1T56P6L5730HG","either","6","3333","","","","3","3","3","","","","","","","","","","","","","","","","","","","","","","","","pre","identification_pre","the Democratic Party","","","","","","","","",""
"","text-replacement","7","50426","0.0-7.0","59656463","wem/bandit_party_2","A1T56P6L5730HG","either","6","1230","","","32","","","","","","","","","","","","","","","","","","","","","","","","","","","","","","","","","","","","","",""
"","text-replacement","8","59271","0.0-8.0","59656463","wem/bandit_party_2","A1T56P6L5730HG","either","6","8841","","","32","","","","","","","","","","","","","","","","","","","","","","","","","","","","","","","","","","","","","",""
"","text-replacement","9","81876","0.0-9.0","59656463","wem/bandit_party_2","A1T56P6L5730HG","either","6","22601","","","32","","","","","","","","","","","","","","","","","","","","","","","","","","","","","","","","","","","","","",""
"","text-replacement","10","85970","0.0-10.0","59656463","wem/bandit_party_2","A1T56P6L5730HG","either","6","4087","","","32","","","","","","","","","","","","","","","","","","","","","","","","","","","","","","","","","","","","","",""
"","text-replacement","11","90602","0.0-11.0","59656463","wem/bandit_party_2","A1T56P6L5730HG","either","6","4628","","","32","","","","","","","","","","","","","","","","","","","","","","","","","","","","","","","","","","","","","",""
"","bandit","12","95836","0.0-12.0-0.0","59656463","wem/bandit_party_2","A1T56P6L5730HG","either","6","3698","","","","","","","0","0","1","0","0","","","","","0","","","","0","","","","","","","","","","","","","74","J","0","img/none_selected_demo.jpg","true","0","","",""
"","bandit","13","101163","0.0-13.0-0.0","59656463","wem/bandit_party_2","A1T56P6L5730HG","either","6","3810","","","","","","","0","0","1","0","0","","","","","0","","","","0","","","","","","","","","","","","","75","K","0","img/none_selected_demo.jpg","true","0","","",""
"","text-replacement","14","104735","0.0-14.0","59656463","wem/bandit_party_2","A1T56P6L5730HG","either","6","3567","","","32","","","","","","","","","","","","","","","","","","","","","","","","","","","","","","","","","","","","","",""
"","text-replacement","15","113114","0.0-15.0","59656463","wem/bandit_party_2","A1T56P6L5730HG","either","6","8375","","","32","","","","","","","","","","","","","","","","","","","","","","","","","","","","","","","","","","","","","",""
"","text-replacement","16","122099","0.0-16.0","59656463","wem/bandit_party_2","A1T56P6L5730HG","either","6","8980","","","32","","","","","","","","","","","","","","","","","","","","","","","","","","","","","","","","","","","","","",""
"","text-replacement","17","126393","0.0-17.0","59656463","wem/bandit_party_2","A1T56P6L5730HG","either","6","4289","","","32","","","","","","","","","","","","","","","","","","","","","","","","","","","","","","","","","","","","","",""
"","bandit","18","128846","0.0-18.0-0.0","59656463","wem/bandit_party_2","A1T56P6L5730HG","either","6","920","","","","","","","0","0","1","0.8","","0.5","0.5","","","","","","","0.8","0.2","","","","","","","","","","","","74","J","0","img/none_selected_demo.jpg","true","0","80_20_practice","",""
"","bandit","19","130962","0.0-18.0-1.0","59656463","wem/bandit_party_2","A1T56P6L5730HG","either","6","579","","","","","","","1","0","0","0.8","","0.5","0.5","","","","","","","0.8","0.2","","","","","","","","","","","","74","J","0","img/none_selected_demo.jpg","true","0","80_20_practice","",""
"","bandit","20","132727","0.0-18.0-2.0","59656463","wem/bandit_party_2","A1T56P6L5730HG","either","6","223","","","","","","","0","0","1","0.8","","0.5","0.5","","","","","","","0.8","0.2","","","","","","","","","","","","74","J","0","img/none_selected_demo.jpg","true","0","80_20_practice","",""
"","bandit","21","134931","0.0-18.0-3.0","59656463","wem/bandit_party_2","A1T56P6L5730HG","either","6","674","","","","","","","0","0","1","0.2","","0.5","0.5","","","","","","","0.8","0.2","","","","","","","","","","","","75","K","1","","true","0","80_20_practice","",""
"","bandit","22","136812","0.0-18.0-4.0","59656463","wem/bandit_party_2","A1T56P6L5730HG","either","6","349","","","","","","","0","0","1","0.2","","0.5","0.5","","","","","","","0.8","0.2","","","","","","","","","","","","75","K","1","","true","0","80_20_practice","",""
"","bandit","23","138796","0.0-18.0-5.0","59656463","wem/bandit_party_2","A1T56P6L5730HG","either","6","459","","","","","","","0","1","0","","0.2","0.5","0.5","","","0.8","0.2","","","","","","","","","","","","","","","","75","K","1","","true","0","80_20_practice","",""
"","bandit","24","140695","0.0-18.0-6.0","59656463","wem/bandit_party_2","A1T56P6L5730HG","either","6","372","","","","","","","0","0","1","0.2","","0.5","0.5","","","","","","","0.8","0.2","","","","","","","","","","","","75","K","1","","true","0","80_20_practice","",""
"","bandit","25","142263","0.0-18.0-7.0","59656463","wem/bandit_party_2","A1T56P6L5730HG","either","6","40","","","","","","","0","0","1","","0.2","0.5","0.5","","","0.8","0.2","","","","","","","","","","","","","","","","75","K","1","","true","0","80_20_practice","",""
"","bandit","26","144262","0.0-18.0-8.0","59656463","wem/bandit_party_2","A1T56P6L5730HG","either","6","473","","","","","","","0","1","0","","0.8","0.5","0.5","","","0.8","0.2","","","","","","","","","","","","","","","","74","J","0","img/none_selected_demo.jpg","true","0","80_20_practice","",""
"","bandit","27","146127","0.0-18.0-9.0","59656463","wem/bandit_party_2","A1T56P6L5730HG","either","6","337","","","","","","","0","1","0","","0.8","0.5","0.5","","","0.8","0.2","","","","","","","","","","","","","","","","74","J","0","img/none_selected_demo.jpg","true","0","80_20_practice","",""
"","bandit","28","147997","0.0-18.0-10.0","59656463","wem/bandit_party_2","A1T56P6L5730HG","either","6","346","","","","","","","1","0","0","0.8","","0.5","0.5","","","","","","","0.8","0.2","","","","","","","","","","","","74","J","0","img/none_selected_demo.jpg","true","0","80_20_practice","",""
"","bandit","29","149812","0.0-18.0-11.0","59656463","wem/bandit_party_2","A1T56P6L5730HG","either","6","292","","","","","","","0","1","0","","0.8","0.5","0.5","","","0.8","0.2","","","","","","","","","","","","","","","","74","J","0","img/none_selected_demo.jpg","true","0","80_20_practice","",""
"","bandit","30","151830","0.0-18.0-12.0","59656463","wem/bandit_party_2","A1T56P6L5730HG","either","6","481","","","","","","","1","0","0","0.8","","0.5","0.5","","","","","","","0.8","0.2","","","","","","","","","","","","74","J","0","img/none_selected_demo.jpg","true","0","80_20_practice","",""
"","bandit","31","154427","0.0-18.0-13.0","59656463","wem/bandit_party_2","A1T56P6L5730HG","either","6","1076","","","","","","","0","0","1","0.8","","0.5","0.5","","","","","","","0.8","0.2","","","","","","","","","","","","74","J","0","img/none_selected_demo.jpg","true","0","80_20_practice","",""
"","bandit","32","156812","0.0-18.0-14.0","59656463","wem/bandit_party_2","A1T56P6L5730HG","either","6","853","","","","","","","1","0","0","0.8","","0.5","0.5","","","","","","","0.8","0.2","","","","","","","","","","","","74","J","0","img/none_selected_demo.jpg","true","0","80_20_practice","",""
"","bandit","33","158479","0.0-18.0-15.0","59656463","wem/bandit_party_2","A1T56P6L5730HG","either","6","148","","","","","","","0","1","0","","0.8","0.5","0.5","","","0.8","0.2","","","","","","","","","","","","","","","","74","J","0","img/none_selected_demo.jpg","true","0","80_20_practice","",""
"","bandit","34","160128","0.0-18.0-16.0","59656463","wem/bandit_party_2","A1T56P6L5730HG","either","6","99","","","","","","","1","0","0","0.8","","0.5","0.5","","","","","","","0.8","0.2","","","","","","","","","","","","74","J","0","img/none_selected_demo.jpg","true","0","80_20_practice","",""
"","bandit","35","161945","0.0-18.0-17.0","59656463","wem/bandit_party_2","A1T56P6L5730HG","either","6","290","","","","","","","1","0","0","0.8","","0.5","0.5","","","","","","","0.8","0.2","","","","","","","","","","","","74","J","0","img/none_selected_demo.jpg","true","0","80_20_practice","",""
"","bandit","36","163611","0.0-18.0-18.0","59656463","wem/bandit_party_2","A1T56P6L5730HG","either","6","138","","","","","","","0","1","0","","0.8","0.5","0.5","","","0.8","0.2","","","","","","","","","","","","","","","","74","J","0","img/none_selected_demo.jpg","true","0","80_20_practice","",""
"","bandit","37","165231","0.0-18.0-19.0","59656463","wem/bandit_party_2","A1T56P6L5730HG","either","6","88","","","","","","","0","0","1","0.8","","0.5","0.5","","","","","","","0.8","0.2","","","","","","","","","","","","74","J","0","img/none_selected_demo.jpg","true","0","80_20_practice","",""
"","text-replacement","38","169953","0.0-19.0","59656463","wem/bandit_party_2","A1T56P6L5730HG","either","6","4717","","","32","","","","","","","","","","","","","","","","","","","","","","","","","","","","","","","","","","","","","",""
"","bandit","39","172412","0.0-20.0-0.0","59656463","wem/bandit_party_2","A1T56P6L5730HG","either","6","925","","","","","","","1","0","0","1","0","","","","","0","1","","","1","0","","","","","","","","","","","","74","J","0","img/none_selected_demo.jpg","true","0","","",""
"","text-replacement","40","175178","0.0-21.0","59656463","wem/bandit_party_2","A1T56P6L5730HG","either","6","2761","","","32","","","","","","","","","","","","","","","","","","","","","","","","","","","","","","","","","","","","","",""
"","text-replacement","41","177160","0.0-22.0","59656463","wem/bandit_party_2","A1T56P6L5730HG","either","6","1976","","","32","","","","","","","","","","","","","","","","","","","","","","","","","","","","","","","","","","","","","",""
"","text-replacement","42","179787","0.0-23.0","59656463","wem/bandit_party_2","A1T56P6L5730HG","either","6","2622","","","32","","","","","","","","","","","","","","","","","","","","","","","","","","","","","","","","","","","","","",""
"","text-replacement","43","182839","0.0-24.0","59656463","wem/bandit_party_2","A1T56P6L5730HG","either","6","3049","","","32","","","","","","","","","","","","","","","","","","","","","","","","","","","","","","","","","","","","","",""
"","text-replacement","44","187474","0.0-25.0","59656463","wem/bandit_party_2","A1T56P6L5730HG","either","6","4632","","","32","","","","","","","","","","","","","","","","","","","","","","","","","","","","","","","","","","","","","",""
"","text-replacement","45","191690","0.0-26.0","59656463","wem/bandit_party_2","A1T56P6L5730HG","either","6","4209","","","32","","","","","","","","","","","","","","","","","","","","","","","","","","","","","","","","","","","","","",""
"","text-replacement","46","199346","0.0-27.0","59656463","wem/bandit_party_2","A1T56P6L5730HG","either","6","7650","","","32","","","","","","","","","","","","","","","","","","","","","","","","","","","","","","","","","","","","","",""
"","text-replacement","47","204081","0.0-28.0","59656463","wem/bandit_party_2","A1T56P6L5730HG","either","6","4730","","","32","","","","","","","","","","","","","","","","","","","","","","","","","","","","","","","","","","","","","",""
"","text-replacement","48","209986","0.0-29.0","59656463","wem/bandit_party_2","A1T56P6L5730HG","either","6","5899","","","32","","","","","","","","","","","","","","","","","","","","","","","","","","","","","","","","","","","","","",""
"","text-replacement","49","211977","0.0-30.0","59656463","wem/bandit_party_2","A1T56P6L5730HG","either","6","1986","","","32","","","","","","","","","","","","","","","","","","","","","","","","","","","","","","","","","","","","","",""
"","text-replacement","50","215489","0.0-31.0","59656463","wem/bandit_party_2","A1T56P6L5730HG","either","6","3507","","","32","","","","","","","","","","","","","","","","","","","","","","","","","","","","","","","","","","","","","",""
"","bandit","51","218545","0.0-32.0-0.0","59656463","wem/bandit_party_2","A1T56P6L5730HG","either","6","1519","","","","","","","0","1","0","","0.8","0.5","0.5","0.5","0.5","0.8","0.2","0.6","0.2","","","","","","","","","","","","","","72","H","0","img/none_selected.jpg","true","0","full_practice","",""
"","bandit","52","220363","0.0-32.0-1.0","59656463","wem/bandit_party_2","A1T56P6L5730HG","either","6","282","","","","","","","1","0","0","0.8","","0.5","0.5","0.5","0.5","","","","","0.8","0.2","0.6","0.2","","","","","","","","","","72","H","0","img/none_selected.jpg","true","0","full_practice","",""
"","bandit","53","222145","0.0-32.0-2.0","59656463","wem/bandit_party_2","A1T56P6L5730HG","either","6","250","","","","","","","1","0","0","0.8","","0.5","0.5","0.5","0.5","","","","","0.8","0.2","0.6","0.2","","","","","","","","","","72","H","0","img/none_selected.jpg","true","0","full_practice","",""
"","bandit","54","223997","0.0-32.0-3.0","59656463","wem/bandit_party_2","A1T56P6L5730HG","either","6","300","","","","","","","1","0","0","0.8","","0.5","0.5","0.5","0.5","","","","","0.8","0.2","0.6","0.2","","","","","","","","","","72","H","0","img/none_selected.jpg","true","0","full_practice","",""
"","bandit","55","225744","0.0-32.0-4.0","59656463","wem/bandit_party_2","A1T56P6L5730HG","either","6","218","","","","","","","0","1","0","","0.8","0.5","0.5","0.5","0.5","0.8","0.2","0.6","0.2","","","","","","","","","","","","","","72","H","0","img/none_selected.jpg","true","0","full_practice","",""
"","bandit","56","227331","0.0-32.0-5.0","59656463","wem/bandit_party_2","A1T56P6L5730HG","either","6","59","","","","","","","0","1","0","","0.8","0.5","0.5","0.5","0.5","0.8","0.2","0.6","0.2","","","","","","","","","","","","","","72","H","0","img/none_selected.jpg","true","0","full_practice","",""
"","bandit","57","229014","0.0-32.0-6.0","59656463","wem/bandit_party_2","A1T56P6L5730HG","either","6","142","","","","","","","0","1","0","","0.8","0.5","0.5","0.5","0.5","0.8","0.2","0.6","0.2","","","","","","","","","","","","","","72","H","0","img/none_selected.jpg","true","0","full_practice","",""
"","bandit","58","230726","0.0-32.0-7.0","59656463","wem/bandit_party_2","A1T56P6L5730HG","either","6","162","","","","","","","0","1","0","","0.8","0.5","0.5","0.5","0.5","0.8","0.2","0.6","0.2","","","","","","","","","","","","","","72","H","0","img/none_selected.jpg","true","0","full_practice","",""
"","bandit","59","232444","0.0-32.0-8.0","59656463","wem/bandit_party_2","A1T56P6L5730HG","either","6","190","","","","","","","1","0","0","0.8","","0.5","0.5","0.5","0.5","","","","","0.8","0.2","0.6","0.2","","","","","","","","","","72","H","0","img/none_selected.jpg","true","0","full_practice","",""
"","bandit","60","234345","0.0-32.0-9.0","59656463","wem/bandit_party_2","A1T56P6L5730HG","either","6","374","","","","","","","0","1","0","","0.8","0.5","0.5","0.5","0.5","0.8","0.2","0.6","0.2","","","","","","","","","","","","","","72","H","0","img/none_selected.jpg","true","0","full_practice","",""
"","bandit","61","236211","0.0-32.0-10.0","59656463","wem/bandit_party_2","A1T56P6L5730HG","either","6","334","","","","","","","1","0","0","0.8","","0.5","0.5","0.5","0.5","","","","","0.8","0.2","0.6","0.2","","","","","","","","","","72","H","0","img/none_selected.jpg","true","0","full_practice","",""
"","bandit","62","237861","0.0-32.0-11.0","59656463","wem/bandit_party_2","A1T56P6L5730HG","either","6","125","","","","","","","1","0","0","0.8","","0.5","0.5","0.5","0.5","","","","","0.8","0.2","0.6","0.2","","","","","","","","","","72","H","0","img/none_selected.jpg","true","0","full_practice","",""
"","bandit","63","239394","0.0-32.0-12.0","59656463","wem/bandit_party_2","A1T56P6L5730HG","either","6","9","","","","","","","0","1","0","","0.8","0.5","0.5","0.5","0.5","0.8","0.2","0.6","0.2","","","","","","","","","","","","","","72","H","0","img/none_selected.jpg","true","0","full_practice","",""
"","bandit","64","241046","0.0-32.0-13.0","59656463","wem/bandit_party_2","A1T56P6L5730HG","either","6","118","","","","","","","1","0","0","0.8","","0.5","0.5","0.5","0.5","","","","","0.8","0.2","0.6","0.2","","","","","","","","","","72","H","0","img/none_selected.jpg","true","0","full_practice","",""
"","bandit","65","242748","0.0-32.0-14.0","59656463","wem/bandit_party_2","A1T56P6L5730HG","either","6","162","","","","","","","0","1","0","","0.8","0.5","0.5","0.5","0.5","0.8","0.2","0.6","0.2","","","","","","","","","","","","","","72","H","0","img/none_selected.jpg","true","0","full_practice","",""
"","bandit","66","244294","0.0-32.0-15.0","59656463","wem/bandit_party_2","A1T56P6L5730HG","either","6","5","","","","","","","0","1","0","","0.8","0.5","0.5","0.5","0.5","0.8","0.2","0.6","0.2","","","","","","","","","","","","","","72","H","0","img/none_selected.jpg","true","0","full_practice","",""
"","bandit","67","246029","0.0-32.0-16.0","59656463","wem/bandit_party_2","A1T56P6L5730HG","either","6","209","","","","","","","0","0","1","0.8","","0.5","0.5","0.5","0.5","","","","","0.8","0.2","0.6","0.2","","","","","","","","","","72","H","0","img/none_selected.jpg","true","0","full_practice","",""
"","bandit","68","247980","0.0-32.0-17.0","59656463","wem/bandit_party_2","A1T56P6L5730HG","either","6","407","","","","","","","0","1","0","","0.6","0.5","0.5","0.5","0.5","0.8","0.2","0.6","0.2","","","","","","","","","","","","","","75","K","2","","true","0","full_practice","",""
"","bandit","69","249564","0.0-32.0-18.0","59656463","wem/bandit_party_2","A1T56P6L5730HG","either","6","52","","","","","","","0","1","0","","0.6","0.5","0.5","0.5","0.5","0.8","0.2","0.6","0.2","","","","","","","","","","","","","","75","K","2","","true","0","full_practice","",""
"","bandit","70","251263","0.0-32.0-19.0","59656463","wem/bandit_party_2","A1T56P6L5730HG","either","6","162","","","","","","","1","0","0","0.6","","0.5","0.5","0.5","0.5","","","","","0.8","0.2","0.6","0.2","","","","","","","","","","75","K","2","","true","0","full_practice","",""
"","text","71","255433","0.0-33.0","59656463","wem/bandit_party_2","A1T56P6L5730HG","either","6","4156","","","32","","","","","","","","","","","","","","","","","","","","","","","","","","","","","","","","","","","","","",""
"","text-replacement","72","278786","0.0-34.0","59656463","wem/bandit_party_2","A1T56P6L5730HG","either","6","22341","","","32","","","","","","","","","","","","","","","","","","","","","","","","","","","","","","","","","","","","","",""
"","text-replacement","73","287385","0.0-35.0","59656463","wem/bandit_party_2","A1T56P6L5730HG","either","6","8587","","","32","","","","","","","","","","","","","","","","","","","","","","","","","","","","","","","","","","","","","",""
"","text-replacement","74","294816","0.0-36.0","59656463","wem/bandit_party_2","A1T56P6L5730HG","either","6","7422","","","32","","","","","","","","","","","","","","","","","","","","","","","","","","","","","","","","","","","","","",""
"","text-replacement","75","302209","0.0-37.0","59656463","wem/bandit_party_2","A1T56P6L5730HG","either","6","7386","","","32","","","","","","","","","","","","","","","","","","","","","","","","","","","","","","","","","","","","","",""
"","text-replacement","76","308000","0.0-38.0","59656463","wem/bandit_party_2","A1T56P6L5730HG","either","6","5784","","","32","","","","","","","","","","","","","","","","","","","","","","","","","","","","","","","","","","","","","",""
"","survey-multi-choice-replacement","77","315881","0.0-39.0-0.0","59656463","wem/bandit_party_2","A1T56P6L5730HG","either","6","7860","","","","","","","","","","","","","","","","","","","","","","","","Equal amounts of money will be added to the pool for <span style='color:blue;'>DEMOCRATS</span> and subtracted from the pool for <span style='color:red;'>REPUBLICANS</span>","","","","","","","attn_check","","","","","","","","","2",""
"","instructions","78","318408","0.0-39.0-1.0-0.0","59656463","wem/bandit_party_2","A1T56P6L5730HG","either","6","1511","","","","","","","","","","","","","","","","","","","","","","","","","","","","","","","","","","","","","","","","","[{""page_index"":0,""viewing_time"":1510}]"
"","survey-multi-choice-replacement","79","321865","0.0-39.1-0.1","59656463","wem/bandit_party_2","A1T56P6L5730HG","either","6","2419","","","","","","","","","","","","","","","","","","","","","","","","Money will be added to the pool for <span style='color:blue;'>DEMOCRATS</span>","","","","","","","attn_check","","","","","","","","","0",""
"","survey-multi-choice-replacement","80","326728","0.0-40.0-0.0","59656463","wem/bandit_party_2","A1T56P6L5730HG","either","6","3832","","","","","","","","","","","","","","","","","","","","","","","","Money will be subtracted from the pool for <span style='color:red;'>REPUBLICANS</span>","","","","","","","attn_check","","","","","","","","","1",""
"","instructions","81","328896","0.0-40.0-1.0-0.0","59656463","wem/bandit_party_2","A1T56P6L5730HG","either","6","1150","","","","","","","","","","","","","","","","","","","","","","","","","","","","","","","","","","","","","","","","","[{""page_index"":0,""viewing_time"":1150}]"
"","survey-multi-choice-replacement","82","334120","0.0-40.1-0.1","59656463","wem/bandit_party_2","A1T56P6L5730HG","either","6","4190","","","","","","","","","","","","","","","","","","","","","","","","Equal amounts of money will be added to the pool for <span style='color:blue;'>DEMOCRATS</span> and subtracted from the pool for <span style='color:red;'>REPUBLICANS</span>","","","","","","","attn_check","","","","","","","","","2",""
"","survey-multi-choice-replacement","83","338177","0.0-41.0-0.0","59656463","wem/bandit_party_2","A1T56P6L5730HG","either","6","3011","","","","","","","","","","","","","","","","","","","","","","","","No money will be added to either pool","","","","","","","attn_check","","","","","","","","","3",""
"","bandit","84","343347","0.0-42.0-0.0","59656463","wem/bandit_party_2","A1T56P6L5730HG","either","6","2632","","","","","","","0","0","1","0.2309914537","","0.4","0.2","0.8","0.6","","","","","0.3049938501","0.7197236342","0.2309914537","0.1947351938","","","","","","","","","","75","K","2","","","1","main_expt","",""
"","bandit","85","345278","0.0-43.0-0.0","59656463","wem/bandit_party_2","A1T56P6L5730HG","either","6","401","","","","","","","0","1","0","","0.2351366282","0.4","0.2","0.8","0.6","0.3105507028","0.7453792406","0.2351366282","0.1865171684","","","","","","","","","","","","","","75","K","2","","","2","main_expt","",""
"","bandit","86","347128","0.0-44.0-0.0","59656463","wem/bandit_party_2","A1T56P6L5730HG","either","6","315","","","","","","","1","0","0","0.3338792953","","0.4","0.2","0.8","0.6","","","","","0.347932066","0.7422746785","0.3338792953","0.1578482069","","","","","","","","","","75","K","2","","","3","main_expt","",""
"","bandit","87","348928","0.0-45.0-0.0","59656463","wem/bandit_party_2","A1T56P6L5730HG","either","6","271","","","","","","","1","0","0","0.2578124611","","0.4","0.2","0.8","0.6","","","","","0.294099503","0.8152876082","0.2578124611","0.1733557992","","","","","","","","","","75","K","2","","","4","main_expt","",""
"","bandit","88","350711","0.0-46.0-0.0","59656463","wem/bandit_party_2","A1T56P6L5730HG","either","6","243","","","","","","","0","0","1","0.152782507","","0.4","0.2","0.8","0.6","","","","","0.256228135","0.8494846052","0.152782507","0.1275681293","","","","","","","","","","75","K","2","","","5","main_expt","",""
"","bandit","89","352547","0.0-47.0-0.0","59656463","wem/bandit_party_2","A1T56P6L5730HG","either","6","294","","","","","","","0","0","1","0.200224935","","0.4","0.2","0.8","0.6","","","","","0.3142053347","0.8036792828","0.200224935","0.1776351543","","","","","","","","","","75","K","2","","","6","main_expt","",""
"","bandit","90","354530","0.0-48.0-0.0","59656463","wem/bandit_party_2","A1T56P6L5730HG","either","6","450","","","","","","","0","0","1","0.2200442108","","0.4","0.2","0.8","0.6","","","","","0.2382568898","0.8659664865","0.2200442108","0.1412615145","","","","","","","","","","75","K","2","","","7","main_expt","",""
"","bandit","91","356378","0.0-49.0-0.0","59656463","wem/bandit_party_2","A1T56P6L5730HG","either","6","307","","","","","","","0","0","1","","0.1508054742","0.4","0.2","0.8","0.6","0.220471749","0.8475436228","0.1516915951","0.1508054742","","","","","","","","","","","","","","76","L","3","","","8","main_expt","",""
"","bandit","92","359228","0.0-50.0-0.0","59656463","wem/bandit_party_2","A1T56P6L5730HG","either","6","1316","","","","","","","1","0","0","0.1882404854","","0.4","0.2","0.8","0.6","","","","","0.2842820234","0.8034999265","0.1468829212","0.1882404854","","","","","","","","","","76","L","3","","","9","main_expt","",""
"","bandit","93","361579","0.0-51.0-0.0","59656463","wem/bandit_party_2","A1T56P6L5730HG","either","6","811","","","","","","","0","0","1","0.1731305678","","0.4","0.2","0.8","0.6","","","","","0.3392415315","0.7148412232","0.1507643719","0.1731305678","","","","","","","","","","76","L","3","","","10","main_expt","",""
"","bandit","94","368829","0.0-52.0-0.0","59656463","wem/bandit_party_2","A1T56P6L5730HG","either","6","5703","","","","","","","0","0","1","0.4470346709","","0.4","0.2","0.8","0.6","","","","","0.4470346709","0.7213030285","0.18301","0.2475279461","","","","","","","","","","72","H","0","img/none_selected.jpg","","11","main_expt","",""
"","bandit","95","370758","0.0-53.0-0.0","59656463","wem/bandit_party_2","A1T56P6L5730HG","either","6","384","","","","","","","0","0","1","","0.5143820195","0.4","0.2","0.8","0.6","0.5143820195","0.7396148754","0.209562337","0.2068792089","","","","","","","","","","","","","","72","H","0","img/none_selected.jpg","","12","main_expt","",""
"","bandit","96","377744","0.0-54.0-0.0","59656463","wem/bandit_party_2","A1T56P6L5730HG","either","6","5458","","","","","","","0","1","0","","0.4934308908","0.4","0.2","0.8","0.6","0.4934308908","0.6870781676","0.2133897639","0.1594062408","","","","","","","","","","","","","","72","H","0","img/none_selected.jpg","","13","main_expt","",""
"","bandit","97","379595","0.0-55.0-0.0","59656463","wem/bandit_party_2","A1T56P6L5730HG","either","6","319","","","","","","","0","0","1","","0.5884397519","0.4","0.2","0.8","0.6","0.5884397519","0.6561171826","0.1865122749","0.1808320347","","","","","","","","","","","","","","72","H","0","img/none_selected.jpg","","14","main_expt","",""
"","bandit","98","381498","0.0-56.0-0.0","59656463","wem/bandit_party_2","A1T56P6L5730HG","either","6","361","","","","","","","1","0","0","0.425765204","","0.4","0.2","0.8","0.6","","","","","0.425765204","0.6255101569","0.3169691733","0.2401125286","","","","","","","","","","72","H","0","img/none_selected.jpg","","15","main_expt","",""
"","bandit","99","383411","0.0-57.0-0.0","59656463","wem/bandit_party_2","A1T56P6L5730HG","either","6","372","","","","","","","0","0","1","0.4458974369","","0.4","0.2","0.8","0.6","","","","","0.4458974369","0.6101220295","0.3927767979","0.1823220599","","","","","","","","","","72","H","0","img/none_selected.jpg","","16","main_expt","",""
"","bandit","100","385311","0.0-58.0-0.0","59656463","wem/bandit_party_2","A1T56P6L5730HG","either","6","358","","","","","","","0","0","1","0.4907358526","","0.4","0.2","0.8","0.6","","","","","0.4907358526","0.6233337625","0.2882183284","0.2076179308","","","","","","","","","","72","H","0","img/none_selected.jpg","","17","main_expt","",""
"","bandit","101","387046","0.0-59.0-0.0","59656463","wem/bandit_party_2","A1T56P6L5730HG","either","6","204","","","","","","","0","1","0","","0.4895096529","0.4","0.2","0.8","0.6","0.4895096529","0.598865074","0.3212622409","0.2310064443","","","","","","","","","","","","","","72","H","0","img/none_selected.jpg","","18","main_expt","",""
"","bandit","102","388912","0.0-60.0-0.0","59656463","wem/bandit_party_2","A1T56P6L5730HG","either","6","333","","","","","","","1","0","0","0.5437378015","","0.4","0.2","0.8","0.6","","","","","0.5437378015","0.6318918302","0.3678238944","0.1919199612","","","","","","","","","","72","H","0","img/none_selected.jpg","","19","main_expt","",""
"","bandit","103","390810","0.0-61.0-0.0","59656463","wem/bandit_party_2","A1T56P6L5730HG","either","6","374","","","","","","","1","0","0","0.543071052","","0.4","0.2","0.8","0.6","","","","","0.543071052","0.5667690756","0.4357360734","0.2150176637","","","","","","","","","","72","H","0","img/none_selected.jpg","","20","main_expt","",""
"","bandit","104","392345","0.0-62.0-0.0","59656463","wem/bandit_party_2","A1T56P6L5730HG","either","6","13","","","","","","","0","1","0","","0.5457928974","0.4","0.2","0.8","0.6","0.5457928974","0.6364396753","0.4486518506","0.2980309021","","","","","","","","","","","","","","72","H","0","img/none_selected.jpg","","21","main_expt","",""
"","bandit","105","394262","0.0-63.0-0.0","59656463","wem/bandit_party_2","A1T56P6L5730HG","either","6","374","","","","","","","0","0","1","","0.4531799458","0.4","0.2","0.8","0.6","0.4531799458","0.5563436533","0.5145372488","0.3238742104","","","","","","","","","","","","","","72","H","0","img/none_selected.jpg","","22","main_expt","",""
"","bandit","106","396144","0.0-64.0-0.0","59656463","wem/bandit_party_2","A1T56P6L5730HG","either","6","338","","","","","","","0","0","1","","0.4321579995","0.4","0.2","0.8","0.6","0.4321579995","0.4555064456","0.6324996067","0.4158928209","","","","","","","","","","","","","","72","H","0","img/none_selected.jpg","","23","main_expt","",""
"","bandit","107","397994","0.0-65.0-0.0","59656463","wem/bandit_party_2","A1T56P6L5730HG","either","6","316","","","","","","","0","0","1","0.3892872195","","0.4","0.2","0.8","0.6","","","","","0.3892872195","0.4398961724","0.6665025749","0.2798670784","","","","","","","","","","72","H","0","img/none_selected.jpg","","24","main_expt","",""
"","bandit","108","403477","0.0-66.0-0.0","59656463","wem/bandit_party_2","A1T56P6L5730HG","either","6","3951","","","","","","","0","0","1","","0.3810464824","0.4","0.2","0.8","0.6","0.4322880781","0.3810464824","0.5316582614","0.3932164435","","","","","","","","","","","","","","74","J","1","","","25","main_expt","",""
"","bandit","109","405644","0.0-67.0-0.0","59656463","wem/bandit_party_2","A1T56P6L5730HG","either","6","628","","","","","","","0","0","1","","0.451695138","0.4","0.2","0.8","0.6","0.4560392573","0.451695138","0.4282094451","0.3243459504","","","","","","","","","","","","","","74","J","1","","","26","main_expt","",""
"","bandit","110","407595","0.0-68.0-0.0","59656463","wem/bandit_party_2","A1T56P6L5730HG","either","6","409","","","","","","","1","0","0","0.4711380508","","0.4","0.2","0.8","0.6","","","","","0.5372901799","0.4423729324","0.4711380508","0.4266302179","","","","","","","","","","75","K","2","","","27","main_expt","",""
"","bandit","111","409629","0.0-69.0-0.0","59656463","wem/bandit_party_2","A1T56P6L5730HG","either","6","507","","","","","","","0","0","1","0.4539290932","","0.4","0.2","0.8","0.6","","","","","0.6619872032","0.4221124674","0.4539290932","0.4206607535","","","","","","","","","","75","K","2","","","28","main_expt","",""
"","bandit","112","411612","0.0-70.0-0.0","59656463","wem/bandit_party_2","A1T56P6L5730HG","either","6","438","","","","","","","1","0","0","0.4378511583","","0.4","0.2","0.8","0.6","","","","","0.5939885142","0.489207998","0.4378511583","0.440099583","","","","","","","","","","75","K","2","","","29","main_expt","",""
"","bandit","113","413377","0.0-71.0-0.0","59656463","wem/bandit_party_2","A1T56P6L5730HG","either","6","220","","","","","","","0","0","1","0.3425428874","","0.4","0.2","0.8","0.6","","","","","0.5602145404","0.4406356357","0.3425428874","0.3982168329","","","","","","","","","","75","K","2","","","30","main_expt","",""
"","bandit","114","415010","0.0-72.0-0.0","59656463","wem/bandit_party_2","A1T56P6L5730HG","either","6","93","","","","","","","0","0","1","","0.2354865125","0.4","0.2","0.8","0.6","0.5376870091","0.484130952","0.2354865125","0.3573437221","","","","","","","","","","","","","","75","K","2","","","31","main_expt","",""
"","bandit","115","416628","0.0-73.0-0.0","59656463","wem/bandit_party_2","A1T56P6L5730HG","either","6","79","","","","","","","0","0","1","","0.2552437171","0.4","0.2","0.8","0.6","0.6346195819","0.432294219","0.2552437171","0.3712986889","","","","","","","","","","","","","","75","K","2","","","32","main_expt","",""
"","bandit","116","418677","0.0-74.0-0.0","59656463","wem/bandit_party_2","A1T56P6L5730HG","either","6","510","","","","","","","0","1","0","","0.7540961955","0.4","0.2","0.8","0.6","0.7540961955","0.4821309474","0.2470382599","0.45096985","","","","","","","","","","","","","","72","H","0","img/none_selected.jpg","","33","main_expt","",""
"","bandit","117","420363","0.0-75.0-0.0","59656463","wem/bandit_party_2","A1T56P6L5730HG","either","6","151","","","","","","","0","0","1","0.699797925","","0.4","0.2","0.8","0.6","","","","","0.699797925","0.4702474349","0.2951894024","0.5559331637","","","","","","","","","","72","H","0","img/none_selected.jpg","","34","main_expt","",""
"","bandit","118","422177","0.0-76.0-0.0","59656463","wem/bandit_party_2","A1T56P6L5730HG","either","6","284","","","","","","","1","0","0","0.7410295452","","0.4","0.2","0.8","0.6","","","","","0.7410295452","0.5363697359","0.2596626779","0.7354386419","","","","","","","","","","72","H","0","img/none_selected.jpg","","35","main_expt","",""
"","bandit","119","424094","0.0-77.0-0.0","59656463","wem/bandit_party_2","A1T56P6L5730HG","either","6","377","","","","","","","1","0","0","0.7332281969","","0.4","0.2","0.8","0.6","","","","","0.7332281969","0.602250539","0.3164764808","0.6934166837","","","","","","","","","","72","H","0","img/none_selected.jpg","","36","main_expt","",""
"","bandit","120","425911","0.0-78.0-0.0","59656463","wem/bandit_party_2","A1T56P6L5730HG","either","6","287","","","","","","","0","1","0","","0.736713329","0.4","0.2","0.8","0.6","0.736713329","0.5337433964","0.3672962009","0.6311869688","","","","","","","","","","","","","","72","H","0","img/none_selected.jpg","","37","main_expt","",""
"","bandit","121","427512","0.0-79.0-0.0","59656463","wem/bandit_party_2","A1T56P6L5730HG","either","6","69","","","","","","","0","1","0","","0.6860808007","0.4","0.2","0.8","0.6","0.6860808007","0.5970413872","0.4056598401","0.6583504975","","","","","","","","","","","","","","72","H","0","img/none_selected.jpg","","38","main_expt","",""
"","bandit","122","429160","0.0-80.0-0.0","59656463","wem/bandit_party_2","A1T56P6L5730HG","either","6","116","","","","","","","0","0","1","0.7498761973","","0.4","0.2","0.8","0.6","","","","","0.7498761973","0.6529448079","0.4236995386","0.5861321806","","","","","","","","","","72","H","0","img/none_selected.jpg","","39","main_expt","",""
"","bandit","123","430910","0.0-81.0-0.0","59656463","wem/bandit_party_2","A1T56P6L5730HG","either","6","226","","","","","","","1","0","0","0.7043283504","","0.4","0.2","0.8","0.6","","","","","0.7043283504","0.6612991154","0.4365163158","0.4892836735","","","","","","","","","","72","H","0","img/none_selected.jpg","","40","main_expt","",""
"","bandit","124","433176","0.0-82.0-0.0","59656463","wem/bandit_party_2","A1T56P6L5730HG","either","6","711","","","","","","","0","1","0","","0.6469690382","0.4","0.2","0.8","0.6","0.6469690382","0.7390431107","0.4854269132","0.3479900608","","","","","","","","","","","","","","72","H","0","img/none_selected.jpg","","41","main_expt","",""
"","bandit","125","434877","0.0-83.0-0.0","59656463","wem/bandit_party_2","A1T56P6L5730HG","either","6","171","","","","","","","0","1","0","","0.6388905256","0.4","0.2","0.8","0.6","0.6388905256","0.7609423287","0.4753587859","0.376709287","","","","","","","","","","","","","","72","H","0","img/none_selected.jpg","","42","main_expt","",""
"","bandit","126","436828","0.0-84.0-0.0","59656463","wem/bandit_party_2","A1T56P6L5730HG","either","6","418","","","","","","","0","1","0","","0.6383372244","0.4","0.2","0.8","0.6","0.6383372244","0.8039673949","0.452202747","0.4319300722","","","","","","","","","","","","","","72","H","0","img/none_selected.jpg","","43","main_expt","",""
"","bandit","127","438644","0.0-85.0-0.0","59656463","wem/bandit_party_2","A1T56P6L5730HG","either","6","289","","","","","","","1","0","0","0.6247854939","","0.4","0.2","0.8","0.6","","","","","0.6247854939","0.8216753652","0.5522191005","0.4458636389","","","","","","","","","","72","H","0","img/none_selected.jpg","","44","main_expt","",""
"","bandit","128","440394","0.0-86.0-0.0","59656463","wem/bandit_party_2","A1T56P6L5730HG","either","6","222","","","","","","","1","0","0","0.6341880498","","0.4","0.2","0.8","0.6","","","","","0.6341880498","0.7636866317","0.4878962787","0.4323480181","","","","","","","","","","72","H","0","img/none_selected.jpg","","45","main_expt","",""
"","bandit","129","442297","0.0-87.0-0.0","59656463","wem/bandit_party_2","A1T56P6L5730HG","either","6","352","","","","","","","1","0","0","0.5081310512","","0.4","0.2","0.8","0.6","","","","","0.5081310512","0.8203755575","0.487595293","0.4348202433","","","","","","","","","","72","H","0","img/none_selected.jpg","","46","main_expt","",""
"","bandit","130","443943","0.0-88.0-0.0","59656463","wem/bandit_party_2","A1T56P6L5730HG","either","6","106","","","","","","","0","0","1","","0.4202927251","0.4","0.2","0.8","0.6","0.4202927251","0.8706375764","0.444754188","0.3430847618","","","","","","","","","","","","","","72","H","0","img/none_selected.jpg","","47","main_expt","",""
"","bandit","131","445676","0.0-89.0-0.0","59656463","wem/bandit_party_2","A1T56P6L5730HG","either","6","199","","","","","","","0","0","1","0.4767868938","","0.4","0.2","0.8","0.6","","","","","0.4767868938","0.8019506245","0.5044276746","0.2601977795","","","","","","","","","","72","H","0","img/none_selected.jpg","","48","main_expt","",""
"","bandit","132","447908","0.0-90.0-0.0","59656463","wem/bandit_party_2","A1T56P6L5730HG","either","6","702","","","","","","","1","0","0","0.3766714482","","0.4","0.2","0.8","0.6","","","","","0.3749468019","0.7331224435","0.3766714482","0.2368144698","","","","","","","","","","75","K","2","","","49","main_expt","",""
"","bandit","133","449562","0.0-91.0-0.0","59656463","wem/bandit_party_2","A1T56P6L5730HG","either","6","119","","","","","","","0","0","1","0.406992786","","0.4","0.2","0.8","0.6","","","","","0.3532902347","0.7908344101","0.406992786","0.2484527115","","","","","","","","","","75","K","2","","","50","main_expt","",""
"","bandit","134","451331","0.0-92.0-0.0","59656463","wem/bandit_party_2","A1T56P6L5730HG","either","6","229","","","","","","","0","0","1","0.3854505747","","0.4","0.2","0.8","0.6","","","","","0.2413466802","0.7922828235","0.3854505747","0.230268934","","","","","","","","","","75","K","2","","","51","main_expt","",""
"","bandit","135","453079","0.0-93.0-0.0","59656463","wem/bandit_party_2","A1T56P6L5730HG","either","6","206","","","","","","","0","0","1","0.3956915145","","0.4","0.2","0.8","0.6","","","","","0.2673723166","0.7485378942","0.3956915145","0.3429002399","","","","","","","","","","75","K","2","","","52","main_expt","",""
"","bandit","136","455546","0.0-94.0-0.0","59656463","wem/bandit_party_2","A1T56P6L5730HG","either","6","932","","","","","","","0","1","0","","0.3062348001","0.4","0.2","0.8","0.6","0.2806035608","0.6603794952","0.3062348001","0.2871029552","","","","","","","","","","","","","","75","K","2","","","53","main_expt","",""
"","bandit","137","457376","0.0-95.0-0.0","59656463","wem/bandit_party_2","A1T56P6L5730HG","either","6","295","","","","","","","0","0","1","0.2996500993","","0.4","0.2","0.8","0.6","","","","","0.2544312064","0.6931449795","0.2996500993","0.2594444468","","","","","","","","","","75","K","2","","","54","main_expt","",""
"","bandit","138","459113","0.0-96.0-0.0","59656463","wem/bandit_party_2","A1T56P6L5730HG","either","6","201","","","","","","","0","0","1","0.2518247787","","0.4","0.2","0.8","0.6","","","","","0.3362815808","0.7553272845","0.2518247787","0.3333749245","","","","","","","","","","75","K","2","","","55","main_expt","",""
"","bandit","139","461661","0.0-97.0-0.0","59656463","wem/bandit_party_2","A1T56P6L5730HG","either","6","1011","","","","","","","0","0","1","","0.3014763065","0.4","0.2","0.8","0.6","0.3798256012","0.7231548626","0.3014763065","0.3049104067","","","","","","","","","","","","","","75","K","2","","","56","main_expt","",""
"","bandit","140","463595","0.0-98.0-0.0","59656463","wem/bandit_party_2","A1T56P6L5730HG","either","6","381","","","","","","","0","0","1","0.3989549393","","0.4","0.2","0.8","0.6","","","","","0.3989549393","0.7485901337","0.2730843718","0.3623273811","","","","","","","","","","72","H","0","img/none_selected.jpg","","57","main_expt","",""
"","bandit","141","465643","0.0-99.0-0.0","59656463","wem/bandit_party_2","A1T56P6L5730HG","either","6","509","","","","","","","0","0","1","0.3373398956","","0.4","0.2","0.8","0.6","","","","","0.3373398956","0.797082508","0.367239041","0.3621169042","","","","","","","","","","72","H","0","img/none_selected.jpg","","58","main_expt","",""
"","bandit","142","467594","0.0-100.0-0.0","59656463","wem/bandit_party_2","A1T56P6L5730HG","either","6","415","","","","","","","0","0","1","","0.4005220403","0.4","0.2","0.8","0.6","0.3381045731","0.7466963627","0.4005220403","0.3672848169","","","","","","","","","","","","","","75","K","2","","","59","main_expt","",""
"","bandit","143","469444","0.0-101.0-0.0","59656463","wem/bandit_party_2","A1T56P6L5730HG","either","6","320","","","","","","","0","0","1","","0.4838111383","0.4","0.2","0.8","0.6","0.4838111383","0.6359615323","0.4863912708","0.5123874715","","","","","","","","","","","","","","72","H","0","img/none_selected.jpg","","60","main_expt","",""
"","bandit","144","471360","0.0-102.0-0.0","59656463","wem/bandit_party_2","A1T56P6L5730HG","either","6","386","","","","","","","0","0","1","0.4290776342","","0.4","0.2","0.8","0.6","","","","","0.4290776342","0.7125939799","0.5220595343","0.5218319631","","","","","","","","","","72","H","0","img/none_selected.jpg","","61","main_expt","",""
"","bandit","145","474296","0.0-103.0-0.0","59656463","wem/bandit_party_2","A1T56P6L5730HG","either","6","1405","","","","","","","0","0","1","0.5978650666","","0.4","0.2","0.8","0.6","","","","","0.4387439774","0.5978650666","0.5447889898","0.6482151027","","","","","","","","","","74","J","1","","","62","main_expt","",""
"","bandit","146","476079","0.0-104.0-0.0","59656463","wem/bandit_party_2","A1T56P6L5730HG","either","6","249","","","","","","","0","0","1","","0.3670418014","0.4","0.2","0.8","0.6","0.3670418014","0.5166338879","0.5517390004","0.6966290852","","","","","","","","","","","","","","72","H","0","img/none_selected.jpg","","63","main_expt","",""
"","bandit","147","479859","0.0-105.0-0.0","59656463","wem/bandit_party_2","A1T56P6L5730HG","either","6","2243","","","","","","","0","0","1","","0.3470393933","0.4","0.2","0.8","0.6","0.3470393933","0.4901650138","0.6576188384","0.6497033777","","","","","","","","","","","","","","72","H","0","img/none_selected.jpg","","64","main_expt","",""
"","bandit","148","481627","0.0-106.0-0.0","59656463","wem/bandit_party_2","A1T56P6L5730HG","either","6","226","","","","","","","0","0","1","0.5156176703","","0.4","0.2","0.8","0.6","","","","","0.3361574661","0.459365688","0.5156176703","0.6925184903","","","","","","","","","","75","K","2","","","65","main_expt","",""
"","bandit","149","483578","0.0-107.0-0.0","59656463","wem/bandit_party_2","A1T56P6L5730HG","either","6","406","","","","","","","0","1","0","","0.4666104807","0.4","0.2","0.8","0.6","0.34308242","0.4666104807","0.3851410914","0.8298767513","","","","","","","","","","","","","","74","J","1","","","66","main_expt","",""
"","bandit","150","485428","0.0-108.0-0.0","59656463","wem/bandit_party_2","A1T56P6L5730HG","either","6","315","","","","","","","1","0","0","0.5547259005","","0.4","0.2","0.8","0.6","","","","","0.3730603492","0.5547259005","0.3925250542","0.8506596021","","","","","","","","","","74","J","1","","","67","main_expt","",""
"","bandit","151","487227","0.0-109.0-0.0","59656463","wem/bandit_party_2","A1T56P6L5730HG","either","6","261","","","","","","","0","1","0","","0.6038719492","0.4","0.2","0.8","0.6","0.4089949532","0.6038719492","0.3884113518","0.8536910832","","","","","","","","","","","","","","74","J","1","","","68","main_expt","",""
"","bandit","152","489081","0.0-110.0-0.0","59656463","wem/bandit_party_2","A1T56P6L5730HG","either","6","315","","","","","","","0","1","0","","0.6148283845","0.4","0.2","0.8","0.6","0.3749002533","0.6148283845","0.3434478979","0.8642538991","","","","","","","","","","","","","","74","J","1","","","69","main_expt","",""
"","bandit","153","490931","0.0-111.0-0.0","59656463","wem/bandit_party_2","A1T56P6L5730HG","either","6","308","","","","","","","0","1","0","","0.6683283761","0.4","0.2","0.8","0.6","0.4133869845","0.6683283761","0.4426642051","0.8073802352","","","","","","","","","","","","","","74","J","1","","","70","main_expt","",""
"","bandit","154","492628","0.0-112.0-0.0","59656463","wem/bandit_party_2","A1T56P6L5730HG","either","6","167","","","","","","","0","0","1","","0.738459761","0.4","0.2","0.8","0.6","0.3302164541","0.738459761","0.4518046004","0.8059201048","","","","","","","","","","","","","","74","J","1","","","71","main_expt","",""
"","bandit","155","494361","0.0-113.0-0.0","59656463","wem/bandit_party_2","A1T56P6L5730HG","either","6","189","","","","","","","0","0","1","","0.6525166508","0.4","0.2","0.8","0.6","0.2570952275","0.6525166508","0.4903223245","0.8262275011","","","","","","","","","","","","","","74","J","1","","","72","main_expt","",""
"","bandit","156","496111","0.0-114.0-0.0","59656463","wem/bandit_party_2","A1T56P6L5730HG","either","6","218","","","","","","","0","0","1","","0.5715134512","0.4","0.2","0.8","0.6","0.2042885023","0.5715134512","0.5296083002","0.7334390718","","","","","","","","","","","","","","74","J","1","","","73","main_expt","",""
"","bandit","157","497944","0.0-115.0-0.0","59656463","wem/bandit_party_2","A1T56P6L5730HG","either","6","291","","","","","","","1","0","0","0.7490977197","","0.4","0.2","0.8","0.6","","","","","0.2152837516","0.6228045854","0.4883026933","0.7490977197","","","","","","","","","","76","L","3","","","74","main_expt","",""
"","bandit","158","499811","0.0-116.0-0.0","59656463","wem/bandit_party_2","A1T56P6L5730HG","either","6","332","","","","","","","1","0","0","0.7554087461","","0.4","0.2","0.8","0.6","","","","","0.2044775694","0.613630376","0.4914171484","0.7554087461","","","","","","","","","","76","L","3","","","75","main_expt","",""
"","bandit","159","501677","0.0-117.0-0.0","59656463","wem/bandit_party_2","A1T56P6L5730HG","either","6","328","","","","","","","1","0","0","0.804443878","","0.4","0.2","0.8","0.6","","","","","0.2247613499","0.7047266053","0.6059218973","0.804443878","","","","","","","","","","76","L","3","","","76","main_expt","",""
"","bandit","160","503579","0.0-118.0-0.0","59656463","wem/bandit_party_2","A1T56P6L5730HG","either","6","363","","","","","","","0","1","0","","0.6656620098","0.4","0.2","0.8","0.6","0.2266335256","0.6910360943","0.553792366","0.6656620098","","","","","","","","","","","","","","76","L","3","","","77","main_expt","",""
"","bandit","161","505277","0.0-119.0-0.0","59656463","wem/bandit_party_2","A1T56P6L5730HG","either","6","166","","","","","","","0","0","1","0.5898140708","","0.4","0.2","0.8","0.6","","","","","0.1659731505","0.5515992215","0.6884193839","0.5898140708","","","","","","","","","","76","L","3","","","78","main_expt","",""
"","bandit","162","507261","0.0-120.0-0.0","59656463","wem/bandit_party_2","A1T56P6L5730HG","either","6","443","","","","","","","0","0","1","","0.2343921172","0.4","0.2","0.8","0.6","0.2343921172","0.6448399581","0.7214277645","0.613215191","","","","","","","","","","","","","","72","H","0","img/none_selected.jpg","","79","main_expt","",""
"","bandit","163","509028","0.0-121.0-0.0","59656463","wem/bandit_party_2","A1T56P6L5730HG","either","6","224","","","","","","","1","0","0","0.7328142644","","0.4","0.2","0.8","0.6","","","","","0.2164054515","0.739479497","0.7328142644","0.4605925783","","","","","","","","","","75","K","2","","","80","main_expt","",""
"","bandit","164","510796","0.0-122.0-0.0","59656463","wem/bandit_party_2","A1T56P6L5730HG","either","6","228","","","","","","","1","0","0","0.7101675561","","0.4","0.2","0.8","0.6","","","","","0.1361232007","0.6956071838","0.7101675561","0.5390789087","","","","","","","","","","75","K","2","","","81","main_expt","",""
"","bandit","165","512562","0.0-123.0-0.0","59656463","wem/bandit_party_2","A1T56P6L5730HG","either","6","233","","","","","","","1","0","0","0.6984384541","","0.4","0.2","0.8","0.6","","","","","0.2275447725","0.5886517937","0.6984384541","0.621290364","","","","","","","","","","75","K","2","","","82","main_expt","",""
"","bandit","166","514345","0.0-124.0-0.0","59656463","wem/bandit_party_2","A1T56P6L5730HG","either","6","247","","","","","","","1","0","0","0.7447883659","","0.4","0.2","0.8","0.6","","","","","0.1900607051","0.4764182235","0.7447883659","0.6359424421","","","","","","","","","","75","K","2","","","83","main_expt","",""
"","bandit","167","516144","0.0-125.0-0.0","59656463","wem/bandit_party_2","A1T56P6L5730HG","either","6","254","","","","","","","1","0","0","0.6900592863","","0.4","0.2","0.8","0.6","","","","","0.1306868958","0.5149027494","0.6900592863","0.6133664729","","","","","","","","","","75","K","2","","","84","main_expt","",""
"","bandit","168","517744","0.0-126.0-0.0","59656463","wem/bandit_party_2","A1T56P6L5730HG","either","6","70","","","","","","","0","1","0","","0.7010597455","0.4","0.2","0.8","0.6","0.1683201849","0.4908067213","0.7010597455","0.7815463305","","","","","","","","","","","","","","75","K","2","","","85","main_expt","",""
"","bandit","169","519394","0.0-127.0-0.0","59656463","wem/bandit_party_2","A1T56P6L5730HG","either","6","109","","","","","","","1","0","0","0.6171062652","","0.4","0.2","0.8","0.6","","","","","0.1290314955","0.4139472458","0.6171062652","0.7355789231","","","","","","","","","","75","K","2","","","86","main_expt","",""
"","bandit","170","520959","0.0-128.0-0.0","59656463","wem/bandit_party_2","A1T56P6L5730HG","either","6","33","","","","","","","0","0","1","0.5629375242","","0.4","0.2","0.8","0.6","","","","","0.2297537383","0.4253818619","0.5629375242","0.7267399876","","","","","","","","","","75","K","2","","","87","main_expt","",""
"","bandit","171","522779","0.0-129.0-0.0","59656463","wem/bandit_party_2","A1T56P6L5730HG","either","6","272","","","","","","","0","0","1","0.1878263516","","0.4","0.2","0.8","0.6","","","","","0.1878263516","0.4448862761","0.6434443074","0.7703195612","","","","","","","","","","72","H","0","img/none_selected.jpg","","88","main_expt","",""
"","bandit","172","524393","0.0-130.0-0.0","59656463","wem/bandit_party_2","A1T56P6L5730HG","either","6","63","","","","","","","0","0","1","0.81872988","","0.4","0.2","0.8","0.6","","","","","0.1896964823","0.4295642349","0.7296698787","0.81872988","","","","","","","","","","76","L","3","","","89","main_expt","",""
"","bandit","173","526045","0.0-131.0-0.0","59656463","wem/bandit_party_2","A1T56P6L5730HG","either","6","117","","","","","","","0","0","1","","0.1614970172","0.4","0.2","0.8","0.6","0.1614970172","0.3655203192","0.7042864347","0.8032570632","","","","","","","","","","","","","","72","H","0","img/none_selected.jpg","","90","main_expt","",""
"","bandit","174","528278","0.0-132.0-0.0","59656463","wem/bandit_party_2","A1T56P6L5730HG","either","6","693","","","","","","","0","0","1","0.402428746","","0.4","0.2","0.8","0.6","","","","","0.2107705911","0.402428746","0.7606559624","0.8257352781","","","","","","","","","","74","J","1","","","91","main_expt","",""
"","bandit","175","530378","0.0-133.0-0.0","59656463","wem/bandit_party_2","A1T56P6L5730HG","either","6","561","","","","","","","0","0","1","","0.1317951273","0.4","0.2","0.8","0.6","0.1317951273","0.452733603","0.8466818248","0.7762210657","","","","","","","","","","","","","","72","H","0","img/none_selected.jpg","","92","main_expt","",""
"","bandit","176","532045","0.0-134.0-0.0","59656463","wem/bandit_party_2","A1T56P6L5730HG","either","6","127","","","","","","","1","0","0","0.8181600593","","0.4","0.2","0.8","0.6","","","","","0.09268613222","0.5416456901","0.8181600593","0.8293629201","","","","","","","","","","75","K","2","","","93","main_expt","",""
"","bandit","177","533743","0.0-135.0-0.0","59656463","wem/bandit_party_2","A1T56P6L5730HG","either","6","162","","","","","","","0","0","1","","0.7259749053","0.4","0.2","0.8","0.6","0.06418168538","0.5246039132","0.7259749053","0.7849393417","","","","","","","","","","","","","","75","K","2","","","94","main_expt","",""
"","bandit","178","535579","0.0-136.0-0.0","59656463","wem/bandit_party_2","A1T56P6L5730HG","either","6","296","","","","","","","1","0","0","0.6538641892","","0.4","0.2","0.8","0.6","","","","","0.100072779","0.606801291","0.6538641892","0.7850226125","","","","","","","","","","75","K","2","","","95","main_expt","",""
"","bandit","179","537426","0.0-137.0-0.0","59656463","wem/bandit_party_2","A1T56P6L5730HG","either","6","303","","","","","","","0","0","1","0.6384360591","","0.4","0.2","0.8","0.6","","","","","0.09628221604","0.7175242067","0.6384360591","0.8013150942","","","","","","","","","","75","K","2","","","96","main_expt","",""
"","bandit","180","539377","0.0-138.0-0.0","59656463","wem/bandit_party_2","A1T56P6L5730HG","either","6","403","","","","","","","0","1","0","","0.6836118029","0.4","0.2","0.8","0.6","0.1335622201","0.7706560561","0.6836118029","0.70340399","","","","","","","","","","","","","","75","K","2","","","97","main_expt","",""
"","bandit","181","541111","0.0-139.0-0.0","59656463","wem/bandit_party_2","A1T56P6L5730HG","either","6","198","","","","","","","1","0","0","0.659457158","","0.4","0.2","0.8","0.6","","","","","0.167202632","0.7234704616","0.659457158","0.7562517051","","","","","","","","","","75","K","2","","","98","main_expt","",""
"","bandit","182","542910","0.0-140.0-0.0","59656463","wem/bandit_party_2","A1T56P6L5730HG","either","6","266","","","","","","","1","0","0","0.7726162223","","0.4","0.2","0.8","0.6","","","","","0.1216125457","0.6582042781","0.7726162223","0.6514659141","","","","","","","","","","75","K","2","","","99","main_expt","",""
"","bandit","183","544626","0.0-141.0-0.0","59656463","wem/bandit_party_2","A1T56P6L5730HG","either","6","184","","","","","","","1","0","0","0.8446518706","","0.4","0.2","0.8","0.6","","","","","0.1163239148","0.6530973887","0.8446518706","0.7112237606","","","","","","","","","","75","K","2","","","100","main_expt","",""
"","bandit","184","546242","0.0-142.0-0.0","59656463","wem/bandit_party_2","A1T56P6L5730HG","either","6","82","","","","","","","0","1","0","","0.8784151442","0.4","0.2","0.8","0.6","0.1037928869","0.6690961394","0.8784151442","0.6865981462","","","","","","","","","","","","","","75","K","2","","","101","main_expt","",""
"","bandit","185","548126","0.0-143.0-0.0","59656463","wem/bandit_party_2","A1T56P6L5730HG","either","6","343","","","","","","","1","0","0","0.8781202538","","0.4","0.2","0.8","0.6","","","","","0.0991068806","0.6268844929","0.8781202538","0.6663704066","","","","","","","","","","75","K","2","","","102","main_expt","",""
"","bandit","186","549974","0.0-144.0-0.0","59656463","wem/bandit_party_2","A1T56P6L5730HG","either","6","309","","","","","","","0","0","1","0.8123732176","","0.4","0.2","0.8","0.6","","","","","0.1226752409","0.6657789595","0.8123732176","0.6006744832","","","","","","","","","","75","K","2","","","103","main_expt","",""
"","bandit","187","551944","0.0-145.0-0.0","59656463","wem/bandit_party_2","A1T56P6L5730HG","either","6","442","","","","","","","1","0","0","0.518723913","","0.4","0.2","0.8","0.6","","","","","0.1552466415","0.6951589836","0.8461937008","0.518723913","","","","","","","","","","76","L","3","","","104","main_expt","",""
"","bandit","188","553642","0.0-146.0-0.0","59656463","wem/bandit_party_2","A1T56P6L5730HG","either","6","161","","","","","","","1","0","0","0.5343999165","","0.4","0.2","0.8","0.6","","","","","0.1702138509","0.6382729445","0.8664825842","0.5343999165","","","","","","","","","","76","L","3","","","105","main_expt","",""
"","bandit","189","555208","0.0-147.0-0.0","59656463","wem/bandit_party_2","A1T56P6L5730HG","either","6","37","","","","","","","1","0","0","0.4959998489","","0.4","0.2","0.8","0.6","","","","","0.2021425125","0.7139624249","0.8703997655","0.4959998489","","","","","","","","","","76","L","3","","","106","main_expt","",""
"","bandit","190","556791","0.0-148.0-0.0","59656463","wem/bandit_party_2","A1T56P6L5730HG","either","6","56","","","","","","","0","1","0","","0.5052663648","0.4","0.2","0.8","0.6","0.2196373816","0.7718136471","0.8964314806","0.5052663648","","","","","","","","","","","","","","76","L","3","","","107","main_expt","",""
"","bandit","191","558628","0.0-149.0-0.0","59656463","wem/bandit_party_2","A1T56P6L5730HG","either","6","305","","","","","","","1","0","0","0.4859582203","","0.4","0.2","0.8","0.6","","","","","0.2393661099","0.8818715302","0.9080126319","0.4859582203","","","","","","","","","","76","L","3","","","108","main_expt","",""
"","bandit","192","560410","0.0-150.0-0.0","59656463","wem/bandit_party_2","A1T56P6L5730HG","either","6","251","","","","","","","0","0","1","","0.523617738","0.4","0.2","0.8","0.6","0.2516352594","0.8757741924","0.8880845243","0.523617738","","","","","","","","","","","","","","76","L","3","","","109","main_expt","",""
"","bandit","193","562010","0.0-151.0-0.0","59656463","wem/bandit_party_2","A1T56P6L5730HG","either","6","61","","","","","","","0","0","1","","0.2424291788","0.4","0.2","0.8","0.6","0.2424291788","0.8657151097","0.899251136","0.5492010791","","","","","","","","","","","","","","72","H","0","img/none_selected.jpg","","110","main_expt","",""
"","bandit","194","565493","0.0-152.0-0.0","59656463","wem/bandit_party_2","A1T56P6L5730HG","either","6","1941","","","","","","","0","1","0","","0.8457624762","0.4","0.2","0.8","0.6","0.2033086481","0.8457624762","0.9019514556","0.5467154696","","","","","","","","","","","","","","74","J","1","","","111","main_expt","",""
"","bandit","195","567359","0.0-153.0-0.0","59656463","wem/bandit_party_2","A1T56P6L5730HG","either","6","317","","","","","","","0","1","0","","0.8756116827","0.4","0.2","0.8","0.6","0.208613213","0.8756116827","0.9315537639","0.5396215981","","","","","","","","","","","","","","74","J","1","","","112","main_expt","",""
"","bandit","196","569193","0.0-154.0-0.0","59656463","wem/bandit_party_2","A1T56P6L5730HG","either","6","298","","","","","","","1","0","0","0.8773181328","","0.4","0.2","0.8","0.6","","","","","0.2743958833","0.8773181328","0.9254394702","0.5542875214","","","","","","","","","","74","J","1","","","113","main_expt","",""
"","bandit","197","571094","0.0-155.0-0.0","59656463","wem/bandit_party_2","A1T56P6L5730HG","either","6","350","","","","","","","0","1","0","","0.8842236373","0.4","0.2","0.8","0.6","0.2657329006","0.8842236373","0.9394904604","0.6411428718","","","","","","","","","","","","","","74","J","1","","","114","main_expt","",""
"","bandit","198","572926","0.0-156.0-0.0","59656463","wem/bandit_party_2","A1T56P6L5730HG","either","6","289","","","","","","","1","0","0","0.8499121835","","0.4","0.2","0.8","0.6","","","","","0.3234316928","0.8499121835","0.9533355239","0.7261400339","","","","","","","","","","74","J","1","","","115","main_expt","",""
"","bandit","199","574744","0.0-157.0-0.0","59656463","wem/bandit_party_2","A1T56P6L5730HG","either","6","280","","","","","","","0","1","0","","0.7890056153","0.4","0.2","0.8","0.6","0.3625587123","0.7890056153","0.960842596","0.7395407697","","","","","","","","","","","","","","74","J","1","","","116","main_expt","",""
"","bandit","200","576593","0.0-158.0-0.0","59656463","wem/bandit_party_2","A1T56P6L5730HG","either","6","302","","","","","","","1","0","0","0.7709890197","","0.4","0.2","0.8","0.6","","","","","0.4946904956","0.7709890197","0.937733065","0.8231731708","","","","","","","","","","74","J","1","","","117","main_expt","",""
"","bandit","201","579812","0.0-159.0-0.0","59656463","wem/bandit_party_2","A1T56P6L5730HG","either","6","1687","","","","","","","1","0","0","0.9561499645","","0.4","0.2","0.8","0.6","","","","","0.6246330079","0.7459937787","0.9561499645","0.8278750807","","","","","","","","","","75","K","2","","","118","main_expt","",""
"","bandit","202","581625","0.0-160.0-0.0","59656463","wem/bandit_party_2","A1T56P6L5730HG","either","6","280","","","","","","","1","0","0","0.9595118281","","0.4","0.2","0.8","0.6","","","","","0.5818097722","0.716881491","0.9595118281","0.8715827524","","","","","","","","","","75","K","2","","","119","main_expt","",""
"","bandit","203","583460","0.0-161.0-0.0","59656463","wem/bandit_party_2","A1T56P6L5730HG","either","6","299","","","","","","","1","0","0","0.9548463758","","0.4","0.2","0.8","0.6","","","","","0.5990025551","0.6595649419","0.9548463758","0.8522670476","","","","","","","","","","75","K","2","","","120","main_expt","",""
"","bandit","204","585342","0.0-162.0-0.0","59656463","wem/bandit_party_2","A1T56P6L5730HG","either","6","341","","","","","","","1","0","0","0.958085665","","0.4","0.2","0.8","0.6","","","","","0.6534424477","0.6576447048","0.958085665","0.8266542562","","","","","","","","","","75","K","2","","","121","main_expt","",""
"","bandit","205","587193","0.0-163.0-0.0","59656463","wem/bandit_party_2","A1T56P6L5730HG","either","6","329","","","","","","","0","1","0","","0.9630601427","0.4","0.2","0.8","0.6","0.5952731017","0.6391957719","0.9630601427","0.81688531","","","","","","","","","","","","","","75","K","2","","","122","main_expt","",""
"","bandit","206","589075","0.0-164.0-0.0","59656463","wem/bandit_party_2","A1T56P6L5730HG","either","6","326","","","","","","","0","1","0","","0.9790283764","0.4","0.2","0.8","0.6","0.6469086187","0.5873908865","0.9790283764","0.8307363081","","","","","","","","","","","","","","75","K","2","","","123","main_expt","",""
"","bandit","207","590927","0.0-165.0-0.0","59656463","wem/bandit_party_2","A1T56P6L5730HG","either","6","319","","","","","","","1","0","0","0.9718765302","","0.4","0.2","0.8","0.6","","","","","0.6911454426","0.6592760984","0.9718765302","0.6943824695","","","","","","","","","","75","K","2","","","124","main_expt","",""
"","bandit","208","592759","0.0-166.0-0.0","59656463","wem/bandit_party_2","A1T56P6L5730HG","either","6","302","","","","","","","1","0","0","0.9845173964","","0.4","0.2","0.8","0.6","","","","","0.750572215","0.6012083746","0.9845173964","0.7137568944","","","","","","","","","","75","K","2","","","125","main_expt","",""
"","bandit","209","594644","0.0-167.0-0.0","59656463","wem/bandit_party_2","A1T56P6L5730HG","either","6","350","","","","","","","1","0","0","0.9804670004","","0.4","0.2","0.8","0.6","","","","","0.8108432581","0.6043440275","0.9804670004","0.6878742658","","","","","","","","","","75","K","2","","","126","main_expt","",""
"","bandit","210","596476","0.0-168.0-0.0","59656463","wem/bandit_party_2","A1T56P6L5730HG","either","6","295","","","","","","","1","0","0","0.9792667249","","0.4","0.2","0.8","0.6","","","","","0.8338196277","0.5043142332","0.9792667249","0.6175454059","","","","","","","","","","75","K","2","","","127","main_expt","",""
"","bandit","211","598329","0.0-169.0-0.0","59656463","wem/bandit_party_2","A1T56P6L5730HG","either","6","311","","","","","","","0","1","0","","0.9853815399","0.4","0.2","0.8","0.6","0.8624128669","0.5778209799","0.9853815399","0.5556505876","","","","","","","","","","","","","","75","K","2","","","128","main_expt","",""
"","bandit","212","600209","0.0-170.0-0.0","59656463","wem/bandit_party_2","A1T56P6L5730HG","either","6","333","","","","","","","1","0","0","0.9838319732","","0.4","0.2","0.8","0.6","","","","","0.9026068167","0.5806273004","0.9838319732","0.5948532478","","","","","","","","","","75","K","2","","","129","main_expt","",""
"","bandit","213","602028","0.0-171.0-0.0","59656463","wem/bandit_party_2","A1T56P6L5730HG","either","6","284","","","","","","","1","0","0","0.9798768453","","0.4","0.2","0.8","0.6","","","","","0.8983636673","0.4152233618","0.9798768453","0.6646968067","","","","","","","","","","75","K","2","","","130","main_expt","",""
"","bandit","214","603859","0.0-172.0-0.0","59656463","wem/bandit_party_2","A1T56P6L5730HG","either","6","305","","","","","","","1","0","0","0.9628017066","","0.4","0.2","0.8","0.6","","","","","0.888478962","0.4527057242","0.9628017066","0.6676177377","","","","","","","","","","75","K","2","","","131","main_expt","",""
"","bandit","215","605676","0.0-173.0-0.0","59656463","wem/bandit_party_2","A1T56P6L5730HG","either","6","288","","","","","","","1","0","0","0.9723970119","","0.4","0.2","0.8","0.6","","","","","0.8470567254","0.5185753891","0.9723970119","0.7638630926","","","","","","","","","","75","K","2","","","132","main_expt","",""
"","bandit","216","607529","0.0-174.0-0.0","59656463","wem/bandit_party_2","A1T56P6L5730HG","either","6","302","","","","","","","1","0","0","0.9754432393","","0.4","0.2","0.8","0.6","","","","","0.8852081265","0.4567386081","0.9754432393","0.726350598","","","","","","","","","","75","K","2","","","133","main_expt","",""
"","bandit","217","609393","0.0-175.0-0.0","59656463","wem/bandit_party_2","A1T56P6L5730HG","either","6","318","","","","","","","1","0","0","0.9635376407","","0.4","0.2","0.8","0.6","","","","","0.8317422298","0.4494056808","0.9635376407","0.7638059904","","","","","","","","","","75","K","2","","","134","main_expt","",""
"","bandit","218","611429","0.0-176.0-0.0","59656463","wem/bandit_party_2","A1T56P6L5730HG","either","6","494","","","","","","","1","0","0","0.9304273523","","0.4","0.2","0.8","0.6","","","","","0.8121858422","0.4608562393","0.9304273523","0.7337835984","","","","","","","","","","75","K","2","","","135","main_expt","",""
"","bandit","219","613309","0.0-177.0-0.0","59656463","wem/bandit_party_2","A1T56P6L5730HG","either","6","333","","","","","","","0","1","0","","0.9295592062","0.4","0.2","0.8","0.6","0.8473276522","0.6684020244","0.9295592062","0.7869055623","","","","","","","","","","","","","","75","K","2","","","136","main_expt","",""
"","bandit","220","615195","0.0-178.0-0.0","59656463","wem/bandit_party_2","A1T56P6L5730HG","either","6","345","","","","","","","0","1","0","","0.9343332129","0.4","0.2","0.8","0.6","0.8251243182","0.614137061","0.9343332129","0.8033651193","","","","","","","","","","","","","","75","K","2","","","137","main_expt","",""
"","bandit","221","617142","0.0-179.0-0.0","59656463","wem/bandit_party_2","A1T56P6L5730HG","either","6","404","","","","","","","1","0","0","0.9325781127","","0.4","0.2","0.8","0.6","","","","","0.7892590299","0.711021659","0.9325781127","0.7620089345","","","","","","","","","","75","K","2","","","138","main_expt","",""
"","bandit","222","619008","0.0-180.0-0.0","59656463","wem/bandit_party_2","A1T56P6L5730HG","either","6","327","","","","","","","1","0","0","0.9687763229","","0.4","0.2","0.8","0.6","","","","","0.753698647","0.5731932267","0.9687763229","0.8098853196","","","","","","","","","","75","K","2","","","139","main_expt","",""
"","bandit","223","620877","0.0-181.0-0.0","59656463","wem/bandit_party_2","A1T56P6L5730HG","either","6","333","","","","","","","0","1","0","","0.9520204639","0.4","0.2","0.8","0.6","0.7281837229","0.6553783698","0.9520204639","0.8737133651","","","","","","","","","","","","","","75","K","2","","","140","main_expt","",""
"","bandit","224","622676","0.0-182.0-0.0","59656463","wem/bandit_party_2","A1T56P6L5730HG","either","6","261","","","","","","","0","1","0","","0.9615613541","0.4","0.2","0.8","0.6","0.7913145473","0.5665224918","0.9615613541","0.8464817719","","","","","","","","","","","","","","75","K","2","","","141","main_expt","",""
"","bandit","225","624545","0.0-183.0-0.0","59656463","wem/bandit_party_2","A1T56P6L5730HG","either","6","326","","","","","","","1","0","0","0.9438722422","","0.4","0.2","0.8","0.6","","","","","0.7498898283","0.5230460729","0.9438722422","0.8457688645","","","","","","","","","","75","K","2","","","142","main_expt","",""
"","bandit","226","626394","0.0-184.0-0.0","59656463","wem/bandit_party_2","A1T56P6L5730HG","either","6","308","","","","","","","1","0","0","0.9419241064","","0.4","0.2","0.8","0.6","","","","","0.723110339","0.5401897842","0.9419241064","0.8801682128","","","","","","","","","","75","K","2","","","143","main_expt","",""
"","bandit","227","628194","0.0-185.0-0.0","59656463","wem/bandit_party_2","A1T56P6L5730HG","either","6","265","","","","","","","1","0","0","0.9383966058","","0.4","0.2","0.8","0.6","","","","","0.7697142539","0.5495292383","0.9383966058","0.7806105972","","","","","","","","","","75","K","2","","","144","main_expt","",""
"","bandit","228","630028","0.0-186.0-0.0","59656463","wem/bandit_party_2","A1T56P6L5730HG","either","6","291","","","","","","","0","0","1","0.9442204223","","0.4","0.2","0.8","0.6","","","","","0.8279494337","0.4718854897","0.9442204223","0.7384744451","","","","","","","","","","75","K","2","","","145","main_expt","",""
"","bandit","229","631760","0.0-187.0-0.0","59656463","wem/bandit_party_2","A1T56P6L5730HG","either","6","185","","","","","","","0","1","0","","0.747104877","0.4","0.2","0.8","0.6","0.747104877","0.3790577705","0.9461270134","0.7078417075","","","","","","","","","","","","","","72","H","0","img/none_selected.jpg","","146","main_expt","",""
"","bandit","230","633394","0.0-188.0-0.0","59656463","wem/bandit_party_2","A1T56P6L5730HG","either","6","85","","","","","","","1","0","0","0.7635883185","","0.4","0.2","0.8","0.6","","","","","0.7635883185","0.3671333747","0.9677113618","0.7671729372","","","","","","","","","","72","H","0","img/none_selected.jpg","","147","main_expt","",""
"","bandit","231","635243","0.0-189.0-0.0","59656463","wem/bandit_party_2","A1T56P6L5730HG","either","6","311","","","","","","","1","0","0","0.6650729927","","0.4","0.2","0.8","0.6","","","","","0.6650729927","0.4462771912","0.9603287673","0.7515071201","","","","","","","","","","72","H","0","img/none_selected.jpg","","148","main_expt","",""
"","bandit","232","637093","0.0-190.0-0.0","59656463","wem/bandit_party_2","A1T56P6L5730HG","either","6","302","","","","","","","0","0","1","","0.594527628","0.4","0.2","0.8","0.6","0.594527628","0.3929125452","0.9256305183","0.7582160768","","","","","","","","","","","","","","72","H","0","img/none_selected.jpg","","149","main_expt","",""
"","bandit","233","638924","0.0-191.0-0.0","59656463","wem/bandit_party_2","A1T56P6L5730HG","either","6","281","","","","","","","1","0","0","0.5101412162","","0.4","0.2","0.8","0.6","","","","","0.5101412162","0.3825194633","0.9222609783","0.6843302658","","","","","","","","","","72","H","0","img/none_selected.jpg","","150","main_expt","",""
"","bandit","234","640778","0.0-192.0-0.0","59656463","wem/bandit_party_2","A1T56P6L5730HG","either","6","323","","","","","","","0","1","0","","0.5755011036","0.4","0.2","0.8","0.6","0.5755011036","0.3889652011","0.9522131909","0.4980827124","","","","","","","","","","","","","","72","H","0","img/none_selected.jpg","","151","main_expt","",""
"","bandit","235","642561","0.0-193.0-0.0","59656463","wem/bandit_party_2","A1T56P6L5730HG","either","6","254","","","","","","","1","0","0","0.5415628766","","0.4","0.2","0.8","0.6","","","","","0.5415628766","0.372169082","0.9351777179","0.5418861514","","","","","","","","","","72","H","0","img/none_selected.jpg","","152","main_expt","",""
"","bandit","236","644376","0.0-194.0-0.0","59656463","wem/bandit_party_2","A1T56P6L5730HG","either","6","269","","","","","","","0","0","1","","0.6392888902","0.4","0.2","0.8","0.6","0.6392888902","0.4275919172","0.9526549669","0.6424708626","","","","","","","","","","","","","","72","H","0","img/none_selected.jpg","","153","main_expt","",""
"","bandit","237","646093","0.0-195.0-0.0","59656463","wem/bandit_party_2","A1T56P6L5730HG","either","6","181","","","","","","","0","1","0","","0.6798835142","0.4","0.2","0.8","0.6","0.6798835142","0.3978897223","0.944677936","0.6200403258","","","","","","","","","","","","","","72","H","0","img/none_selected.jpg","","154","main_expt","",""
"","bandit","238","647828","0.0-196.0-0.0","59656463","wem/bandit_party_2","A1T56P6L5730HG","either","6","205","","","","","","","0","1","0","","0.7376683638","0.4","0.2","0.8","0.6","0.7376683638","0.4922143253","0.9443948233","0.5087788092","","","","","","","","","","","","","","72","H","0","img/none_selected.jpg","","155","main_expt","",""
"","bandit","239","649645","0.0-197.0-0.0","59656463","wem/bandit_party_2","A1T56P6L5730HG","either","6","276","","","","","","","0","0","1","","0.7740838489","0.4","0.2","0.8","0.6","0.7740838489","0.5060601407","0.9312029685","0.4397360723","","","","","","","","","","","","","","72","H","0","img/none_selected.jpg","","156","main_expt","",""
"","bandit","240","651460","0.0-198.0-0.0","59656463","wem/bandit_party_2","A1T56P6L5730HG","either","6","283","","","","","","","0","1","0","","0.7526352547","0.4","0.2","0.8","0.6","0.7526352547","0.56460533","0.9009413449","0.4529934193","","","","","","","","","","","","","","72","H","0","img/none_selected.jpg","","157","main_expt","",""
"","bandit","241","653279","0.0-199.0-0.0","59656463","wem/bandit_party_2","A1T56P6L5730HG","either","6","281","","","","","","","1","0","0","0.807066173","","0.4","0.2","0.8","0.6","","","","","0.807066173","0.5551408743","0.8799225656","0.522014142","","","","","","","","","","72","H","0","img/none_selected.jpg","","158","main_expt","",""
"","bandit","242","656110","0.0-200.0-0.0","59656463","wem/bandit_party_2","A1T56P6L5730HG","either","6","1291","","","","","","","0","1","0","","0.8348587906","0.4","0.2","0.8","0.6","0.8348587906","0.6362487126","0.9103166083","0.447178695","","","","","","","","","","","","","","72","H","0","img/none_selected.jpg","","159","main_expt","",""
"","bandit","243","657910","0.0-201.0-0.0","59656463","wem/bandit_party_2","A1T56P6L5730HG","either","6","254","","","","","","","0","1","0","","0.8054329593","0.4","0.2","0.8","0.6","0.8054329593","0.5818198138","0.9575168601","0.4293784973","","","","","","","","","","","","","","72","H","0","img/none_selected.jpg","","160","main_expt","",""
"","bandit","244","659758","0.0-202.0-0.0","59656463","wem/bandit_party_2","A1T56P6L5730HG","either","6","294","","","","","","","1","0","0","0.8263011938","","0.4","0.2","0.8","0.6","","","","","0.8263011938","0.5079421761","0.9323430526","0.4263694152","","","","","","","","","","72","H","0","img/none_selected.jpg","","161","main_expt","",""
"","bandit","245","662477","0.0-203.0-0.0","59656463","wem/bandit_party_2","A1T56P6L5730HG","either","6","1177","","","","","","","0","0","1","0.8468561623","","0.4","0.2","0.8","0.6","","","","","0.8468561623","0.3944353318","0.8731035433","0.4394756583","","","","","","","","","","72","H","0","img/none_selected.jpg","","162","main_expt","",""
"","bandit","246","664343","0.0-204.0-0.0","59656463","wem/bandit_party_2","A1T56P6L5730HG","either","6","329","","","","","","","0","1","0","","0.866861138","0.4","0.2","0.8","0.6","0.866861138","0.4560534757","0.860239847","0.4632532181","","","","","","","","","","","","","","72","H","0","img/none_selected.jpg","","163","main_expt","",""
"","bandit","247","666161","0.0-205.0-0.0","59656463","wem/bandit_party_2","A1T56P6L5730HG","either","6","274","","","","","","","1","0","0","0.8621839131","","0.4","0.2","0.8","0.6","","","","","0.8621839131","0.4338988853","0.8327160304","0.469091439","","","","","","","","","","72","H","0","img/none_selected.jpg","","164","main_expt","",""
"","bandit","248","667993","0.0-206.0-0.0","59656463","wem/bandit_party_2","A1T56P6L5730HG","either","6","292","","","","","","","1","0","0","0.8368369455","","0.4","0.2","0.8","0.6","","","","","0.8368369455","0.3640020004","0.8780399083","0.4691854483","","","","","","","","","","72","H","0","img/none_selected.jpg","","165","main_expt","",""
"","bandit","249","669827","0.0-207.0-0.0","59656463","wem/bandit_party_2","A1T56P6L5730HG","either","6","297","","","","","","","0","1","0","","0.8543831227","0.4","0.2","0.8","0.6","0.8543831227","0.4433911144","0.8659509199","0.424594696","","","","","","","","","","","","","","72","H","0","img/none_selected.jpg","","166","main_expt","",""
"","bandit","250","671643","0.0-208.0-0.0","59656463","wem/bandit_party_2","A1T56P6L5730HG","either","6","273","","","","","","","1","0","0","0.8444257961","","0.4","0.2","0.8","0.6","","","","","0.8444257961","0.4852122499","0.8458676595","0.4691217736","","","","","","","","","","72","H","0","img/none_selected.jpg","","167","main_expt","",""
"","bandit","251","673427","0.0-209.0-0.0","59656463","wem/bandit_party_2","A1T56P6L5730HG","either","6","250","","","","","","","0","1","0","","0.8895061166","0.4","0.2","0.8","0.6","0.8895061166","0.4829488348","0.7368025647","0.4605946041","","","","","","","","","","","","","","72","H","0","img/none_selected.jpg","","168","main_expt","",""
"","bandit","252","675279","0.0-210.0-0.0","59656463","wem/bandit_party_2","A1T56P6L5730HG","either","6","303","","","","","","","1","0","0","0.8980662015","","0.4","0.2","0.8","0.6","","","","","0.8980662015","0.467087579","0.6811301937","0.4302520818","","","","","","","","","","72","H","0","img/none_selected.jpg","","169","main_expt","",""
"","bandit","253","677044","0.0-211.0-0.0","59656463","wem/bandit_party_2","A1T56P6L5730HG","either","6","230","","","","","","","1","0","0","0.9399190154","","0.4","0.2","0.8","0.6","","","","","0.9399190154","0.3575164989","0.6781719117","0.3846086554","","","","","","","","","","72","H","0","img/none_selected.jpg","","170","main_expt","",""
"","bandit","254","678760","0.0-212.0-0.0","59656463","wem/bandit_party_2","A1T56P6L5730HG","either","6","169","","","","","","","0","1","0","","0.9199626721","0.4","0.2","0.8","0.6","0.9199626721","0.3433755155","0.5779776893","0.4938912128","","","","","","","","","","","","","","72","H","0","img/none_selected.jpg","","171","main_expt","",""
"","bandit","255","680564","0.0-213.0-0.0","59656463","wem/bandit_party_2","A1T56P6L5730HG","either","6","255","","","","","","","1","0","0","0.8885959212","","0.4","0.2","0.8","0.6","","","","","0.8885959212","0.2921203137","0.5461867433","0.5409242696","","","","","","","","","","72","H","0","img/none_selected.jpg","","172","main_expt","",""
"","bandit","256","682411","0.0-214.0-0.0","59656463","wem/bandit_party_2","A1T56P6L5730HG","either","6","296","","","","","","","0","1","0","","0.8502068985","0.4","0.2","0.8","0.6","0.8502068985","0.3237382503","0.5898781272","0.4899310385","","","","","","","","","","","","","","72","H","0","img/none_selected.jpg","","173","main_expt","",""
"","bandit","257","684077","0.0-215.0-0.0","59656463","wem/bandit_party_2","A1T56P6L5730HG","either","6","125","","","","","","","1","0","0","0.9054067092","","0.4","0.2","0.8","0.6","","","","","0.9054067092","0.2935635685","0.5990225055","0.4464532747","","","","","","","","","","72","H","0","img/none_selected.jpg","","174","main_expt","",""
"","bandit","258","685866","0.0-216.0-0.0","59656463","wem/bandit_party_2","A1T56P6L5730HG","either","6","246","","","","","","","0","0","1","","0.9096893241","0.4","0.2","0.8","0.6","0.9096893241","0.2797951809","0.6129624105","0.4363040476","","","","","","","","","","","","","","72","H","0","img/none_selected.jpg","","175","main_expt","",""
"","bandit","259","687660","0.0-217.0-0.0","59656463","wem/bandit_party_2","A1T56P6L5730HG","either","6","255","","","","","","","1","0","0","0.9081003197","","0.4","0.2","0.8","0.6","","","","","0.9081003197","0.2067270565","0.5434192492","0.4198776974","","","","","","","","","","72","H","0","img/none_selected.jpg","","176","main_expt","",""
"","bandit","260","689575","0.0-218.0-0.0","59656463","wem/bandit_party_2","A1T56P6L5730HG","either","6","353","","","","","","","0","1","0","","0.8417535431","0.4","0.2","0.8","0.6","0.8417535431","0.19266164","0.5893108522","0.4001478854","","","","","","","","","","","","","","72","H","0","img/none_selected.jpg","","177","main_expt","",""
"","bandit","261","691293","0.0-219.0-0.0","59656463","wem/bandit_party_2","A1T56P6L5730HG","either","6","185","","","","","","","0","1","0","","0.8045518304","0.4","0.2","0.8","0.6","0.8045518304","0.1393448617","0.4862463398","0.3015477047","","","","","","","","","","","","","","72","H","0","img/none_selected.jpg","","178","main_expt","",""
"","bandit","262","693295","0.0-220.0-0.0","59656463","wem/bandit_party_2","A1T56P6L5730HG","either","6","465","","","","","","","0","0","1","0.8250115846","","0.4","0.2","0.8","0.6","","","","","0.8250115846","0.1149816072","0.4227787996","0.2700131006","","","","","","","","","","72","H","0","img/none_selected.jpg","","179","main_expt","",""
"","bandit","263","695647","0.0-221.0-0.0","59656463","wem/bandit_party_2","A1T56P6L5730HG","either","6","800","","","","","","","0","0","1","0.7418096358","","0.4","0.2","0.8","0.6","","","","","0.7418096358","0.1231561222","0.3583368423","0.3473069","","","","","","","","","","72","H","0","img/none_selected.jpg","","180","main_expt","",""
"","bandit","264","698312","0.0-222.0-0.0","59656463","wem/bandit_party_2","A1T56P6L5730HG","either","6","1112","","","","","","","1","0","0","0.3820052134","","0.4","0.2","0.8","0.6","","","","","0.7180260456","0.1134989143","0.3820052134","0.3478804011","","","","","","","","","","75","K","2","","","181","main_expt","",""
"","bandit","265","700177","0.0-223.0-0.0","59656463","wem/bandit_party_2","A1T56P6L5730HG","either","6","320","","","","","","","1","0","0","0.437769555","","0.4","0.2","0.8","0.6","","","","","0.6777378447","0.07317944644","0.437769555","0.3304981007","","","","","","","","","","75","K","2","","","182","main_expt","",""
"","bandit","266","701927","0.0-224.0-0.0","59656463","wem/bandit_party_2","A1T56P6L5730HG","either","6","198","","","","","","","0","0","1","0.3951330089","","0.4","0.2","0.8","0.6","","","","","0.6331465848","0.05085611098","0.3951330089","0.2578466268","","","","","","","","","","75","K","2","","","183","main_expt","",""
"","bandit","267","703692","0.0-225.0-0.0","59656463","wem/bandit_party_2","A1T56P6L5730HG","either","6","230","","","","","","","1","0","0","0.4062376343","","0.4","0.2","0.8","0.6","","","","","0.6578519513","0.07152820202","0.4062376343","0.3550464129","","","","","","","","","","75","K","2","","","184","main_expt","",""
"","bandit","268","705376","0.0-226.0-0.0","59656463","wem/bandit_party_2","A1T56P6L5730HG","either","6","132","","","","","","","0","0","1","0.4035727276","","0.4","0.2","0.8","0.6","","","","","0.7160298793","0.08814522307","0.4035727276","0.2993299556","","","","","","","","","","75","K","2","","","185","main_expt","",""
"","bandit","269","707077","0.0-227.0-0.0","59656463","wem/bandit_party_2","A1T56P6L5730HG","either","6","162","","","","","","","1","0","0","0.4595565904","","0.4","0.2","0.8","0.6","","","","","0.7081703269","0.0931487442","0.4595565904","0.3985972224","","","","","","","","","","75","K","2","","","186","main_expt","",""
"","bandit","270","708810","0.0-228.0-0.0","59656463","wem/bandit_party_2","A1T56P6L5730HG","either","6","197","","","","","","","1","0","0","0.4956959756","","0.4","0.2","0.8","0.6","","","","","0.7670757258","0.05847154344","0.4956959756","0.4563810555","","","","","","","","","","75","K","2","","","187","main_expt","",""
"","bandit","271","710679","0.0-229.0-0.0","59656463","wem/bandit_party_2","A1T56P6L5730HG","either","6","325","","","","","","","0","0","1","0.4295585103","","0.4","0.2","0.8","0.6","","","","","0.7986884496","0.05005107021","0.4295585103","0.4621092719","","","","","","","","","","75","K","2","","","188","main_expt","",""
"","bandit","272","712494","0.0-230.0-0.0","59656463","wem/bandit_party_2","A1T56P6L5730HG","either","6","272","","","","","","","1","0","0","0.4121259827","","0.4","0.2","0.8","0.6","","","","","0.8113194514","0.05158958255","0.4121259827","0.4214675273","","","","","","","","","","75","K","2","","","189","main_expt","",""
"","bandit","273","714159","0.0-231.0-0.0","59656463","wem/bandit_party_2","A1T56P6L5730HG","either","6","124","","","","","","","0","0","1","","0.40505342","0.4","0.2","0.8","0.6","0.8311477635","0.0530996007","0.40505342","0.4445162903","","","","","","","","","","","","","","75","K","2","","","190","main_expt","",""
"","bandit","274","716045","0.0-232.0-0.0","59656463","wem/bandit_party_2","A1T56P6L5730HG","either","6","343","","","","","","","0","0","1","0.3671493273","","0.4","0.2","0.8","0.6","","","","","0.7941336253","0.05342003941","0.3671493273","0.4077799102","","","","","","","","","","75","K","2","","","191","main_expt","",""
"","bandit","275","717610","0.0-233.0-0.0","59656463","wem/bandit_party_2","A1T56P6L5730HG","either","6","27","","","","","","","0","0","1","0.3367263454","","0.4","0.2","0.8","0.6","","","","","0.841847859","0.05264216412","0.3367263454","0.413117206","","","","","","","","","","75","K","2","","","192","main_expt","",""
"","bandit","276","719393","0.0-234.0-0.0","59656463","wem/bandit_party_2","A1T56P6L5730HG","either","6","233","","","","","","","0","1","0","","0.2587514209","0.4","0.2","0.8","0.6","0.865127625","0.07418965368","0.2587514209","0.374663265","","","","","","","","","","","","","","75","K","2","","","193","main_expt","",""
"","bandit","277","721177","0.0-235.0-0.0","59656463","wem/bandit_party_2","A1T56P6L5730HG","either","6","239","","","","","","","0","0","1","0.2123696513","","0.4","0.2","0.8","0.6","","","","","0.8369883383","0.1148515542","0.2123696513","0.2792309937","","","","","","","","","","75","K","2","","","194","main_expt","",""
"","bandit","278","722927","0.0-236.0-0.0","59656463","wem/bandit_party_2","A1T56P6L5730HG","either","6","200","","","","","","","0","0","1","","0.3090424304","0.4","0.2","0.8","0.6","0.8226177272","0.1102075851","0.2551117677","0.3090424304","","","","","","","","","","","","","","76","L","3","","","195","main_expt","",""
"","bandit","279","724775","0.0-237.0-0.0","59656463","wem/bandit_party_2","A1T56P6L5730HG","either","6","308","","","","","","","0","0","1","0.09307195637","","0.4","0.2","0.8","0.6","","","","","0.8759919892","0.09307195637","0.2948177706","0.2254203465","","","","","","","","","","74","J","1","","","196","main_expt","",""
"","bandit","280","727376","0.0-238.0-0.0","59656463","wem/bandit_party_2","A1T56P6L5730HG","either","6","1055","","","","","","","0","1","0","","0.9413038234","0.4","0.2","0.8","0.6","0.9413038234","0.08341332984","0.2864074111","0.2104085952","","","","","","","","","","","","","","72","H","0","img/none_selected.jpg","","197","main_expt","",""
"","bandit","281","728926","0.0-239.0-0.0","59656463","wem/bandit_party_2","A1T56P6L5730HG","either","6","8","","","","","","","1","0","0","0.9384937307","","0.4","0.2","0.8","0.6","","","","","0.9384937307","0.06206278739","0.3044962429","0.1686499416","","","","","","","","","","72","H","0","img/none_selected.jpg","","198","main_expt","",""
"","bandit","282","730676","0.0-240.0-0.0","59656463","wem/bandit_party_2","A1T56P6L5730HG","either","6","205","","","","","","","1","0","0","0.927250614","","0.4","0.2","0.8","0.6","","","","","0.927250614","0.1015706687","0.2804127106","0.1696058054","","","","","","","","","","72","H","0","img/none_selected.jpg","","199","main_expt","",""
"","bandit","283","732475","0.0-241.0-0.0","59656463","wem/bandit_party_2","A1T56P6L5730HG","either","6","266","","","","","","","1","0","0","0.8840406778","","0.4","0.2","0.8","0.6","","","","","0.8840406778","0.07348353789","0.3151112274","0.1940139532","","","","","","","","","","72","H","0","img/none_selected.jpg","","200","main_expt","",""
"","bandit","284","734491","0.0-242.0-0.0","59656463","wem/bandit_party_2","A1T56P6L5730HG","either","6","457","","","","","","","1","0","0","0.8866639954","","0.4","0.2","0.8","0.6","","","","","0.8866639954","0.09218994405","0.3124471347","0.2384341862","","","","","","","","","","72","H","0","img/none_selected.jpg","","201","main_expt","",""
"","bandit","285","736311","0.0-243.0-0.0","59656463","wem/bandit_party_2","A1T56P6L5730HG","either","6","272","","","","","","","1","0","0","0.8188103646","","0.4","0.2","0.8","0.6","","","","","0.8188103646","0.1662378481","0.3418115628","0.2069173963","","","","","","","","","","72","H","0","img/none_selected.jpg","","202","main_expt","",""
"","bandit","286","738176","0.0-244.0-0.0","59656463","wem/bandit_party_2","A1T56P6L5730HG","either","6","318","","","","","","","1","0","0","0.8026106274","","0.4","0.2","0.8","0.6","","","","","0.8026106274","0.1808123801","0.2676578736","0.2502389624","","","","","","","","","","72","H","0","img/none_selected.jpg","","203","main_expt","",""
"","bandit","287","740209","0.0-245.0-0.0","59656463","wem/bandit_party_2","A1T56P6L5730HG","either","6","478","","","","","","","0","0","1","0.6613987003","","0.4","0.2","0.8","0.6","","","","","0.6613987003","0.2011980288","0.2513587973","0.2226806","","","","","","","","","","72","H","0","img/none_selected.jpg","","204","main_expt","",""
"","bandit","288","741942","0.0-246.0-0.0","59656463","wem/bandit_party_2","A1T56P6L5730HG","either","6","188","","","","","","","0","1","0","","0.7402115251","0.4","0.2","0.8","0.6","0.7402115251","0.1877492959","0.2733703365","0.2327973494","","","","","","","","","","","","","","72","H","0","img/none_selected.jpg","","205","main_expt","",""
"","bandit","289","743710","0.0-247.0-0.0","59656463","wem/bandit_party_2","A1T56P6L5730HG","either","6","215","","","","","","","1","0","0","0.6792505986","","0.4","0.2","0.8","0.6","","","","","0.6792505986","0.1891298069","0.3212331514","0.3134624789","","","","","","","","","","72","H","0","img/none_selected.jpg","","206","main_expt","",""
"","bandit","290","745691","0.0-248.0-0.0","59656463","wem/bandit_party_2","A1T56P6L5730HG","either","6","428","","","","","","","0","1","0","","0.6510378203","0.4","0.2","0.8","0.6","0.6510378203","0.2092890992","0.3381772831","0.3808856429","","","","","","","","","","","","","","72","H","0","img/none_selected.jpg","","207","main_expt","",""
"","bandit","291","747576","0.0-249.0-0.0","59656463","wem/bandit_party_2","A1T56P6L5730HG","either","6","348","","","","","","","0","0","1","","0.5971377862","0.4","0.2","0.8","0.6","0.5971377862","0.2563161799","0.2370260631","0.318509643","","","","","","","","","","","","","","72","H","0","img/none_selected.jpg","","208","main_expt","",""
"","bandit","292","749459","0.0-250.0-0.0","59656463","wem/bandit_party_2","A1T56P6L5730HG","either","6","345","","","","","","","0","0","1","0.6040603887","","0.4","0.2","0.8","0.6","","","","","0.6040603887","0.2643940457","0.2157004535","0.2932847295","","","","","","","","","","72","H","0","img/none_selected.jpg","","209","main_expt","",""
"","bandit","293","751460","0.0-251.0-0.0","59656463","wem/bandit_party_2","A1T56P6L5730HG","either","6","463","","","","","","","0","1","0","","0.7794442159","0.4","0.2","0.8","0.6","0.7794442159","0.2710870001","0.2655169153","0.2230023122","","","","","","","","","","","","","","72","H","0","img/none_selected.jpg","","210","main_expt","",""
"","bandit","294","753362","0.0-252.0-0.0","59656463","wem/bandit_party_2","A1T56P6L5730HG","either","6","353","","","","","","","0","0","1","","0.8397026392","0.4","0.2","0.8","0.6","0.8397026392","0.2056380183","0.2359505063","0.1899351836","","","","","","","","","","","","","","72","H","0","img/none_selected.jpg","","211","main_expt","",""
"","bandit","295","755243","0.0-253.0-0.0","59656463","wem/bandit_party_2","A1T56P6L5730HG","either","6","337","","","","","","","0","1","0","","0.7883870126","0.4","0.2","0.8","0.6","0.7883870126","0.2487045614","0.2431981852","0.2593929449","","","","","","","","","","","","","","72","H","0","img/none_selected.jpg","","212","main_expt","",""
"","bandit","296","757277","0.0-254.0-0.0","59656463","wem/bandit_party_2","A1T56P6L5730HG","either","6","489","","","","","","","0","1","0","","0.7160446845","0.4","0.2","0.8","0.6","0.7160446845","0.3520378668","0.3385658967","0.2304425673","","","","","","","","","","","","","","72","H","0","img/none_selected.jpg","","213","main_expt","",""
"","bandit","297","759441","0.0-255.0-0.0","59656463","wem/bandit_party_2","A1T56P6L5730HG","either","6","610","","","","","","","1","0","0","0.7501162241","","0.4","0.2","0.8","0.6","","","","","0.7501162241","0.3455661114","0.445002088","0.2849244028","","","","","","","","","","72","H","0","img/none_selected.jpg","","214","main_expt","",""
"","bandit","298","761260","0.0-256.0-0.0","59656463","wem/bandit_party_2","A1T56P6L5730HG","either","6","282","","","","","","","0","0","1","","0.7574589115","0.4","0.2","0.8","0.6","0.7574589115","0.3290646698","0.4340580748","0.3184819088","","","","","","","","","","","","","","72","H","0","img/none_selected.jpg","","215","main_expt","",""
"","bandit","299","763160","0.0-257.0-0.0","59656463","wem/bandit_party_2","A1T56P6L5730HG","either","6","350","","","","","","","1","0","0","0.7376674805","","0.4","0.2","0.8","0.6","","","","","0.7376674805","0.2737258078","0.3996931216","0.2989728513","","","","","","","","","","72","H","0","img/none_selected.jpg","","216","main_expt","",""
"","bandit","300","765078","0.0-258.0-0.0","59656463","wem/bandit_party_2","A1T56P6L5730HG","either","6","378","","","","","","","1","0","0","0.67262171","","0.4","0.2","0.8","0.6","","","","","0.67262171","0.2401291484","0.453570069","0.5538830624","","","","","","","","","","72","H","0","img/none_selected.jpg","","217","main_expt","",""
"","bandit","301","767044","0.0-259.0-0.0","59656463","wem/bandit_party_2","A1T56P6L5730HG","either","6","418","","","","","","","0","0","1","0.6309662891","","0.4","0.2","0.8","0.6","","","","","0.6309662891","0.2395298113","0.3566620654","0.5331458927","","","","","","","","","","72","H","0","img/none_selected.jpg","","218","main_expt","",""
"","bandit","302","768943","0.0-260.0-0.0","59656463","wem/bandit_party_2","A1T56P6L5730HG","either","6","348","","","","","","","0","0","1","","0.610488243","0.4","0.2","0.8","0.6","0.610488243","0.2333127667","0.3114207129","0.409279481","","","","","","","","","","","","","","72","H","0","img/none_selected.jpg","","219","main_expt","",""
"","bandit","303","770894","0.0-261.0-0.0","59656463","wem/bandit_party_2","A1T56P6L5730HG","either","6","410","","","","","","","0","0","1","0.6741838821","","0.4","0.2","0.8","0.6","","","","","0.6741838821","0.2097963002","0.348491043","0.3910907299","","","","","","","","","","72","H","0","img/none_selected.jpg","","220","main_expt","",""
"","bandit","304","772828","0.0-262.0-0.0","59656463","wem/bandit_party_2","A1T56P6L5730HG","either","6","392","","","","","","","1","0","0","0.6938787555","","0.4","0.2","0.8","0.6","","","","","0.6938787555","0.1761429423","0.325682353","0.37386253","","","","","","","","","","72","H","0","img/none_selected.jpg","","221","main_expt","",""
"","bandit","305","774726","0.0-263.0-0.0","59656463","wem/bandit_party_2","A1T56P6L5730HG","either","6","362","","","","","","","1","0","0","0.622086605","","0.4","0.2","0.8","0.6","","","","","0.622086605","0.1770547834","0.3582518194","0.5460784034","","","","","","","","","","72","H","0","img/none_selected.jpg","","222","main_expt","",""
"","bandit","306","776693","0.0-264.0-0.0","59656463","wem/bandit_party_2","A1T56P6L5730HG","either","6","419","","","","","","","0","0","1","","0.6190419158","0.4","0.2","0.8","0.6","0.6190419158","0.1494166006","0.3596631187","0.5484594206","","","","","","","","","","","","","","72","H","0","img/none_selected.jpg","","223","main_expt","",""
"","bandit","307","778610","0.0-265.0-0.0","59656463","wem/bandit_party_2","A1T56P6L5730HG","either","6","363","","","","","","","1","0","0","0.6525227655","","0.4","0.2","0.8","0.6","","","","","0.6525227655","0.1444184755","0.4757784632","0.5156266917","","","","","","","","","","72","H","0","img/none_selected.jpg","","224","main_expt","",""
"","bandit","308","780644","0.0-266.0-0.0","59656463","wem/bandit_party_2","A1T56P6L5730HG","either","6","497","","","","","","","0","1","0","","0.5739960468","0.4","0.2","0.8","0.6","0.5739960468","0.2381889698","0.5384710229","0.5120039273","","","","","","","","","","","","","","72","H","0","img/none_selected.jpg","","225","main_expt","",""
"","bandit","309","782677","0.0-267.0-0.0","59656463","wem/bandit_party_2","A1T56P6L5730HG","either","6","493","","","","","","","0","1","0","","0.6038380469","0.4","0.2","0.8","0.6","0.6038380469","0.1429230379","0.5308581489","0.5568413113","","","","","","","","","","","","","","72","H","0","img/none_selected.jpg","","226","main_expt","",""
