"consent","trial_type","trial_index","time_elapsed","internal_node_id","subjID","study","MID","cond","drift","rt","responses","button_pressed","key_press","like","value","connected","gems","bombs","no_reward","GemPrChosen","BombPrChosen","GainOverPainPr_0","GainOverPainPr_1","GainOverPainPr_2","GainOverPainPr_3","LosePr_0","LosePr_1","LosePr_2","LosePr_3","WinPr_0","WinPr_1","WinPr_2","WinPr_3","Q0","Q1","Q2","gender","age","ethnicity","label","expt_phase","target","respCharCode","respKey","respChoiceNum","respChoice","practice","trial_counter","trial_label","Q0_index"
"GDM/GDM_behavioral_consent_30min_online.html","consent","0","34451","0.0-0.0","59838605","wem/bandit_party_2","A1RW6RIF1MT2YT","either","1","","","","","","","","","","","","","","","","","","","","","","","","","","","","","","","","","","","","","","","","",""
"","survey-text","1","63035","0.0-1.0","59838605","wem/bandit_party_2","A1RW6RIF1MT2YT","either","1","27559","{""Q0"":""A1RW6RIF1MT2YT""}","","","","","","","","","","","","","","","","","","","","","","","","","","","","","","","","","","","","","","",""
"","button-response","2","76225","0.0-2.0","59838605","wem/bandit_party_2","A1RW6RIF1MT2YT","either","1","12174","","1","","","","","","","","","","","","","","","","","","","","","","","","","","","","","","","","","","","","","",""
"","text-replacement","3","100826","0.0-3.0","59838605","wem/bandit_party_2","A1RW6RIF1MT2YT","either","1","23595","","","32","","","","","","","","","","","","","","","","","","","","","","","","","","","","","","","","","","","","",""
"","text-replacement","4","116551","0.0-4.0","59838605","wem/bandit_party_2","A1RW6RIF1MT2YT","either","1","15721","","","32","","","","","","","","","","","","","","","","","","","","","","","","","","","","","","","","","","","","",""
"","identification","5","130175","0.0-6.0-0.0","59838605","wem/bandit_party_2","A1RW6RIF1MT2YT","either","1","13573","","","","1","1","1","","","","","","","","","","","","","","","","","","","","","","","","pre","identification_pre","the Republican Party","","","","","","","",""
"","identification","6","139089","0.0-6.0-1.0","59838605","wem/bandit_party_2","A1RW6RIF1MT2YT","either","1","7849","","","","6","6","6","","","","","","","","","","","","","","","","","","","","","","","","pre","identification_pre","the Democratic Party","","","","","","","",""
"","text-replacement","7","212327","0.0-7.0","59838605","wem/bandit_party_2","A1RW6RIF1MT2YT","either","1","72232","","","32","","","","","","","","","","","","","","","","","","","","","","","","","","","","","","","","","","","","",""
"","text-replacement","8","233676","0.0-8.0","59838605","wem/bandit_party_2","A1RW6RIF1MT2YT","either","1","21346","","","32","","","","","","","","","","","","","","","","","","","","","","","","","","","","","","","","","","","","",""
"","text-replacement","9","243202","0.0-9.0","59838605","wem/bandit_party_2","A1RW6RIF1MT2YT","either","1","9523","","","32","","","","","","","","","","","","","","","","","","","","","","","","","","","","","","","","","","","","",""
"","text-replacement","10","252106","0.0-10.0","59838605","wem/bandit_party_2","A1RW6RIF1MT2YT","either","1","8900","","","32","","","","","","","","","","","","","","","","","","","","","","","","","","","","","","","","","","","","",""
"","text-replacement","11","256118","0.0-11.0","59838605","wem/bandit_party_2","A1RW6RIF1MT2YT","either","1","4009","","","32","","","","","","","","","","","","","","","","","","","","","","","","","","","","","","","","","","","","",""
"","bandit","12","262639","0.0-12.0-0.0","59838605","wem/bandit_party_2","A1RW6RIF1MT2YT","either","1","5001","","","","","","","0","0","1","0","0","","","","","0","","","","0","","","","","","","","","","","","","74","J","0","img/none_selected_demo.jpg","true","0","",""
"","bandit","13","266212","0.0-13.0-0.0","59838605","wem/bandit_party_2","A1RW6RIF1MT2YT","either","1","2057","","","","","","","0","0","1","0","0","","","","","0","","","","0","","","","","","","","","","","","","75","K","0","img/none_selected_demo.jpg","true","0","",""
"","text-replacement","14","327418","0.0-14.0","59838605","wem/bandit_party_2","A1RW6RIF1MT2YT","either","1","61203","","","32","","","","","","","","","","","","","","","","","","","","","","","","","","","","","","","","","","","","",""
"","text-replacement","15","358712","0.0-15.0","59838605","wem/bandit_party_2","A1RW6RIF1MT2YT","either","1","31291","","","32","","","","","","","","","","","","","","","","","","","","","","","","","","","","","","","","","","","","",""
"","text-replacement","16","402207","0.0-16.0","59838605","wem/bandit_party_2","A1RW6RIF1MT2YT","either","1","43492","","","32","","","","","","","","","","","","","","","","","","","","","","","","","","","","","","","","","","","","",""
"","text-replacement","17","409349","0.0-17.0","59838605","wem/bandit_party_2","A1RW6RIF1MT2YT","either","1","7139","","","32","","","","","","","","","","","","","","","","","","","","","","","","","","","","","","","","","","","","",""
"","bandit","18","414499","0.0-18.0-0.0","59838605","wem/bandit_party_2","A1RW6RIF1MT2YT","either","1","3621","","","","","","","0","0","1","0.2","","0.5","0.5","","","","","","","0.8","0.2","","","","","","","","","","","","75","K","1","","true","0","80_20_practice",""
"","bandit","19","420006","0.0-18.0-1.0","59838605","wem/bandit_party_2","A1RW6RIF1MT2YT","either","1","3990","","","","","","","0","0","1","0.2","","0.5","0.5","","","","","","","0.8","0.2","","","","","","","","","","","","75","K","1","","true","0","80_20_practice",""
"","bandit","20","422728","0.0-18.0-2.0","59838605","wem/bandit_party_2","A1RW6RIF1MT2YT","either","1","1207","","","","","","","1","0","0","0.2","","0.5","0.5","","","","","","","0.8","0.2","","","","","","","","","","","","75","K","1","","true","0","80_20_practice",""
"","bandit","21","426174","0.0-18.0-3.0","59838605","wem/bandit_party_2","A1RW6RIF1MT2YT","either","1","1931","","","","","","","0","0","1","0.8","","0.5","0.5","","","","","","","0.8","0.2","","","","","","","","","","","","74","J","0","img/none_selected_demo.jpg","true","0","80_20_practice",""
"","bandit","22","436355","0.0-18.0-4.0","59838605","wem/bandit_party_2","A1RW6RIF1MT2YT","either","1","8666","","","","","","","0","0","1","","0.2","0.5","0.5","","","0.8","0.2","","","","","","","","","","","","","","","","75","K","1","","true","0","80_20_practice",""
"","bandit","23","450215","0.0-18.0-5.0","59838605","wem/bandit_party_2","A1RW6RIF1MT2YT","either","1","12346","","","","","","","1","0","0","0.2","","0.5","0.5","","","","","","","0.8","0.2","","","","","","","","","","","","75","K","1","","true","0","80_20_practice",""
"","bandit","24","460148","0.0-18.0-6.0","59838605","wem/bandit_party_2","A1RW6RIF1MT2YT","either","1","8419","","","","","","","0","1","0","","0.8","0.5","0.5","","","0.8","0.2","","","","","","","","","","","","","","","","74","J","0","img/none_selected_demo.jpg","true","0","80_20_practice",""
"","bandit","25","465799","0.0-18.0-7.0","59838605","wem/bandit_party_2","A1RW6RIF1MT2YT","either","1","4129","","","","","","","0","1","0","","0.8","0.5","0.5","","","0.8","0.2","","","","","","","","","","","","","","","","74","J","0","img/none_selected_demo.jpg","true","0","80_20_practice",""
"","bandit","26","472371","0.0-18.0-8.0","59838605","wem/bandit_party_2","A1RW6RIF1MT2YT","either","1","5053","","","","","","","0","1","0","","0.8","0.5","0.5","","","0.8","0.2","","","","","","","","","","","","","","","","74","J","0","img/none_selected_demo.jpg","true","0","80_20_practice",""
"","bandit","27","476159","0.0-18.0-9.0","59838605","wem/bandit_party_2","A1RW6RIF1MT2YT","either","1","2275","","","","","","","0","0","1","0.8","","0.5","0.5","","","","","","","0.8","0.2","","","","","","","","","","","","74","J","0","img/none_selected_demo.jpg","true","0","80_20_practice",""
"","bandit","28","478878","0.0-18.0-10.0","59838605","wem/bandit_party_2","A1RW6RIF1MT2YT","either","1","1205","","","","","","","1","0","0","0.8","","0.5","0.5","","","","","","","0.8","0.2","","","","","","","","","","","","74","J","0","img/none_selected_demo.jpg","true","0","80_20_practice",""
"","bandit","29","481676","0.0-18.0-11.0","59838605","wem/bandit_party_2","A1RW6RIF1MT2YT","either","1","1283","","","","","","","1","0","0","0.8","","0.5","0.5","","","","","","","0.8","0.2","","","","","","","","","","","","74","J","0","img/none_selected_demo.jpg","true","0","80_20_practice",""
"","bandit","30","484267","0.0-18.0-12.0","59838605","wem/bandit_party_2","A1RW6RIF1MT2YT","either","1","1077","","","","","","","1","0","0","0.8","","0.5","0.5","","","","","","","0.8","0.2","","","","","","","","","","","","74","J","0","img/none_selected_demo.jpg","true","0","80_20_practice",""
"","bandit","31","486680","0.0-18.0-13.0","59838605","wem/bandit_party_2","A1RW6RIF1MT2YT","either","1","900","","","","","","","0","0","1","","0.8","0.5","0.5","","","0.8","0.2","","","","","","","","","","","","","","","","74","J","0","img/none_selected_demo.jpg","true","0","80_20_practice",""
"","bandit","32","489206","0.0-18.0-14.0","59838605","wem/bandit_party_2","A1RW6RIF1MT2YT","either","1","1009","","","","","","","0","0","1","0.8","","0.5","0.5","","","","","","","0.8","0.2","","","","","","","","","","","","74","J","0","img/none_selected_demo.jpg","true","0","80_20_practice",""
"","bandit","33","492800","0.0-18.0-15.0","59838605","wem/bandit_party_2","A1RW6RIF1MT2YT","either","1","2078","","","","","","","0","1","0","","0.8","0.5","0.5","","","0.8","0.2","","","","","","","","","","","","","","","","74","J","0","img/none_selected_demo.jpg","true","0","80_20_practice",""
"","bandit","34","495922","0.0-18.0-16.0","59838605","wem/bandit_party_2","A1RW6RIF1MT2YT","either","1","1607","","","","","","","0","0","1","","0.2","0.5","0.5","","","0.8","0.2","","","","","","","","","","","","","","","","75","K","1","","true","0","80_20_practice",""
"","bandit","35","499655","0.0-18.0-17.0","59838605","wem/bandit_party_2","A1RW6RIF1MT2YT","either","1","2220","","","","","","","0","0","1","","0.8","0.5","0.5","","","0.8","0.2","","","","","","","","","","","","","","","","74","J","0","img/none_selected_demo.jpg","true","0","80_20_practice",""
"","bandit","36","503287","0.0-18.0-18.0","59838605","wem/bandit_party_2","A1RW6RIF1MT2YT","either","1","2116","","","","","","","0","0","1","","0.2","0.5","0.5","","","0.8","0.2","","","","","","","","","","","","","","","","75","K","1","","true","0","80_20_practice",""
"","bandit","37","505604","0.0-18.0-19.0","59838605","wem/bandit_party_2","A1RW6RIF1MT2YT","either","1","804","","","","","","","0","1","0","","0.8","0.5","0.5","","","0.8","0.2","","","","","","","","","","","","","","","","74","J","0","img/none_selected_demo.jpg","true","0","80_20_practice",""
"","text-replacement","38","515736","0.0-19.0","59838605","wem/bandit_party_2","A1RW6RIF1MT2YT","either","1","10129","","","32","","","","","","","","","","","","","","","","","","","","","","","","","","","","","","","","","","","","",""
"","bandit","39","518015","0.0-20.0-0.0","59838605","wem/bandit_party_2","A1RW6RIF1MT2YT","either","1","765","","","","","","","1","0","0","1","0","","","","","0","1","","","1","0","","","","","","","","","","","","74","J","0","img/none_selected_demo.jpg","true","0","",""
"","text-replacement","40","527249","0.0-21.0","59838605","wem/bandit_party_2","A1RW6RIF1MT2YT","either","1","9230","","","74","","","","","","","","","","","","","","","","","","","","","","","","","","","","","","","","","","","","",""
"","text-replacement","41","536662","0.0-22.0","59838605","wem/bandit_party_2","A1RW6RIF1MT2YT","either","1","9410","","","32","","","","","","","","","","","","","","","","","","","","","","","","","","","","","","","","","","","","",""
"","text-replacement","42","541813","0.0-23.0","59838605","wem/bandit_party_2","A1RW6RIF1MT2YT","either","1","5148","","","32","","","","","","","","","","","","","","","","","","","","","","","","","","","","","","","","","","","","",""
"","text-replacement","43","546968","0.0-24.0","59838605","wem/bandit_party_2","A1RW6RIF1MT2YT","either","1","5152","","","32","","","","","","","","","","","","","","","","","","","","","","","","","","","","","","","","","","","","",""
"","text-replacement","44","560606","0.0-25.0","59838605","wem/bandit_party_2","A1RW6RIF1MT2YT","either","1","13634","","","32","","","","","","","","","","","","","","","","","","","","","","","","","","","","","","","","","","","","",""
"","text-replacement","45","566140","0.0-26.0","59838605","wem/bandit_party_2","A1RW6RIF1MT2YT","either","1","5531","","","32","","","","","","","","","","","","","","","","","","","","","","","","","","","","","","","","","","","","",""
"","text-replacement","46","574081","0.0-27.0","59838605","wem/bandit_party_2","A1RW6RIF1MT2YT","either","1","7938","","","32","","","","","","","","","","","","","","","","","","","","","","","","","","","","","","","","","","","","",""
"","text-replacement","47","577072","0.0-28.0","59838605","wem/bandit_party_2","A1RW6RIF1MT2YT","either","1","2987","","","32","","","","","","","","","","","","","","","","","","","","","","","","","","","","","","","","","","","","",""
"","text-replacement","48","578941","0.0-29.0","59838605","wem/bandit_party_2","A1RW6RIF1MT2YT","either","1","1865","","","32","","","","","","","","","","","","","","","","","","","","","","","","","","","","","","","","","","","","",""
"","text-replacement","49","601720","0.0-30.0","59838605","wem/bandit_party_2","A1RW6RIF1MT2YT","either","1","22776","","","32","","","","","","","","","","","","","","","","","","","","","","","","","","","","","","","","","","","","",""
"","text-replacement","50","606755","0.0-31.0","59838605","wem/bandit_party_2","A1RW6RIF1MT2YT","either","1","5032","","","32","","","","","","","","","","","","","","","","","","","","","","","","","","","","","","","","","","","","",""
"","bandit","51","609124","0.0-32.0-0.0","59838605","wem/bandit_party_2","A1RW6RIF1MT2YT","either","1","852","","","","","","","0","0","1","","0.2","0.5","0.5","0.5","0.5","0.8","0.2","0.6","0.2","","","","","","","","","","","","","","74","J","1","","true","0","full_practice",""
"","bandit","52","613649","0.0-32.0-1.0","59838605","wem/bandit_party_2","A1RW6RIF1MT2YT","either","1","2999","","","","","","","0","0","1","","0.2","0.5","0.5","0.5","0.5","0.8","0.2","0.6","0.2","","","","","","","","","","","","","","74","J","1","","true","0","full_practice",""
"","bandit","53","616222","0.0-32.0-2.0","59838605","wem/bandit_party_2","A1RW6RIF1MT2YT","either","1","1058","","","","","","","0","0","1","","0.6","0.5","0.5","0.5","0.5","0.8","0.2","0.6","0.2","","","","","","","","","","","","","","75","K","2","","true","0","full_practice",""
"","bandit","54","618868","0.0-32.0-3.0","59838605","wem/bandit_party_2","A1RW6RIF1MT2YT","either","1","1132","","","","","","","0","0","1","","0.2","0.5","0.5","0.5","0.5","0.8","0.2","0.6","0.2","","","","","","","","","","","","","","76","L","3","","true","0","full_practice",""
"","bandit","55","620976","0.0-32.0-4.0","59838605","wem/bandit_party_2","A1RW6RIF1MT2YT","either","1","595","","","","","","","0","1","0","","0.8","0.5","0.5","0.5","0.5","0.8","0.2","0.6","0.2","","","","","","","","","","","","","","72","H","0","img/none_selected.jpg","true","0","full_practice",""
"","bandit","56","623534","0.0-32.0-5.0","59838605","wem/bandit_party_2","A1RW6RIF1MT2YT","either","1","1043","","","","","","","0","1","0","","0.8","0.5","0.5","0.5","0.5","0.8","0.2","0.6","0.2","","","","","","","","","","","","","","72","H","0","img/none_selected.jpg","true","0","full_practice",""
"","bandit","57","626180","0.0-32.0-6.0","59838605","wem/bandit_party_2","A1RW6RIF1MT2YT","either","1","1132","","","","","","","1","0","0","0.8","","0.5","0.5","0.5","0.5","","","","","0.8","0.2","0.6","0.2","","","","","","","","","","72","H","0","img/none_selected.jpg","true","0","full_practice",""
"","bandit","58","630642","0.0-32.0-7.0","59838605","wem/bandit_party_2","A1RW6RIF1MT2YT","either","1","2948","","","","","","","0","1","0","","0.8","0.5","0.5","0.5","0.5","0.8","0.2","0.6","0.2","","","","","","","","","","","","","","72","H","0","img/none_selected.jpg","true","0","full_practice",""
"","bandit","59","633016","0.0-32.0-8.0","59838605","wem/bandit_party_2","A1RW6RIF1MT2YT","either","1","855","","","","","","","0","1","0","","0.8","0.5","0.5","0.5","0.5","0.8","0.2","0.6","0.2","","","","","","","","","","","","","","72","H","0","img/none_selected.jpg","true","0","full_practice",""
"","bandit","60","635428","0.0-32.0-9.0","59838605","wem/bandit_party_2","A1RW6RIF1MT2YT","either","1","822","","","","","","","0","1","0","","0.8","0.5","0.5","0.5","0.5","0.8","0.2","0.6","0.2","","","","","","","","","","","","","","72","H","0","img/none_selected.jpg","true","0","full_practice",""
"","bandit","61","637883","0.0-32.0-10.0","59838605","wem/bandit_party_2","A1RW6RIF1MT2YT","either","1","940","","","","","","","0","1","0","","0.8","0.5","0.5","0.5","0.5","0.8","0.2","0.6","0.2","","","","","","","","","","","","","","72","H","0","img/none_selected.jpg","true","0","full_practice",""
"","bandit","62","640856","0.0-32.0-11.0","59838605","wem/bandit_party_2","A1RW6RIF1MT2YT","either","1","1459","","","","","","","0","1","0","","0.8","0.5","0.5","0.5","0.5","0.8","0.2","0.6","0.2","","","","","","","","","","","","","","72","H","0","img/none_selected.jpg","true","0","full_practice",""
"","bandit","63","643430","0.0-32.0-12.0","59838605","wem/bandit_party_2","A1RW6RIF1MT2YT","either","1","1059","","","","","","","0","1","0","","0.8","0.5","0.5","0.5","0.5","0.8","0.2","0.6","0.2","","","","","","","","","","","","","","72","H","0","img/none_selected.jpg","true","0","full_practice",""
"","bandit","64","645683","0.0-32.0-13.0","59838605","wem/bandit_party_2","A1RW6RIF1MT2YT","either","1","739","","","","","","","1","0","0","0.8","","0.5","0.5","0.5","0.5","","","","","0.8","0.2","0.6","0.2","","","","","","","","","","72","H","0","img/none_selected.jpg","true","0","full_practice",""
"","bandit","65","647857","0.0-32.0-14.0","59838605","wem/bandit_party_2","A1RW6RIF1MT2YT","either","1","658","","","","","","","1","0","0","0.8","","0.5","0.5","0.5","0.5","","","","","0.8","0.2","0.6","0.2","","","","","","","","","","72","H","0","img/none_selected.jpg","true","0","full_practice",""
"","bandit","66","650197","0.0-32.0-15.0","59838605","wem/bandit_party_2","A1RW6RIF1MT2YT","either","1","827","","","","","","","1","0","0","0.8","","0.5","0.5","0.5","0.5","","","","","0.8","0.2","0.6","0.2","","","","","","","","","","72","H","0","img/none_selected.jpg","true","0","full_practice",""
"","bandit","67","652083","0.0-32.0-16.0","59838605","wem/bandit_party_2","A1RW6RIF1MT2YT","either","1","372","","","","","","","1","0","0","0.8","","0.5","0.5","0.5","0.5","","","","","0.8","0.2","0.6","0.2","","","","","","","","","","72","H","0","img/none_selected.jpg","true","0","full_practice",""
"","bandit","68","654718","0.0-32.0-17.0","59838605","wem/bandit_party_2","A1RW6RIF1MT2YT","either","1","1122","","","","","","","1","0","0","0.8","","0.5","0.5","0.5","0.5","","","","","0.8","0.2","0.6","0.2","","","","","","","","","","72","H","0","img/none_selected.jpg","true","0","full_practice",""
"","bandit","69","657013","0.0-32.0-18.0","59838605","wem/bandit_party_2","A1RW6RIF1MT2YT","either","1","781","","","","","","","0","0","1","0.8","","0.5","0.5","0.5","0.5","","","","","0.8","0.2","0.6","0.2","","","","","","","","","","72","H","0","img/none_selected.jpg","true","0","full_practice",""
"","bandit","70","659922","0.0-32.0-19.0","59838605","wem/bandit_party_2","A1RW6RIF1MT2YT","either","1","1394","","","","","","","1","0","0","0.2","","0.5","0.5","0.5","0.5","","","","","0.8","0.2","0.6","0.2","","","","","","","","","","74","J","1","","true","0","full_practice",""
"","text","71","663686","0.0-33.0","59838605","wem/bandit_party_2","A1RW6RIF1MT2YT","either","1","3750","","","32","","","","","","","","","","","","","","","","","","","","","","","","","","","","","","","","","","","","",""
"","text-replacement","72","676153","0.0-34.0","59838605","wem/bandit_party_2","A1RW6RIF1MT2YT","either","1","11461","","","32","","","","","","","","","","","","","","","","","","","","","","","","","","","","","","","","","","","","",""
"","text-replacement","73","689979","0.0-35.0","59838605","wem/bandit_party_2","A1RW6RIF1MT2YT","either","1","13819","","","32","","","","","","","","","","","","","","","","","","","","","","","","","","","","","","","","","","","","",""
"","text-replacement","74","695584","0.0-36.0","59838605","wem/bandit_party_2","A1RW6RIF1MT2YT","either","1","5600","","","32","","","","","","","","","","","","","","","","","","","","","","","","","","","","","","","","","","","","",""
"","text-replacement","75","704443","0.0-37.0","59838605","wem/bandit_party_2","A1RW6RIF1MT2YT","either","1","8854","","","32","","","","","","","","","","","","","","","","","","","","","","","","","","","","","","","","","","","","",""
"","text-replacement","76","712559","0.0-38.0","59838605","wem/bandit_party_2","A1RW6RIF1MT2YT","either","1","8110","","","32","","","","","","","","","","","","","","","","","","","","","","","","","","","","","","","","","","","","",""
"","survey-multi-choice-replacement","77","721517","0.0-39.0-0.0","59838605","wem/bandit_party_2","A1RW6RIF1MT2YT","either","1","8935","","","","","","","","","","","","","","","","","","","","","","","","Money will be added to the pool for <span style='color:blue;'>DEMOCRATS</span>","","","","","","","attn_check","","","","","","","","","0"
"","survey-multi-choice-replacement","78","726450","0.0-40.0-0.0","59838605","wem/bandit_party_2","A1RW6RIF1MT2YT","either","1","3894","","","","","","","","","","","","","","","","","","","","","","","","Equal amounts of money will be added to the pool for <span style='color:blue;'>DEMOCRATS</span> and subtracted from the pool for <span style='color:red;'>REPUBLICANS</span>","","","","","","","attn_check","","","","","","","","","2"
"","survey-multi-choice-replacement","79","914559","0.0-41.0-0.0","59838605","wem/bandit_party_2","A1RW6RIF1MT2YT","either","1","187073","","","","","","","","","","","","","","","","","","","","","","","","No money will be added to either pool","","","","","","","attn_check","","","","","","","","","3"
"","bandit","80","924940","0.0-42.0-0.0","59838605","wem/bandit_party_2","A1RW6RIF1MT2YT","either","1","7851","","","","","","","1","0","0","0.7674833066","","0.4","0.2","0.6","0.8","","","","","0.7674833066","0.8101107889","0.4995060561","0.5202783506","","","","","","","","","","72","H","0","img/none_selected.jpg","","1","main_expt",""
"","bandit","81","927370","0.0-43.0-0.0","59838605","wem/bandit_party_2","A1RW6RIF1MT2YT","either","1","914","","","","","","","0","1","0","","0.7786696111","0.4","0.2","0.6","0.8","0.7786696111","0.8827976921","0.4452888422","0.4559554218","","","","","","","","","","","","","","72","H","0","img/none_selected.jpg","","2","main_expt",""
"","bandit","82","929831","0.0-44.0-0.0","59838605","wem/bandit_party_2","A1RW6RIF1MT2YT","either","1","937","","","","","","","0","1","0","","0.7883912796","0.4","0.2","0.6","0.8","0.7883912796","0.918633781","0.4956599627","0.3791335739","","","","","","","","","","","","","","72","H","0","img/none_selected.jpg","","3","main_expt",""
"","bandit","83","934077","0.0-45.0-0.0","59838605","wem/bandit_party_2","A1RW6RIF1MT2YT","either","1","2732","","","","","","","0","1","0","","0.8311681014","0.4","0.2","0.6","0.8","0.8311681014","0.8961075186","0.3939226057","0.362446662","","","","","","","","","","","","","","72","H","0","img/none_selected.jpg","","4","main_expt",""
"","bandit","84","939519","0.0-46.0-0.0","59838605","wem/bandit_party_2","A1RW6RIF1MT2YT","either","1","3929","","","","","","","1","0","0","0.706748425","","0.4","0.2","0.6","0.8","","","","","0.706748425","0.9065038385","0.4737796053","0.4337427147","","","","","","","","","","72","H","0","img/none_selected.jpg","","5","main_expt",""
"","bandit","85","942476","0.0-47.0-0.0","59838605","wem/bandit_party_2","A1RW6RIF1MT2YT","either","1","1443","","","","","","","1","0","0","0.7246132019","","0.4","0.2","0.6","0.8","","","","","0.7246132019","0.9628954729","0.5798080576","0.4260566605","","","","","","","","","","72","H","0","img/none_selected.jpg","","6","main_expt",""
"","bandit","86","946651","0.0-48.0-0.0","59838605","wem/bandit_party_2","A1RW6RIF1MT2YT","either","1","2659","","","","","","","0","1","0","","0.822103072","0.4","0.2","0.6","0.8","0.822103072","0.9244273404","0.6184433593","0.5595739282","","","","","","","","","","","","","","72","H","0","img/none_selected.jpg","","7","main_expt",""
"","bandit","87","949105","0.0-49.0-0.0","59838605","wem/bandit_party_2","A1RW6RIF1MT2YT","either","1","939","","","","","","","0","1","0","","0.8176183596","0.4","0.2","0.6","0.8","0.8176183596","0.9214665689","0.5380809204","0.5757792393","","","","","","","","","","","","","","72","H","0","img/none_selected.jpg","","8","main_expt",""
"","bandit","88","952142","0.0-50.0-0.0","59838605","wem/bandit_party_2","A1RW6RIF1MT2YT","either","1","1522","","","","","","","0","1","0","","0.7421782695","0.4","0.2","0.6","0.8","0.7421782695","0.9604963414","0.4884558296","0.5508288143","","","","","","","","","","","","","","72","H","0","img/none_selected.jpg","","9","main_expt",""
"","bandit","89","955172","0.0-51.0-0.0","59838605","wem/bandit_party_2","A1RW6RIF1MT2YT","either","1","1515","","","","","","","1","0","0","0.7112185725","","0.4","0.2","0.6","0.8","","","","","0.7112185725","0.973544224","0.6062827564","0.4615344473","","","","","","","","","","72","H","0","img/none_selected.jpg","","10","main_expt",""
"","bandit","90","958345","0.0-52.0-0.0","59838605","wem/bandit_party_2","A1RW6RIF1MT2YT","either","1","1659","","","","","","","1","0","0","0.6656122322","","0.4","0.2","0.6","0.8","","","","","0.6656122322","0.9756729976","0.6618996933","0.4731032433","","","","","","","","","","72","H","0","img/none_selected.jpg","","11","main_expt",""
"","bandit","91","961646","0.0-53.0-0.0","59838605","wem/bandit_party_2","A1RW6RIF1MT2YT","either","1","1787","","","","","","","0","1","0","","0.632951522","0.4","0.2","0.6","0.8","0.632951522","0.9824084628","0.6589688621","0.5028989732","","","","","","","","","","","","","","72","H","0","img/none_selected.jpg","","12","main_expt",""
"","bandit","92","964284","0.0-54.0-0.0","59838605","wem/bandit_party_2","A1RW6RIF1MT2YT","either","1","1123","","","","","","","0","0","1","0.6428643634","","0.4","0.2","0.6","0.8","","","","","0.6428643634","0.9852841122","0.7483501345","0.5252386458","","","","","","","","","","72","H","0","img/none_selected.jpg","","13","main_expt",""
"","bandit","93","970729","0.0-55.0-0.0","59838605","wem/bandit_party_2","A1RW6RIF1MT2YT","either","1","4930","","","","","","","0","1","0","","0.9844185579","0.4","0.2","0.6","0.8","0.5693663763","0.9844185579","0.7642220585","0.4883642101","","","","","","","","","","","","","","74","J","1","","","14","main_expt",""
"","bandit","94","973499","0.0-56.0-0.0","59838605","wem/bandit_party_2","A1RW6RIF1MT2YT","either","1","1251","","","","","","","0","1","0","","0.9716790186","0.4","0.2","0.6","0.8","0.6354763258","0.9716790186","0.8255663415","0.5125695872","","","","","","","","","","","","","","74","J","1","","","15","main_expt",""
"","bandit","95","976301","0.0-57.0-0.0","59838605","wem/bandit_party_2","A1RW6RIF1MT2YT","either","1","1285","","","","","","","0","1","0","","0.9724226268","0.4","0.2","0.6","0.8","0.6074668868","0.9724226268","0.8262734196","0.483313844","","","","","","","","","","","","","","74","J","1","","","16","main_expt",""
"","bandit","96","979162","0.0-58.0-0.0","59838605","wem/bandit_party_2","A1RW6RIF1MT2YT","either","1","1347","","","","","","","0","1","0","","0.969397438","0.4","0.2","0.6","0.8","0.634379517","0.969397438","0.8957105494","0.4764119597","","","","","","","","","","","","","","74","J","1","","","17","main_expt",""
"","bandit","97","981473","0.0-59.0-0.0","59838605","wem/bandit_party_2","A1RW6RIF1MT2YT","either","1","796","","","","","","","0","0","1","","0.9487821198","0.4","0.2","0.6","0.8","0.7399013172","0.9487821198","0.8243017832","0.4742144938","","","","","","","","","","","","","","74","J","1","","","18","main_expt",""
"","bandit","98","984143","0.0-60.0-0.0","59838605","wem/bandit_party_2","A1RW6RIF1MT2YT","either","1","1154","","","","","","","1","0","0","0.8174393347","","0.4","0.2","0.6","0.8","","","","","0.6892422428","0.8822386923","0.8174393347","0.5445729057","","","","","","","","","","75","K","2","","","19","main_expt",""
"","bandit","99","986100","0.0-61.0-0.0","59838605","wem/bandit_party_2","A1RW6RIF1MT2YT","either","1","441","","","","","","","0","1","0","","0.8457625901","0.4","0.2","0.6","0.8","0.5544472153","0.8658452863","0.8457625901","0.5114357523","","","","","","","","","","","","","","75","K","2","","","20","main_expt",""
"","bandit","100","988729","0.0-62.0-0.0","59838605","wem/bandit_party_2","A1RW6RIF1MT2YT","either","1","1115","","","","","","","0","1","0","","0.8565453533","0.4","0.2","0.6","0.8","0.4705077418","0.8597265301","0.8565453533","0.4948626968","","","","","","","","","","","","","","75","K","2","","","21","main_expt",""
"","bandit","101","990947","0.0-63.0-0.0","59838605","wem/bandit_party_2","A1RW6RIF1MT2YT","either","1","704","","","","","","","0","1","0","","0.8821281293","0.4","0.2","0.6","0.8","0.5364913494","0.929530396","0.8821281293","0.3750889156","","","","","","","","","","","","","","75","K","2","","","22","main_expt",""
"","bandit","102","993575","0.0-64.0-0.0","59838605","wem/bandit_party_2","A1RW6RIF1MT2YT","either","1","1112","","","","","","","1","0","0","0.8253896901","","0.4","0.2","0.6","0.8","","","","","0.5450887529","0.9149061772","0.8253896901","0.3874093852","","","","","","","","","","75","K","2","","","23","main_expt",""
"","bandit","103","995947","0.0-65.0-0.0","59838605","wem/bandit_party_2","A1RW6RIF1MT2YT","either","1","850","","","","","","","0","0","1","0.8682133559","","0.4","0.2","0.6","0.8","","","","","0.6013055931","0.9389899916","0.8682133559","0.4126546177","","","","","","","","","","75","K","2","","","24","main_expt",""
"","bandit","104","998194","0.0-66.0-0.0","59838605","wem/bandit_party_2","A1RW6RIF1MT2YT","either","1","728","","","","","","","0","0","1","0.3871809826","","0.4","0.2","0.6","0.8","","","","","0.7116226269","0.9583062328","0.8186134727","0.3871809826","","","","","","","","","","76","L","3","","","25","main_expt",""
"","bandit","105","1000488","0.0-67.0-0.0","59838605","wem/bandit_party_2","A1RW6RIF1MT2YT","either","1","777","","","","","","","1","0","0","0.841170918","","0.4","0.2","0.6","0.8","","","","","0.7284905038","0.9349434311","0.841170918","0.4162773602","","","","","","","","","","75","K","2","","","26","main_expt",""
"","bandit","106","1002925","0.0-68.0-0.0","59838605","wem/bandit_party_2","A1RW6RIF1MT2YT","either","1","921","","","","","","","0","1","0","","0.8332298301","0.4","0.2","0.6","0.8","0.7007901837","0.9147743466","0.8332298301","0.4153433109","","","","","","","","","","","","","","75","K","2","","","27","main_expt",""
"","bandit","107","1005506","0.0-69.0-0.0","59838605","wem/bandit_party_2","A1RW6RIF1MT2YT","either","1","1066","","","","","","","0","1","0","","0.8340804883","0.4","0.2","0.6","0.8","0.7197690037","0.8913744663","0.8340804883","0.3083156359","","","","","","","","","","","","","","75","K","2","","","28","main_expt",""
"","bandit","108","1007840","0.0-70.0-0.0","59838605","wem/bandit_party_2","A1RW6RIF1MT2YT","either","1","819","","","","","","","0","0","1","0.8800986549","","0.4","0.2","0.6","0.8","","","","","0.7569205749","0.9004815278","0.8800986549","0.4048150761","","","","","","","","","","75","K","2","","","29","main_expt",""
"","bandit","109","1010566","0.0-71.0-0.0","59838605","wem/bandit_party_2","A1RW6RIF1MT2YT","either","1","1210","","","","","","","1","0","0","0.8335499875","","0.4","0.2","0.6","0.8","","","","","0.7007062976","0.8335499875","0.800988266","0.5604470694","","","","","","","","","","74","J","1","","","30","main_expt",""
"","bandit","110","1012739","0.0-72.0-0.0","59838605","wem/bandit_party_2","A1RW6RIF1MT2YT","either","1","657","","","","","","","0","1","0","","0.7904098286","0.4","0.2","0.6","0.8","0.6218809145","0.7904098286","0.8092707987","0.5114456598","","","","","","","","","","","","","","74","J","1","","","31","main_expt",""
"","bandit","111","1015425","0.0-73.0-0.0","59838605","wem/bandit_party_2","A1RW6RIF1MT2YT","either","1","1171","","","","","","","0","1","0","","0.8156470634","0.4","0.2","0.6","0.8","0.5448888872","0.8156470634","0.7600689364","0.5195843055","","","","","","","","","","","","","","74","J","1","","","32","main_expt",""
"","bandit","112","1018536","0.0-74.0-0.0","59838605","wem/bandit_party_2","A1RW6RIF1MT2YT","either","1","1592","","","","","","","0","0","1","0.4396040002","","0.4","0.2","0.6","0.8","","","","","0.4396040002","0.7458483223","0.7268405739","0.4278216128","","","","","","","","","","72","H","0","img/none_selected.jpg","","33","main_expt",""
"","bandit","113","1020597","0.0-75.0-0.0","59838605","wem/bandit_party_2","A1RW6RIF1MT2YT","either","1","545","","","","","","","0","0","1","","0.3418027302","0.4","0.2","0.6","0.8","0.3418027302","0.8745519215","0.7867385379","0.4581725564","","","","","","","","","","","","","","72","H","0","img/none_selected.jpg","","34","main_expt",""
"","bandit","114","1022538","0.0-76.0-0.0","59838605","wem/bandit_party_2","A1RW6RIF1MT2YT","either","1","426","","","","","","","0","1","0","","0.8761773117","0.4","0.2","0.6","0.8","0.3770378826","0.8761773117","0.7776722478","0.5170179058","","","","","","","","","","","","","","74","J","1","","","35","main_expt",""
"","bandit","115","1025186","0.0-77.0-0.0","59838605","wem/bandit_party_2","A1RW6RIF1MT2YT","either","1","1131","","","","","","","0","1","0","","0.8898579413","0.4","0.2","0.6","0.8","0.3264650107","0.8898579413","0.8110731924","0.5761285305","","","","","","","","","","","","","","74","J","1","","","36","main_expt",""
"","bandit","116","1027717","0.0-78.0-0.0","59838605","wem/bandit_party_2","A1RW6RIF1MT2YT","either","1","1014","","","","","","","0","1","0","","0.9189960073","0.4","0.2","0.6","0.8","0.1696248696","0.9189960073","0.8371501114","0.5824592389","","","","","","","","","","","","","","74","J","1","","","37","main_expt",""
"","bandit","117","1029922","0.0-79.0-0.0","59838605","wem/bandit_party_2","A1RW6RIF1MT2YT","either","1","691","","","","","","","0","1","0","","0.9429067042","0.4","0.2","0.6","0.8","0.3008725236","0.9429067042","0.801984358","0.5039158184","","","","","","","","","","","","","","74","J","1","","","38","main_expt",""
"","bandit","118","1032072","0.0-80.0-0.0","59838605","wem/bandit_party_2","A1RW6RIF1MT2YT","either","1","636","","","","","","","0","1","0","","0.8860185862","0.4","0.2","0.6","0.8","0.3612597963","0.8860185862","0.836760671","0.4906961915","","","","","","","","","","","","","","74","J","1","","","39","main_expt",""
"","bandit","119","1034645","0.0-81.0-0.0","59838605","wem/bandit_party_2","A1RW6RIF1MT2YT","either","1","1059","","","","","","","0","1","0","","0.8958725565","0.4","0.2","0.6","0.8","0.3316001813","0.8958725565","0.7930168878","0.5118773476","","","","","","","","","","","","","","74","J","1","","","40","main_expt",""
"","bandit","120","1037907","0.0-82.0-0.0","59838605","wem/bandit_party_2","A1RW6RIF1MT2YT","either","1","1747","","","","","","","0","1","0","","0.8369757826","0.4","0.2","0.6","0.8","0.251761063","0.8369757826","0.6758505439","0.5207000815","","","","","","","","","","","","","","74","J","1","","","41","main_expt",""
"","bandit","121","1040506","0.0-83.0-0.0","59838605","wem/bandit_party_2","A1RW6RIF1MT2YT","either","1","1082","","","","","","","0","0","1","","0.8724413244","0.4","0.2","0.6","0.8","0.3764367217","0.8724413244","0.669091732","0.6208632684","","","","","","","","","","","","","","74","J","1","","","42","main_expt",""
"","bandit","122","1043792","0.0-84.0-0.0","59838605","wem/bandit_party_2","A1RW6RIF1MT2YT","either","1","1770","","","","","","","0","0","1","0.5774386383","","0.4","0.2","0.6","0.8","","","","","0.4280411123","0.8721156492","0.5774386383","0.6736877605","","","","","","","","","","75","K","2","","","43","main_expt",""
"","bandit","123","1046677","0.0-85.0-0.0","59838605","wem/bandit_party_2","A1RW6RIF1MT2YT","either","1","1366","","","","","","","0","0","1","0.4250007774","","0.4","0.2","0.6","0.8","","","","","0.4250007774","0.874486911","0.5402750746","0.6770598463","","","","","","","","","","72","H","0","img/none_selected.jpg","","44","main_expt",""
"","bandit","124","1050034","0.0-86.0-0.0","59838605","wem/bandit_party_2","A1RW6RIF1MT2YT","either","1","1841","","","","","","","0","0","1","0.6811336834","","0.4","0.2","0.6","0.8","","","","","0.3964774122","0.7653026016","0.4769525635","0.6811336834","","","","","","","","","","76","L","3","","","45","main_expt",""
"","bandit","125","1051894","0.0-87.0-0.0","59838605","wem/bandit_party_2","A1RW6RIF1MT2YT","either","1","345","","","","","","","1","0","0","0.460739512","","0.4","0.2","0.6","0.8","","","","","0.3755541509","0.6884850605","0.460739512","0.7409040253","","","","","","","","","","75","K","2","","","46","main_expt",""
"","bandit","126","1056684","0.0-88.0-0.0","59838605","wem/bandit_party_2","A1RW6RIF1MT2YT","either","1","3274","","","","","","","1","0","0","0.3953603582","","0.4","0.2","0.6","0.8","","","","","0.3698766084","0.6869729855","0.3953603582","0.8602274841","","","","","","","","","","75","K","2","","","47","main_expt",""
"","bandit","127","1059283","0.0-89.0-0.0","59838605","wem/bandit_party_2","A1RW6RIF1MT2YT","either","1","1079","","","","","","","1","0","0","0.5194217752","","0.4","0.2","0.6","0.8","","","","","0.2924141828","0.624749708","0.5194217752","0.8947369126","","","","","","","","","","75","K","2","","","48","main_expt",""
"","bandit","128","1062167","0.0-90.0-0.0","59838605","wem/bandit_party_2","A1RW6RIF1MT2YT","either","1","1367","","","","","","","1","0","0","0.5015721984","","0.4","0.2","0.6","0.8","","","","","0.2506794134","0.6269608649","0.5015721984","0.9071052574","","","","","","","","","","75","K","2","","","49","main_expt",""
"","bandit","129","1064532","0.0-91.0-0.0","59838605","wem/bandit_party_2","A1RW6RIF1MT2YT","either","1","849","","","","","","","1","0","0","0.4427204185","","0.4","0.2","0.6","0.8","","","","","0.2200095001","0.5394470416","0.4427204185","0.8569531155","","","","","","","","","","75","K","2","","","50","main_expt",""
"","bandit","130","1067162","0.0-92.0-0.0","59838605","wem/bandit_party_2","A1RW6RIF1MT2YT","either","1","1113","","","","","","","0","0","1","0.5194544998","","0.4","0.2","0.6","0.8","","","","","0.2703780474","0.4991806479","0.5194544998","0.8728609703","","","","","","","","","","75","K","2","","","51","main_expt",""
"","bandit","131","1069182","0.0-93.0-0.0","59838605","wem/bandit_party_2","A1RW6RIF1MT2YT","either","1","504","","","","","","","0","1","0","","0.5431464126","0.4","0.2","0.6","0.8","0.3215640211","0.5431464126","0.4420680866","0.902184381","","","","","","","","","","","","","","74","J","1","","","52","main_expt",""
"","bandit","132","1071188","0.0-94.0-0.0","59838605","wem/bandit_party_2","A1RW6RIF1MT2YT","either","1","488","","","","","","","0","1","0","","0.4799783957","0.4","0.2","0.6","0.8","0.2918797996","0.4799783957","0.5541791803","0.8975054296","","","","","","","","","","","","","","74","J","1","","","53","main_expt",""
"","bandit","133","1073568","0.0-95.0-0.0","59838605","wem/bandit_party_2","A1RW6RIF1MT2YT","either","1","865","","","","","","","0","1","0","","0.3946877269","0.4","0.2","0.6","0.8","0.2432815539","0.3946877269","0.6187664305","0.9436546011","","","","","","","","","","","","","","74","J","1","","","54","main_expt",""
"","bandit","134","1075590","0.0-96.0-0.0","59838605","wem/bandit_party_2","A1RW6RIF1MT2YT","either","1","506","","","","","","","0","0","1","","0.3892466866","0.4","0.2","0.6","0.8","0.1993500609","0.3892466866","0.538030076","0.9411334538","","","","","","","","","","","","","","74","J","1","","","55","main_expt",""
"","bandit","135","1077236","0.0-97.0-0.0","59838605","wem/bandit_party_2","A1RW6RIF1MT2YT","either","1","129","","","","","","","0","0","1","0.1832364248","","0.4","0.2","0.6","0.8","","","","","0.1832364248","0.347268188","0.5137881872","0.862285227","","","","","","","","","","72","H","0","img/none_selected.jpg","","56","main_expt",""
"","bandit","136","1080782","0.0-98.0-0.0","59838605","wem/bandit_party_2","A1RW6RIF1MT2YT","either","1","2030","","","","","","","0","0","1","","0.3462231845","0.4","0.2","0.6","0.8","0.1703919496","0.3462231845","0.6274604021","0.9034803314","","","","","","","","","","","","","","74","J","1","","","57","main_expt",""
"","bandit","137","1082684","0.0-99.0-0.0","59838605","wem/bandit_party_2","A1RW6RIF1MT2YT","either","1","385","","","","","","","0","0","1","0.5636132077","","0.4","0.2","0.6","0.8","","","","","0.2146973212","0.3707442777","0.5636132077","0.9062052911","","","","","","","","","","75","K","2","","","58","main_expt",""
"","bandit","138","1084946","0.0-100.0-0.0","59838605","wem/bandit_party_2","A1RW6RIF1MT2YT","either","1","744","","","","","","","0","0","1","","0.2118107272","0.4","0.2","0.6","0.8","0.2118107272","0.4530366532","0.6555757088","0.9169546289","","","","","","","","","","","","","","72","H","0","img/none_selected.jpg","","59","main_expt",""
"","bandit","139","1087214","0.0-101.0-0.0","59838605","wem/bandit_party_2","A1RW6RIF1MT2YT","either","1","753","","","","","","","0","1","0","","0.4335409142","0.4","0.2","0.6","0.8","0.2096036334","0.4335409142","0.6555481193","0.9048679239","","","","","","","","","","","","","","74","J","1","","","60","main_expt",""
"","bandit","140","1088893","0.0-102.0-0.0","59838605","wem/bandit_party_2","A1RW6RIF1MT2YT","either","1","162","","","","","","","0","0","1","0.3601573371","","0.4","0.2","0.6","0.8","","","","","0.1985607356","0.3601573371","0.6988977931","0.9346572725","","","","","","","","","","74","J","1","","","61","main_expt",""
"","bandit","141","1093025","0.0-103.0-0.0","59838605","wem/bandit_party_2","A1RW6RIF1MT2YT","either","1","2615","","","","","","","1","0","0","0.9332729597","","0.4","0.2","0.6","0.8","","","","","0.2352246004","0.3187004912","0.6124712875","0.9332729597","","","","","","","","","","76","L","3","","","62","main_expt",""
"","bandit","142","1095085","0.0-104.0-0.0","59838605","wem/bandit_party_2","A1RW6RIF1MT2YT","either","1","544","","","","","","","0","1","0","","0.9300142507","0.4","0.2","0.6","0.8","0.1989126294","0.331276396","0.4881994696","0.9300142507","","","","","","","","","","","","","","76","L","3","","","63","main_expt",""
"","bandit","143","1098244","0.0-105.0-0.0","59838605","wem/bandit_party_2","A1RW6RIF1MT2YT","either","1","1642","","","","","","","1","0","0","0.8992917639","","0.4","0.2","0.6","0.8","","","","","0.2231035509","0.3984677","0.5007509184","0.8992917639","","","","","","","","","","76","L","3","","","64","main_expt",""
"","bandit","144","1100800","0.0-106.0-0.0","59838605","wem/bandit_party_2","A1RW6RIF1MT2YT","either","1","1037","","","","","","","1","0","0","0.7939475476","","0.4","0.2","0.6","0.8","","","","","0.174077904","0.3012021372","0.6077525222","0.7939475476","","","","","","","","","","76","L","3","","","65","main_expt",""
"","bandit","145","1108748","0.0-107.0-0.0","59838605","wem/bandit_party_2","A1RW6RIF1MT2YT","either","1","6431","","","","","","","1","0","0","0.7848839068","","0.4","0.2","0.6","0.8","","","","","0.1505104035","0.2848395029","0.4876759876","0.7848839068","","","","","","","","","","76","L","3","","","66","main_expt",""
"","bandit","146","1111808","0.0-108.0-0.0","59838605","wem/bandit_party_2","A1RW6RIF1MT2YT","either","1","1545","","","","","","","1","0","0","0.7712869283","","0.4","0.2","0.6","0.8","","","","","0.1706094741","0.2908363747","0.4705728971","0.7712869283","","","","","","","","","","76","L","3","","","67","main_expt",""
"","bandit","147","1114542","0.0-109.0-0.0","59838605","wem/bandit_party_2","A1RW6RIF1MT2YT","either","1","1218","","","","","","","1","0","0","0.7426915226","","0.4","0.2","0.6","0.8","","","","","0.193375558","0.3226378352","0.5822594153","0.7426915226","","","","","","","","","","76","L","3","","","68","main_expt",""
"","bandit","148","1116954","0.0-110.0-0.0","59838605","wem/bandit_party_2","A1RW6RIF1MT2YT","either","1","897","","","","","","","1","0","0","0.592712881","","0.4","0.2","0.6","0.8","","","","","0.226811003","0.4490581071","0.6189715015","0.592712881","","","","","","","","","","76","L","3","","","69","main_expt",""
"","bandit","149","1119832","0.0-111.0-0.0","59838605","wem/bandit_party_2","A1RW6RIF1MT2YT","either","1","1352","","","","","","","1","0","0","0.6587085967","","0.4","0.2","0.6","0.8","","","","","0.191142909","0.42365523","0.5307799745","0.6587085967","","","","","","","","","","76","L","3","","","70","main_expt",""
"","bandit","150","1122460","0.0-112.0-0.0","59838605","wem/bandit_party_2","A1RW6RIF1MT2YT","either","1","1113","","","","","","","1","0","0","0.7562029562","","0.4","0.2","0.6","0.8","","","","","0.2371486809","0.427101634","0.5205551237","0.7562029562","","","","","","","","","","76","L","3","","","71","main_expt",""
"","bandit","151","1124698","0.0-113.0-0.0","59838605","wem/bandit_party_2","A1RW6RIF1MT2YT","either","1","722","","","","","","","0","1","0","","0.670676276","0.4","0.2","0.6","0.8","0.2602117984","0.5387899421","0.5913901284","0.670676276","","","","","","","","","","","","","","76","L","3","","","72","main_expt",""
"","bandit","152","1127881","0.0-114.0-0.0","59838605","wem/bandit_party_2","A1RW6RIF1MT2YT","either","1","1665","","","","","","","1","0","0","0.6870219419","","0.4","0.2","0.6","0.8","","","","","0.1837165363","0.4931252492","0.7127465592","0.6870219419","","","","","","","","","","76","L","3","","","73","main_expt",""
"","bandit","153","1131942","0.0-115.0-0.0","59838605","wem/bandit_party_2","A1RW6RIF1MT2YT","either","1","2543","","","","","","","0","0","1","","0.582898469","0.4","0.2","0.6","0.8","0.2032334464","0.3888626504","0.7804212289","0.582898469","","","","","","","","","","","","","","76","L","3","","","74","main_expt",""
"","bandit","154","1134162","0.0-116.0-0.0","59838605","wem/bandit_party_2","A1RW6RIF1MT2YT","either","1","704","","","","","","","1","0","0","0.7966502287","","0.4","0.2","0.6","0.8","","","","","0.2782751631","0.3866429177","0.7966502287","0.6452442043","","","","","","","","","","75","K","2","","","75","main_expt",""
"","bandit","155","1137886","0.0-117.0-0.0","59838605","wem/bandit_party_2","A1RW6RIF1MT2YT","either","1","2208","","","","","","","0","1","0","","0.7775959854","0.4","0.2","0.6","0.8","0.3318782676","0.3948468247","0.7775959854","0.7031137023","","","","","","","","","","","","","","75","K","2","","","76","main_expt",""
"","bandit","156","1140380","0.0-118.0-0.0","59838605","wem/bandit_party_2","A1RW6RIF1MT2YT","either","1","978","","","","","","","0","1","0","","0.8523583745","0.4","0.2","0.6","0.8","0.312607664","0.4853082722","0.8523583745","0.6096498107","","","","","","","","","","","","","","75","K","2","","","77","main_expt",""
"","bandit","157","1142801","0.0-119.0-0.0","59838605","wem/bandit_party_2","A1RW6RIF1MT2YT","either","1","905","","","","","","","0","1","0","","0.7707034136","0.4","0.2","0.6","0.8","0.3250695504","0.4971609959","0.7707034136","0.532302087","","","","","","","","","","","","","","75","K","2","","","78","main_expt",""
"","bandit","158","1145734","0.0-120.0-0.0","59838605","wem/bandit_party_2","A1RW6RIF1MT2YT","either","1","1417","","","","","","","0","1","0","","0.7919080975","0.4","0.2","0.6","0.8","0.277144637","0.5349041547","0.7919080975","0.4448734945","","","","","","","","","","","","","","75","K","2","","","79","main_expt",""
"","bandit","159","1148644","0.0-121.0-0.0","59838605","wem/bandit_party_2","A1RW6RIF1MT2YT","either","1","1394","","","","","","","0","1","0","","0.8107458935","0.4","0.2","0.6","0.8","0.293018971","0.4713204996","0.8107458935","0.34513516","","","","","","","","","","","","","","75","K","2","","","80","main_expt",""
"","bandit","160","1151761","0.0-122.0-0.0","59838605","wem/bandit_party_2","A1RW6RIF1MT2YT","either","1","1601","","","","","","","0","1","0","","0.7851591746","0.4","0.2","0.6","0.8","0.2730851157","0.4132476049","0.7851591746","0.406584365","","","","","","","","","","","","","","75","K","2","","","81","main_expt",""
"","bandit","161","1161053","0.0-123.0-0.0","59838605","wem/bandit_party_2","A1RW6RIF1MT2YT","either","1","7777","","","","","","","0","1","0","","0.8067558171","0.4","0.2","0.6","0.8","0.2436011542","0.4640808921","0.8067558171","0.5068312928","","","","","","","","","","","","","","75","K","2","","","82","main_expt",""
"","bandit","162","1162907","0.0-124.0-0.0","59838605","wem/bandit_party_2","A1RW6RIF1MT2YT","either","1","338","","","","","","","0","1","0","","0.7777816444","0.4","0.2","0.6","0.8","0.2009218657","0.442115463","0.7777816444","0.5209063211","","","","","","","","","","","","","","75","K","2","","","83","main_expt",""
"","bandit","163","1167312","0.0-125.0-0.0","59838605","wem/bandit_party_2","A1RW6RIF1MT2YT","either","1","2889","","","","","","","0","0","1","0.7801041195","","0.4","0.2","0.6","0.8","","","","","0.1550904625","0.5117806844","0.7801041195","0.6221591745","","","","","","","","","","75","K","2","","","84","main_expt",""
"","bandit","164","1169871","0.0-126.0-0.0","59838605","wem/bandit_party_2","A1RW6RIF1MT2YT","either","1","1041","","","","","","","0","0","1","","0.5309627618","0.4","0.2","0.6","0.8","0.1193398435","0.5309627618","0.7593249252","0.6939346182","","","","","","","","","","","","","","74","J","1","","","85","main_expt",""
"","bandit","165","1172947","0.0-127.0-0.0","59838605","wem/bandit_party_2","A1RW6RIF1MT2YT","either","1","1559","","","","","","","0","0","1","","0.1398572341","0.4","0.2","0.6","0.8","0.1398572341","0.5482659382","0.7911667705","0.7533471596","","","","","","","","","","","","","","72","H","0","img/none_selected.jpg","","86","main_expt",""
"","bandit","166","1175954","0.0-128.0-0.0","59838605","wem/bandit_party_2","A1RW6RIF1MT2YT","either","1","1489","","","","","","","0","0","1","","0.4772076429","0.4","0.2","0.6","0.8","0.1941505275","0.4772076429","0.8480662183","0.8040573679","","","","","","","","","","","","","","74","J","1","","","87","main_expt",""
"","bandit","167","1178847","0.0-129.0-0.0","59838605","wem/bandit_party_2","A1RW6RIF1MT2YT","either","1","1376","","","","","","","0","0","1","","0.8110462569","0.4","0.2","0.6","0.8","0.09645570925","0.5202977678","0.8110462569","0.7800800897","","","","","","","","","","","","","","75","K","2","","","88","main_expt",""
"","bandit","168","1180541","0.0-130.0-0.0","59838605","wem/bandit_party_2","A1RW6RIF1MT2YT","either","1","177","","","","","","","0","1","0","","0.7329239748","0.4","0.2","0.6","0.8","0.1304326216","0.4970482359","0.7924414871","0.7329239748","","","","","","","","","","","","","","76","L","3","","","89","main_expt",""
"","bandit","169","1182626","0.0-131.0-0.0","59838605","wem/bandit_party_2","A1RW6RIF1MT2YT","either","1","568","","","","","","","0","0","1","0.7202813078","","0.4","0.2","0.6","0.8","","","","","0.1410434261","0.4671205494","0.8190855249","0.7202813078","","","","","","","","","","76","L","3","","","90","main_expt",""
"","bandit","170","1185404","0.0-132.0-0.0","59838605","wem/bandit_party_2","A1RW6RIF1MT2YT","either","1","1262","","","","","","","1","0","0","0.858270253","","0.4","0.2","0.6","0.8","","","","","0.1277095213","0.5518401665","0.858270253","0.698586111","","","","","","","","","","75","K","2","","","91","main_expt",""
"","bandit","171","1188177","0.0-133.0-0.0","59838605","wem/bandit_party_2","A1RW6RIF1MT2YT","either","1","1257","","","","","","","1","0","0","0.8583259383","","0.4","0.2","0.6","0.8","","","","","0.08596821216","0.620788192","0.8583259383","0.6054304462","","","","","","","","","","75","K","2","","","92","main_expt",""
"","bandit","172","1190430","0.0-134.0-0.0","59838605","wem/bandit_party_2","A1RW6RIF1MT2YT","either","1","737","","","","","","","0","1","0","","0.8335107661","0.4","0.2","0.6","0.8","0.05652587691","0.679669404","0.8335107661","0.6829204303","","","","","","","","","","","","","","75","K","2","","","93","main_expt",""
"","bandit","173","1192509","0.0-135.0-0.0","59838605","wem/bandit_party_2","A1RW6RIF1MT2YT","either","1","562","","","","","","","1","0","0","0.8849423118","","0.4","0.2","0.6","0.8","","","","","0.07490457358","0.6726581754","0.8849423118","0.6084783934","","","","","","","","","","75","K","2","","","94","main_expt",""
"","bandit","174","1194738","0.0-136.0-0.0","59838605","wem/bandit_party_2","A1RW6RIF1MT2YT","either","1","712","","","","","","","1","0","0","0.9175662658","","0.4","0.2","0.6","0.8","","","","","0.05201682933","0.5983950962","0.9175662658","0.51962455","","","","","","","","","","75","K","2","","","95","main_expt",""
"","bandit","175","1196793","0.0-137.0-0.0","59838605","wem/bandit_party_2","A1RW6RIF1MT2YT","either","1","537","","","","","","","0","1","0","","0.8726153548","0.4","0.2","0.6","0.8","0.0353667714","0.6316158747","0.8726153548","0.453067158","","","","","","","","","","","","","","75","K","2","","","96","main_expt",""
"","bandit","176","1199222","0.0-138.0-0.0","59838605","wem/bandit_party_2","A1RW6RIF1MT2YT","either","1","911","","","","","","","1","0","0","0.7260562137","","0.4","0.2","0.6","0.8","","","","","0.04301306848","0.6660601513","0.7260562137","0.4090095009","","","","","","","","","","75","K","2","","","97","main_expt",""
"","bandit","177","1204673","0.0-139.0-0.0","59838605","wem/bandit_party_2","A1RW6RIF1MT2YT","either","1","3934","","","","","","","1","0","0","0.6506148609","","0.4","0.2","0.6","0.8","","","","","0.03950067624","0.6185462561","0.6506148609","0.360727585","","","","","","","","","","75","K","2","","","98","main_expt",""
"","bandit","178","1207493","0.0-140.0-0.0","59838605","wem/bandit_party_2","A1RW6RIF1MT2YT","either","1","1304","","","","","","","1","0","0","0.5816342488","","0.4","0.2","0.6","0.8","","","","","0.03156699585","0.581128502","0.5816342488","0.3351327477","","","","","","","","","","75","K","2","","","99","main_expt",""
"","bandit","179","1210114","0.0-141.0-0.0","59838605","wem/bandit_party_2","A1RW6RIF1MT2YT","either","1","1104","","","","","","","0","0","1","0.5521464449","","0.4","0.2","0.6","0.8","","","","","0.0248161238","0.479775063","0.5521464449","0.3491912274","","","","","","","","","","75","K","2","","","100","main_expt",""
"","bandit","180","1211992","0.0-142.0-0.0","59838605","wem/bandit_party_2","A1RW6RIF1MT2YT","either","1","360","","","","","","","0","0","1","","0.5114647241","0.4","0.2","0.6","0.8","0.02218075004","0.5114647241","0.6063232436","0.4105375765","","","","","","","","","","","","","","74","J","1","","","101","main_expt",""
"","bandit","181","1213769","0.0-143.0-0.0","59838605","wem/bandit_party_2","A1RW6RIF1MT2YT","either","1","256","","","","","","","0","0","1","","0.01802152149","0.4","0.2","0.6","0.8","0.01802152149","0.4718740674","0.5636213764","0.438632671","","","","","","","","","","","","","","72","H","0","img/none_selected.jpg","","102","main_expt",""
"","bandit","182","1215299","0.0-144.0-0.0","59838605","wem/bandit_party_2","A1RW6RIF1MT2YT","either","1","11","","","","","","","0","0","1","","0.5245129891","0.4","0.2","0.6","0.8","0.01877214671","0.5245129891","0.5370473259","0.372838406","","","","","","","","","","","","","","74","J","1","","","103","main_expt",""
"","bandit","183","1217704","0.0-145.0-0.0","59838605","wem/bandit_party_2","A1RW6RIF1MT2YT","either","1","888","","","","","","","0","0","1","","0.549647281","0.4","0.2","0.6","0.8","0.01556743346","0.5170751474","0.549647281","0.3057692375","","","","","","","","","","","","","","75","K","2","","","104","main_expt",""
"","bandit","184","1221900","0.0-146.0-0.0","59838605","wem/bandit_party_2","A1RW6RIF1MT2YT","either","1","2676","","","","","","","1","0","0","0.37369274","","0.4","0.2","0.6","0.8","","","","","0.03717147126","0.472330124","0.4225976111","0.37369274","","","","","","","","","","76","L","3","","","105","main_expt",""
"","bandit","185","1223953","0.0-147.0-0.0","59838605","wem/bandit_party_2","A1RW6RIF1MT2YT","either","1","535","","","","","","","0","0","1","0.3179799449","","0.4","0.2","0.6","0.8","","","","","0.07687033395","0.568133852","0.5005163425","0.3179799449","","","","","","","","","","76","L","3","","","106","main_expt",""
"","bandit","186","1225870","0.0-148.0-0.0","59838605","wem/bandit_party_2","A1RW6RIF1MT2YT","either","1","399","","","","","","","0","1","0","","0.3995396385","0.4","0.2","0.6","0.8","0.07659049968","0.536018559","0.3995396385","0.3053765494","","","","","","","","","","","","","","75","K","2","","","107","main_expt",""
"","bandit","187","1227851","0.0-149.0-0.0","59838605","wem/bandit_party_2","A1RW6RIF1MT2YT","either","1","465","","","","","","","0","0","1","0.3855926336","","0.4","0.2","0.6","0.8","","","","","0.07827602418","0.3880888981","0.3855926336","0.2732860947","","","","","","","","","","75","K","2","","","108","main_expt",""
"","bandit","188","1229552","0.0-150.0-0.0","59838605","wem/bandit_party_2","A1RW6RIF1MT2YT","either","1","183","","","","","","","0","0","1","","0.3675045314","0.4","0.2","0.6","0.8","0.1352418701","0.3675045314","0.3059937163","0.2624197952","","","","","","","","","","","","","","74","J","1","","","109","main_expt",""
"","bandit","189","1231277","0.0-151.0-0.0","59838605","wem/bandit_party_2","A1RW6RIF1MT2YT","either","1","208","","","","","","","0","0","1","","0.1705666919","0.4","0.2","0.6","0.8","0.1705666919","0.4560700489","0.2752892785","0.3303210632","","","","","","","","","","","","","","72","H","0","img/none_selected.jpg","","110","main_expt",""
"","bandit","190","1233267","0.0-152.0-0.0","59838605","wem/bandit_party_2","A1RW6RIF1MT2YT","either","1","468","","","","","","","1","0","0","0.2202970635","","0.4","0.2","0.6","0.8","","","","","0.2202970635","0.5366389876","0.3038626008","0.3541452024","","","","","","","","","","72","H","0","img/none_selected.jpg","","111","main_expt",""
"","bandit","191","1235319","0.0-153.0-0.0","59838605","wem/bandit_party_2","A1RW6RIF1MT2YT","either","1","535","","","","","","","0","1","0","","0.2368742277","0.4","0.2","0.6","0.8","0.2368742277","0.5742054707","0.2308866464","0.4468573219","","","","","","","","","","","","","","72","H","0","img/none_selected.jpg","","112","main_expt",""
"","bandit","192","1237340","0.0-154.0-0.0","59838605","wem/bandit_party_2","A1RW6RIF1MT2YT","either","1","505","","","","","","","0","1","0","","0.2487241586","0.4","0.2","0.6","0.8","0.2487241586","0.6014260319","0.2420052043","0.5163231944","","","","","","","","","","","","","","72","H","0","img/none_selected.jpg","","113","main_expt",""
"","bandit","193","1239652","0.0-155.0-0.0","59838605","wem/bandit_party_2","A1RW6RIF1MT2YT","either","1","792","","","","","","","0","0","1","","0.238824581","0.4","0.2","0.6","0.8","0.238824581","0.5398035654","0.3277817495","0.4064640458","","","","","","","","","","","","","","72","H","0","img/none_selected.jpg","","114","main_expt",""
"","bandit","194","1241601","0.0-156.0-0.0","59838605","wem/bandit_party_2","A1RW6RIF1MT2YT","either","1","430","","","","","","","0","0","1","0.5008208772","","0.4","0.2","0.6","0.8","","","","","0.1480638281","0.5008208772","0.3280884562","0.4085425191","","","","","","","","","","74","J","1","","","115","main_expt",""
"","bandit","195","1243679","0.0-157.0-0.0","59838605","wem/bandit_party_2","A1RW6RIF1MT2YT","either","1","560","","","","","","","0","0","1","0.4137256642","","0.4","0.2","0.6","0.8","","","","","0.1246447603","0.4200837231","0.4137256642","0.4412864427","","","","","","","","","","75","K","2","","","116","main_expt",""
"","bandit","196","1246326","0.0-158.0-0.0","59838605","wem/bandit_party_2","A1RW6RIF1MT2YT","either","1","1130","","","","","","","1","0","0","0.5188885271","","0.4","0.2","0.6","0.8","","","","","0.1308085784","0.4094987027","0.372751341","0.5188885271","","","","","","","","","","76","L","3","","","117","main_expt",""
"","bandit","197","1248827","0.0-159.0-0.0","59838605","wem/bandit_party_2","A1RW6RIF1MT2YT","either","1","982","","","","","","","1","0","0","0.5728151575","","0.4","0.2","0.6","0.8","","","","","0.09076242324","0.3862907493","0.4225631273","0.5728151575","","","","","","","","","","76","L","3","","","118","main_expt",""
"","bandit","198","1253142","0.0-160.0-0.0","59838605","wem/bandit_party_2","A1RW6RIF1MT2YT","either","1","2798","","","","","","","0","0","1","0.5065624602","","0.4","0.2","0.6","0.8","","","","","0.09057925276","0.4437318585","0.4188482812","0.5065624602","","","","","","","","","","76","L","3","","","119","main_expt",""
"","bandit","199","1255715","0.0-161.0-0.0","59838605","wem/bandit_party_2","A1RW6RIF1MT2YT","either","1","1054","","","","","","","0","0","1","0.3729077829","","0.4","0.2","0.6","0.8","","","","","0.1288926122","0.293469011","0.3729077829","0.4064427813","","","","","","","","","","75","K","2","","","120","main_expt",""
"","bandit","200","1257640","0.0-162.0-0.0","59838605","wem/bandit_party_2","A1RW6RIF1MT2YT","either","1","406","","","","","","","1","0","0","0.2141601759","","0.4","0.2","0.6","0.8","","","","","0.1479701512","0.2141601759","0.3817262037","0.3948988447","","","","","","","","","","74","J","1","","","121","main_expt",""
"","bandit","201","1259790","0.0-163.0-0.0","59838605","wem/bandit_party_2","A1RW6RIF1MT2YT","either","1","631","","","","","","","0","0","1","","0.2594293103","0.4","0.2","0.6","0.8","0.1663524813","0.2594293103","0.3537210734","0.316823658","","","","","","","","","","","","","","74","J","1","","","122","main_expt",""
"","bandit","202","1261475","0.0-164.0-0.0","59838605","wem/bandit_party_2","A1RW6RIF1MT2YT","either","1","166","","","","","","","0","0","1","","0.1993917655","0.4","0.2","0.6","0.8","0.1993917655","0.1519240937","0.3633727708","0.3045978244","","","","","","","","","","","","","","72","H","0","img/none_selected.jpg","","123","main_expt",""
"","bandit","203","1263312","0.0-165.0-0.0","59838605","wem/bandit_party_2","A1RW6RIF1MT2YT","either","1","320","","","","","","","0","0","1","0.2311656533","","0.4","0.2","0.6","0.8","","","","","0.2948689786","0.2311656533","0.4139908316","0.2389028675","","","","","","","","","","74","J","1","","","124","main_expt",""
"","bandit","204","1265158","0.0-166.0-0.0","59838605","wem/bandit_party_2","A1RW6RIF1MT2YT","either","1","328","","","","","","","1","0","0","0.3619800754","","0.4","0.2","0.6","0.8","","","","","0.4054398129","0.1956748967","0.3619800754","0.2166803268","","","","","","","","","","75","K","2","","","125","main_expt",""
"","bandit","205","1267865","0.0-167.0-0.0","59838605","wem/bandit_party_2","A1RW6RIF1MT2YT","either","1","1189","","","","","","","0","1","0","","0.353362548","0.4","0.2","0.6","0.8","0.5337661481","0.1419383156","0.353362548","0.1613674106","","","","","","","","","","","","","","75","K","2","","","126","main_expt",""
"","bandit","206","1270782","0.0-168.0-0.0","59838605","wem/bandit_party_2","A1RW6RIF1MT2YT","either","1","1398","","","","","","","1","0","0","0.2888217425","","0.4","0.2","0.6","0.8","","","","","0.5510518781","0.1768105291","0.2888217425","0.1682412955","","","","","","","","","","75","K","2","","","127","main_expt",""
"","bandit","207","1273666","0.0-169.0-0.0","59838605","wem/bandit_party_2","A1RW6RIF1MT2YT","either","1","1367","","","","","","","0","0","1","","0.3131893798","0.4","0.2","0.6","0.8","0.4746642732","0.1187699492","0.3131893798","0.1655910943","","","","","","","","","","","","","","75","K","2","","","128","main_expt",""
"","bandit","208","1277543","0.0-170.0-0.0","59838605","wem/bandit_party_2","A1RW6RIF1MT2YT","either","1","2359","","","","","","","1","0","0","0.2826861836","","0.4","0.2","0.6","0.8","","","","","0.5345142674","0.1860330609","0.2826861836","0.1845506081","","","","","","","","","","75","K","2","","","129","main_expt",""
"","bandit","209","1280316","0.0-171.0-0.0","59838605","wem/bandit_party_2","A1RW6RIF1MT2YT","either","1","1255","","","","","","","0","1","0","","0.3434973012","0.4","0.2","0.6","0.8","0.6617219445","0.09722607165","0.3434973012","0.1548240476","","","","","","","","","","","","","","75","K","2","","","130","main_expt",""
"","bandit","210","1283609","0.0-172.0-0.0","59838605","wem/bandit_party_2","A1RW6RIF1MT2YT","either","1","1775","","","","","","","0","0","1","0.3848082556","","0.4","0.2","0.6","0.8","","","","","0.6183560712","0.05626421391","0.3848082556","0.1503989","","","","","","","","","","75","K","2","","","131","main_expt",""
"","bandit","211","1285297","0.0-173.0-0.0","59838605","wem/bandit_party_2","A1RW6RIF1MT2YT","either","1","168","","","","","","","0","0","1","0.1199593994","","0.4","0.2","0.6","0.8","","","","","0.7009512511","0.1149854728","0.4140069858","0.1199593994","","","","","","","","","","76","L","3","","","132","main_expt",""
"","bandit","212","1288690","0.0-174.0-0.0","59838605","wem/bandit_party_2","A1RW6RIF1MT2YT","either","1","1874","","","","","","","0","0","1","","0.1698175541","0.4","0.2","0.6","0.8","0.5838974895","0.1698175541","0.3745017877","0.1518383839","","","","","","","","","","","","","","74","J","1","","","133","main_expt",""
"","bandit","213","1290783","0.0-175.0-0.0","59838605","wem/bandit_party_2","A1RW6RIF1MT2YT","either","1","574","","","","","","","0","0","1","","0.6628563986","0.4","0.2","0.6","0.8","0.6628563986","0.1925371395","0.3918835711","0.1855528241","","","","","","","","","","","","","","72","H","0","img/none_selected.jpg","","134","main_expt",""
"","bandit","214","1292844","0.0-176.0-0.0","59838605","wem/bandit_party_2","A1RW6RIF1MT2YT","either","1","542","","","","","","","0","0","1","","0.246136332","0.4","0.2","0.6","0.8","0.5610912218","0.246136332","0.3405764209","0.2187769305","","","","","","","","","","","","","","74","J","1","","","135","main_expt",""
"","bandit","215","1295075","0.0-177.0-0.0","59838605","wem/bandit_party_2","A1RW6RIF1MT2YT","either","1","711","","","","","","","0","0","1","0.4155430462","","0.4","0.2","0.6","0.8","","","","","0.4834649218","0.2277518718","0.4155430462","0.2001534018","","","","","","","","","","75","K","2","","","136","main_expt",""
"","bandit","216","1297383","0.0-178.0-0.0","59838605","wem/bandit_party_2","A1RW6RIF1MT2YT","either","1","790","","","","","","","0","0","1","0.176995917","","0.4","0.2","0.6","0.8","","","","","0.513072369","0.252962458","0.3389252929","0.176995917","","","","","","","","","","76","L","3","","","137","main_expt",""
"","bandit","217","1299780","0.0-179.0-0.0","59838605","wem/bandit_party_2","A1RW6RIF1MT2YT","either","1","879","","","","","","","1","0","0","0.2698753193","","0.4","0.2","0.6","0.8","","","","","0.5502636267","0.3018696236","0.2698753193","0.1460019238","","","","","","","","","","75","K","2","","","138","main_expt",""
"","bandit","218","1303875","0.0-180.0-0.0","59838605","wem/bandit_party_2","A1RW6RIF1MT2YT","either","1","2574","","","","","","","0","0","1","","0.2821570394","0.4","0.2","0.6","0.8","0.4564922144","0.347353107","0.2821570394","0.06707115951","","","","","","","","","","","","","","75","K","2","","","139","main_expt",""
"","bandit","219","1306145","0.0-181.0-0.0","59838605","wem/bandit_party_2","A1RW6RIF1MT2YT","either","1","748","","","","","","","0","0","1","","0.2477375586","0.4","0.2","0.6","0.8","0.4116013625","0.2477375586","0.3577533322","0.1071331831","","","","","","","","","","","","","","74","J","1","","","140","main_expt",""
"","bandit","220","1315972","0.0-182.0-0.0","59838605","wem/bandit_party_2","A1RW6RIF1MT2YT","either","1","8307","","","","","","","0","0","1","0.2880826197","","0.4","0.2","0.6","0.8","","","","","0.4498847811","0.2880826197","0.4250900652","0.1224459691","","","","","","","","","","74","J","1","","","141","main_expt",""
"","bandit","221","1317912","0.0-183.0-0.0","59838605","wem/bandit_party_2","A1RW6RIF1MT2YT","either","1","421","","","","","","","1","0","0","0.4822150968","","0.4","0.2","0.6","0.8","","","","","0.4822150968","0.2287108423","0.3451055681","0.1127900777","","","","","","","","","","72","H","0","img/none_selected.jpg","","142","main_expt",""
"","bandit","222","1320262","0.0-184.0-0.0","59838605","wem/bandit_party_2","A1RW6RIF1MT2YT","either","1","830","","","","","","","1","0","0","0.513506041","","0.4","0.2","0.6","0.8","","","","","0.513506041","0.2096850542","0.4661026996","0.1736101882","","","","","","","","","","72","H","0","img/none_selected.jpg","","143","main_expt",""
"","bandit","223","1322507","0.0-185.0-0.0","59838605","wem/bandit_party_2","A1RW6RIF1MT2YT","either","1","726","","","","","","","1","0","0","0.556822441","","0.4","0.2","0.6","0.8","","","","","0.556822441","0.2214165798","0.4683168179","0.1231714597","","","","","","","","","","72","H","0","img/none_selected.jpg","","144","main_expt",""
"","bandit","224","1327632","0.0-186.0-0.0","59838605","wem/bandit_party_2","A1RW6RIF1MT2YT","either","1","3606","","","","","","","1","0","0","0.5633269006","","0.4","0.2","0.6","0.8","","","","","0.5633269006","0.2412424024","0.448697065","0.10514291","","","","","","","","","","72","H","0","img/none_selected.jpg","","145","main_expt",""
"","bandit","225","1330481","0.0-187.0-0.0","59838605","wem/bandit_party_2","A1RW6RIF1MT2YT","either","1","1327","","","","","","","0","1","0","","0.6482805244","0.4","0.2","0.6","0.8","0.6482805244","0.1841611904","0.4560677512","0.0972381369","","","","","","","","","","","","","","72","H","0","img/none_selected.jpg","","146","main_expt",""
"","bandit","226","1332909","0.0-188.0-0.0","59838605","wem/bandit_party_2","A1RW6RIF1MT2YT","either","1","908","","","","","","","0","0","1","","0.6036290043","0.4","0.2","0.6","0.8","0.6036290043","0.1577922033","0.513472809","0.1897119627","","","","","","","","","","","","","","72","H","0","img/none_selected.jpg","","147","main_expt",""
"","bandit","227","1336073","0.0-189.0-0.0","59838605","wem/bandit_party_2","A1RW6RIF1MT2YT","either","1","1646","","","","","","","0","0","1","","0.6110248825","0.4","0.2","0.6","0.8","0.6110248825","0.1663963597","0.3820674583","0.1759094881","","","","","","","","","","","","","","72","H","0","img/none_selected.jpg","","148","main_expt",""
"","bandit","228","1338614","0.0-190.0-0.0","59838605","wem/bandit_party_2","A1RW6RIF1MT2YT","either","1","1022","","","","","","","0","1","0","","0.319747154","0.4","0.2","0.6","0.8","0.6453676348","0.319747154","0.3116557105","0.2204336569","","","","","","","","","","","","","","74","J","1","","","149","main_expt",""
"","bandit","229","1340636","0.0-191.0-0.0","59838605","wem/bandit_party_2","A1RW6RIF1MT2YT","either","1","504","","","","","","","1","0","0","0.5410110608","","0.4","0.2","0.6","0.8","","","","","0.66235511","0.5410110608","0.3039338698","0.2328853871","","","","","","","","","","74","J","1","","","150","main_expt",""
"","bandit","230","1342889","0.0-192.0-0.0","59838605","wem/bandit_party_2","A1RW6RIF1MT2YT","either","1","734","","","","","","","0","1","0","","0.5584745132","0.4","0.2","0.6","0.8","0.5547575852","0.5584745132","0.3092958796","0.2652525627","","","","","","","","","","","","","","74","J","1","","","151","main_expt",""
"","bandit","231","1344871","0.0-193.0-0.0","59838605","wem/bandit_party_2","A1RW6RIF1MT2YT","either","1","463","","","","","","","0","1","0","","0.5709378499","0.4","0.2","0.6","0.8","0.5223098228","0.5709378499","0.3097370874","0.2654363334","","","","","","","","","","","","","","74","J","1","","","152","main_expt",""
"","bandit","232","1346772","0.0-194.0-0.0","59838605","wem/bandit_party_2","A1RW6RIF1MT2YT","either","1","382","","","","","","","0","1","0","","0.6314515046","0.4","0.2","0.6","0.8","0.5137303037","0.6314515046","0.2955649657","0.3505589273","","","","","","","","","","","","","","74","J","1","","","153","main_expt",""
"","bandit","233","1348986","0.0-195.0-0.0","59838605","wem/bandit_party_2","A1RW6RIF1MT2YT","either","1","695","","","","","","","0","1","0","","0.6734276465","0.4","0.2","0.6","0.8","0.5193194566","0.6734276465","0.221553637","0.39889796","","","","","","","","","","","","","","74","J","1","","","154","main_expt",""
"","bandit","234","1351329","0.0-196.0-0.0","59838605","wem/bandit_party_2","A1RW6RIF1MT2YT","either","1","823","","","","","","","0","0","1","","0.7019144477","0.4","0.2","0.6","0.8","0.4736812385","0.7019144477","0.2231547498","0.4202606707","","","","","","","","","","","","","","74","J","1","","","155","main_expt",""
"","bandit","235","1353974","0.0-197.0-0.0","59838605","wem/bandit_party_2","A1RW6RIF1MT2YT","either","1","1124","","","","","","","0","0","1","0.2750957943","","0.4","0.2","0.6","0.8","","","","","0.4616442501","0.6695455193","0.2750957943","0.4814159609","","","","","","","","","","75","K","2","","","156","main_expt",""
"","bandit","236","1355914","0.0-198.0-0.0","59838605","wem/bandit_party_2","A1RW6RIF1MT2YT","either","1","420","","","","","","","0","0","1","0.2005793054","","0.4","0.2","0.6","0.8","","","","","0.5025740222","0.6179864128","0.2005793054","0.5316807058","","","","","","","","","","75","K","2","","","157","main_expt",""
"","bandit","237","1357551","0.0-199.0-0.0","59838605","wem/bandit_party_2","A1RW6RIF1MT2YT","either","1","115","","","","","","","0","1","0","","0.7380689997","0.4","0.2","0.6","0.8","0.4548105643","0.7380689997","0.2502080146","0.5429668589","","","","","","","","","","","","","","74","J","1","","","158","main_expt",""
"","bandit","238","1359478","0.0-200.0-0.0","59838605","wem/bandit_party_2","A1RW6RIF1MT2YT","either","1","405","","","","","","","0","0","1","","0.7632184112","0.4","0.2","0.6","0.8","0.4622667215","0.7632184112","0.2729805177","0.5991419929","","","","","","","","","","","","","","74","J","1","","","159","main_expt",""
"","bandit","239","1361388","0.0-201.0-0.0","59838605","wem/bandit_party_2","A1RW6RIF1MT2YT","either","1","388","","","","","","","0","0","1","0.2801697818","","0.4","0.2","0.6","0.8","","","","","0.4600517474","0.6917664031","0.2801697818","0.6480894682","","","","","","","","","","75","K","2","","","160","main_expt",""
"","bandit","240","1363296","0.0-202.0-0.0","59838605","wem/bandit_party_2","A1RW6RIF1MT2YT","either","1","387","","","","","","","0","1","0","","0.7106531984","0.4","0.2","0.6","0.8","0.481388234","0.7106531984","0.2437938608","0.6776161973","","","","","","","","","","","","","","74","J","1","","","161","main_expt",""
"","bandit","241","1365740","0.0-203.0-0.0","59838605","wem/bandit_party_2","A1RW6RIF1MT2YT","either","1","925","","","","","","","0","1","0","","0.809310282","0.4","0.2","0.6","0.8","0.3850106192","0.809310282","0.2687553501","0.7134031715","","","","","","","","","","","","","","74","J","1","","","162","main_expt",""
"","bandit","242","1368097","0.0-204.0-0.0","59838605","wem/bandit_party_2","A1RW6RIF1MT2YT","either","1","837","","","","","","","0","1","0","","0.7492875705","0.4","0.2","0.6","0.8","0.3498723973","0.7492875705","0.245991677","0.6215635068","","","","","","","","","","","","","","74","J","1","","","163","main_expt",""
"","bandit","243","1370230","0.0-205.0-0.0","59838605","wem/bandit_party_2","A1RW6RIF1MT2YT","either","1","613","","","","","","","1","0","0","0.7561394707","","0.4","0.2","0.6","0.8","","","","","0.4287417444","0.7561394707","0.270385563","0.5219240024","","","","","","","","","","74","J","1","","","164","main_expt",""
"","bandit","244","1372428","0.0-206.0-0.0","59838605","wem/bandit_party_2","A1RW6RIF1MT2YT","either","1","678","","","","","","","0","0","1","","0.8111415702","0.4","0.2","0.6","0.8","0.3150145745","0.8111415702","0.3037855967","0.4727302842","","","","","","","","","","","","","","74","J","1","","","165","main_expt",""
"","bandit","245","1374282","0.0-207.0-0.0","59838605","wem/bandit_party_2","A1RW6RIF1MT2YT","either","1","333","","","","","","","0","1","0","","0.3395577104","0.4","0.2","0.6","0.8","0.2927018344","0.7759938205","0.3395577104","0.5181018645","","","","","","","","","","","","","","75","K","2","","","166","main_expt",""
"","bandit","246","1376344","0.0-208.0-0.0","59838605","wem/bandit_party_2","A1RW6RIF1MT2YT","either","1","541","","","","","","","0","0","1","0.3443901906","","0.4","0.2","0.6","0.8","","","","","0.3610256338","0.8267633335","0.3443901906","0.5280433419","","","","","","","","","","75","K","2","","","167","main_expt",""
"","bandit","247","1378357","0.0-209.0-0.0","59838605","wem/bandit_party_2","A1RW6RIF1MT2YT","either","1","493","","","","","","","0","1","0","","0.8136073627","0.4","0.2","0.6","0.8","0.3137127159","0.8136073627","0.2552323567","0.5470010145","","","","","","","","","","","","","","74","J","1","","","168","main_expt",""
"","bandit","248","1380410","0.0-210.0-0.0","59838605","wem/bandit_party_2","A1RW6RIF1MT2YT","either","1","533","","","","","","","0","0","1","","0.7308533614","0.4","0.2","0.6","0.8","0.2292796242","0.7308533614","0.289352286","0.5558845962","","","","","","","","","","","","","","74","J","1","","","169","main_expt",""
"","bandit","249","1382856","0.0-211.0-0.0","59838605","wem/bandit_party_2","A1RW6RIF1MT2YT","either","1","926","","","","","","","0","0","1","","0.221948569","0.4","0.2","0.6","0.8","0.221948569","0.7090730391","0.2262743404","0.5799309324","","","","","","","","","","","","","","72","H","0","img/none_selected.jpg","","170","main_expt",""
"","bandit","250","1384764","0.0-212.0-0.0","59838605","wem/bandit_party_2","A1RW6RIF1MT2YT","either","1","378","","","","","","","0","0","1","","0.7229684446","0.4","0.2","0.6","0.8","0.159615594","0.7229684446","0.2644351609","0.6643953266","","","","","","","","","","","","","","74","J","1","","","171","main_expt",""
"","bandit","251","1386682","0.0-213.0-0.0","59838605","wem/bandit_party_2","A1RW6RIF1MT2YT","either","1","398","","","","","","","0","0","1","","0.4136296373","0.4","0.2","0.6","0.8","0.1303854457","0.6612043244","0.4136296373","0.7610666705","","","","","","","","","","","","","","75","K","2","","","172","main_expt",""
"","bandit","252","1388833","0.0-214.0-0.0","59838605","wem/bandit_party_2","A1RW6RIF1MT2YT","either","1","631","","","","","","","0","1","0","","0.8006149786","0.4","0.2","0.6","0.8","0.07729024622","0.7669021743","0.491318492","0.8006149786","","","","","","","","","","","","","","76","L","3","","","173","main_expt",""
"","bandit","253","1390813","0.0-215.0-0.0","59838605","wem/bandit_party_2","A1RW6RIF1MT2YT","either","1","461","","","","","","","1","0","0","0.791095403","","0.4","0.2","0.6","0.8","","","","","0.1227026474","0.8111867287","0.4966763124","0.791095403","","","","","","","","","","76","L","3","","","174","main_expt",""
"","bandit","254","1393194","0.0-216.0-0.0","59838605","wem/bandit_party_2","A1RW6RIF1MT2YT","either","1","862","","","","","","","1","0","0","0.8572088762","","0.4","0.2","0.6","0.8","","","","","0.09483306355","0.8192498968","0.5109350621","0.8572088762","","","","","","","","","","76","L","3","","","175","main_expt",""
"","bandit","255","1395816","0.0-217.0-0.0","59838605","wem/bandit_party_2","A1RW6RIF1MT2YT","either","1","1103","","","","","","","1","0","0","0.8576080684","","0.4","0.2","0.6","0.8","","","","","0.143069758","0.8371283275","0.6321295754","0.8576080684","","","","","","","","","","76","L","3","","","176","main_expt",""
"","bandit","256","1399557","0.0-218.0-0.0","59838605","wem/bandit_party_2","A1RW6RIF1MT2YT","either","1","2222","","","","","","","1","0","0","0.8678158231","","0.4","0.2","0.6","0.8","","","","","0.1741656422","0.8545140947","0.5515755996","0.8678158231","","","","","","","","","","76","L","3","","","177","main_expt",""
"","bandit","257","1409999","0.0-219.0-0.0","59838605","wem/bandit_party_2","A1RW6RIF1MT2YT","either","1","8923","","","","","","","1","0","0","0.8820542777","","0.4","0.2","0.6","0.8","","","","","0.1904086474","0.8794893657","0.5086275016","0.8820542777","","","","","","","","","","76","L","3","","","178","main_expt",""
"","bandit","258","1412084","0.0-220.0-0.0","59838605","wem/bandit_party_2","A1RW6RIF1MT2YT","either","1","565","","","","","","","0","1","0","","0.8907334788","0.4","0.2","0.6","0.8","0.1778905233","0.8939587296","0.5215192908","0.8907334788","","","","","","","","","","","","","","76","L","3","","","179","main_expt",""
"","bandit","259","1416216","0.0-221.0-0.0","59838605","wem/bandit_party_2","A1RW6RIF1MT2YT","either","1","2611","","","","","","","1","0","0","0.9161653667","","0.4","0.2","0.6","0.8","","","","","0.2112817454","0.868077767","0.5193414217","0.9161653667","","","","","","","","","","76","L","3","","","180","main_expt",""
"","bandit","260","1418940","0.0-222.0-0.0","59838605","wem/bandit_party_2","A1RW6RIF1MT2YT","either","1","1205","","","","","","","1","0","0","0.9327112184","","0.4","0.2","0.6","0.8","","","","","0.2236312472","0.9295405476","0.4613460131","0.9327112184","","","","","","","","","","76","L","3","","","181","main_expt",""
"","bandit","261","1421154","0.0-223.0-0.0","59838605","wem/bandit_party_2","A1RW6RIF1MT2YT","either","1","694","","","","","","","1","0","0","0.9284398706","","0.4","0.2","0.6","0.8","","","","","0.264467441","0.9213574857","0.4468633868","0.9284398706","","","","","","","","","","76","L","3","","","182","main_expt",""
"","bandit","262","1424310","0.0-224.0-0.0","59838605","wem/bandit_party_2","A1RW6RIF1MT2YT","either","1","1637","","","","","","","0","1","0","","0.89591471","0.4","0.2","0.6","0.8","0.2240632979","0.9374560388","0.4985091709","0.89591471","","","","","","","","","","","","","","76","L","3","","","183","main_expt",""
"","bandit","263","1427635","0.0-225.0-0.0","59838605","wem/bandit_party_2","A1RW6RIF1MT2YT","either","1","1806","","","","","","","1","0","0","0.9146434193","","0.4","0.2","0.6","0.8","","","","","0.1671404848","0.9120054929","0.6057575335","0.9146434193","","","","","","","","","","76","L","3","","","184","main_expt",""
"","bandit","264","1430000","0.0-226.0-0.0","59838605","wem/bandit_party_2","A1RW6RIF1MT2YT","either","1","845","","","","","","","1","0","0","0.8575823977","","0.4","0.2","0.6","0.8","","","","","0.1932257563","0.8428471033","0.4915456485","0.8575823977","","","","","","","","","","76","L","3","","","185","main_expt",""
"","bandit","265","1432533","0.0-227.0-0.0","59838605","wem/bandit_party_2","A1RW6RIF1MT2YT","either","1","1013","","","","","","","0","1","0","","0.8487952361","0.4","0.2","0.6","0.8","0.155472597","0.7734335662","0.5976273718","0.8487952361","","","","","","","","","","","","","","76","L","3","","","186","main_expt",""
"","bandit","266","1436850","0.0-228.0-0.0","59838605","wem/bandit_party_2","A1RW6RIF1MT2YT","either","1","2797","","","","","","","1","0","0","0.8603972339","","0.4","0.2","0.6","0.8","","","","","0.1895871356","0.7667319261","0.5743595779","0.8603972339","","","","","","","","","","76","L","3","","","187","main_expt",""
"","bandit","267","1439151","0.0-229.0-0.0","59838605","wem/bandit_party_2","A1RW6RIF1MT2YT","either","1","781","","","","","","","1","0","0","0.8834510925","","0.4","0.2","0.6","0.8","","","","","0.2119556673","0.5945875292","0.6833173747","0.8834510925","","","","","","","","","","76","L","3","","","188","main_expt",""
"","bandit","268","1441485","0.0-230.0-0.0","59838605","wem/bandit_party_2","A1RW6RIF1MT2YT","either","1","813","","","","","","","1","0","0","0.8973947779","","0.4","0.2","0.6","0.8","","","","","0.2255007403","0.7406569186","0.651089354","0.8973947779","","","","","","","","","","76","L","3","","","189","main_expt",""
"","bandit","269","1443306","0.0-231.0-0.0","59838605","wem/bandit_party_2","A1RW6RIF1MT2YT","either","1","301","","","","","","","0","1","0","","0.8824587855","0.4","0.2","0.6","0.8","0.1754842532","0.7371931777","0.6599652607","0.8824587855","","","","","","","","","","","","","","76","L","3","","","190","main_expt",""
"","bandit","270","1446221","0.0-232.0-0.0","59838605","wem/bandit_party_2","A1RW6RIF1MT2YT","either","1","1395","","","","","","","1","0","0","0.9076431997","","0.4","0.2","0.6","0.8","","","","","0.1936311571","0.7019705866","0.6960236584","0.9076431997","","","","","","","","","","76","L","3","","","191","main_expt",""
"","bandit","271","1450679","0.0-233.0-0.0","59838605","wem/bandit_party_2","A1RW6RIF1MT2YT","either","1","2938","","","","","","","0","1","0","","0.8673165995","0.4","0.2","0.6","0.8","0.215612591","0.6198122665","0.6713911156","0.8673165995","","","","","","","","","","","","","","76","L","3","","","192","main_expt",""
"","bandit","272","1453290","0.0-234.0-0.0","59838605","wem/bandit_party_2","A1RW6RIF1MT2YT","either","1","1091","","","","","","","0","1","0","","0.8264401474","0.4","0.2","0.6","0.8","0.2818734505","0.6100930929","0.7244072205","0.8264401474","","","","","","","","","","","","","","76","L","3","","","193","main_expt",""
"","bandit","273","1458288","0.0-235.0-0.0","59838605","wem/bandit_party_2","A1RW6RIF1MT2YT","either","1","3444","","","","","","","0","0","1","0.8546086414","","0.4","0.2","0.6","0.8","","","","","0.3616108755","0.6332739585","0.7397798508","0.8546086414","","","","","","","","","","76","L","3","","","194","main_expt",""
"","bandit","274","1465370","0.0-236.0-0.0","59838605","wem/bandit_party_2","A1RW6RIF1MT2YT","either","1","5562","","","","","","","1","0","0","0.7914914872","","0.4","0.2","0.6","0.8","","","","","0.3979961615","0.609207161","0.7602069811","0.7914914872","","","","","","","","","","76","L","3","","","195","main_expt",""
"","bandit","275","1467695","0.0-237.0-0.0","59838605","wem/bandit_party_2","A1RW6RIF1MT2YT","either","1","801","","","","","","","0","1","0","","0.7608346536","0.4","0.2","0.6","0.8","0.4366641927","0.6560649547","0.7114092524","0.7608346536","","","","","","","","","","","","","","76","L","3","","","196","main_expt",""
"","bandit","276","1469891","0.0-238.0-0.0","59838605","wem/bandit_party_2","A1RW6RIF1MT2YT","either","1","676","","","","","","","1","0","0","0.7003784325","","0.4","0.2","0.6","0.8","","","","","0.560782874","0.6656533059","0.6917424169","0.7003784325","","","","","","","","","","76","L","3","","","197","main_expt",""
"","bandit","277","1472160","0.0-239.0-0.0","59838605","wem/bandit_party_2","A1RW6RIF1MT2YT","either","1","749","","","","","","","0","0","1","0.6036075577","","0.4","0.2","0.6","0.8","","","","","0.5649388288","0.6841747727","0.6561069913","0.6036075577","","","","","","","","","","76","L","3","","","198","main_expt",""
"","bandit","278","1474533","0.0-240.0-0.0","59838605","wem/bandit_party_2","A1RW6RIF1MT2YT","either","1","853","","","","","","","1","0","0","0.5843314555","","0.4","0.2","0.6","0.8","","","","","0.5375892324","0.7105065455","0.6948346643","0.5843314555","","","","","","","","","","76","L","3","","","199","main_expt",""
"","bandit","279","1476809","0.0-241.0-0.0","59838605","wem/bandit_party_2","A1RW6RIF1MT2YT","either","1","756","","","","","","","1","0","0","0.539414212","","0.4","0.2","0.6","0.8","","","","","0.5625167851","0.7380433654","0.7369743936","0.539414212","","","","","","","","","","76","L","3","","","200","main_expt",""
"","bandit","280","1479191","0.0-242.0-0.0","59838605","wem/bandit_party_2","A1RW6RIF1MT2YT","either","1","861","","","","","","","0","0","1","","0.3774065742","0.4","0.2","0.6","0.8","0.6266810217","0.6432951689","0.8347268415","0.3774065742","","","","","","","","","","","","","","76","L","3","","","201","main_expt",""
"","bandit","281","1481220","0.0-243.0-0.0","59838605","wem/bandit_party_2","A1RW6RIF1MT2YT","either","1","509","","","","","","","1","0","0","0.2824615609","","0.4","0.2","0.6","0.8","","","","","0.6661075828","0.4995879772","0.7612264534","0.2824615609","","","","","","","","","","76","L","3","","","202","main_expt",""
"","bandit","282","1483497","0.0-244.0-0.0","59838605","wem/bandit_party_2","A1RW6RIF1MT2YT","either","1","757","","","","","","","0","0","1","0.210170224","","0.4","0.2","0.6","0.8","","","","","0.7534099026","0.4767352753","0.6904596671","0.210170224","","","","","","","","","","76","L","3","","","203","main_expt",""
"","bandit","283","1485567","0.0-245.0-0.0","59838605","wem/bandit_party_2","A1RW6RIF1MT2YT","either","1","549","","","","","","","0","0","1","0.2708138581","","0.4","0.2","0.6","0.8","","","","","0.7033522103","0.3680612217","0.6855485072","0.2708138581","","","","","","","","","","76","L","3","","","204","main_expt",""
"","bandit","284","1488386","0.0-246.0-0.0","59838605","wem/bandit_party_2","A1RW6RIF1MT2YT","either","1","1299","","","","","","","0","1","0","","0.6105989365","0.4","0.2","0.6","0.8","0.6105989365","0.3404512965","0.7006332368","0.3319820794","","","","","","","","","","","","","","72","H","0","img/none_selected.jpg","","205","main_expt",""
"","bandit","285","1490407","0.0-247.0-0.0","59838605","wem/bandit_party_2","A1RW6RIF1MT2YT","either","1","500","","","","","","","0","0","1","","0.725137222","0.4","0.2","0.6","0.8","0.725137222","0.2774568564","0.7533130943","0.3517339603","","","","","","","","","","","","","","72","H","0","img/none_selected.jpg","","206","main_expt",""
"","bandit","286","1492717","0.0-248.0-0.0","59838605","wem/bandit_party_2","A1RW6RIF1MT2YT","either","1","788","","","","","","","0","0","1","","0.2228883469","0.4","0.2","0.6","0.8","0.5888984072","0.2228883469","0.7191760557","0.2871079035","","","","","","","","","","","","","","74","J","1","","","207","main_expt",""
"","bandit","287","1495194","0.0-249.0-0.0","59838605","wem/bandit_party_2","A1RW6RIF1MT2YT","either","1","954","","","","","","","0","0","1","0.6264293856","","0.4","0.2","0.6","0.8","","","","","0.4650323514","0.2829247412","0.6264293856","0.2642306377","","","","","","","","","","75","K","2","","","208","main_expt",""
"","bandit","288","1497821","0.0-250.0-0.0","59838605","wem/bandit_party_2","A1RW6RIF1MT2YT","either","1","1106","","","","","","","1","0","0","0.4100719568","","0.4","0.2","0.6","0.8","","","","","0.4100719568","0.3169104167","0.6500478562","0.3587725811","","","","","","","","","","72","H","0","img/none_selected.jpg","","209","main_expt",""
"","bandit","289","1500179","0.0-251.0-0.0","59838605","wem/bandit_party_2","A1RW6RIF1MT2YT","either","1","836","","","","","","","0","1","0","","0.5177296744","0.4","0.2","0.6","0.8","0.5177296744","0.2090062306","0.6498865343","0.3103342645","","","","","","","","","","","","","","72","H","0","img/none_selected.jpg","","210","main_expt",""
"","bandit","290","1502888","0.0-252.0-0.0","59838605","wem/bandit_party_2","A1RW6RIF1MT2YT","either","1","1188","","","","","","","0","0","1","","0.5950812693","0.4","0.2","0.6","0.8","0.5950812693","0.1481662818","0.6056301442","0.3760595068","","","","","","","","","","","","","","72","H","0","img/none_selected.jpg","","211","main_expt",""
"","bandit","291","1505304","0.0-253.0-0.0","59838605","wem/bandit_party_2","A1RW6RIF1MT2YT","either","1","894","","","","","","","0","1","0","","0.5524844402","0.4","0.2","0.6","0.8","0.7169745983","0.2114888193","0.5524844402","0.447023013","","","","","","","","","","","","","","75","K","2","","","212","main_expt",""
"","bandit","292","1508948","0.0-254.0-0.0","59838605","wem/bandit_party_2","A1RW6RIF1MT2YT","either","1","2121","","","","","","","0","0","1","","0.6984249358","0.4","0.2","0.6","0.8","0.6766124197","0.2234642754","0.6984249358","0.4529182837","","","","","","","","","","","","","","75","K","2","","","213","main_expt",""
"","bandit","293","1511232","0.0-255.0-0.0","59838605","wem/bandit_party_2","A1RW6RIF1MT2YT","either","1","761","","","","","","","0","0","1","","0.2315139555","0.4","0.2","0.6","0.8","0.8005648136","0.2315139555","0.5996975418","0.4306534983","","","","","","","","","","","","","","74","J","1","","","214","main_expt",""
"","bandit","294","1513358","0.0-256.0-0.0","59838605","wem/bandit_party_2","A1RW6RIF1MT2YT","either","1","604","","","","","","","0","0","1","0.4314469479","","0.4","0.2","0.6","0.8","","","","","0.8487964291","0.1949488974","0.6067129047","0.4314469479","","","","","","","","","","76","L","3","","","215","main_expt",""
"","bandit","295","1515634","0.0-257.0-0.0","59838605","wem/bandit_party_2","A1RW6RIF1MT2YT","either","1","754","","","","","","","1","0","0","0.8674123454","","0.4","0.2","0.6","0.8","","","","","0.8674123454","0.2333303883","0.6297976658","0.45439575","","","","","","","","","","72","H","0","img/none_selected.jpg","","216","main_expt",""
"","bandit","296","1517999","0.0-258.0-0.0","59838605","wem/bandit_party_2","A1RW6RIF1MT2YT","either","1","842","","","","","","","0","0","1","","0.8774404243","0.4","0.2","0.6","0.8","0.8774404243","0.2027763819","0.6095272491","0.5228861726","","","","","","","","","","","","","","72","H","0","img/none_selected.jpg","","217","main_expt",""
"","bandit","297","1519908","0.0-259.0-0.0","59838605","wem/bandit_party_2","A1RW6RIF1MT2YT","either","1","386","","","","","","","0","1","0","","0.1895874514","0.4","0.2","0.6","0.8","0.8836448068","0.1895874514","0.7058099393","0.463703458","","","","","","","","","","","","","","74","J","1","","","218","main_expt",""
"","bandit","298","1524809","0.0-260.0-0.0","59838605","wem/bandit_party_2","A1RW6RIF1MT2YT","either","1","3378","","","","","","","0","0","1","0.1537120117","","0.4","0.2","0.6","0.8","","","","","0.880498508","0.1537120117","0.7396246451","0.4522864467","","","","","","","","","","74","J","1","","","219","main_expt",""
"","bandit","299","1526950","0.0-261.0-0.0","59838605","wem/bandit_party_2","A1RW6RIF1MT2YT","either","1","620","","","","","","","0","1","0","","0.7091968036","0.4","0.2","0.6","0.8","0.8740874997","0.2022747423","0.7091968036","0.4561576612","","","","","","","","","","","","","","75","K","2","","","220","main_expt",""
"","bandit","300","1529091","0.0-262.0-0.0","59838605","wem/bandit_party_2","A1RW6RIF1MT2YT","either","1","620","","","","","","","0","1","0","","0.7116308873","0.4","0.2","0.6","0.8","0.8527830905","0.3174413427","0.7116308873","0.4264657168","","","","","","","","","","","","","","75","K","2","","","221","main_expt",""
"","bandit","301","1531707","0.0-263.0-0.0","59838605","wem/bandit_party_2","A1RW6RIF1MT2YT","either","1","1092","","","","","","","0","0","1","","0.769465391","0.4","0.2","0.6","0.8","0.7717907476","0.2315667073","0.769465391","0.3055141729","","","","","","","","","","","","","","75","K","2","","","222","main_expt",""
"","bandit","302","1533485","0.0-264.0-0.0","59838605","wem/bandit_party_2","A1RW6RIF1MT2YT","either","1","257","","","","","","","1","0","0","0.8359700354","","0.4","0.2","0.6","0.8","","","","","0.8359700354","0.2261006122","0.7509006974","0.2868954791","","","","","","","","","","72","H","0","img/none_selected.jpg","","223","main_expt",""
"","bandit","303","1535779","0.0-265.0-0.0","59838605","wem/bandit_party_2","A1RW6RIF1MT2YT","either","1","773","","","","","","","0","0","1","0.819670806","","0.4","0.2","0.6","0.8","","","","","0.819670806","0.2662378096","0.7007688409","0.2698185242","","","","","","","","","","72","H","0","img/none_selected.jpg","","224","main_expt",""
"","bandit","304","1537425","0.0-266.0-0.0","59838605","wem/bandit_party_2","A1RW6RIF1MT2YT","either","1","123","","","","","","","0","0","1","","0.2163280173","0.4","0.2","0.6","0.8","0.8512382749","0.2163280173","0.7409020096","0.213842325","","","","","","","","","","","","","","74","J","1","","","225","main_expt",""
"","bandit","305","1539239","0.0-267.0-0.0","59838605","wem/bandit_party_2","A1RW6RIF1MT2YT","either","1","292","","","","","","","1","0","0","0.7052945704","","0.4","0.2","0.6","0.8","","","","","0.8342861847","0.2809353625","0.7052945704","0.1616408491","","","","","","","","","","75","K","2","","","226","main_expt",""
"","bandit","306","1541347","0.0-268.0-0.0","59838605","wem/bandit_party_2","A1RW6RIF1MT2YT","either","1","587","","","","","","","1","0","0","0.606091252","","0.4","0.2","0.6","0.8","","","","","0.7736041865","0.2396571279","0.606091252","0.1777599287","","","","","","","","","","75","K","2","","","227","main_expt",""
"","bandit","307","1543400","0.0-269.0-0.0","59838605","wem/bandit_party_2","A1RW6RIF1MT2YT","either","1","531","","","","","","","0","0","1","0.5834203199","","0.4","0.2","0.6","0.8","","","","","0.8094350608","0.3430446928","0.5834203199","0.2866543064","","","","","","","","","","75","K","2","","","228","main_expt",""
"","bandit","308","1545096","0.0-270.0-0.0","59838605","wem/bandit_party_2","A1RW6RIF1MT2YT","either","1","172","","","","","","","0","0","1","0.3948293382","","0.4","0.2","0.6","0.8","","","","","0.8078722129","0.2886233194","0.5466214007","0.3948293382","","","","","","","","","","76","L","3","","","229","main_expt",""
"","bandit","309","1547243","0.0-271.0-0.0","59838605","wem/bandit_party_2","A1RW6RIF1MT2YT","either","1","626","","","","","","","0","1","0","","0.5519014059","0.4","0.2","0.6","0.8","0.7719043616","0.3213731463","0.5519014059","0.3291786684","","","","","","","","","","","","","","75","K","2","","","230","main_expt",""
"","bandit","310","1550349","0.0-272.0-0.0","59838605","wem/bandit_party_2","A1RW6RIF1MT2YT","either","1","1579","","","","","","","0","0","1","","0.2378236032","0.4","0.2","0.6","0.8","0.8049264475","0.2771614906","0.4527164215","0.2378236032","","","","","","","","","","","","","","76","L","3","","","231","main_expt",""
"","bandit","311","1552158","0.0-273.0-0.0","59838605","wem/bandit_party_2","A1RW6RIF1MT2YT","either","1","286","","","","","","","0","0","1","0.5135082398","","0.4","0.2","0.6","0.8","","","","","0.8850589997","0.2249105956","0.5135082398","0.246393804","","","","","","","","","","75","K","2","","","232","main_expt",""
"","bandit","312","1554275","0.0-274.0-0.0","59838605","wem/bandit_party_2","A1RW6RIF1MT2YT","either","1","594","","","","","","","0","0","1","","0.2447973041","0.4","0.2","0.6","0.8","0.9183615156","0.2447973041","0.5502454751","0.2141634692","","","","","","","","","","","","","","74","J","1","","","233","main_expt",""
"","bandit","313","1556672","0.0-275.0-0.0","59838605","wem/bandit_party_2","A1RW6RIF1MT2YT","either","1","875","","","","","","","0","0","1","0.3783923662","","0.4","0.2","0.6","0.8","","","","","0.9639410842","0.24601643","0.3783923662","0.2876436191","","","","","","","","","","75","K","2","","","234","main_expt",""
"","bandit","314","1558691","0.0-276.0-0.0","59838605","wem/bandit_party_2","A1RW6RIF1MT2YT","either","1","490","","","","","","","1","0","0","0.9697187448","","0.4","0.2","0.6","0.8","","","","","0.9697187448","0.1629844561","0.2814299379","0.2769077257","","","","","","","","","","72","H","0","img/none_selected.jpg","","235","main_expt",""
"","bandit","315","1562322","0.0-277.0-0.0","59838605","wem/bandit_party_2","A1RW6RIF1MT2YT","either","1","2110","","","","","","","0","1","0","","0.9571573523","0.4","0.2","0.6","0.8","0.9571573523","0.1929455839","0.3106100538","0.136865198","","","","","","","","","","","","","","72","H","0","img/none_selected.jpg","","236","main_expt",""
