"consent","trial_type","trial_index","time_elapsed","internal_node_id","subjID","study","MID","cond","drift","rt","responses","button_pressed","key_press","like","value","connected","gems","bombs","no_reward","GemPrChosen","BombPrChosen","GainOverPainPr_0","GainOverPainPr_1","GainOverPainPr_2","GainOverPainPr_3","LosePr_0","LosePr_1","LosePr_2","LosePr_3","WinPr_0","WinPr_1","WinPr_2","WinPr_3","Q0","Q1","Q2","gender","age","ethnicity","label","expt_phase","target","respCharCode","respKey","respChoiceNum","respChoice","practice","trial_counter","trial_label","Q0_index"
"GDM/GDM_behavioral_consent_30min_online.html","consent","0","66712","0.0-0.0","61051771","wem/bandit_party_2","A2ADE503HGB66R","either","4","","","","","","","","","","","","","","","","","","","","","","","","","","","","","","","","","","","","","","","","",""
"","survey-text","1","74870","0.0-1.0","61051771","wem/bandit_party_2","A2ADE503HGB66R","either","4","7136","{""Q0"":""A2ADE503HGB66R""}","","","","","","","","","","","","","","","","","","","","","","","","","","","","","","","","","","","","","","",""
"","button-response","2","78853","0.0-2.0","61051771","wem/bandit_party_2","A2ADE503HGB66R","either","4","2962","","1","","","","","","","","","","","","","","","","","","","","","","","","","","","","","","","","","","","","","",""
"","text-replacement","3","112541","0.0-3.0","61051771","wem/bandit_party_2","A2ADE503HGB66R","either","4","32680","","","32","","","","","","","","","","","","","","","","","","","","","","","","","","","","","","","","","","","","",""
"","text-replacement","4","127439","0.0-4.0","61051771","wem/bandit_party_2","A2ADE503HGB66R","either","4","14893","","","32","","","","","","","","","","","","","","","","","","","","","","","","","","","","","","","","","","","","",""
"","identification","5","137242","0.0-6.0-0.0","61051771","wem/bandit_party_2","A2ADE503HGB66R","either","4","9740","","","","6","6","5","","","","","","","","","","","","","","","","","","","","","","","","pre","identification_pre","the Democratic Party","","","","","","","",""
"","identification","6","143466","0.0-6.0-1.0","61051771","wem/bandit_party_2","A2ADE503HGB66R","either","4","5138","","","","0","0","0","","","","","","","","","","","","","","","","","","","","","","","","pre","identification_pre","the Republican Party","","","","","","","",""
"","text-replacement","7","156336","0.0-7.0","61051771","wem/bandit_party_2","A2ADE503HGB66R","either","4","11844","","","32","","","","","","","","","","","","","","","","","","","","","","","","","","","","","","","","","","","","",""
"","text-replacement","8","164072","0.0-8.0","61051771","wem/bandit_party_2","A2ADE503HGB66R","either","4","7726","","","32","","","","","","","","","","","","","","","","","","","","","","","","","","","","","","","","","","","","",""
"","text-replacement","9","174304","0.0-9.0","61051771","wem/bandit_party_2","A2ADE503HGB66R","either","4","10214","","","32","","","","","","","","","","","","","","","","","","","","","","","","","","","","","","","","","","","","",""
"","text-replacement","10","180817","0.0-10.0","61051771","wem/bandit_party_2","A2ADE503HGB66R","either","4","6504","","","32","","","","","","","","","","","","","","","","","","","","","","","","","","","","","","","","","","","","",""
"","text-replacement","11","188252","0.0-11.0","61051771","wem/bandit_party_2","A2ADE503HGB66R","either","4","7429","","","32","","","","","","","","","","","","","","","","","","","","","","","","","","","","","","","","","","","","",""
"","bandit","12","196642","0.0-12.0-0.0","61051771","wem/bandit_party_2","A2ADE503HGB66R","either","4","6846","","","","","","","0","0","1","0","0","","","","","0","","","","0","","","","","","","","","","","","","74","J","0","img/none_selected_demo.jpg","true","0","",""
"","bandit","13","199781","0.0-13.0-0.0","61051771","wem/bandit_party_2","A2ADE503HGB66R","either","4","1584","","","","","","","0","0","1","0","0","","","","","0","","","","0","","","","","","","","","","","","","75","K","0","img/none_selected_demo.jpg","true","0","",""
"","text-replacement","14","209280","0.0-14.0","61051771","wem/bandit_party_2","A2ADE503HGB66R","either","4","9493","","","32","","","","","","","","","","","","","","","","","","","","","","","","","","","","","","","","","","","","",""
"","text-replacement","15","221052","0.0-15.0","61051771","wem/bandit_party_2","A2ADE503HGB66R","either","4","11766","","","32","","","","","","","","","","","","","","","","","","","","","","","","","","","","","","","","","","","","",""
"","text-replacement","16","236288","0.0-16.0","61051771","wem/bandit_party_2","A2ADE503HGB66R","either","4","15231","","","32","","","","","","","","","","","","","","","","","","","","","","","","","","","","","","","","","","","","",""
"","text-replacement","17","240361","0.0-17.0","61051771","wem/bandit_party_2","A2ADE503HGB66R","either","4","4067","","","32","","","","","","","","","","","","","","","","","","","","","","","","","","","","","","","","","","","","",""
"","bandit","18","243267","0.0-18.0-0.0","61051771","wem/bandit_party_2","A2ADE503HGB66R","either","4","1337","","","","","","","0","0","1","","0.8","0.5","0.5","","","0.8","0.2","","","","","","","","","","","","","","","","74","J","0","img/none_selected_demo.jpg","true","0","80_20_practice",""
"","bandit","19","245861","0.0-18.0-1.0","61051771","wem/bandit_party_2","A2ADE503HGB66R","either","4","1045","","","","","","","0","0","1","","0.2","0.5","0.5","","","0.8","0.2","","","","","","","","","","","","","","","","75","K","1","","true","0","80_20_practice",""
"","bandit","20","247983","0.0-18.0-2.0","61051771","wem/bandit_party_2","A2ADE503HGB66R","either","4","570","","","","","","","0","0","1","0.2","","0.5","0.5","","","","","","","0.8","0.2","","","","","","","","","","","","75","K","1","","true","0","80_20_practice",""
"","bandit","21","250095","0.0-18.0-3.0","61051771","wem/bandit_party_2","A2ADE503HGB66R","either","4","568","","","","","","","0","1","0","","0.8","0.5","0.5","","","0.8","0.2","","","","","","","","","","","","","","","","74","J","0","img/none_selected_demo.jpg","true","0","80_20_practice",""
"","bandit","22","252424","0.0-18.0-4.0","61051771","wem/bandit_party_2","A2ADE503HGB66R","either","4","792","","","","","","","0","1","0","","0.8","0.5","0.5","","","0.8","0.2","","","","","","","","","","","","","","","","74","J","0","img/none_selected_demo.jpg","true","0","80_20_practice",""
"","bandit","23","254703","0.0-18.0-5.0","61051771","wem/bandit_party_2","A2ADE503HGB66R","either","4","738","","","","","","","0","0","1","0.8","","0.5","0.5","","","","","","","0.8","0.2","","","","","","","","","","","","74","J","0","img/none_selected_demo.jpg","true","0","80_20_practice",""
"","bandit","24","256799","0.0-18.0-6.0","61051771","wem/bandit_party_2","A2ADE503HGB66R","either","4","520","","","","","","","0","0","1","0.8","","0.5","0.5","","","","","","","0.8","0.2","","","","","","","","","","","","74","J","0","img/none_selected_demo.jpg","true","0","80_20_practice",""
"","bandit","25","258735","0.0-18.0-7.0","61051771","wem/bandit_party_2","A2ADE503HGB66R","either","4","393","","","","","","","0","0","1","0.2","","0.5","0.5","","","","","","","0.8","0.2","","","","","","","","","","","","75","K","1","","true","0","80_20_practice",""
"","bandit","26","260845","0.0-18.0-8.0","61051771","wem/bandit_party_2","A2ADE503HGB66R","either","4","576","","","","","","","0","0","1","0.2","","0.5","0.5","","","","","","","0.8","0.2","","","","","","","","","","","","75","K","1","","true","0","80_20_practice",""
"","bandit","27","262828","0.0-18.0-9.0","61051771","wem/bandit_party_2","A2ADE503HGB66R","either","4","446","","","","","","","1","0","0","0.8","","0.5","0.5","","","","","","","0.8","0.2","","","","","","","","","","","","74","J","0","img/none_selected_demo.jpg","true","0","80_20_practice",""
"","bandit","28","265017","0.0-18.0-10.0","61051771","wem/bandit_party_2","A2ADE503HGB66R","either","4","651","","","","","","","1","0","0","0.8","","0.5","0.5","","","","","","","0.8","0.2","","","","","","","","","","","","74","J","0","img/none_selected_demo.jpg","true","0","80_20_practice",""
"","bandit","29","267047","0.0-18.0-11.0","61051771","wem/bandit_party_2","A2ADE503HGB66R","either","4","490","","","","","","","0","1","0","","0.8","0.5","0.5","","","0.8","0.2","","","","","","","","","","","","","","","","74","J","0","img/none_selected_demo.jpg","true","0","80_20_practice",""
"","bandit","30","268954","0.0-18.0-12.0","61051771","wem/bandit_party_2","A2ADE503HGB66R","either","4","359","","","","","","","0","1","0","","0.8","0.5","0.5","","","0.8","0.2","","","","","","","","","","","","","","","","74","J","0","img/none_selected_demo.jpg","true","0","80_20_practice",""
"","bandit","31","271016","0.0-18.0-13.0","61051771","wem/bandit_party_2","A2ADE503HGB66R","either","4","529","","","","","","","0","1","0","","0.8","0.5","0.5","","","0.8","0.2","","","","","","","","","","","","","","","","74","J","0","img/none_selected_demo.jpg","true","0","80_20_practice",""
"","bandit","32","273203","0.0-18.0-14.0","61051771","wem/bandit_party_2","A2ADE503HGB66R","either","4","644","","","","","","","1","0","0","0.8","","0.5","0.5","","","","","","","0.8","0.2","","","","","","","","","","","","74","J","0","img/none_selected_demo.jpg","true","0","80_20_practice",""
"","bandit","33","275219","0.0-18.0-15.0","61051771","wem/bandit_party_2","A2ADE503HGB66R","either","4","450","","","","","","","0","0","1","","0.8","0.5","0.5","","","0.8","0.2","","","","","","","","","","","","","","","","74","J","0","img/none_selected_demo.jpg","true","0","80_20_practice",""
"","bandit","34","277063","0.0-18.0-16.0","61051771","wem/bandit_party_2","A2ADE503HGB66R","either","4","300","","","","","","","0","1","0","","0.8","0.5","0.5","","","0.8","0.2","","","","","","","","","","","","","","","","74","J","0","img/none_selected_demo.jpg","true","0","80_20_practice",""
"","bandit","35","279125","0.0-18.0-17.0","61051771","wem/bandit_party_2","A2ADE503HGB66R","either","4","522","","","","","","","1","0","0","0.8","","0.5","0.5","","","","","","","0.8","0.2","","","","","","","","","","","","74","J","0","img/none_selected_demo.jpg","true","0","80_20_practice",""
"","bandit","36","281156","0.0-18.0-18.0","61051771","wem/bandit_party_2","A2ADE503HGB66R","either","4","492","","","","","","","1","0","0","0.8","","0.5","0.5","","","","","","","0.8","0.2","","","","","","","","","","","","74","J","0","img/none_selected_demo.jpg","true","0","80_20_practice",""
"","bandit","37","283203","0.0-18.0-19.0","61051771","wem/bandit_party_2","A2ADE503HGB66R","either","4","506","","","","","","","0","0","1","","0.8","0.5","0.5","","","0.8","0.2","","","","","","","","","","","","","","","","74","J","0","img/none_selected_demo.jpg","true","0","80_20_practice",""
"","text-replacement","38","288617","0.0-19.0","61051771","wem/bandit_party_2","A2ADE503HGB66R","either","4","5409","","","32","","","","","","","","","","","","","","","","","","","","","","","","","","","","","","","","","","","","",""
"","bandit","39","291172","0.0-20.0-0.0","61051771","wem/bandit_party_2","A2ADE503HGB66R","either","4","1020","","","","","","","1","0","0","1","0","","","","","0","1","","","1","0","","","","","","","","","","","","74","J","0","img/none_selected_demo.jpg","true","0","",""
"","text-replacement","40","302016","0.0-21.0","61051771","wem/bandit_party_2","A2ADE503HGB66R","either","4","10837","","","32","","","","","","","","","","","","","","","","","","","","","","","","","","","","","","","","","","","","",""
"","text-replacement","41","306885","0.0-22.0","61051771","wem/bandit_party_2","A2ADE503HGB66R","either","4","4863","","","32","","","","","","","","","","","","","","","","","","","","","","","","","","","","","","","","","","","","",""
"","text-replacement","42","312088","0.0-23.0","61051771","wem/bandit_party_2","A2ADE503HGB66R","either","4","5195","","","32","","","","","","","","","","","","","","","","","","","","","","","","","","","","","","","","","","","","",""
"","text-replacement","43","317977","0.0-24.0","61051771","wem/bandit_party_2","A2ADE503HGB66R","either","4","5881","","","32","","","","","","","","","","","","","","","","","","","","","","","","","","","","","","","","","","","","",""
"","text-replacement","44","328803","0.0-25.0","61051771","wem/bandit_party_2","A2ADE503HGB66R","either","4","10819","","","32","","","","","","","","","","","","","","","","","","","","","","","","","","","","","","","","","","","","",""
"","text-replacement","45","333606","0.0-26.0","61051771","wem/bandit_party_2","A2ADE503HGB66R","either","4","4796","","","32","","","","","","","","","","","","","","","","","","","","","","","","","","","","","","","","","","","","",""
"","text-replacement","46","340512","0.0-27.0","61051771","wem/bandit_party_2","A2ADE503HGB66R","either","4","6900","","","32","","","","","","","","","","","","","","","","","","","","","","","","","","","","","","","","","","","","",""
"","text-replacement","47","348520","0.0-28.0","61051771","wem/bandit_party_2","A2ADE503HGB66R","either","4","8002","","","32","","","","","","","","","","","","","","","","","","","","","","","","","","","","","","","","","","","","",""
"","text-replacement","48","358157","0.0-29.0","61051771","wem/bandit_party_2","A2ADE503HGB66R","either","4","9629","","","32","","","","","","","","","","","","","","","","","","","","","","","","","","","","","","","","","","","","",""
"","text-replacement","49","361606","0.0-30.0","61051771","wem/bandit_party_2","A2ADE503HGB66R","either","4","3443","","","32","","","","","","","","","","","","","","","","","","","","","","","","","","","","","","","","","","","","",""
"","text-replacement","50","368725","0.0-31.0","61051771","wem/bandit_party_2","A2ADE503HGB66R","either","4","7112","","","32","","","","","","","","","","","","","","","","","","","","","","","","","","","","","","","","","","","","",""
"","bandit","51","371424","0.0-32.0-0.0","61051771","wem/bandit_party_2","A2ADE503HGB66R","either","4","1153","","","","","","","0","0","1","0.2","","0.5","0.5","0.5","0.5","","","","","0.8","0.2","0.6","0.2","","","","","","","","","","74","J","1","","true","0","full_practice",""
"","bandit","52","373688","0.0-32.0-1.0","61051771","wem/bandit_party_2","A2ADE503HGB66R","either","4","684","","","","","","","1","0","0","0.8","","0.5","0.5","0.5","0.5","","","","","0.8","0.2","0.6","0.2","","","","","","","","","","72","H","0","img/none_selected.jpg","true","0","full_practice",""
"","bandit","53","375829","0.0-32.0-2.0","61051771","wem/bandit_party_2","A2ADE503HGB66R","either","4","601","","","","","","","0","1","0","","0.6","0.5","0.5","0.5","0.5","0.8","0.2","0.6","0.2","","","","","","","","","","","","","","75","K","2","","true","0","full_practice",""
"","bandit","54","377720","0.0-32.0-3.0","61051771","wem/bandit_party_2","A2ADE503HGB66R","either","4","347","","","","","","","0","0","1","","0.2","0.5","0.5","0.5","0.5","0.8","0.2","0.6","0.2","","","","","","","","","","","","","","76","L","3","","true","0","full_practice",""
"","bandit","55","379626","0.0-32.0-4.0","61051771","wem/bandit_party_2","A2ADE503HGB66R","either","4","358","","","","","","","1","0","0","0.6","","0.5","0.5","0.5","0.5","","","","","0.8","0.2","0.6","0.2","","","","","","","","","","75","K","2","","true","0","full_practice",""
"","bandit","56","381657","0.0-32.0-5.0","61051771","wem/bandit_party_2","A2ADE503HGB66R","either","4","489","","","","","","","0","0","1","","0.8","0.5","0.5","0.5","0.5","0.8","0.2","0.6","0.2","","","","","","","","","","","","","","72","H","0","img/none_selected.jpg","true","0","full_practice",""
"","bandit","57","383531","0.0-32.0-6.0","61051771","wem/bandit_party_2","A2ADE503HGB66R","either","4","329","","","","","","","0","0","1","0.2","","0.5","0.5","0.5","0.5","","","","","0.8","0.2","0.6","0.2","","","","","","","","","","74","J","1","","true","0","full_practice",""
"","bandit","58","385396","0.0-32.0-7.0","61051771","wem/bandit_party_2","A2ADE503HGB66R","either","4","317","","","","","","","0","1","0","","0.2","0.5","0.5","0.5","0.5","0.8","0.2","0.6","0.2","","","","","","","","","","","","","","76","L","3","","true","0","full_practice",""
"","bandit","59","387310","0.0-32.0-8.0","61051771","wem/bandit_party_2","A2ADE503HGB66R","either","4","332","","","","","","","0","1","0","","0.6","0.5","0.5","0.5","0.5","0.8","0.2","0.6","0.2","","","","","","","","","","","","","","75","K","2","","true","0","full_practice",""
"","bandit","60","389118","0.0-32.0-9.0","61051771","wem/bandit_party_2","A2ADE503HGB66R","either","4","253","","","","","","","0","0","1","","0.6","0.5","0.5","0.5","0.5","0.8","0.2","0.6","0.2","","","","","","","","","","","","","","75","K","2","","true","0","full_practice",""
"","bandit","61","390969","0.0-32.0-10.0","61051771","wem/bandit_party_2","A2ADE503HGB66R","either","4","305","","","","","","","0","0","1","0.2","","0.5","0.5","0.5","0.5","","","","","0.8","0.2","0.6","0.2","","","","","","","","","","76","L","3","","true","0","full_practice",""
"","bandit","62","392563","0.0-32.0-11.0","61051771","wem/bandit_party_2","A2ADE503HGB66R","either","4","58","","","","","","","0","1","0","","0.8","0.5","0.5","0.5","0.5","0.8","0.2","0.6","0.2","","","","","","","","","","","","","","72","H","0","img/none_selected.jpg","true","0","full_practice",""
"","bandit","63","394750","0.0-32.0-12.0","61051771","wem/bandit_party_2","A2ADE503HGB66R","either","4","645","","","","","","","1","0","0","0.8","","0.5","0.5","0.5","0.5","","","","","0.8","0.2","0.6","0.2","","","","","","","","","","72","H","0","img/none_selected.jpg","true","0","full_practice",""
"","bandit","64","396704","0.0-32.0-13.0","61051771","wem/bandit_party_2","A2ADE503HGB66R","either","4","405","","","","","","","1","0","0","0.8","","0.5","0.5","0.5","0.5","","","","","0.8","0.2","0.6","0.2","","","","","","","","","","72","H","0","img/none_selected.jpg","true","0","full_practice",""
"","bandit","65","398610","0.0-32.0-14.0","61051771","wem/bandit_party_2","A2ADE503HGB66R","either","4","364","","","","","","","1","0","0","0.8","","0.5","0.5","0.5","0.5","","","","","0.8","0.2","0.6","0.2","","","","","","","","","","72","H","0","img/none_selected.jpg","true","0","full_practice",""
"","bandit","66","400610","0.0-32.0-15.0","61051771","wem/bandit_party_2","A2ADE503HGB66R","either","4","459","","","","","","","1","0","0","0.8","","0.5","0.5","0.5","0.5","","","","","0.8","0.2","0.6","0.2","","","","","","","","","","72","H","0","img/none_selected.jpg","true","0","full_practice",""
"","bandit","67","402531","0.0-32.0-16.0","61051771","wem/bandit_party_2","A2ADE503HGB66R","either","4","373","","","","","","","1","0","0","0.8","","0.5","0.5","0.5","0.5","","","","","0.8","0.2","0.6","0.2","","","","","","","","","","72","H","0","img/none_selected.jpg","true","0","full_practice",""
"","bandit","68","404641","0.0-32.0-17.0","61051771","wem/bandit_party_2","A2ADE503HGB66R","either","4","574","","","","","","","1","0","0","0.8","","0.5","0.5","0.5","0.5","","","","","0.8","0.2","0.6","0.2","","","","","","","","","","72","H","0","img/none_selected.jpg","true","0","full_practice",""
"","bandit","69","406688","0.0-32.0-18.0","61051771","wem/bandit_party_2","A2ADE503HGB66R","either","4","510","","","","","","","0","0","1","","0.8","0.5","0.5","0.5","0.5","0.8","0.2","0.6","0.2","","","","","","","","","","","","","","72","H","0","img/none_selected.jpg","true","0","full_practice",""
"","bandit","70","408626","0.0-32.0-19.0","61051771","wem/bandit_party_2","A2ADE503HGB66R","either","4","391","","","","","","","0","1","0","","0.8","0.5","0.5","0.5","0.5","0.8","0.2","0.6","0.2","","","","","","","","","","","","","","72","H","0","img/none_selected.jpg","true","0","full_practice",""
"","text","71","414950","0.0-33.0","61051771","wem/bandit_party_2","A2ADE503HGB66R","either","4","6307","","","32","","","","","","","","","","","","","","","","","","","","","","","","","","","","","","","","","","","","",""
"","text-replacement","72","436431","0.0-34.0","61051771","wem/bandit_party_2","A2ADE503HGB66R","either","4","20456","","","32","","","","","","","","","","","","","","","","","","","","","","","","","","","","","","","","","","","","",""
"","text-replacement","73","453078","0.0-35.0","61051771","wem/bandit_party_2","A2ADE503HGB66R","either","4","16619","","","32","","","","","","","","","","","","","","","","","","","","","","","","","","","","","","","","","","","","",""
"","text-replacement","74","459725","0.0-36.0","61051771","wem/bandit_party_2","A2ADE503HGB66R","either","4","6625","","","32","","","","","","","","","","","","","","","","","","","","","","","","","","","","","","","","","","","","",""
"","text-replacement","75","468443","0.0-37.0","61051771","wem/bandit_party_2","A2ADE503HGB66R","either","4","8703","","","32","","","","","","","","","","","","","","","","","","","","","","","","","","","","","","","","","","","","",""
"","text-replacement","76","475281","0.0-38.0","61051771","wem/bandit_party_2","A2ADE503HGB66R","either","4","6821","","","32","","","","","","","","","","","","","","","","","","","","","","","","","","","","","","","","","","","","",""
"","survey-multi-choice-replacement","77","484372","0.0-39.0-0.0","61051771","wem/bandit_party_2","A2ADE503HGB66R","either","4","9036","","","","","","","","","","","","","","","","","","","","","","","","Money will be added to the pool for <span style='color:blue;'>DEMOCRATS</span>","","","","","","","attn_check","","","","","","","","","0"
"","survey-multi-choice-replacement","78","491218","0.0-40.0-0.0","61051771","wem/bandit_party_2","A2ADE503HGB66R","either","4","5788","","","","","","","","","","","","","","","","","","","","","","","","Equal amounts of money will be added to the pool for <span style='color:blue;'>DEMOCRATS</span> and subtracted from the pool for <span style='color:red;'>REPUBLICANS</span>","","","","","","","attn_check","","","","","","","","","2"
"","survey-multi-choice-replacement","79","496385","0.0-41.0-0.0","61051771","wem/bandit_party_2","A2ADE503HGB66R","either","4","4120","","","","","","","","","","","","","","","","","","","","","","","","No money will be added to either pool","","","","","","","attn_check","","","","","","","","","3"
"","bandit","80","501520","0.0-42.0-0.0","61051771","wem/bandit_party_2","A2ADE503HGB66R","either","4","2535","","","","","","","0","1","0","","0.9858900825","0.2","0.6","0.4","0.8","0.9858900825","0.2887693562","0.8209843215","0.7267404998","","","","","","","","","","","","","","72","H","0","img/none_selected.jpg","","1","main_expt",""
"","bandit","81","503817","0.0-43.0-0.0","61051771","wem/bandit_party_2","A2ADE503HGB66R","either","4","731","","","","","","","0","0","1","0.2986217167","","0.2","0.6","0.4","0.8","","","","","0.9854924354","0.2986217167","0.8179122382","0.7034907646","","","","","","","","","","74","J","1","","","2","main_expt",""
"","bandit","82","506018","0.0-44.0-0.0","61051771","wem/bandit_party_2","A2ADE503HGB66R","either","4","644","","","","","","","0","0","1","","0.8301291561","0.2","0.6","0.4","0.8","0.9789624529","0.261346942","0.8301291561","0.6574847675","","","","","","","","","","","","","","75","K","2","","","3","main_expt",""
"","bandit","83","507940","0.0-45.0-0.0","61051771","wem/bandit_party_2","A2ADE503HGB66R","either","4","361","","","","","","","0","1","0","","0.5092805277","0.2","0.6","0.4","0.8","0.9565345184","0.2757740293","0.8219157537","0.5092805277","","","","","","","","","","","","","","76","L","3","","","4","main_expt",""
"","bandit","84","509861","0.0-46.0-0.0","61051771","wem/bandit_party_2","A2ADE503HGB66R","either","4","373","","","","","","","1","0","0","0.941194936","","0.2","0.6","0.4","0.8","","","","","0.941194936","0.3329857669","0.7759220463","0.5952926025","","","","","","","","","","72","H","0","img/none_selected.jpg","","5","main_expt",""
"","bandit","85","511705","0.0-47.0-0.0","61051771","wem/bandit_party_2","A2ADE503HGB66R","either","4","292","","","","","","","1","0","0","0.6160758637","","0.2","0.6","0.4","0.8","","","","","0.9305219143","0.331878758","0.7495930044","0.6160758637","","","","","","","","","","76","L","3","","","6","main_expt",""
"","bandit","86","513533","0.0-48.0-0.0","61051771","wem/bandit_party_2","A2ADE503HGB66R","either","4","276","","","","","","","0","1","0","","0.937738562","0.2","0.6","0.4","0.8","0.937738562","0.3863389794","0.7078030286","0.6381806331","","","","","","","","","","","","","","72","H","0","img/none_selected.jpg","","7","main_expt",""
"","bandit","87","515439","0.0-49.0-0.0","61051771","wem/bandit_party_2","A2ADE503HGB66R","either","4","359","","","","","","","1","0","0","0.7047831713","","0.2","0.6","0.4","0.8","","","","","0.8269671957","0.4242016385","0.689407674","0.7047831713","","","","","","","","","","76","L","3","","","8","main_expt",""
"","bandit","88","517350","0.0-50.0-0.0","61051771","wem/bandit_party_2","A2ADE503HGB66R","either","4","358","","","","","","","0","1","0","","0.7696709776","0.2","0.6","0.4","0.8","0.7696709776","0.379169242","0.7848236408","0.6222923336","","","","","","","","","","","","","","72","H","0","img/none_selected.jpg","","9","main_expt",""
"","bandit","89","519236","0.0-51.0-0.0","61051771","wem/bandit_party_2","A2ADE503HGB66R","either","4","332","","","","","","","1","0","0","0.5629201009","","0.2","0.6","0.4","0.8","","","","","0.7313552403","0.40569916","0.791363481","0.5629201009","","","","","","","","","","76","L","3","","","10","main_expt",""
"","bandit","90","521361","0.0-52.0-0.0","61051771","wem/bandit_party_2","A2ADE503HGB66R","either","4","571","","","","","","","0","0","1","","0.8129169819","0.2","0.6","0.4","0.8","0.8129169819","0.4188021694","0.7800632456","0.644159789","","","","","","","","","","","","","","72","H","0","img/none_selected.jpg","","11","main_expt",""
"","bandit","91","523313","0.0-53.0-0.0","61051771","wem/bandit_party_2","A2ADE503HGB66R","either","4","413","","","","","","","0","1","0","","0.6840372722","0.2","0.6","0.4","0.8","0.7611571711","0.3689559917","0.7559884596","0.6840372722","","","","","","","","","","","","","","76","L","3","","","12","main_expt",""
"","bandit","92","525455","0.0-54.0-0.0","61051771","wem/bandit_party_2","A2ADE503HGB66R","either","4","608","","","","","","","1","0","0","0.6236151953","","0.2","0.6","0.4","0.8","","","","","0.7628417147","0.4584943612","0.7695577991","0.6236151953","","","","","","","","","","76","L","3","","","13","main_expt",""
"","bandit","93","527673","0.0-55.0-0.0","61051771","wem/bandit_party_2","A2ADE503HGB66R","either","4","676","","","","","","","1","0","0","0.5388331182","","0.2","0.6","0.4","0.8","","","","","0.7436451733","0.455083938","0.8509931145","0.5388331182","","","","","","","","","","76","L","3","","","14","main_expt",""
"","bandit","94","530017","0.0-56.0-0.0","61051771","wem/bandit_party_2","A2ADE503HGB66R","either","4","768","","","","","","","1","0","0","0.4802769188","","0.2","0.6","0.4","0.8","","","","","0.8256008488","0.5360112786","0.7745856811","0.4802769188","","","","","","","","","","76","L","3","","","15","main_expt",""
"","bandit","95","532425","0.0-57.0-0.0","61051771","wem/bandit_party_2","A2ADE503HGB66R","either","4","843","","","","","","","0","0","1","","0.4688000192","0.2","0.6","0.4","0.8","0.7683027423","0.4791571541","0.7576521113","0.4688000192","","","","","","","","","","","","","","76","L","3","","","16","main_expt",""
"","bandit","96","534736","0.0-58.0-0.0","61051771","wem/bandit_party_2","A2ADE503HGB66R","either","4","759","","","","","","","0","1","0","","0.7857675768","0.2","0.6","0.4","0.8","0.7857675768","0.5263630166","0.8099558365","0.6000602573","","","","","","","","","","","","","","72","H","0","img/none_selected.jpg","","17","main_expt",""
"","bandit","97","537001","0.0-59.0-0.0","61051771","wem/bandit_party_2","A2ADE503HGB66R","either","4","714","","","","","","","1","0","0","0.7303419725","","0.2","0.6","0.4","0.8","","","","","0.7303419725","0.543945959","0.7535280451","0.6046592687","","","","","","","","","","72","H","0","img/none_selected.jpg","","18","main_expt",""
"","bandit","98","539236","0.0-60.0-0.0","61051771","wem/bandit_party_2","A2ADE503HGB66R","either","4","695","","","","","","","0","1","0","","0.7243255268","0.2","0.6","0.4","0.8","0.7243255268","0.4579801682","0.7206444799","0.6177236116","","","","","","","","","","","","","","72","H","0","img/none_selected.jpg","","19","main_expt",""
"","bandit","99","541642","0.0-61.0-0.0","61051771","wem/bandit_party_2","A2ADE503HGB66R","either","4","861","","","","","","","1","0","0","0.7691283854","","0.2","0.6","0.4","0.8","","","","","0.7691283854","0.5439896582","0.6388551968","0.5484637992","","","","","","","","","","72","H","0","img/none_selected.jpg","","20","main_expt",""
"","bandit","100","543860","0.0-62.0-0.0","61051771","wem/bandit_party_2","A2ADE503HGB66R","either","4","655","","","","","","","0","1","0","","0.7068464658","0.2","0.6","0.4","0.8","0.7068464658","0.5796019833","0.4956822649","0.6646151354","","","","","","","","","","","","","","72","H","0","img/none_selected.jpg","","21","main_expt",""
"","bandit","101","546048","0.0-63.0-0.0","61051771","wem/bandit_party_2","A2ADE503HGB66R","either","4","652","","","","","","","0","1","0","","0.7407239748","0.2","0.6","0.4","0.8","0.7407239748","0.5885929095","0.4316307404","0.7223938077","","","","","","","","","","","","","","72","H","0","img/none_selected.jpg","","22","main_expt",""
"","bandit","102","548314","0.0-64.0-0.0","61051771","wem/bandit_party_2","A2ADE503HGB66R","either","4","726","","","","","","","0","1","0","","0.7300920021","0.2","0.6","0.4","0.8","0.7300920021","0.4899642796","0.4158022912","0.7548690184","","","","","","","","","","","","","","72","H","0","img/none_selected.jpg","","23","main_expt",""
"","bandit","103","550564","0.0-65.0-0.0","61051771","wem/bandit_party_2","A2ADE503HGB66R","either","4","706","","","","","","","0","1","0","","0.7074307303","0.2","0.6","0.4","0.8","0.7074307303","0.4984159311","0.4099928258","0.7794954679","","","","","","","","","","","","","","72","H","0","img/none_selected.jpg","","24","main_expt",""
"","bandit","104","552860","0.0-66.0-0.0","61051771","wem/bandit_party_2","A2ADE503HGB66R","either","4","755","","","","","","","0","1","0","","0.6228099684","0.2","0.6","0.4","0.8","0.6228099684","0.5885503773","0.4303724308","0.8029664172","","","","","","","","","","","","","","72","H","0","img/none_selected.jpg","","25","main_expt",""
"","bandit","105","555220","0.0-67.0-0.0","61051771","wem/bandit_party_2","A2ADE503HGB66R","either","4","816","","","","","","","0","1","0","","0.5588879168","0.2","0.6","0.4","0.8","0.5588879168","0.6978100054","0.3291624114","0.6980766755","","","","","","","","","","","","","","72","H","0","img/none_selected.jpg","","26","main_expt",""
"","bandit","106","557533","0.0-68.0-0.0","61051771","wem/bandit_party_2","A2ADE503HGB66R","either","4","775","","","","","","","0","0","1","0.5033257713","","0.2","0.6","0.4","0.8","","","","","0.5033257713","0.6442468271","0.3795789415","0.7021498626","","","","","","","","","","72","H","0","img/none_selected.jpg","","27","main_expt",""
"","bandit","107","559814","0.0-69.0-0.0","61051771","wem/bandit_party_2","A2ADE503HGB66R","either","4","739","","","","","","","0","0","1","0.7802436781","","0.2","0.6","0.4","0.8","","","","","0.4915102133","0.7399213538","0.3208573938","0.7802436781","","","","","","","","","","76","L","3","","","28","main_expt",""
"","bandit","108","561877","0.0-70.0-0.0","61051771","wem/bandit_party_2","A2ADE503HGB66R","either","4","519","","","","","","","0","1","0","","0.7520253205","0.2","0.6","0.4","0.8","0.4291187576","0.7520253205","0.3352919619","0.6907923131","","","","","","","","","","","","","","74","J","1","","","29","main_expt",""
"","bandit","109","564188","0.0-71.0-0.0","61051771","wem/bandit_party_2","A2ADE503HGB66R","either","4","758","","","","","","","0","0","1","0.7528469829","","0.2","0.6","0.4","0.8","","","","","0.5379907803","0.7528469829","0.3452717309","0.6771306444","","","","","","","","","","74","J","1","","","30","main_expt",""
"","bandit","110","566425","0.0-72.0-0.0","61051771","wem/bandit_party_2","A2ADE503HGB66R","either","4","692","","","","","","","0","1","0","","0.2967094522","0.2","0.6","0.4","0.8","0.646046857","0.7571908429","0.2967094522","0.7130915948","","","","","","","","","","","","","","75","K","2","","","31","main_expt",""
"","bandit","111","568657","0.0-73.0-0.0","61051771","wem/bandit_party_2","A2ADE503HGB66R","either","4","698","","","","","","","0","1","0","","0.255781972","0.2","0.6","0.4","0.8","0.5608885347","0.7530934884","0.255781972","0.6849190202","","","","","","","","","","","","","","75","K","2","","","32","main_expt",""
"","bandit","112","571017","0.0-74.0-0.0","61051771","wem/bandit_party_2","A2ADE503HGB66R","either","4","822","","","","","","","0","0","1","","0.2703771925","0.2","0.6","0.4","0.8","0.5952322697","0.7163673585","0.2703771925","0.7392612035","","","","","","","","","","","","","","75","K","2","","","33","main_expt",""
"","bandit","113","573392","0.0-75.0-0.0","61051771","wem/bandit_party_2","A2ADE503HGB66R","either","4","822","","","","","","","1","0","0","0.7026009082","","0.2","0.6","0.4","0.8","","","","","0.6206609301","0.6817248107","0.3572673824","0.7026009082","","","","","","","","","","76","L","3","","","34","main_expt",""
"","bandit","114","575626","0.0-76.0-0.0","61051771","wem/bandit_party_2","A2ADE503HGB66R","either","4","689","","","","","","","0","0","1","0.632003728","","0.2","0.6","0.4","0.8","","","","","0.6223058769","0.6903641832","0.3237575066","0.632003728","","","","","","","","","","76","L","3","","","35","main_expt",""
"","bandit","115","577736","0.0-77.0-0.0","61051771","wem/bandit_party_2","A2ADE503HGB66R","either","4","574","","","","","","","1","0","0","0.7304722347","","0.2","0.6","0.4","0.8","","","","","0.7304722347","0.6953747248","0.3724209237","0.7266912659","","","","","","","","","","72","H","0","img/none_selected.jpg","","36","main_expt",""
"","bandit","116","579767","0.0-78.0-0.0","61051771","wem/bandit_party_2","A2ADE503HGB66R","either","4","480","","","","","","","0","1","0","","0.6789706255","0.2","0.6","0.4","0.8","0.6789706255","0.7552078918","0.3848591071","0.5512211225","","","","","","","","","","","","","","72","H","0","img/none_selected.jpg","","37","main_expt",""
"","bandit","117","582110","0.0-79.0-0.0","61051771","wem/bandit_party_2","A2ADE503HGB66R","either","4","795","","","","","","","1","0","0","0.6758320082","","0.2","0.6","0.4","0.8","","","","","0.6758320082","0.7095976639","0.4026628424","0.5888446875","","","","","","","","","","72","H","0","img/none_selected.jpg","","38","main_expt",""
"","bandit","118","584705","0.0-80.0-0.0","61051771","wem/bandit_party_2","A2ADE503HGB66R","either","4","1050","","","","","","","0","1","0","","0.753286291","0.2","0.6","0.4","0.8","0.753286291","0.7813817897","0.460229008","0.7349010221","","","","","","","","","","","","","","72","H","0","img/none_selected.jpg","","39","main_expt",""
"","bandit","119","587142","0.0-81.0-0.0","61051771","wem/bandit_party_2","A2ADE503HGB66R","either","4","888","","","","","","","0","0","1","","0.7527041006","0.2","0.6","0.4","0.8","0.7527041006","0.7604460558","0.3392787789","0.6715391024","","","","","","","","","","","","","","72","H","0","img/none_selected.jpg","","40","main_expt",""
"","bandit","120","589377","0.0-82.0-0.0","61051771","wem/bandit_party_2","A2ADE503HGB66R","either","4","690","","","","","","","1","0","0","0.688235262","","0.2","0.6","0.4","0.8","","","","","0.7900808451","0.7588214983","0.2983701942","0.688235262","","","","","","","","","","76","L","3","","","41","main_expt",""
"","bandit","121","591782","0.0-83.0-0.0","61051771","wem/bandit_party_2","A2ADE503HGB66R","either","4","866","","","","","","","1","0","0","0.750516412","","0.2","0.6","0.4","0.8","","","","","0.7261157662","0.8204813903","0.2390858253","0.750516412","","","","","","","","","","76","L","3","","","42","main_expt",""
"","bandit","122","594204","0.0-84.0-0.0","61051771","wem/bandit_party_2","A2ADE503HGB66R","either","4","854","","","","","","","1","0","0","0.775378891","","0.2","0.6","0.4","0.8","","","","","0.772887471","0.8310219988","0.1877526289","0.775378891","","","","","","","","","","76","L","3","","","43","main_expt",""
"","bandit","123","596377","0.0-85.0-0.0","61051771","wem/bandit_party_2","A2ADE503HGB66R","either","4","609","","","","","","","0","0","1","0.5983035632","","0.2","0.6","0.4","0.8","","","","","0.7359848823","0.8165903167","0.2713877418","0.5983035632","","","","","","","","","","76","L","3","","","44","main_expt",""
"","bandit","124","598658","0.0-86.0-0.0","61051771","wem/bandit_party_2","A2ADE503HGB66R","either","4","739","","","","","","","0","0","1","0.6765015189","","0.2","0.6","0.4","0.8","","","","","0.6223954065","0.6765015189","0.2600408605","0.6453890447","","","","","","","","","","74","J","1","","","45","main_expt",""
"","bandit","125","600470","0.0-87.0-0.0","61051771","wem/bandit_party_2","A2ADE503HGB66R","either","4","263","","","","","","","0","0","1","","0.2435580982","0.2","0.6","0.4","0.8","0.5963379238","0.6613510417","0.2435580982","0.4979639723","","","","","","","","","","","","","","75","K","2","","","46","main_expt",""
"","bandit","126","602298","0.0-88.0-0.0","61051771","wem/bandit_party_2","A2ADE503HGB66R","either","4","287","","","","","","","1","0","0","0.6161308884","","0.2","0.6","0.4","0.8","","","","","0.6161308884","0.7373034573","0.3258971046","0.4475739324","","","","","","","","","","72","H","0","img/none_selected.jpg","","47","main_expt",""
"","bandit","127","604392","0.0-89.0-0.0","61051771","wem/bandit_party_2","A2ADE503HGB66R","either","4","540","","","","","","","0","0","1","","0.6354722558","0.2","0.6","0.4","0.8","0.6354722558","0.6580913366","0.2934977076","0.570942939","","","","","","","","","","","","","","72","H","0","img/none_selected.jpg","","48","main_expt",""
"","bandit","128","606548","0.0-90.0-0.0","61051771","wem/bandit_party_2","A2ADE503HGB66R","either","4","603","","","","","","","0","0","1","0.5943858444","","0.2","0.6","0.4","0.8","","","","","0.5941747261","0.6518545324","0.3381222087","0.5943858444","","","","","","","","","","76","L","3","","","49","main_expt",""
"","bandit","129","608704","0.0-91.0-0.0","61051771","wem/bandit_party_2","A2ADE503HGB66R","either","4","608","","","","","","","1","0","0","0.72156704","","0.2","0.6","0.4","0.8","","","","","0.5510631732","0.6362385309","0.4149653651","0.72156704","","","","","","","","","","76","L","3","","","50","main_expt",""
"","bandit","130","611017","0.0-92.0-0.0","61051771","wem/bandit_party_2","A2ADE503HGB66R","either","4","766","","","","","","","1","0","0","0.6453884322","","0.2","0.6","0.4","0.8","","","","","0.5580995271","0.6673370403","0.315936401","0.6453884322","","","","","","","","","","76","L","3","","","51","main_expt",""
"","bandit","131","613349","0.0-93.0-0.0","61051771","wem/bandit_party_2","A2ADE503HGB66R","either","4","783","","","","","","","1","0","0","0.635653338","","0.2","0.6","0.4","0.8","","","","","0.4492126091","0.6614759556","0.34776451","0.635653338","","","","","","","","","","76","L","3","","","52","main_expt",""
"","bandit","132","615767","0.0-94.0-0.0","61051771","wem/bandit_party_2","A2ADE503HGB66R","either","4","862","","","","","","","1","0","0","0.5700640027","","0.2","0.6","0.4","0.8","","","","","0.4600129001","0.5099009019","0.2946288454","0.5700640027","","","","","","","","","","76","L","3","","","53","main_expt",""
"","bandit","133","617928","0.0-95.0-0.0","61051771","wem/bandit_party_2","A2ADE503HGB66R","either","4","609","","","","","","","0","0","1","0.4535518587","","0.2","0.6","0.4","0.8","","","","","0.4005354829","0.5323874036","0.3757560715","0.4535518587","","","","","","","","","","76","L","3","","","54","main_expt",""
"","bandit","134","620110","0.0-96.0-0.0","61051771","wem/bandit_party_2","A2ADE503HGB66R","either","4","646","","","","","","","0","1","0","","0.3305694417","0.2","0.6","0.4","0.8","0.3305694417","0.5410243768","0.3258455482","0.4271895083","","","","","","","","","","","","","","72","H","0","img/none_selected.jpg","","55","main_expt",""
"","bandit","135","622204","0.0-97.0-0.0","61051771","wem/bandit_party_2","A2ADE503HGB66R","either","4","545","","","","","","","0","0","1","","0.3443449075","0.2","0.6","0.4","0.8","0.3443449075","0.5594159285","0.4350401219","0.3506641683","","","","","","","","","","","","","","72","H","0","img/none_selected.jpg","","56","main_expt",""
"","bandit","136","624611","0.0-98.0-0.0","61051771","wem/bandit_party_2","A2ADE503HGB66R","either","4","867","","","","","","","0","1","0","","0.3719720486","0.2","0.6","0.4","0.8","0.3719720486","0.5057935102","0.3707313189","0.3266461122","","","","","","","","","","","","","","72","H","0","img/none_selected.jpg","","57","main_expt",""
"","bandit","137","626986","0.0-99.0-0.0","61051771","wem/bandit_party_2","A2ADE503HGB66R","either","4","825","","","","","","","0","0","1","","0.2230753252","0.2","0.6","0.4","0.8","0.2230753252","0.4921421838","0.5588799977","0.3024401834","","","","","","","","","","","","","","72","H","0","img/none_selected.jpg","","58","main_expt",""
"","bandit","138","629111","0.0-100.0-0.0","61051771","wem/bandit_party_2","A2ADE503HGB66R","either","4","577","","","","","","","0","0","1","0.4306619987","","0.2","0.6","0.4","0.8","","","","","0.2255195526","0.4740341295","0.6863198467","0.4306619987","","","","","","","","","","76","L","3","","","59","main_expt",""
"","bandit","139","631892","0.0-101.0-0.0","61051771","wem/bandit_party_2","A2ADE503HGB66R","either","4","1233","","","","","","","0","1","0","","0.6998437478","0.2","0.6","0.4","0.8","0.2150487889","0.4853159436","0.6998437478","0.4710521126","","","","","","","","","","","","","","75","K","2","","","60","main_expt",""
"","bandit","140","634236","0.0-102.0-0.0","61051771","wem/bandit_party_2","A2ADE503HGB66R","either","4","770","","","","","","","1","0","0","0.7027468204","","0.2","0.6","0.4","0.8","","","","","0.2670703017","0.4843563089","0.7027468204","0.4797168847","","","","","","","","","","75","K","2","","","61","main_expt",""
"","bandit","141","636533","0.0-103.0-0.0","61051771","wem/bandit_party_2","A2ADE503HGB66R","either","4","746","","","","","","","0","0","1","0.7461433662","","0.2","0.6","0.4","0.8","","","","","0.1622034337","0.4970562682","0.7461433662","0.441351191","","","","","","","","","","75","K","2","","","62","main_expt",""
"","bandit","142","638596","0.0-104.0-0.0","61051771","wem/bandit_party_2","A2ADE503HGB66R","either","4","517","","","","","","","0","0","1","","0.4870743105","0.2","0.6","0.4","0.8","0.1872430185","0.4870743105","0.7956877632","0.6405696824","","","","","","","","","","","","","","74","J","1","","","63","main_expt",""
"","bandit","143","640673","0.0-105.0-0.0","61051771","wem/bandit_party_2","A2ADE503HGB66R","either","4","539","","","","","","","1","0","0","0.7533911137","","0.2","0.6","0.4","0.8","","","","","0.1921602407","0.5297884171","0.7533911137","0.5093225209","","","","","","","","","","75","K","2","","","64","main_expt",""
"","bandit","144","642601","0.0-106.0-0.0","61051771","wem/bandit_party_2","A2ADE503HGB66R","either","4","332","","","","","","","1","0","0","0.8407665504","","0.2","0.6","0.4","0.8","","","","","0.1747679693","0.5510281753","0.8407665504","0.5190422554","","","","","","","","","","75","K","2","","","65","main_expt",""
"","bandit","145","644736","0.0-107.0-0.0","61051771","wem/bandit_party_2","A2ADE503HGB66R","either","4","594","","","","","","","0","1","0","","0.8392190168","0.2","0.6","0.4","0.8","0.149475979","0.6548378986","0.8392190168","0.4367989657","","","","","","","","","","","","","","75","K","2","","","66","main_expt",""
"","bandit","146","647001","0.0-108.0-0.0","61051771","wem/bandit_party_2","A2ADE503HGB66R","either","4","720","","","","","","","0","1","0","","0.7998105719","0.2","0.6","0.4","0.8","0.1340316754","0.7873643744","0.7998105719","0.4515976155","","","","","","","","","","","","","","75","K","2","","","67","main_expt",""
"","bandit","147","649157","0.0-109.0-0.0","61051771","wem/bandit_party_2","A2ADE503HGB66R","either","4","615","","","","","","","0","1","0","","0.8055175736","0.2","0.6","0.4","0.8","0.1635100664","0.8374830125","0.8055175736","0.4605235732","","","","","","","","","","","","","","75","K","2","","","68","main_expt",""
"","bandit","148","651501","0.0-110.0-0.0","61051771","wem/bandit_party_2","A2ADE503HGB66R","either","4","800","","","","","","","0","1","0","","0.9157616325","0.2","0.6","0.4","0.8","0.1227365859","0.7948054761","0.9157616325","0.3799115548","","","","","","","","","","","","","","75","K","2","","","69","main_expt",""
"","bandit","149","653704","0.0-111.0-0.0","61051771","wem/bandit_party_2","A2ADE503HGB66R","either","4","657","","","","","","","1","0","0","0.9575411193","","0.2","0.6","0.4","0.8","","","","","0.1248437045","0.8257183208","0.9575411193","0.4215965018","","","","","","","","","","75","K","2","","","70","main_expt",""
"","bandit","150","655989","0.0-112.0-0.0","61051771","wem/bandit_party_2","A2ADE503HGB66R","either","4","730","","","","","","","0","1","0","","0.9604429572","0.2","0.6","0.4","0.8","0.1153860856","0.7378076352","0.9604429572","0.4069040491","","","","","","","","","","","","","","75","K","2","","","71","main_expt",""
"","bandit","151","658314","0.0-113.0-0.0","61051771","wem/bandit_party_2","A2ADE503HGB66R","either","4","771","","","","","","","0","1","0","","0.9598545795","0.2","0.6","0.4","0.8","0.1355011504","0.7402058239","0.9598545795","0.4396577013","","","","","","","","","","","","","","75","K","2","","","72","main_expt",""
"","bandit","152","660611","0.0-114.0-0.0","61051771","wem/bandit_party_2","A2ADE503HGB66R","either","4","746","","","","","","","1","0","0","0.944667289","","0.2","0.6","0.4","0.8","","","","","0.05996807606","0.6976791507","0.944667289","0.6562772762","","","","","","","","","","75","K","2","","","73","main_expt",""
"","bandit","153","662798","0.0-115.0-0.0","61051771","wem/bandit_party_2","A2ADE503HGB66R","either","4","635","","","","","","","0","0","1","","0.9226304804","0.2","0.6","0.4","0.8","0.05405538329","0.7918365236","0.9226304804","0.6973429816","","","","","","","","","","","","","","75","K","2","","","74","main_expt",""
"","bandit","154","664813","0.0-116.0-0.0","61051771","wem/bandit_party_2","A2ADE503HGB66R","either","4","463","","","","","","","0","1","0","","0.7822783488","0.2","0.6","0.4","0.8","0.02989929625","0.7822783488","0.9398646798","0.7736122178","","","","","","","","","","","","","","74","J","1","","","75","main_expt",""
"","bandit","155","667251","0.0-117.0-0.0","61051771","wem/bandit_party_2","A2ADE503HGB66R","either","4","898","","","","","","","1","0","0","0.7290889389","","0.2","0.6","0.4","0.8","","","","","0.0563551135","0.7290889389","0.9344412274","0.8130420724","","","","","","","","","","74","J","1","","","76","main_expt",""
"","bandit","156","669845","0.0-118.0-0.0","61051771","wem/bandit_party_2","A2ADE503HGB66R","either","4","1047","","","","","","","1","0","0","0.7903383215","","0.2","0.6","0.4","0.8","","","","","0.0510075381","0.7903383215","0.9512527415","0.8182773084","","","","","","","","","","74","J","1","","","77","main_expt",""
"","bandit","157","672345","0.0-119.0-0.0","61051771","wem/bandit_party_2","A2ADE503HGB66R","either","4","955","","","","","","","0","0","1","0.8093770606","","0.2","0.6","0.4","0.8","","","","","0.07280641377","0.8093770606","0.945324638","0.910984946","","","","","","","","","","74","J","1","","","78","main_expt",""
"","bandit","158","674523","0.0-120.0-0.0","61051771","wem/bandit_party_2","A2ADE503HGB66R","either","4","581","","","","","","","0","0","1","","0.06591604593","0.2","0.6","0.4","0.8","0.06591604593","0.7310189459","0.9313693401","0.9303795674","","","","","","","","","","","","","","72","H","0","img/none_selected.jpg","","79","main_expt",""
"","bandit","159","676735","0.0-121.0-0.0","61051771","wem/bandit_party_2","A2ADE503HGB66R","either","4","598","","","","","","","1","0","0","0.9581515868","","0.2","0.6","0.4","0.8","","","","","0.02790121052","0.7915113188","0.9272018461","0.9581515868","","","","","","","","","","76","L","3","","","80","main_expt",""
"","bandit","160","679063","0.0-122.0-0.0","61051771","wem/bandit_party_2","A2ADE503HGB66R","either","4","774","","","","","","","1","0","0","0.9107397581","","0.2","0.6","0.4","0.8","","","","","0.03997429631","0.8463201033","0.9340165544","0.9107397581","","","","","","","","","","76","L","3","","","81","main_expt",""
"","bandit","161","681268","0.0-123.0-0.0","61051771","wem/bandit_party_2","A2ADE503HGB66R","either","4","650","","","","","","","1","0","0","0.9531247327","","0.2","0.6","0.4","0.8","","","","","0.03692483048","0.9043915002","0.9778602254","0.9531247327","","","","","","","","","","76","L","3","","","82","main_expt",""
"","bandit","162","683461","0.0-124.0-0.0","61051771","wem/bandit_party_2","A2ADE503HGB66R","either","4","614","","","","","","","1","0","0","0.91574064","","0.2","0.6","0.4","0.8","","","","","0.04167024954","0.922294541","0.9593015187","0.91574064","","","","","","","","","","76","L","3","","","83","main_expt",""
"","bandit","163","685720","0.0-125.0-0.0","61051771","wem/bandit_party_2","A2ADE503HGB66R","either","4","667","","","","","","","1","0","0","0.9287460716","","0.2","0.6","0.4","0.8","","","","","0.03449326924","0.9079954767","0.9398758864","0.9287460716","","","","","","","","","","76","L","3","","","84","main_expt",""
"","bandit","164","688096","0.0-126.0-0.0","61051771","wem/bandit_party_2","A2ADE503HGB66R","either","4","818","","","","","","","0","1","0","","0.9817994773","0.2","0.6","0.4","0.8","0.07382848834","0.92293493","0.9256746213","0.9817994773","","","","","","","","","","","","","","76","L","3","","","85","main_expt",""
"","bandit","165","690518","0.0-127.0-0.0","61051771","wem/bandit_party_2","A2ADE503HGB66R","either","4","875","","","","","","","1","0","0","0.9651028603","","0.2","0.6","0.4","0.8","","","","","0.08839198485","0.8831043051","0.8910640916","0.9651028603","","","","","","","","","","76","L","3","","","86","main_expt",""
"","bandit","166","692798","0.0-128.0-0.0","61051771","wem/bandit_party_2","A2ADE503HGB66R","either","4","715","","","","","","","0","1","0","","0.9364705545","0.2","0.6","0.4","0.8","0.08767612821","0.876749115","0.8729480744","0.9364705545","","","","","","","","","","","","","","76","L","3","","","87","main_expt",""
"","bandit","167","695378","0.0-129.0-0.0","61051771","wem/bandit_party_2","A2ADE503HGB66R","either","4","1020","","","","","","","1","0","0","0.9235767634","","0.2","0.6","0.4","0.8","","","","","0.1606359608","0.9189432589","0.8780151739","0.9235767634","","","","","","","","","","76","L","3","","","88","main_expt",""
"","bandit","168","697736","0.0-130.0-0.0","61051771","wem/bandit_party_2","A2ADE503HGB66R","either","4","807","","","","","","","1","0","0","0.9375107972","","0.2","0.6","0.4","0.8","","","","","0.2051996915","0.8770582065","0.8856980863","0.9375107972","","","","","","","","","","76","L","3","","","89","main_expt",""
"","bandit","169","700111","0.0-131.0-0.0","61051771","wem/bandit_party_2","A2ADE503HGB66R","either","4","831","","","","","","","1","0","0","0.9201099193","","0.2","0.6","0.4","0.8","","","","","0.1757431166","0.9303780437","0.8828292745","0.9201099193","","","","","","","","","","76","L","3","","","90","main_expt",""
"","bandit","170","702455","0.0-132.0-0.0","61051771","wem/bandit_party_2","A2ADE503HGB66R","either","4","797","","","","","","","1","0","0","0.9416722714","","0.2","0.6","0.4","0.8","","","","","0.3470073597","0.8870296602","0.9016480115","0.9416722714","","","","","","","","","","76","L","3","","","91","main_expt",""
"","bandit","171","705017","0.0-133.0-0.0","61051771","wem/bandit_party_2","A2ADE503HGB66R","either","4","1011","","","","","","","0","1","0","","0.943817784","0.2","0.6","0.4","0.8","0.4969118024","0.8466670433","0.9077272713","0.943817784","","","","","","","","","","","","","","76","L","3","","","92","main_expt",""
"","bandit","172","707237","0.0-134.0-0.0","61051771","wem/bandit_party_2","A2ADE503HGB66R","either","4","674","","","","","","","1","0","0","0.9078517942","","0.2","0.6","0.4","0.8","","","","","0.5773598144","0.850017275","0.875936713","0.9078517942","","","","","","","","","","76","L","3","","","93","main_expt",""
"","bandit","173","709408","0.0-135.0-0.0","61051771","wem/bandit_party_2","A2ADE503HGB66R","either","4","622","","","","","","","1","0","0","0.8983200186","","0.2","0.6","0.4","0.8","","","","","0.5513550223","0.6893652978","0.8089346838","0.8983200186","","","","","","","","","","76","L","3","","","94","main_expt",""
"","bandit","174","711657","0.0-136.0-0.0","61051771","wem/bandit_party_2","A2ADE503HGB66R","either","4","703","","","","","","","1","0","0","0.8744309931","","0.2","0.6","0.4","0.8","","","","","0.5461825447","0.6025630118","0.7472177953","0.8744309931","","","","","","","","","","76","L","3","","","95","main_expt",""
"","bandit","175","713829","0.0-137.0-0.0","61051771","wem/bandit_party_2","A2ADE503HGB66R","either","4","623","","","","","","","1","0","0","0.8894212924","","0.2","0.6","0.4","0.8","","","","","0.5564841108","0.5565182624","0.631257407","0.8894212924","","","","","","","","","","76","L","3","","","96","main_expt",""
"","bandit","176","716064","0.0-138.0-0.0","61051771","wem/bandit_party_2","A2ADE503HGB66R","either","4","663","","","","","","","1","0","0","0.891162681","","0.2","0.6","0.4","0.8","","","","","0.6513715187","0.4820287155","0.7474787878","0.891162681","","","","","","","","","","76","L","3","","","97","main_expt",""
"","bandit","177","718220","0.0-139.0-0.0","61051771","wem/bandit_party_2","A2ADE503HGB66R","either","4","605","","","","","","","1","0","0","0.8495400438","","0.2","0.6","0.4","0.8","","","","","0.7004254565","0.4599621431","0.7753317291","0.8495400438","","","","","","","","","","76","L","3","","","98","main_expt",""
"","bandit","178","720329","0.0-140.0-0.0","61051771","wem/bandit_party_2","A2ADE503HGB66R","either","4","564","","","","","","","1","0","0","0.8671572546","","0.2","0.6","0.4","0.8","","","","","0.6473310623","0.4109144258","0.7088399779","0.8671572546","","","","","","","","","","76","L","3","","","99","main_expt",""
"","bandit","179","722377","0.0-141.0-0.0","61051771","wem/bandit_party_2","A2ADE503HGB66R","either","4","494","","","","","","","1","0","0","0.8312294914","","0.2","0.6","0.4","0.8","","","","","0.6160818326","0.3466085394","0.7328055719","0.8312294914","","","","","","","","","","76","L","3","","","100","main_expt",""
"","bandit","180","724689","0.0-142.0-0.0","61051771","wem/bandit_party_2","A2ADE503HGB66R","either","4","768","","","","","","","1","0","0","0.8135240708","","0.2","0.6","0.4","0.8","","","","","0.6963675268","0.3712289037","0.8183789849","0.8135240708","","","","","","","","","","76","L","3","","","101","main_expt",""
"","bandit","181","726877","0.0-143.0-0.0","61051771","wem/bandit_party_2","A2ADE503HGB66R","either","4","629","","","","","","","0","1","0","","0.8556055773","0.2","0.6","0.4","0.8","0.6339579424","0.3626324234","0.7854635714","0.8556055773","","","","","","","","","","","","","","76","L","3","","","102","main_expt",""
"","bandit","182","729080","0.0-144.0-0.0","61051771","wem/bandit_party_2","A2ADE503HGB66R","either","4","656","","","","","","","1","0","0","0.7632006143","","0.2","0.6","0.4","0.8","","","","","0.6908430899","0.2748825764","0.8481411385","0.7632006143","","","","","","","","","","76","L","3","","","103","main_expt",""
"","bandit","183","731302","0.0-145.0-0.0","61051771","wem/bandit_party_2","A2ADE503HGB66R","either","4","646","","","","","","","0","1","0","","0.8273213265","0.2","0.6","0.4","0.8","0.6866318891","0.2381725209","0.8129446485","0.8273213265","","","","","","","","","","","","","","76","L","3","","","104","main_expt",""
"","bandit","184","733627","0.0-146.0-0.0","61051771","wem/bandit_party_2","A2ADE503HGB66R","either","4","779","","","","","","","0","1","0","","0.7930501456","0.2","0.6","0.4","0.8","0.6749941214","0.1939551764","0.7898688037","0.7930501456","","","","","","","","","","","","","","76","L","3","","","105","main_expt",""
"","bandit","185","735882","0.0-147.0-0.0","61051771","wem/bandit_party_2","A2ADE503HGB66R","either","4","683","","","","","","","0","0","1","0.7186603115","","0.2","0.6","0.4","0.8","","","","","0.7300347885","0.1884153881","0.7810744832","0.7186603115","","","","","","","","","","76","L","3","","","106","main_expt",""
"","bandit","186","738067","0.0-148.0-0.0","61051771","wem/bandit_party_2","A2ADE503HGB66R","either","4","592","","","","","","","0","1","0","","0.8133516847","0.2","0.6","0.4","0.8","0.8133516847","0.1011451677","0.7837395221","0.7155595947","","","","","","","","","","","","","","72","H","0","img/none_selected.jpg","","107","main_expt",""
"","bandit","187","740315","0.0-149.0-0.0","61051771","wem/bandit_party_2","A2ADE503HGB66R","either","4","663","","","","","","","0","1","0","","0.8009432675","0.2","0.6","0.4","0.8","0.8009432675","0.1500242655","0.787971135","0.7654707556","","","","","","","","","","","","","","72","H","0","img/none_selected.jpg","","108","main_expt",""
"","bandit","188","742471","0.0-150.0-0.0","61051771","wem/bandit_party_2","A2ADE503HGB66R","either","4","577","","","","","","","0","0","1","","0.7379370491","0.2","0.6","0.4","0.8","0.7379370491","0.1285750889","0.6866525704","0.6288612937","","","","","","","","","","","","","","72","H","0","img/none_selected.jpg","","109","main_expt",""
"","bandit","189","744330","0.0-151.0-0.0","61051771","wem/bandit_party_2","A2ADE503HGB66R","either","4","309","","","","","","","0","0","1","0.06279291231","","0.2","0.6","0.4","0.8","","","","","0.7379992527","0.06279291231","0.5824748378","0.6309058105","","","","","","","","","","74","J","1","","","110","main_expt",""
"","bandit","190","746252","0.0-152.0-0.0","61051771","wem/bandit_party_2","A2ADE503HGB66R","either","4","374","","","","","","","0","1","0","","0.659702805","0.2","0.6","0.4","0.8","0.7464430213","0.07144278273","0.659702805","0.6218965746","","","","","","","","","","","","","","75","K","2","","","111","main_expt",""
"","bandit","191","748486","0.0-153.0-0.0","61051771","wem/bandit_party_2","A2ADE503HGB66R","either","4","669","","","","","","","0","1","0","","0.5111205641","0.2","0.6","0.4","0.8","0.7736339118","0.06013221683","0.5111205641","0.6741482942","","","","","","","","","","","","","","75","K","2","","","112","main_expt",""
"","bandit","192","750705","0.0-154.0-0.0","61051771","wem/bandit_party_2","A2ADE503HGB66R","either","4","669","","","","","","","0","0","1","","0.4852392648","0.2","0.6","0.4","0.8","0.8480767854","0.1442356489","0.4852392648","0.7405202534","","","","","","","","","","","","","","75","K","2","","","113","main_expt",""
"","bandit","193","752627","0.0-155.0-0.0","61051771","wem/bandit_party_2","A2ADE503HGB66R","either","4","376","","","","","","","0","0","1","0.1733870882","","0.2","0.6","0.4","0.8","","","","","0.8016933152","0.1733870882","0.3531287621","0.743157628","","","","","","","","","","74","J","1","","","114","main_expt",""
"","bandit","194","754486","0.0-156.0-0.0","61051771","wem/bandit_party_2","A2ADE503HGB66R","either","4","309","","","","","","","0","1","0","","0.8200260584","0.2","0.6","0.4","0.8","0.8200260584","0.2198725907","0.4090792957","0.7732583829","","","","","","","","","","","","","","72","H","0","img/none_selected.jpg","","115","main_expt",""
"","bandit","195","756440","0.0-157.0-0.0","61051771","wem/bandit_party_2","A2ADE503HGB66R","either","4","404","","","","","","","0","0","1","","0.7761954976","0.2","0.6","0.4","0.8","0.7761954976","0.2116870815","0.4927933112","0.6224016225","","","","","","","","","","","","","","72","H","0","img/none_selected.jpg","","116","main_expt",""
"","bandit","196","758486","0.0-158.0-0.0","61051771","wem/bandit_party_2","A2ADE503HGB66R","either","4","501","","","","","","","0","1","0","","0.6784399158","0.2","0.6","0.4","0.8","0.7722233998","0.1293815938","0.4255499736","0.6784399158","","","","","","","","","","","","","","76","L","3","","","117","main_expt",""
"","bandit","197","760814","0.0-159.0-0.0","61051771","wem/bandit_party_2","A2ADE503HGB66R","either","4","778","","","","","","","0","0","1","0.7499631032","","0.2","0.6","0.4","0.8","","","","","0.8049831996","0.1442073762","0.4073726931","0.7499631032","","","","","","","","","","76","L","3","","","118","main_expt",""
"","bandit","198","763283","0.0-160.0-0.0","61051771","wem/bandit_party_2","A2ADE503HGB66R","either","4","918","","","","","","","1","0","0","0.6258432538","","0.2","0.6","0.4","0.8","","","","","0.8469405197","0.2098334931","0.5447318884","0.6258432538","","","","","","","","","","76","L","3","","","119","main_expt",""
"","bandit","199","765580","0.0-161.0-0.0","61051771","wem/bandit_party_2","A2ADE503HGB66R","either","4","748","","","","","","","1","0","0","0.5602994123","","0.2","0.6","0.4","0.8","","","","","0.783925966","0.243218138","0.5336717705","0.5602994123","","","","","","","","","","76","L","3","","","120","main_expt",""
"","bandit","200","767783","0.0-162.0-0.0","61051771","wem/bandit_party_2","A2ADE503HGB66R","either","4","637","","","","","","","0","0","1","0.5850644561","","0.2","0.6","0.4","0.8","","","","","0.8031476983","0.1595445902","0.5621279662","0.5850644561","","","","","","","","","","76","L","3","","","121","main_expt",""
"","bandit","201","769767","0.0-163.0-0.0","61051771","wem/bandit_party_2","A2ADE503HGB66R","either","4","434","","","","","","","0","0","1","","0.5664238538","0.2","0.6","0.4","0.8","0.776878313","0.1939767007","0.5664238538","0.6205732407","","","","","","","","","","","","","","75","K","2","","","122","main_expt",""
"","bandit","202","771470","0.0-164.0-0.0","61051771","wem/bandit_party_2","A2ADE503HGB66R","either","4","154","","","","","","","0","0","1","","0.2265728871","0.2","0.6","0.4","0.8","0.7695343448","0.2265728871","0.6501842916","0.7954206102","","","","","","","","","","","","","","74","J","1","","","123","main_expt",""
"","bandit","203","773361","0.0-165.0-0.0","61051771","wem/bandit_party_2","A2ADE503HGB66R","either","4","339","","","","","","","0","1","0","","0.6154230174","0.2","0.6","0.4","0.8","0.6154230174","0.2027469411","0.5413703051","0.881213352","","","","","","","","","","","","","","72","H","0","img/none_selected.jpg","","124","main_expt",""
"","bandit","204","775502","0.0-166.0-0.0","61051771","wem/bandit_party_2","A2ADE503HGB66R","either","4","584","","","","","","","0","1","0","","0.4710930195","0.2","0.6","0.4","0.8","0.4710930195","0.1506135949","0.5191338098","0.8598562332","","","","","","","","","","","","","","72","H","0","img/none_selected.jpg","","125","main_expt",""
"","bandit","205","777486","0.0-167.0-0.0","61051771","wem/bandit_party_2","A2ADE503HGB66R","either","4","418","","","","","","","0","0","1","","0.5258886302","0.2","0.6","0.4","0.8","0.5258886302","0.1875851228","0.6232591378","0.867144728","","","","","","","","","","","","","","72","H","0","img/none_selected.jpg","","126","main_expt",""
"","bandit","206","779376","0.0-168.0-0.0","61051771","wem/bandit_party_2","A2ADE503HGB66R","either","4","336","","","","","","","1","0","0","0.8677917819","","0.2","0.6","0.4","0.8","","","","","0.3996486754","0.2106184636","0.601333273","0.8677917819","","","","","","","","","","76","L","3","","","127","main_expt",""
"","bandit","207","781470","0.0-169.0-0.0","61051771","wem/bandit_party_2","A2ADE503HGB66R","either","4","543","","","","","","","0","0","1","0.8194058857","","0.2","0.6","0.4","0.8","","","","","0.3557241191","0.1276240755","0.6312294041","0.8194058857","","","","","","","","","","76","L","3","","","128","main_expt",""
"","bandit","208","783377","0.0-170.0-0.0","61051771","wem/bandit_party_2","A2ADE503HGB66R","either","4","355","","","","","","","0","1","0","","0.6655034733","0.2","0.6","0.4","0.8","0.2432070908","0.2163335705","0.6655034733","0.813940224","","","","","","","","","","","","","","75","K","2","","","129","main_expt",""
"","bandit","209","785596","0.0-171.0-0.0","61051771","wem/bandit_party_2","A2ADE503HGB66R","either","4","641","","","","","","","1","0","0","0.6882303755","","0.2","0.6","0.4","0.8","","","","","0.1722843937","0.2448863899","0.6882303755","0.7296764962","","","","","","","","","","75","K","2","","","130","main_expt",""
"","bandit","210","787800","0.0-172.0-0.0","61051771","wem/bandit_party_2","A2ADE503HGB66R","either","4","658","","","","","","","0","1","0","","0.6772884453","0.2","0.6","0.4","0.8","0.1336027919","0.3447645787","0.6772884453","0.614258276","","","","","","","","","","","","","","75","K","2","","","131","main_expt",""
"","bandit","211","790001","0.0-173.0-0.0","61051771","wem/bandit_party_2","A2ADE503HGB66R","either","4","645","","","","","","","0","1","0","","0.6773684555","0.2","0.6","0.4","0.8","0.1351629047","0.3622527956","0.6773684555","0.5349540706","","","","","","","","","","","","","","75","K","2","","","132","main_expt",""
"","bandit","212","791970","0.0-174.0-0.0","61051771","wem/bandit_party_2","A2ADE503HGB66R","either","4","421","","","","","","","0","1","0","","0.7437755928","0.2","0.6","0.4","0.8","0.2495029","0.2961885878","0.7437755928","0.5449090787","","","","","","","","","","","","","","75","K","2","","","133","main_expt",""
"","bandit","213","794189","0.0-175.0-0.0","61051771","wem/bandit_party_2","A2ADE503HGB66R","either","4","661","","","","","","","0","0","1","0.7423545867","","0.2","0.6","0.4","0.8","","","","","0.2118512663","0.2932126781","0.7423545867","0.5037108559","","","","","","","","","","75","K","2","","","134","main_expt",""
"","bandit","214","796377","0.0-176.0-0.0","61051771","wem/bandit_party_2","A2ADE503HGB66R","either","4","637","","","","","","","0","0","1","","0.2836439675","0.2","0.6","0.4","0.8","0.2474577379","0.2836439675","0.7462440124","0.5131336393","","","","","","","","","","","","","","74","J","1","","","135","main_expt",""
"","bandit","215","798517","0.0-177.0-0.0","61051771","wem/bandit_party_2","A2ADE503HGB66R","either","4","582","","","","","","","0","1","0","","0.1496333288","0.2","0.6","0.4","0.8","0.1496333288","0.1985775905","0.6372772774","0.5847952324","","","","","","","","","","","","","","72","H","0","img/none_selected.jpg","","136","main_expt",""
"","bandit","216","800658","0.0-178.0-0.0","61051771","wem/bandit_party_2","A2ADE503HGB66R","either","4","591","","","","","","","0","0","1","0.164835495","","0.2","0.6","0.4","0.8","","","","","0.164835495","0.2655975","0.6587707878","0.5191620222","","","","","","","","","","72","H","0","img/none_selected.jpg","","137","main_expt",""
"","bandit","217","802726","0.0-179.0-0.0","61051771","wem/bandit_party_2","A2ADE503HGB66R","either","4","491","","","","","","","0","0","1","0.3830682141","","0.2","0.6","0.4","0.8","","","","","0.1629561883","0.4066298912","0.6545472314","0.3830682141","","","","","","","","","","76","L","3","","","138","main_expt",""
"","bandit","218","804625","0.0-180.0-0.0","61051771","wem/bandit_party_2","A2ADE503HGB66R","either","4","308","","","","","","","1","0","0","0.5773899651","","0.2","0.6","0.4","0.8","","","","","0.1162724323","0.4537429859","0.5773899651","0.3036015776","","","","","","","","","","75","K","2","","","139","main_expt",""
"","bandit","219","806675","0.0-181.0-0.0","61051771","wem/bandit_party_2","A2ADE503HGB66R","either","4","490","","","","","","","0","1","0","","0.5786924042","0.2","0.6","0.4","0.8","0.1262651596","0.410026376","0.5786924042","0.2541790234","","","","","","","","","","","","","","75","K","2","","","140","main_expt",""
"","bandit","220","808690","0.0-182.0-0.0","61051771","wem/bandit_party_2","A2ADE503HGB66R","either","4","461","","","","","","","0","1","0","","0.4589731036","0.2","0.6","0.4","0.8","0.1258799353","0.3978668086","0.4589731036","0.1899663758","","","","","","","","","","","","","","75","K","2","","","141","main_expt",""
"","bandit","221","810768","0.0-183.0-0.0","61051771","wem/bandit_party_2","A2ADE503HGB66R","either","4","513","","","","","","","0","0","1","0.3667804619","","0.2","0.6","0.4","0.8","","","","","0.1220135665","0.4096738096","0.3667804619","0.214868544","","","","","","","","","","75","K","2","","","142","main_expt",""
"","bandit","222","812659","0.0-184.0-0.0","61051771","wem/bandit_party_2","A2ADE503HGB66R","either","4","333","","","","","","","0","0","1","","0.5422751762","0.2","0.6","0.4","0.8","0.1600355681","0.5422751762","0.3563831379","0.1549416237","","","","","","","","","","","","","","74","J","1","","","143","main_expt",""
"","bandit","223","814502","0.0-185.0-0.0","61051771","wem/bandit_party_2","A2ADE503HGB66R","either","4","293","","","","","","","0","1","0","","0.6045197677","0.2","0.6","0.4","0.8","0.103653669","0.6045197677","0.3675361202","0.2142728447","","","","","","","","","","","","","","74","J","1","","","144","main_expt",""
"","bandit","224","816564","0.0-186.0-0.0","61051771","wem/bandit_party_2","A2ADE503HGB66R","either","4","508","","","","","","","1","0","0","0.6140727406","","0.2","0.6","0.4","0.8","","","","","0.1417267119","0.6140727406","0.3266856562","0.2166472609","","","","","","","","","","74","J","1","","","145","main_expt",""
"","bandit","225","818627","0.0-187.0-0.0","61051771","wem/bandit_party_2","A2ADE503HGB66R","either","4","509","","","","","","","0","0","1","","0.5553742365","0.2","0.6","0.4","0.8","0.1508894681","0.5553742365","0.2815179259","0.2446047688","","","","","","","","","","","","","","74","J","1","","","146","main_expt",""
"","bandit","226","820642","0.0-188.0-0.0","61051771","wem/bandit_party_2","A2ADE503HGB66R","either","4","458","","","","","","","0","0","1","","0.1207147728","0.2","0.6","0.4","0.8","0.1207147728","0.52787167","0.3560244833","0.3011136322","","","","","","","","","","","","","","72","H","0","img/none_selected.jpg","","147","main_expt",""
"","bandit","227","822549","0.0-189.0-0.0","61051771","wem/bandit_party_2","A2ADE503HGB66R","either","4","345","","","","","","","1","0","0","0.2519777133","","0.2","0.6","0.4","0.8","","","","","0.1362234148","0.5053851794","0.3585854149","0.2519777133","","","","","","","","","","76","L","3","","","148","main_expt",""
"","bandit","228","824689","0.0-190.0-0.0","61051771","wem/bandit_party_2","A2ADE503HGB66R","either","4","577","","","","","","","0","0","1","0.2996109941","","0.2","0.6","0.4","0.8","","","","","0.1244444975","0.5431256022","0.284478414","0.2996109941","","","","","","","","","","76","L","3","","","149","main_expt",""
"","bandit","229","826595","0.0-191.0-0.0","61051771","wem/bandit_party_2","A2ADE503HGB66R","either","4","361","","","","","","","0","0","1","0.2617238314","","0.2","0.6","0.4","0.8","","","","","0.1109305632","0.422574086","0.2617238314","0.2963563975","","","","","","","","","","75","K","2","","","150","main_expt",""
"","bandit","230","828658","0.0-192.0-0.0","61051771","wem/bandit_party_2","A2ADE503HGB66R","either","4","500","","","","","","","0","1","0","","0.2709462114","0.2","0.6","0.4","0.8","0.11412436","0.3907227364","0.2709462114","0.4327396174","","","","","","","","","","","","","","75","K","2","","","151","main_expt",""
"","bandit","231","831002","0.0-193.0-0.0","61051771","wem/bandit_party_2","A2ADE503HGB66R","either","4","790","","","","","","","1","0","0","0.2993716907","","0.2","0.6","0.4","0.8","","","","","0.1469045903","0.5580814469","0.2993716907","0.4303068123","","","","","","","","","","75","K","2","","","152","main_expt",""
"","bandit","232","833065","0.0-194.0-0.0","61051771","wem/bandit_party_2","A2ADE503HGB66R","either","4","513","","","","","","","0","0","1","","0.2733354782","0.2","0.6","0.4","0.8","0.1633028487","0.51223936","0.2733354782","0.455197397","","","","","","","","","","","","","","75","K","2","","","153","main_expt",""
"","bandit","233","834924","0.0-195.0-0.0","61051771","wem/bandit_party_2","A2ADE503HGB66R","either","4","301","","","","","","","1","0","0","0.6184454144","","0.2","0.6","0.4","0.8","","","","","0.1340882311","0.4811601507","0.3264007987","0.6184454144","","","","","","","","","","76","L","3","","","154","main_expt",""
"","bandit","234","836986","0.0-196.0-0.0","61051771","wem/bandit_party_2","A2ADE503HGB66R","either","4","500","","","","","","","1","0","0","0.5833601464","","0.2","0.6","0.4","0.8","","","","","0.1041462846","0.575425417","0.204433578","0.5833601464","","","","","","","","","","76","L","3","","","155","main_expt",""
"","bandit","235","838929","0.0-197.0-0.0","61051771","wem/bandit_party_2","A2ADE503HGB66R","either","4","385","","","","","","","1","0","0","0.646897734","","0.2","0.6","0.4","0.8","","","","","0.08564190031","0.6109018817","0.07451572188","0.646897734","","","","","","","","","","76","L","3","","","156","main_expt",""
"","bandit","236","840894","0.0-198.0-0.0","61051771","wem/bandit_party_2","A2ADE503HGB66R","either","4","394","","","","","","","1","0","0","0.6912470103","","0.2","0.6","0.4","0.8","","","","","0.06977116317","0.6812883852","0.1251686374","0.6912470103","","","","","","","","","","76","L","3","","","157","main_expt",""
"","bandit","237","842924","0.0-199.0-0.0","61051771","wem/bandit_party_2","A2ADE503HGB66R","either","4","457","","","","","","","0","0","1","0.7865398282","","0.2","0.6","0.4","0.8","","","","","0.1504927074","0.73777041","0.1292052795","0.7865398282","","","","","","","","","","76","L","3","","","158","main_expt",""
"","bandit","238","844815","0.0-200.0-0.0","61051771","wem/bandit_party_2","A2ADE503HGB66R","either","4","331","","","","","","","0","1","0","","0.8388849062","0.2","0.6","0.4","0.8","0.1429264201","0.8388849062","0.1200050714","0.7220910122","","","","","","","","","","","","","","74","J","1","","","159","main_expt",""
"","bandit","239","846861","0.0-201.0-0.0","61051771","wem/bandit_party_2","A2ADE503HGB66R","either","4","491","","","","","","","1","0","0","0.8006667519","","0.2","0.6","0.4","0.8","","","","","0.1832893837","0.8006667519","0.1156014834","0.710563805","","","","","","","","","","74","J","1","","","160","main_expt",""
"","bandit","240","848925","0.0-202.0-0.0","61051771","wem/bandit_party_2","A2ADE503HGB66R","either","4","505","","","","","","","1","0","0","0.7406956812","","0.2","0.6","0.4","0.8","","","","","0.2337310763","0.7406956812","0.1425751263","0.6205281072","","","","","","","","","","74","J","1","","","161","main_expt",""
"","bandit","241","851002","0.0-203.0-0.0","61051771","wem/bandit_party_2","A2ADE503HGB66R","either","4","519","","","","","","","0","0","1","","0.775259894","0.2","0.6","0.4","0.8","0.2326198937","0.775259894","0.2108345254","0.5246840185","","","","","","","","","","","","","","74","J","1","","","162","main_expt",""
"","bandit","242","852940","0.0-204.0-0.0","61051771","wem/bandit_party_2","A2ADE503HGB66R","either","4","376","","","","","","","0","0","1","","0.1584290897","0.2","0.6","0.4","0.8","0.1584290897","0.6539471222","0.1664621688","0.569340372","","","","","","","","","","","","","","72","H","0","img/none_selected.jpg","","163","main_expt",""
"","bandit","243","854908","0.0-205.0-0.0","61051771","wem/bandit_party_2","A2ADE503HGB66R","either","4","408","","","","","","","0","0","1","","0.5688323765","0.2","0.6","0.4","0.8","0.1417900361","0.7914062868","0.1741279052","0.5688323765","","","","","","","","","","","","","","76","L","3","","","164","main_expt",""
"","bandit","244","856753","0.0-206.0-0.0","61051771","wem/bandit_party_2","A2ADE503HGB66R","either","4","285","","","","","","","0","1","0","","0.1891196979","0.2","0.6","0.4","0.8","0.08849486786","0.8415061218","0.1891196979","0.5195648955","","","","","","","","","","","","","","75","K","2","","","165","main_expt",""
"","bandit","245","858737","0.0-207.0-0.0","61051771","wem/bandit_party_2","A2ADE503HGB66R","either","4","435","","","","","","","1","0","0","0.3016440744","","0.2","0.6","0.4","0.8","","","","","0.1010416226","0.9084068317","0.3016440744","0.536500984","","","","","","","","","","75","K","2","","","166","main_expt",""
"","bandit","246","860783","0.0-208.0-0.0","61051771","wem/bandit_party_2","A2ADE503HGB66R","either","4","483","","","","","","","0","0","1","","0.3427468607","0.2","0.6","0.4","0.8","0.1506776516","0.8857506799","0.3427468607","0.4243381616","","","","","","","","","","","","","","75","K","2","","","167","main_expt",""
"","bandit","247","863633","0.0-209.0-0.0","61051771","wem/bandit_party_2","A2ADE503HGB66R","either","4","1294","","","","","","","1","0","0","0.9247721234","","0.2","0.6","0.4","0.8","","","","","0.2532220847","0.9247721234","0.3759001064","0.4877327119","","","","","","","","","","74","J","1","","","168","main_expt",""
"","bandit","248","865573","0.0-210.0-0.0","61051771","wem/bandit_party_2","A2ADE503HGB66R","either","4","354","","","","","","","0","1","0","","0.8870410368","0.2","0.6","0.4","0.8","0.2223654062","0.8870410368","0.3824832387","0.5096331713","","","","","","","","","","","","","","74","J","1","","","169","main_expt",""
"","bandit","249","867674","0.0-211.0-0.0","61051771","wem/bandit_party_2","A2ADE503HGB66R","either","4","529","","","","","","","1","0","0","0.8782412079","","0.2","0.6","0.4","0.8","","","","","0.2161840498","0.8782412079","0.3257043992","0.6111595203","","","","","","","","","","74","J","1","","","170","main_expt",""
"","bandit","250","869815","0.0-212.0-0.0","61051771","wem/bandit_party_2","A2ADE503HGB66R","either","4","578","","","","","","","0","0","1","0.7978982074","","0.2","0.6","0.4","0.8","","","","","0.1996440145","0.7978982074","0.2943589708","0.5888321224","","","","","","","","","","74","J","1","","","171","main_expt",""
"","bandit","251","871924","0.0-213.0-0.0","61051771","wem/bandit_party_2","A2ADE503HGB66R","either","4","546","","","","","","","0","0","1","","0.275753823","0.2","0.6","0.4","0.8","0.275753823","0.7896885826","0.4298537702","0.6295404033","","","","","","","","","","","","","","72","H","0","img/none_selected.jpg","","172","main_expt",""
"","bandit","252","873847","0.0-214.0-0.0","61051771","wem/bandit_party_2","A2ADE503HGB66R","either","4","366","","","","","","","0","0","1","0.2850946521","","0.2","0.6","0.4","0.8","","","","","0.2850946521","0.7771385218","0.4196262671","0.5976712981","","","","","","","","","","72","H","0","img/none_selected.jpg","","173","main_expt",""
"","bandit","253","875799","0.0-215.0-0.0","61051771","wem/bandit_party_2","A2ADE503HGB66R","either","4","404","","","","","","","1","0","0","0.8412209493","","0.2","0.6","0.4","0.8","","","","","0.2836726952","0.8412209493","0.4056978145","0.5936331925","","","","","","","","","","74","J","1","","","174","main_expt",""
"","bandit","254","877736","0.0-216.0-0.0","61051771","wem/bandit_party_2","A2ADE503HGB66R","either","4","383","","","","","","","0","1","0","","0.8433491626","0.2","0.6","0.4","0.8","0.27413619","0.8433491626","0.3323311207","0.544145328","","","","","","","","","","","","","","74","J","1","","","175","main_expt",""
"","bandit","255","879830","0.0-217.0-0.0","61051771","wem/bandit_party_2","A2ADE503HGB66R","either","4","538","","","","","","","0","0","1","0.778586436","","0.2","0.6","0.4","0.8","","","","","0.2369491767","0.778586436","0.3087900888","0.3584947592","","","","","","","","","","74","J","1","","","176","main_expt",""
"","bandit","256","881830","0.0-218.0-0.0","61051771","wem/bandit_party_2","A2ADE503HGB66R","either","4","442","","","","","","","0","1","0","","0.436171931","0.2","0.6","0.4","0.8","0.3440943848","0.7488794252","0.3898613412","0.436171931","","","","","","","","","","","","","","76","L","3","","","177","main_expt",""
"","bandit","257","884347","0.0-219.0-0.0","61051771","wem/bandit_party_2","A2ADE503HGB66R","either","4","962","","","","","","","1","0","0","0.5193680035","","0.2","0.6","0.4","0.8","","","","","0.3529135521","0.7738581751","0.5236321052","0.5193680035","","","","","","","","","","76","L","3","","","178","main_expt",""
"","bandit","258","886439","0.0-220.0-0.0","61051771","wem/bandit_party_2","A2ADE503HGB66R","either","4","538","","","","","","","1","0","0","0.3957798075","","0.2","0.6","0.4","0.8","","","","","0.3787243664","0.7527820287","0.2955080601","0.3957798075","","","","","","","","","","76","L","3","","","179","main_expt",""
"","bandit","259","888392","0.0-221.0-0.0","61051771","wem/bandit_party_2","A2ADE503HGB66R","either","4","398","","","","","","","0","1","0","","0.4249873197","0.2","0.6","0.4","0.8","0.3092677326","0.8022950929","0.3174151272","0.4249873197","","","","","","","","","","","","","","76","L","3","","","180","main_expt",""
"","bandit","260","890346","0.0-222.0-0.0","61051771","wem/bandit_party_2","A2ADE503HGB66R","either","4","398","","","","","","","0","1","0","","0.4260342439","0.2","0.6","0.4","0.8","0.3701559146","0.7505347306","0.3560995969","0.4260342439","","","","","","","","","","","","","","76","L","3","","","181","main_expt",""
"","bandit","261","892268","0.0-223.0-0.0","61051771","wem/bandit_party_2","A2ADE503HGB66R","either","4","359","","","","","","","0","0","1","0.4305619521","","0.2","0.6","0.4","0.8","","","","","0.2672844749","0.603349844","0.4649908644","0.4305619521","","","","","","","","","","76","L","3","","","182","main_expt",""
"","bandit","262","894162","0.0-224.0-0.0","61051771","wem/bandit_party_2","A2ADE503HGB66R","either","4","335","","","","","","","0","1","0","","0.4588174784","0.2","0.6","0.4","0.8","0.3046315644","0.6464544124","0.4588174784","0.4638513582","","","","","","","","","","","","","","75","K","2","","","183","main_expt",""
"","bandit","263","896289","0.0-225.0-0.0","61051771","wem/bandit_party_2","A2ADE503HGB66R","either","4","540","","","","","","","0","0","1","","0.509799977","0.2","0.6","0.4","0.8","0.3507685813","0.6606024443","0.509799977","0.5084330557","","","","","","","","","","","","","","75","K","2","","","184","main_expt",""
"","bandit","264","898501","0.0-226.0-0.0","61051771","wem/bandit_party_2","A2ADE503HGB66R","either","4","671","","","","","","","0","1","0","","0.7034535028","0.2","0.6","0.4","0.8","0.3250269766","0.7034535028","0.4557178443","0.5853778332","","","","","","","","","","","","","","74","J","1","","","185","main_expt",""
"","bandit","265","900674","0.0-227.0-0.0","61051771","wem/bandit_party_2","A2ADE503HGB66R","either","4","619","","","","","","","0","1","0","","0.7672503758","0.2","0.6","0.4","0.8","0.3636669497","0.7672503758","0.3250172706","0.5009207633","","","","","","","","","","","","","","74","J","1","","","186","main_expt",""
"","bandit","266","903189","0.0-228.0-0.0","61051771","wem/bandit_party_2","A2ADE503HGB66R","either","4","954","","","","","","","0","0","1","","0.7505037824","0.2","0.6","0.4","0.8","0.4095027401","0.7505037824","0.2982192525","0.4376492532","","","","","","","","","","","","","","74","J","1","","","187","main_expt",""
"","bandit","267","905298","0.0-229.0-0.0","61051771","wem/bandit_party_2","A2ADE503HGB66R","either","4","553","","","","","","","0","1","0","","0.3356624093","0.2","0.6","0.4","0.8","0.3356624093","0.7458261356","0.2647713636","0.317868257","","","","","","","","","","","","","","72","H","0","img/none_selected.jpg","","188","main_expt",""
"","bandit","268","907361","0.0-230.0-0.0","61051771","wem/bandit_party_2","A2ADE503HGB66R","either","4","487","","","","","","","0","0","1","0.3717951419","","0.2","0.6","0.4","0.8","","","","","0.3717951419","0.747965221","0.2798663258","0.3700786551","","","","","","","","","","72","H","0","img/none_selected.jpg","","189","main_expt",""
"","bandit","269","909830","0.0-231.0-0.0","61051771","wem/bandit_party_2","A2ADE503HGB66R","either","4","917","","","","","","","0","0","1","0.3423477616","","0.2","0.6","0.4","0.8","","","","","0.3266606931","0.7459095382","0.2146362806","0.3423477616","","","","","","","","","","76","L","3","","","190","main_expt",""
"","bandit","270","911658","0.0-232.0-0.0","61051771","wem/bandit_party_2","A2ADE503HGB66R","either","4","262","","","","","","","0","0","1","","0.4206899072","0.2","0.6","0.4","0.8","0.4206899072","0.6299055833","0.3132783624","0.2488230813","","","","","","","","","","","","","","72","H","0","img/none_selected.jpg","","191","main_expt",""
"","bandit","271","913548","0.0-233.0-0.0","61051771","wem/bandit_party_2","A2ADE503HGB66R","either","4","335","","","","","","","0","1","0","","0.688533977","0.2","0.6","0.4","0.8","0.4982817076","0.688533977","0.2488083766","0.2193108308","","","","","","","","","","","","","","74","J","1","","","192","main_expt",""
"","bandit","272","915674","0.0-234.0-0.0","61051771","wem/bandit_party_2","A2ADE503HGB66R","either","4","561","","","","","","","0","0","1","","0.7176496952","0.2","0.6","0.4","0.8","0.4820211017","0.7176496952","0.225611763","0.4057276106","","","","","","","","","","","","","","74","J","1","","","193","main_expt",""
"","bandit","273","917533","0.0-235.0-0.0","61051771","wem/bandit_party_2","A2ADE503HGB66R","either","4","306","","","","","","","0","0","1","","0.2159393038","0.2","0.6","0.4","0.8","0.5373891537","0.746212457","0.2159393038","0.3826056333","","","","","","","","","","","","","","75","K","2","","","194","main_expt",""
"","bandit","274","919439","0.0-236.0-0.0","61051771","wem/bandit_party_2","A2ADE503HGB66R","either","4","348","","","","","","","0","1","0","","0.4922935908","0.2","0.6","0.4","0.8","0.3890275207","0.6800784202","0.3112228701","0.4922935908","","","","","","","","","","","","","","76","L","3","","","195","main_expt",""
"","bandit","275","921425","0.0-237.0-0.0","61051771","wem/bandit_party_2","A2ADE503HGB66R","either","4","421","","","","","","","1","0","0","0.5475793877","","0.2","0.6","0.4","0.8","","","","","0.4329462643","0.5986295964","0.3249051539","0.5475793877","","","","","","","","","","76","L","3","","","196","main_expt",""
"","bandit","276","923392","0.0-238.0-0.0","61051771","wem/bandit_party_2","A2ADE503HGB66R","either","4","409","","","","","","","1","0","0","0.6069385875","","0.2","0.6","0.4","0.8","","","","","0.416825946","0.5323622673","0.2985018541","0.6069385875","","","","","","","","","","76","L","3","","","197","main_expt",""
"","bandit","277","925439","0.0-239.0-0.0","61051771","wem/bandit_party_2","A2ADE503HGB66R","either","4","487","","","","","","","0","0","1","0.4946816555","","0.2","0.6","0.4","0.8","","","","","0.4063336836","0.5348043844","0.3109366799","0.4946816555","","","","","","","","","","76","L","3","","","198","main_expt",""
"","bandit","278","927720","0.0-240.0-0.0","61051771","wem/bandit_party_2","A2ADE503HGB66R","either","4","717","","","","","","","1","0","0","0.361264989","","0.2","0.6","0.4","0.8","","","","","0.361264989","0.4534403339","0.3143364341","0.479635203","","","","","","","","","","72","H","0","img/none_selected.jpg","","199","main_expt",""
"","bandit","279","929970","0.0-241.0-0.0","61051771","wem/bandit_party_2","A2ADE503HGB66R","either","4","685","","","","","","","0","0","1","","0.4700223374","0.2","0.6","0.4","0.8","0.4700223374","0.4185876589","0.3176919365","0.4969837249","","","","","","","","","","","","","","72","H","0","img/none_selected.jpg","","200","main_expt",""
"","bandit","280","931783","0.0-242.0-0.0","61051771","wem/bandit_party_2","A2ADE503HGB66R","either","4","256","","","","","","","1","0","0","0.4548125401","","0.2","0.6","0.4","0.8","","","","","0.4751543938","0.3812211227","0.2848283651","0.4548125401","","","","","","","","","","76","L","3","","","201","main_expt",""
"","bandit","281","933814","0.0-243.0-0.0","61051771","wem/bandit_party_2","A2ADE503HGB66R","either","4","472","","","","","","","0","0","1","0.5767771981","","0.2","0.6","0.4","0.8","","","","","0.4044794657","0.4414728031","0.2439676923","0.5767771981","","","","","","","","","","76","L","3","","","202","main_expt",""
"","bandit","282","935783","0.0-244.0-0.0","61051771","wem/bandit_party_2","A2ADE503HGB66R","either","4","414","","","","","","","0","1","0","","0.2582922662","0.2","0.6","0.4","0.8","0.3321077444","0.3698030662","0.2582922662","0.6118171827","","","","","","","","","","","","","","75","K","2","","","203","main_expt",""
"","bandit","283","937986","0.0-245.0-0.0","61051771","wem/bandit_party_2","A2ADE503HGB66R","either","4","649","","","","","","","0","0","1","0.3799793739","","0.2","0.6","0.4","0.8","","","","","0.3697340749","0.4899087748","0.3799793739","0.5373194108","","","","","","","","","","75","K","2","","","204","main_expt",""
"","bandit","284","939814","0.0-246.0-0.0","61051771","wem/bandit_party_2","A2ADE503HGB66R","either","4","277","","","","","","","0","0","1","","0.4310108402","0.2","0.6","0.4","0.8","0.3998168993","0.4310108402","0.4441528059","0.5501461309","","","","","","","","","","","","","","74","J","1","","","205","main_expt",""
"","bandit","285","941783","0.0-247.0-0.0","61051771","wem/bandit_party_2","A2ADE503HGB66R","either","4","415","","","","","","","1","0","0","0.3912115078","","0.2","0.6","0.4","0.8","","","","","0.4929909192","0.3912115078","0.4468516792","0.5094027242","","","","","","","","","","74","J","1","","","206","main_expt",""
"","bandit","286","943705","0.0-248.0-0.0","61051771","wem/bandit_party_2","A2ADE503HGB66R","either","4","365","","","","","","","0","0","1","0.3195818707","","0.2","0.6","0.4","0.8","","","","","0.4960693894","0.3195818707","0.399366085","0.6449696869","","","","","","","","","","74","J","1","","","207","main_expt",""
"","bandit","287","945674","0.0-249.0-0.0","61051771","wem/bandit_party_2","A2ADE503HGB66R","either","4","410","","","","","","","0","1","0","","0.3912862986","0.2","0.6","0.4","0.8","0.3912862986","0.2378171997","0.4206610772","0.549996868","","","","","","","","","","","","","","72","H","0","img/none_selected.jpg","","208","main_expt",""
"","bandit","288","947908","0.0-250.0-0.0","61051771","wem/bandit_party_2","A2ADE503HGB66R","either","4","677","","","","","","","0","0","1","0.4218938049","","0.2","0.6","0.4","0.8","","","","","0.4218938049","0.2339104391","0.5145499259","0.5258833792","","","","","","","","","","72","H","0","img/none_selected.jpg","","209","main_expt",""
"","bandit","289","950050","0.0-251.0-0.0","61051771","wem/bandit_party_2","A2ADE503HGB66R","either","4","581","","","","","","","0","0","1","","0.6003160005","0.2","0.6","0.4","0.8","0.6003160005","0.2506558306","0.3497539355","0.5453980868","","","","","","","","","","","","","","72","H","0","img/none_selected.jpg","","210","main_expt",""
"","bandit","290","952174","0.0-252.0-0.0","61051771","wem/bandit_party_2","A2ADE503HGB66R","either","4","570","","","","","","","1","0","0","0.5370950561","","0.2","0.6","0.4","0.8","","","","","0.5481562991","0.3466578502","0.3335821388","0.5370950561","","","","","","","","","","76","L","3","","","211","main_expt",""
"","bandit","291","954283","0.0-253.0-0.0","61051771","wem/bandit_party_2","A2ADE503HGB66R","either","4","549","","","","","","","0","0","1","","0.5774996514","0.2","0.6","0.4","0.8","0.6210595125","0.4162959965","0.2778022227","0.5774996514","","","","","","","","","","","","","","76","L","3","","","212","main_expt",""
"","bandit","292","956158","0.0-254.0-0.0","61051771","wem/bandit_party_2","A2ADE503HGB66R","either","4","324","","","","","","","0","0","1","","0.2949104287","0.2","0.6","0.4","0.8","0.7732161257","0.545788555","0.2949104287","0.4826056363","","","","","","","","","","","","","","75","K","2","","","213","main_expt",""
"","bandit","293","958065","0.0-255.0-0.0","61051771","wem/bandit_party_2","A2ADE503HGB66R","either","4","343","","","","","","","0","0","1","","0.2443343027","0.2","0.6","0.4","0.8","0.7689771773","0.6077749924","0.2443343027","0.4913277851","","","","","","","","","","","","","","75","K","2","","","214","main_expt",""
"","bandit","294","960205","0.0-256.0-0.0","61051771","wem/bandit_party_2","A2ADE503HGB66R","either","4","581","","","","","","","1","0","0","0.4883429648","","0.2","0.6","0.4","0.8","","","","","0.6841712945","0.4883429648","0.2232989174","0.5415006571","","","","","","","","","","74","J","1","","","215","main_expt",""
"","bandit","295","962330","0.0-257.0-0.0","61051771","wem/bandit_party_2","A2ADE503HGB66R","either","4","571","","","","","","","0","0","1","0.3309854328","","0.2","0.6","0.4","0.8","","","","","0.7019934296","0.3309854328","0.2918619336","0.5198015267","","","","","","","","","","74","J","1","","","216","main_expt",""
"","bandit","296","964592","0.0-258.0-0.0","61051771","wem/bandit_party_2","A2ADE503HGB66R","either","4","693","","","","","","","0","0","1","","0.3310528633","0.2","0.6","0.4","0.8","0.7537099884","0.3310528633","0.3571058798","0.545097872","","","","","","","","","","","","","","74","J","1","","","217","main_expt",""
"","bandit","297","966721","0.0-259.0-0.0","61051771","wem/bandit_party_2","A2ADE503HGB66R","either","4","379","","","","","","","1","0","0","0.5776025334","","0.2","0.6","0.4","0.8","","","","","0.8428980993","0.4147218791","0.3738303097","0.5776025334","","","","","","","","","","76","L","3","","","218","main_expt",""
"","bandit","298","968725","0.0-260.0-0.0","61051771","wem/bandit_party_2","A2ADE503HGB66R","either","4","451","","","","","","","1","0","0","0.5616346574","","0.2","0.6","0.4","0.8","","","","","0.8007326434","0.3402104323","0.4832874948","0.5616346574","","","","","","","","","","76","L","3","","","219","main_expt",""
"","bandit","299","970939","0.0-261.0-0.0","61051771","wem/bandit_party_2","A2ADE503HGB66R","either","4","648","","","","","","","1","0","0","0.6261942659","","0.2","0.6","0.4","0.8","","","","","0.8518850648","0.3448871422","0.475455537","0.6261942659","","","","","","","","","","76","L","3","","","220","main_expt",""
"","bandit","300","973402","0.0-262.0-0.0","61051771","wem/bandit_party_2","A2ADE503HGB66R","either","4","861","","","","","","","0","0","1","0.6533416475","","0.2","0.6","0.4","0.8","","","","","0.8488451861","0.4438284365","0.3849790123","0.6533416475","","","","","","","","","","76","L","3","","","221","main_expt",""
"","bandit","301","975711","0.0-263.0-0.0","61051771","wem/bandit_party_2","A2ADE503HGB66R","either","4","709","","","","","","","0","0","1","0.6780524799","","0.2","0.6","0.4","0.8","","","","","0.8202185963","0.3768672835","0.2708628555","0.6780524799","","","","","","","","","","76","L","3","","","222","main_expt",""
"","bandit","302","977848","0.0-264.0-0.0","61051771","wem/bandit_party_2","A2ADE503HGB66R","either","4","565","","","","","","","0","1","0","","0.839196386","0.2","0.6","0.4","0.8","0.839196386","0.4599748191","0.3886191555","0.638470603","","","","","","","","","","","","","","72","H","0","img/none_selected.jpg","","223","main_expt",""
"","bandit","303","980049","0.0-265.0-0.0","61051771","wem/bandit_party_2","A2ADE503HGB66R","either","4","628","","","","","","","0","1","0","","0.8340435664","0.2","0.6","0.4","0.8","0.8340435664","0.5868274652","0.3352763987","0.560582988","","","","","","","","","","","","","","72","H","0","img/none_selected.jpg","","224","main_expt",""
"","bandit","304","982210","0.0-266.0-0.0","61051771","wem/bandit_party_2","A2ADE503HGB66R","either","4","577","","","","","","","0","1","0","","0.8229669419","0.2","0.6","0.4","0.8","0.8229669419","0.510759767","0.3948846532","0.5004803289","","","","","","","","","","","","","","72","H","0","img/none_selected.jpg","","225","main_expt",""
"","bandit","305","984332","0.0-267.0-0.0","61051771","wem/bandit_party_2","A2ADE503HGB66R","either","4","519","","","","","","","0","1","0","","0.8326575293","0.2","0.6","0.4","0.8","0.8326575293","0.6026028704","0.385279681","0.5109709899","","","","","","","","","","","","","","72","H","0","img/none_selected.jpg","","226","main_expt",""
"","bandit","306","986487","0.0-268.0-0.0","61051771","wem/bandit_party_2","A2ADE503HGB66R","either","4","559","","","","","","","0","0","1","","0.8904476858","0.2","0.6","0.4","0.8","0.8904476858","0.588132951","0.3296530349","0.4271661703","","","","","","","","","","","","","","72","H","0","img/none_selected.jpg","","227","main_expt",""
"","bandit","307","988565","0.0-269.0-0.0","61051771","wem/bandit_party_2","A2ADE503HGB66R","either","4","519","","","","","","","1","0","0","0.5754590721","","0.2","0.6","0.4","0.8","","","","","0.8877596604","0.5754590721","0.4227788413","0.374673526","","","","","","","","","","74","J","1","","","228","main_expt",""
"","bandit","308","990783","0.0-270.0-0.0","61051771","wem/bandit_party_2","A2ADE503HGB66R","either","4","653","","","","","","","0","1","0","","0.6311951266","0.2","0.6","0.4","0.8","0.8647697669","0.6311951266","0.4470353227","0.393435759","","","","","","","","","","","","","","74","J","1","","","229","main_expt",""
"","bandit","309","993175","0.0-271.0-0.0","61051771","wem/bandit_party_2","A2ADE503HGB66R","either","4","834","","","","","","","0","1","0","","0.6164228117","0.2","0.6","0.4","0.8","0.8704214291","0.6164228117","0.2986819632","0.3299431778","","","","","","","","","","","","","","74","J","1","","","230","main_expt",""
"","bandit","310","995565","0.0-272.0-0.0","61051771","wem/bandit_party_2","A2ADE503HGB66R","either","4","835","","","","","","","0","0","1","","0.5943568022","0.2","0.6","0.4","0.8","0.8598686354","0.5943568022","0.4508866759","0.3477061432","","","","","","","","","","","","","","74","J","1","","","231","main_expt",""
"","bandit","311","997768","0.0-273.0-0.0","61051771","wem/bandit_party_2","A2ADE503HGB66R","either","4","646","","","","","","","0","0","1","","0.5125968159","0.2","0.6","0.4","0.8","0.7939027672","0.6032910051","0.5125968159","0.3430234075","","","","","","","","","","","","","","75","K","2","","","232","main_expt",""
"","bandit","312","999799","0.0-274.0-0.0","61051771","wem/bandit_party_2","A2ADE503HGB66R","either","4","478","","","","","","","0","1","0","","0.2812772396","0.2","0.6","0.4","0.8","0.7930400566","0.7225660168","0.6020802482","0.2812772396","","","","","","","","","","","","","","76","L","3","","","233","main_expt",""
"","bandit","313","1002002","0.0-275.0-0.0","61051771","wem/bandit_party_2","A2ADE503HGB66R","either","4","643","","","","","","","0","0","1","0.2049555934","","0.2","0.6","0.4","0.8","","","","","0.7549101179","0.6718439238","0.5927943616","0.2049555934","","","","","","","","","","76","L","3","","","234","main_expt",""
"","bandit","314","1004003","0.0-276.0-0.0","61051771","wem/bandit_party_2","A2ADE503HGB66R","either","4","435","","","","","","","0","1","0","","0.5814417759","0.2","0.6","0.4","0.8","0.7654291135","0.6025803433","0.5814417759","0.144612338","","","","","","","","","","","","","","75","K","2","","","235","main_expt",""
"","bandit","315","1006252","0.0-277.0-0.0","61051771","wem/bandit_party_2","A2ADE503HGB66R","either","4","678","","","","","","","1","0","0","0.6530024001","","0.2","0.6","0.4","0.8","","","","","0.6965918162","0.6170166349","0.6530024001","0.1509581517","","","","","","","","","","75","K","2","","","236","main_expt",""
"","bandit","316","1008486","0.0-278.0-0.0","61051771","wem/bandit_party_2","A2ADE503HGB66R","either","4","681","","","","","","","0","0","1","","0.5861490443","0.2","0.6","0.4","0.8","0.8151927982","0.6426153702","0.5861490443","0.2267465707","","","","","","","","","","","","","","75","K","2","","","237","main_expt",""
