"consent","trial_type","trial_index","time_elapsed","internal_node_id","subjID","study","MID","cond","drift","rt","responses","button_pressed","key_press","like","value","connected","gems","bombs","no_reward","GemPrChosen","BombPrChosen","GainOverPainPr_0","GainOverPainPr_1","GainOverPainPr_2","GainOverPainPr_3","LosePr_0","LosePr_1","LosePr_2","LosePr_3","WinPr_0","WinPr_1","WinPr_2","WinPr_3","Q0","Q1","Q2","gender","age","ethnicity","label","expt_phase","target","respCharCode","respKey","respChoiceNum","respChoice","practice","trial_counter","trial_label","Q0_index"
"GDM/GDM_behavioral_consent_30min_online.html","consent","0","26618","0.0-0.0","62690468","wem/bandit_party_2","A3NMQ3019X6YE0","either","7","","","","","","","","","","","","","","","","","","","","","","","","","","","","","","","","","","","","","","","","",""
"","survey-text","1","33439","0.0-1.0","62690468","wem/bandit_party_2","A3NMQ3019X6YE0","either","7","5785","{""Q0"":""A3NMQ3019X6YE0""}","","","","","","","","","","","","","","","","","","","","","","","","","","","","","","","","","","","","","","",""
"","button-response","2","36772","0.0-2.0","62690468","wem/bandit_party_2","A3NMQ3019X6YE0","either","7","2302","","0","","","","","","","","","","","","","","","","","","","","","","","","","","","","","","","","","","","","","",""
"","text-replacement","3","47115","0.0-3.0","62690468","wem/bandit_party_2","A3NMQ3019X6YE0","either","7","9322","","","32","","","","","","","","","","","","","","","","","","","","","","","","","","","","","","","","","","","","",""
"","text-replacement","4","56793","0.0-4.0","62690468","wem/bandit_party_2","A3NMQ3019X6YE0","either","7","9672","","","32","","","","","","","","","","","","","","","","","","","","","","","","","","","","","","","","","","","","",""
"","identification","5","62457","0.0-6.0-0.0","62690468","wem/bandit_party_2","A3NMQ3019X6YE0","either","7","5547","","","","3","3","3","","","","","","","","","","","","","","","","","","","","","","","","pre","identification_pre","the Democratic Party","","","","","","","",""
"","identification","6","67989","0.0-6.0-1.0","62690468","wem/bandit_party_2","A3NMQ3019X6YE0","either","7","4453","","","","5","5","5","","","","","","","","","","","","","","","","","","","","","","","","pre","identification_pre","the Republican Party","","","","","","","",""
"","text-replacement","7","74770","0.0-7.0","62690468","wem/bandit_party_2","A3NMQ3019X6YE0","either","7","5764","","","32","","","","","","","","","","","","","","","","","","","","","","","","","","","","","","","","","","","","",""
"","text-replacement","8","85546","0.0-8.0","62690468","wem/bandit_party_2","A3NMQ3019X6YE0","either","7","10768","","","32","","","","","","","","","","","","","","","","","","","","","","","","","","","","","","","","","","","","",""
"","text-replacement","9","97250","0.0-9.0","62690468","wem/bandit_party_2","A3NMQ3019X6YE0","either","7","11697","","","32","","","","","","","","","","","","","","","","","","","","","","","","","","","","","","","","","","","","",""
"","text-replacement","10","100969","0.0-10.0","62690468","wem/bandit_party_2","A3NMQ3019X6YE0","either","7","3713","","","32","","","","","","","","","","","","","","","","","","","","","","","","","","","","","","","","","","","","",""
"","text-replacement","11","105321","0.0-11.0","62690468","wem/bandit_party_2","A3NMQ3019X6YE0","either","7","4345","","","32","","","","","","","","","","","","","","","","","","","","","","","","","","","","","","","","","","","","",""
"","bandit","12","110218","0.0-12.0-0.0","62690468","wem/bandit_party_2","A3NMQ3019X6YE0","either","7","3355","","","","","","","0","0","1","0","0","","","","","0","","","","0","","","","","","","","","","","","","74","J","0","img/none_selected_demo.jpg","true","0","",""
"","bandit","13","113997","0.0-13.0-0.0","62690468","wem/bandit_party_2","A3NMQ3019X6YE0","either","7","2246","","","","","","","0","0","1","0","0","","","","","0","","","","0","","","","","","","","","","","","","75","K","0","img/none_selected_demo.jpg","true","0","",""
"","text-replacement","14","120089","0.0-14.0","62690468","wem/bandit_party_2","A3NMQ3019X6YE0","either","7","6087","","","32","","","","","","","","","","","","","","","","","","","","","","","","","","","","","","","","","","","","",""
"","text-replacement","15","132761","0.0-15.0","62690468","wem/bandit_party_2","A3NMQ3019X6YE0","either","7","12666","","","32","","","","","","","","","","","","","","","","","","","","","","","","","","","","","","","","","","","","",""
"","text-replacement","16","138657","0.0-16.0","62690468","wem/bandit_party_2","A3NMQ3019X6YE0","either","7","5891","","","32","","","","","","","","","","","","","","","","","","","","","","","","","","","","","","","","","","","","",""
"","text-replacement","17","143409","0.0-17.0","62690468","wem/bandit_party_2","A3NMQ3019X6YE0","either","7","4747","","","32","","","","","","","","","","","","","","","","","","","","","","","","","","","","","","","","","","","","",""
"","bandit","18","146797","0.0-18.0-0.0","62690468","wem/bandit_party_2","A3NMQ3019X6YE0","either","7","1848","","","","","","","1","0","0","0.8","","0.5","0.5","","","","","","","0.8","0.2","","","","","","","","","","","","74","J","0","img/none_selected_demo.jpg","true","0","80_20_practice",""
"","bandit","19","149726","0.0-18.0-1.0","62690468","wem/bandit_party_2","A3NMQ3019X6YE0","either","7","1392","","","","","","","0","0","1","","0.2","0.5","0.5","","","0.8","0.2","","","","","","","","","","","","","","","","75","K","1","","true","0","80_20_practice",""
"","bandit","20","151329","0.0-18.0-2.0","62690468","wem/bandit_party_2","A3NMQ3019X6YE0","either","7","66","","","","","","","1","0","0","0.8","","0.5","0.5","","","","","","","0.8","0.2","","","","","","","","","","","","74","J","0","img/none_selected_demo.jpg","true","0","80_20_practice",""
"","bandit","21","153309","0.0-18.0-3.0","62690468","wem/bandit_party_2","A3NMQ3019X6YE0","either","7","444","","","","","","","0","1","0","","0.8","0.5","0.5","","","0.8","0.2","","","","","","","","","","","","","","","","74","J","0","img/none_selected_demo.jpg","true","0","80_20_practice",""
"","bandit","22","155359","0.0-18.0-4.0","62690468","wem/bandit_party_2","A3NMQ3019X6YE0","either","7","524","","","","","","","0","1","0","","0.8","0.5","0.5","","","0.8","0.2","","","","","","","","","","","","","","","","74","J","0","img/none_selected_demo.jpg","true","0","80_20_practice",""
"","bandit","23","157576","0.0-18.0-5.0","62690468","wem/bandit_party_2","A3NMQ3019X6YE0","either","7","688","","","","","","","0","0","1","","0.8","0.5","0.5","","","0.8","0.2","","","","","","","","","","","","","","","","74","J","0","img/none_selected_demo.jpg","true","0","80_20_practice",""
"","bandit","24","161065","0.0-18.0-6.0","62690468","wem/bandit_party_2","A3NMQ3019X6YE0","either","7","1950","","","","","","","0","1","0","","0.8","0.5","0.5","","","0.8","0.2","","","","","","","","","","","","","","","","74","J","0","img/none_selected_demo.jpg","true","0","80_20_practice",""
"","bandit","25","163077","0.0-18.0-7.0","62690468","wem/bandit_party_2","A3NMQ3019X6YE0","either","7","467","","","","","","","1","0","0","0.8","","0.5","0.5","","","","","","","0.8","0.2","","","","","","","","","","","","74","J","0","img/none_selected_demo.jpg","true","0","80_20_practice",""
"","bandit","26","170412","0.0-18.0-8.0","62690468","wem/bandit_party_2","A3NMQ3019X6YE0","either","7","5793","","","","","","","0","1","0","","0.8","0.5","0.5","","","0.8","0.2","","","","","","","","","","","","","","","","74","J","0","img/none_selected_demo.jpg","true","0","80_20_practice",""
"","bandit","27","172343","0.0-18.0-9.0","62690468","wem/bandit_party_2","A3NMQ3019X6YE0","either","7","392","","","","","","","0","0","1","","0.8","0.5","0.5","","","0.8","0.2","","","","","","","","","","","","","","","","74","J","0","img/none_selected_demo.jpg","true","0","80_20_practice",""
"","bandit","28","175127","0.0-18.0-10.0","62690468","wem/bandit_party_2","A3NMQ3019X6YE0","either","7","1245","","","","","","","0","1","0","","0.8","0.5","0.5","","","0.8","0.2","","","","","","","","","","","","","","","","74","J","0","img/none_selected_demo.jpg","true","0","80_20_practice",""
"","bandit","29","178126","0.0-18.0-11.0","62690468","wem/bandit_party_2","A3NMQ3019X6YE0","either","7","1463","","","","","","","1","0","0","0.8","","0.5","0.5","","","","","","","0.8","0.2","","","","","","","","","","","","74","J","0","img/none_selected_demo.jpg","true","0","80_20_practice",""
"","bandit","30","180113","0.0-18.0-12.0","62690468","wem/bandit_party_2","A3NMQ3019X6YE0","either","7","448","","","","","","","1","0","0","0.2","","0.5","0.5","","","","","","","0.8","0.2","","","","","","","","","","","","75","K","1","","true","0","80_20_practice",""
"","bandit","31","181992","0.0-18.0-13.0","62690468","wem/bandit_party_2","A3NMQ3019X6YE0","either","7","350","","","","","","","0","0","1","0.2","","0.5","0.5","","","","","","","0.8","0.2","","","","","","","","","","","","75","K","1","","true","0","80_20_practice",""
"","bandit","32","183926","0.0-18.0-14.0","62690468","wem/bandit_party_2","A3NMQ3019X6YE0","either","7","400","","","","","","","0","0","1","","0.2","0.5","0.5","","","0.8","0.2","","","","","","","","","","","","","","","","75","K","1","","true","0","80_20_practice",""
"","bandit","33","187143","0.0-18.0-15.0","62690468","wem/bandit_party_2","A3NMQ3019X6YE0","either","7","1689","","","","","","","1","0","0","0.8","","0.5","0.5","","","","","","","0.8","0.2","","","","","","","","","","","","74","J","0","img/none_selected_demo.jpg","true","0","80_20_practice",""
"","bandit","34","189130","0.0-18.0-16.0","62690468","wem/bandit_party_2","A3NMQ3019X6YE0","either","7","446","","","","","","","0","1","0","","0.8","0.5","0.5","","","0.8","0.2","","","","","","","","","","","","","","","","74","J","0","img/none_selected_demo.jpg","true","0","80_20_practice",""
"","bandit","35","191810","0.0-18.0-17.0","62690468","wem/bandit_party_2","A3NMQ3019X6YE0","either","7","1150","","","","","","","0","0","1","0.8","","0.5","0.5","","","","","","","0.8","0.2","","","","","","","","","","","","74","J","0","img/none_selected_demo.jpg","true","0","80_20_practice",""
"","bandit","36","194095","0.0-18.0-18.0","62690468","wem/bandit_party_2","A3NMQ3019X6YE0","either","7","749","","","","","","","0","0","1","0.8","","0.5","0.5","","","","","","","0.8","0.2","","","","","","","","","","","","74","J","0","img/none_selected_demo.jpg","true","0","80_20_practice",""
"","bandit","37","196578","0.0-18.0-19.0","62690468","wem/bandit_party_2","A3NMQ3019X6YE0","either","7","950","","","","","","","1","0","0","0.8","","0.5","0.5","","","","","","","0.8","0.2","","","","","","","","","","","","74","J","0","img/none_selected_demo.jpg","true","0","80_20_practice",""
"","text-replacement","38","201377","0.0-19.0","62690468","wem/bandit_party_2","A3NMQ3019X6YE0","either","7","4791","","","32","","","","","","","","","","","","","","","","","","","","","","","","","","","","","","","","","","","","",""
"","bandit","39","203692","0.0-20.0-0.0","62690468","wem/bandit_party_2","A3NMQ3019X6YE0","either","7","788","","","","","","","1","0","0","1","0","","","","","0","1","","","1","0","","","","","","","","","","","","74","J","0","img/none_selected_demo.jpg","true","0","",""
"","text-replacement","40","213425","0.0-21.0","62690468","wem/bandit_party_2","A3NMQ3019X6YE0","either","7","9726","","","32","","","","","","","","","","","","","","","","","","","","","","","","","","","","","","","","","","","","",""
"","text-replacement","41","217929","0.0-22.0","62690468","wem/bandit_party_2","A3NMQ3019X6YE0","either","7","4498","","","32","","","","","","","","","","","","","","","","","","","","","","","","","","","","","","","","","","","","",""
"","text-replacement","42","220721","0.0-23.0","62690468","wem/bandit_party_2","A3NMQ3019X6YE0","either","7","2787","","","32","","","","","","","","","","","","","","","","","","","","","","","","","","","","","","","","","","","","",""
"","text-replacement","43","223856","0.0-24.0","62690468","wem/bandit_party_2","A3NMQ3019X6YE0","either","7","3129","","","32","","","","","","","","","","","","","","","","","","","","","","","","","","","","","","","","","","","","",""
"","text-replacement","44","230402","0.0-25.0","62690468","wem/bandit_party_2","A3NMQ3019X6YE0","either","7","6539","","","32","","","","","","","","","","","","","","","","","","","","","","","","","","","","","","","","","","","","",""
"","text-replacement","45","233233","0.0-26.0","62690468","wem/bandit_party_2","A3NMQ3019X6YE0","either","7","2824","","","32","","","","","","","","","","","","","","","","","","","","","","","","","","","","","","","","","","","","",""
"","text-replacement","46","238003","0.0-27.0","62690468","wem/bandit_party_2","A3NMQ3019X6YE0","either","7","4759","","","32","","","","","","","","","","","","","","","","","","","","","","","","","","","","","","","","","","","","",""
"","text-replacement","47","240665","0.0-28.0","62690468","wem/bandit_party_2","A3NMQ3019X6YE0","either","7","2654","","","32","","","","","","","","","","","","","","","","","","","","","","","","","","","","","","","","","","","","",""
"","text-replacement","48","245426","0.0-29.0","62690468","wem/bandit_party_2","A3NMQ3019X6YE0","either","7","4753","","","32","","","","","","","","","","","","","","","","","","","","","","","","","","","","","","","","","","","","",""
"","text-replacement","49","247560","0.0-30.0","62690468","wem/bandit_party_2","A3NMQ3019X6YE0","either","7","2126","","","32","","","","","","","","","","","","","","","","","","","","","","","","","","","","","","","","","","","","",""
"","text-replacement","50","254792","0.0-31.0","62690468","wem/bandit_party_2","A3NMQ3019X6YE0","either","7","7227","","","32","","","","","","","","","","","","","","","","","","","","","","","","","","","","","","","","","","","","",""
"","bandit","51","257044","0.0-32.0-0.0","62690468","wem/bandit_party_2","A3NMQ3019X6YE0","either","7","718","","","","","","","0","1","0","","0.8","0.5","0.5","0.5","0.5","0.8","0.2","0.6","0.2","","","","","","","","","","","","","","72","H","0","img/none_selected.jpg","true","0","full_practice",""
"","bandit","52","259316","0.0-32.0-1.0","62690468","wem/bandit_party_2","A3NMQ3019X6YE0","either","7","722","","","","","","","1","0","0","0.8","","0.5","0.5","0.5","0.5","","","","","0.8","0.2","0.6","0.2","","","","","","","","","","72","H","0","img/none_selected.jpg","true","0","full_practice",""
"","bandit","53","261429","0.0-32.0-2.0","62690468","wem/bandit_party_2","A3NMQ3019X6YE0","either","7","578","","","","","","","0","1","0","","0.8","0.5","0.5","0.5","0.5","0.8","0.2","0.6","0.2","","","","","","","","","","","","","","72","H","0","img/none_selected.jpg","true","0","full_practice",""
"","bandit","54","263412","0.0-32.0-3.0","62690468","wem/bandit_party_2","A3NMQ3019X6YE0","either","7","439","","","","","","","0","0","1","0.2","","0.5","0.5","0.5","0.5","","","","","0.8","0.2","0.6","0.2","","","","","","","","","","74","J","1","","true","0","full_practice",""
"","bandit","55","265194","0.0-32.0-4.0","62690468","wem/bandit_party_2","A3NMQ3019X6YE0","either","7","251","","","","","","","0","0","1","0.6","","0.5","0.5","0.5","0.5","","","","","0.8","0.2","0.6","0.2","","","","","","","","","","75","K","2","","true","0","full_practice",""
"","bandit","56","266745","0.0-32.0-5.0","62690468","wem/bandit_party_2","A3NMQ3019X6YE0","either","7","9","","","","","","","0","0","1","0.2","","0.5","0.5","0.5","0.5","","","","","0.8","0.2","0.6","0.2","","","","","","","","","","76","L","3","","true","0","full_practice",""
"","bandit","57","268312","0.0-32.0-6.0","62690468","wem/bandit_party_2","A3NMQ3019X6YE0","either","7","38","","","","","","","0","1","0","","0.8","0.5","0.5","0.5","0.5","0.8","0.2","0.6","0.2","","","","","","","","","","","","","","72","H","0","img/none_selected.jpg","true","0","full_practice",""
"","bandit","58","270143","0.0-32.0-7.0","62690468","wem/bandit_party_2","A3NMQ3019X6YE0","either","7","294","","","","","","","1","0","0","0.8","","0.5","0.5","0.5","0.5","","","","","0.8","0.2","0.6","0.2","","","","","","","","","","72","H","0","img/none_selected.jpg","true","0","full_practice",""
"","bandit","59","272046","0.0-32.0-8.0","62690468","wem/bandit_party_2","A3NMQ3019X6YE0","either","7","367","","","","","","","1","0","0","0.8","","0.5","0.5","0.5","0.5","","","","","0.8","0.2","0.6","0.2","","","","","","","","","","72","H","0","img/none_selected.jpg","true","0","full_practice",""
"","bandit","60","273892","0.0-32.0-9.0","62690468","wem/bandit_party_2","A3NMQ3019X6YE0","either","7","313","","","","","","","1","0","0","0.8","","0.5","0.5","0.5","0.5","","","","","0.8","0.2","0.6","0.2","","","","","","","","","","72","H","0","img/none_selected.jpg","true","0","full_practice",""
"","bandit","61","275792","0.0-32.0-10.0","62690468","wem/bandit_party_2","A3NMQ3019X6YE0","either","7","361","","","","","","","1","0","0","0.8","","0.5","0.5","0.5","0.5","","","","","0.8","0.2","0.6","0.2","","","","","","","","","","72","H","0","img/none_selected.jpg","true","0","full_practice",""
"","bandit","62","277710","0.0-32.0-11.0","62690468","wem/bandit_party_2","A3NMQ3019X6YE0","either","7","373","","","","","","","0","0","1","","0.8","0.5","0.5","0.5","0.5","0.8","0.2","0.6","0.2","","","","","","","","","","","","","","72","H","0","img/none_selected.jpg","true","0","full_practice",""
"","bandit","63","279512","0.0-32.0-12.0","62690468","wem/bandit_party_2","A3NMQ3019X6YE0","either","7","256","","","","","","","0","0","1","0.2","","0.5","0.5","0.5","0.5","","","","","0.8","0.2","0.6","0.2","","","","","","","","","","74","J","1","","true","0","full_practice",""
"","bandit","64","281409","0.0-32.0-13.0","62690468","wem/bandit_party_2","A3NMQ3019X6YE0","either","7","358","","","","","","","0","1","0","","0.6","0.5","0.5","0.5","0.5","0.8","0.2","0.6","0.2","","","","","","","","","","","","","","75","K","2","","true","0","full_practice",""
"","bandit","65","283260","0.0-32.0-14.0","62690468","wem/bandit_party_2","A3NMQ3019X6YE0","either","7","309","","","","","","","1","0","0","0.6","","0.5","0.5","0.5","0.5","","","","","0.8","0.2","0.6","0.2","","","","","","","","","","75","K","2","","true","0","full_practice",""
"","bandit","66","285130","0.0-32.0-15.0","62690468","wem/bandit_party_2","A3NMQ3019X6YE0","either","7","329","","","","","","","1","0","0","0.6","","0.5","0.5","0.5","0.5","","","","","0.8","0.2","0.6","0.2","","","","","","","","","","75","K","2","","true","0","full_practice",""
"","bandit","67","287009","0.0-32.0-16.0","62690468","wem/bandit_party_2","A3NMQ3019X6YE0","either","7","338","","","","","","","0","0","1","0.6","","0.5","0.5","0.5","0.5","","","","","0.8","0.2","0.6","0.2","","","","","","","","","","75","K","2","","true","0","full_practice",""
"","bandit","68","289380","0.0-32.0-17.0","62690468","wem/bandit_party_2","A3NMQ3019X6YE0","either","7","827","","","","","","","0","0","1","0.2","","0.5","0.5","0.5","0.5","","","","","0.8","0.2","0.6","0.2","","","","","","","","","","76","L","3","","true","0","full_practice",""
"","bandit","69","291744","0.0-32.0-18.0","62690468","wem/bandit_party_2","A3NMQ3019X6YE0","either","7","832","","","","","","","0","0","1","","0.2","0.5","0.5","0.5","0.5","0.8","0.2","0.6","0.2","","","","","","","","","","","","","","74","J","1","","true","0","full_practice",""
"","bandit","70","294547","0.0-32.0-19.0","62690468","wem/bandit_party_2","A3NMQ3019X6YE0","either","7","1270","","","","","","","0","0","1","0.2","","0.5","0.5","0.5","0.5","","","","","0.8","0.2","0.6","0.2","","","","","","","","","","74","J","1","","true","0","full_practice",""
"","text","71","297945","0.0-33.0","62690468","wem/bandit_party_2","A3NMQ3019X6YE0","either","7","3380","","","32","","","","","","","","","","","","","","","","","","","","","","","","","","","","","","","","","","","","",""
"","text-replacement","72","311489","0.0-34.0","62690468","wem/bandit_party_2","A3NMQ3019X6YE0","either","7","12531","","","32","","","","","","","","","","","","","","","","","","","","","","","","","","","","","","","","","","","","",""
"","text-replacement","73","324592","0.0-35.0","62690468","wem/bandit_party_2","A3NMQ3019X6YE0","either","7","13096","","","32","","","","","","","","","","","","","","","","","","","","","","","","","","","","","","","","","","","","",""
"","text-replacement","74","329857","0.0-36.0","62690468","wem/bandit_party_2","A3NMQ3019X6YE0","either","7","5257","","","32","","","","","","","","","","","","","","","","","","","","","","","","","","","","","","","","","","","","",""
"","text-replacement","75","336152","0.0-37.0","62690468","wem/bandit_party_2","A3NMQ3019X6YE0","either","7","6288","","","32","","","","","","","","","","","","","","","","","","","","","","","","","","","","","","","","","","","","",""
"","text-replacement","76","342993","0.0-38.0","62690468","wem/bandit_party_2","A3NMQ3019X6YE0","either","7","6833","","","32","","","","","","","","","","","","","","","","","","","","","","","","","","","","","","","","","","","","",""
"","survey-multi-choice-replacement","77","349612","0.0-39.0-0.0","62690468","wem/bandit_party_2","A3NMQ3019X6YE0","either","7","6590","","","","","","","","","","","","","","","","","","","","","","","","Money will be added to the pool for <span style='color:red;'>REPUBLICANS</span>","","","","","","","attn_check","","","","","","","","","0"
"","survey-multi-choice-replacement","78","357834","0.0-40.0-0.0","62690468","wem/bandit_party_2","A3NMQ3019X6YE0","either","7","7169","","","","","","","","","","","","","","","","","","","","","","","","Equal amounts of money will be added to the pool for <span style='color:red;'>REPUBLICANS</span> and subtracted from the pool for <span style='color:blue;'>DEMOCRATS</span>","","","","","","","attn_check","","","","","","","","","2"
"","survey-multi-choice-replacement","79","362417","0.0-41.0-0.0","62690468","wem/bandit_party_2","A3NMQ3019X6YE0","either","7","3534","","","","","","","","","","","","","","","","","","","","","","","","No money will be added to either pool","","","","","","","attn_check","","","","","","","","","3"
"","bandit","80","367192","0.0-42.0-0.0","62690468","wem/bandit_party_2","A3NMQ3019X6YE0","either","7","2221","","","","","","","0","0","1","0.1731741302","","0.8","0.4","0.2","0.6","","","","","0.1731741302","0.5514722813","0.7088318221","0.2888626749","","","","","","","","","","72","H","0","img/none_selected.jpg","","1","main_expt",""
"","bandit","81","369392","0.0-43.0-0.0","62690468","wem/bandit_party_2","A3NMQ3019X6YE0","either","7","661","","","","","","","0","1","0","","0.5039303977","0.8","0.4","0.2","0.6","0.2874485847","0.5039303977","0.6292935488","0.3999538902","","","","","","","","","","","","","","74","J","1","","","2","main_expt",""
"","bandit","82","371595","0.0-44.0-0.0","62690468","wem/bandit_party_2","A3NMQ3019X6YE0","either","7","668","","","","","","","1","0","0","0.5527877924","","0.8","0.4","0.2","0.6","","","","","0.2683250969","0.5527877924","0.5285482983","0.4126831114","","","","","","","","","","74","J","1","","","3","main_expt",""
"","bandit","83","373760","0.0-45.0-0.0","62690468","wem/bandit_party_2","A3NMQ3019X6YE0","either","7","625","","","","","","","0","1","0","","0.6336700584","0.8","0.4","0.2","0.6","0.3988631097","0.6336700584","0.6744491701","0.3923803367","","","","","","","","","","","","","","74","J","1","","","4","main_expt",""
"","bandit","84","375945","0.0-46.0-0.0","62690468","wem/bandit_party_2","A3NMQ3019X6YE0","either","7","644","","","","","","","0","0","1","","0.6340088104","0.8","0.4","0.2","0.6","0.3568799457","0.6340088104","0.7922285807","0.3803283439","","","","","","","","","","","","","","74","J","1","","","5","main_expt",""
"","bandit","85","378108","0.0-47.0-0.0","62690468","wem/bandit_party_2","A3NMQ3019X6YE0","either","7","616","","","","","","","0","0","1","0.7459441126","","0.8","0.4","0.2","0.6","","","","","0.3188731731","0.5784181907","0.7459441126","0.4214296899","","","","","","","","","","75","K","2","","","6","main_expt",""
"","bandit","86","380060","0.0-48.0-0.0","62690468","wem/bandit_party_2","A3NMQ3019X6YE0","either","7","421","","","","","","","0","0","1","0.4755968838","","0.8","0.4","0.2","0.6","","","","","0.4574196012","0.6727083857","0.7681481668","0.4755968838","","","","","","","","","","76","L","3","","","7","main_expt",""
"","bandit","87","382192","0.0-49.0-0.0","62690468","wem/bandit_party_2","A3NMQ3019X6YE0","either","7","599","","","","","","","0","0","1","0.5037884951","","0.8","0.4","0.2","0.6","","","","","0.5037884951","0.7574508858","0.7251609313","0.5353568537","","","","","","","","","","72","H","0","img/none_selected.jpg","","8","main_expt",""
"","bandit","88","384276","0.0-50.0-0.0","62690468","wem/bandit_party_2","A3NMQ3019X6YE0","either","7","547","","","","","","","0","1","0","","0.8280759311","0.8","0.4","0.2","0.6","0.5750013994","0.8280759311","0.7403055102","0.6246831942","","","","","","","","","","","","","","74","J","1","","","9","main_expt",""
"","bandit","89","386231","0.0-51.0-0.0","62690468","wem/bandit_party_2","A3NMQ3019X6YE0","either","7","408","","","","","","","0","1","0","","0.859726102","0.8","0.4","0.2","0.6","0.5399040382","0.859726102","0.722944265","0.4475954046","","","","","","","","","","","","","","74","J","1","","","10","main_expt",""
"","bandit","90","388763","0.0-52.0-0.0","62690468","wem/bandit_party_2","A3NMQ3019X6YE0","either","7","995","","","","","","","0","1","0","","0.877956501","0.8","0.4","0.2","0.6","0.5181098662","0.877956501","0.6833847698","0.4514702697","","","","","","","","","","","","","","74","J","1","","","11","main_expt",""
"","bandit","91","390925","0.0-53.0-0.0","62690468","wem/bandit_party_2","A3NMQ3019X6YE0","either","7","623","","","","","","","0","1","0","","0.8883669707","0.8","0.4","0.2","0.6","0.5489165229","0.8883669707","0.689227163","0.4873058782","","","","","","","","","","","","","","74","J","1","","","12","main_expt",""
"","bandit","92","393195","0.0-54.0-0.0","62690468","wem/bandit_party_2","A3NMQ3019X6YE0","either","7","728","","","","","","","0","1","0","","0.817149195","0.8","0.4","0.2","0.6","0.6186986429","0.817149195","0.5178623456","0.4862469224","","","","","","","","","","","","","","74","J","1","","","13","main_expt",""
"","bandit","93","395409","0.0-55.0-0.0","62690468","wem/bandit_party_2","A3NMQ3019X6YE0","either","7","682","","","","","","","0","1","0","","0.8589139609","0.8","0.4","0.2","0.6","0.4944095791","0.8589139609","0.4768489018","0.360908092","","","","","","","","","","","","","","74","J","1","","","14","main_expt",""
"","bandit","94","397511","0.0-56.0-0.0","62690468","wem/bandit_party_2","A3NMQ3019X6YE0","either","7","555","","","","","","","0","1","0","","0.7955781648","0.8","0.4","0.2","0.6","0.4820951366","0.7955781648","0.5201849276","0.4126647893","","","","","","","","","","","","","","74","J","1","","","15","main_expt",""
"","bandit","95","399761","0.0-57.0-0.0","62690468","wem/bandit_party_2","A3NMQ3019X6YE0","either","7","710","","","","","","","1","0","0","0.8864445785","","0.8","0.4","0.2","0.6","","","","","0.4888848296","0.8864445785","0.6862231469","0.4930686601","","","","","","","","","","74","J","1","","","16","main_expt",""
"","bandit","96","401927","0.0-58.0-0.0","62690468","wem/bandit_party_2","A3NMQ3019X6YE0","either","7","632","","","","","","","0","0","1","0.8746062981","","0.8","0.4","0.2","0.6","","","","","0.381306026","0.8746062981","0.7297328357","0.5162343008","","","","","","","","","","74","J","1","","","17","main_expt",""
"","bandit","97","404161","0.0-59.0-0.0","62690468","wem/bandit_party_2","A3NMQ3019X6YE0","either","7","690","","","","","","","0","1","0","","0.8910236512","0.8","0.4","0.2","0.6","0.3537135189","0.8910236512","0.6686287009","0.5627456494","","","","","","","","","","","","","","74","J","1","","","18","main_expt",""
"","bandit","98","406344","0.0-60.0-0.0","62690468","wem/bandit_party_2","A3NMQ3019X6YE0","either","7","639","","","","","","","1","0","0","0.8932054573","","0.8","0.4","0.2","0.6","","","","","0.4891458502","0.8932054573","0.7885428456","0.4478227807","","","","","","","","","","74","J","1","","","19","main_expt",""
"","bandit","99","408726","0.0-61.0-0.0","62690468","wem/bandit_party_2","A3NMQ3019X6YE0","either","7","851","","","","","","","0","1","0","","0.8900063933","0.8","0.4","0.2","0.6","0.5440957398","0.8900063933","0.7442236049","0.5306796692","","","","","","","","","","","","","","74","J","1","","","20","main_expt",""
"","bandit","100","410728","0.0-62.0-0.0","62690468","wem/bandit_party_2","A3NMQ3019X6YE0","either","7","454","","","","","","","0","1","0","","0.8748704397","0.8","0.4","0.2","0.6","0.5621313733","0.8748704397","0.7908218503","0.5423611418","","","","","","","","","","","","","","74","J","1","","","21","main_expt",""
"","bandit","101","412878","0.0-63.0-0.0","62690468","wem/bandit_party_2","A3NMQ3019X6YE0","either","7","611","","","","","","","0","1","0","","0.8498769136","0.8","0.4","0.2","0.6","0.5296345876","0.8498769136","0.7163236006","0.4190568807","","","","","","","","","","","","","","74","J","1","","","22","main_expt",""
"","bandit","102","415110","0.0-64.0-0.0","62690468","wem/bandit_party_2","A3NMQ3019X6YE0","either","7","682","","","","","","","0","0","1","","0.8357449374","0.8","0.4","0.2","0.6","0.5187107172","0.8357449374","0.7061190667","0.4329937009","","","","","","","","","","","","","","74","J","1","","","23","main_expt",""
"","bandit","103","417211","0.0-65.0-0.0","62690468","wem/bandit_party_2","A3NMQ3019X6YE0","either","7","557","","","","","","","0","1","0","","0.8431908073","0.8","0.4","0.2","0.6","0.6000521927","0.8431908073","0.7470556917","0.4298879426","","","","","","","","","","","","","","74","J","1","","","24","main_expt",""
"","bandit","104","419643","0.0-66.0-0.0","62690468","wem/bandit_party_2","A3NMQ3019X6YE0","either","7","890","","","","","","","1","0","0","0.8741885854","","0.8","0.4","0.2","0.6","","","","","0.5443047256","0.8741885854","0.8154180688","0.2992323157","","","","","","","","","","74","J","1","","","25","main_expt",""
"","bandit","105","421846","0.0-67.0-0.0","62690468","wem/bandit_party_2","A3NMQ3019X6YE0","either","7","664","","","","","","","0","0","1","","0.8940719671","0.8","0.4","0.2","0.6","0.592493964","0.8940719671","0.8395379789","0.3857263224","","","","","","","","","","","","","","74","J","1","","","26","main_expt",""
"","bandit","106","424025","0.0-68.0-0.0","62690468","wem/bandit_party_2","A3NMQ3019X6YE0","either","7","637","","","","","","","1","0","0","0.8733378856","","0.8","0.4","0.2","0.6","","","","","0.5779569403","0.8733378856","0.8023078409","0.3715251318","","","","","","","","","","74","J","1","","","27","main_expt",""
"","bandit","107","426263","0.0-69.0-0.0","62690468","wem/bandit_party_2","A3NMQ3019X6YE0","either","7","699","","","","","","","1","0","0","0.8695586723","","0.8","0.4","0.2","0.6","","","","","0.7077223562","0.8695586723","0.8248968235","0.3387808014","","","","","","","","","","74","J","1","","","28","main_expt",""
"","bandit","108","428543","0.0-70.0-0.0","62690468","wem/bandit_party_2","A3NMQ3019X6YE0","either","7","743","","","","","","","1","0","0","0.7908290088","","0.8","0.4","0.2","0.6","","","","","0.7070353494","0.7908290088","0.8621011303","0.3737397218","","","","","","","","","","74","J","1","","","29","main_expt",""
"","bandit","109","430778","0.0-71.0-0.0","62690468","wem/bandit_party_2","A3NMQ3019X6YE0","either","7","698","","","","","","","1","0","0","0.8518997755","","0.8","0.4","0.2","0.6","","","","","0.6585428656","0.8518997755","0.8873668535","0.3232047389","","","","","","","","","","74","J","1","","","30","main_expt",""
"","bandit","110","433093","0.0-72.0-0.0","62690468","wem/bandit_party_2","A3NMQ3019X6YE0","either","7","777","","","","","","","0","1","0","","0.8509842625","0.8","0.4","0.2","0.6","0.6724088618","0.8509842625","0.9318975106","0.4130267239","","","","","","","","","","","","","","74","J","1","","","31","main_expt",""
"","bandit","111","435411","0.0-73.0-0.0","62690468","wem/bandit_party_2","A3NMQ3019X6YE0","either","7","774","","","","","","","0","1","0","","0.872996121","0.8","0.4","0.2","0.6","0.6416581209","0.872996121","0.9013609786","0.4167758813","","","","","","","","","","","","","","74","J","1","","","32","main_expt",""
"","bandit","112","437646","0.0-74.0-0.0","62690468","wem/bandit_party_2","A3NMQ3019X6YE0","either","7","689","","","","","","","0","1","0","","0.8571046391","0.8","0.4","0.2","0.6","0.7055802426","0.8571046391","0.9041531295","0.4546052232","","","","","","","","","","","","","","74","J","1","","","33","main_expt",""
"","bandit","113","439496","0.0-75.0-0.0","62690468","wem/bandit_party_2","A3NMQ3019X6YE0","either","7","309","","","","","","","0","1","0","","0.9175819521","0.8","0.4","0.2","0.6","0.7554114371","0.9175819521","0.9386104272","0.5231803088","","","","","","","","","","","","","","74","J","1","","","34","main_expt",""
"","bandit","114","441694","0.0-76.0-0.0","62690468","wem/bandit_party_2","A3NMQ3019X6YE0","either","7","658","","","","","","","1","0","0","0.9503165686","","0.8","0.4","0.2","0.6","","","","","0.8008095759","0.9503165686","0.9180645683","0.4661188593","","","","","","","","","","74","J","1","","","35","main_expt",""
"","bandit","115","443893","0.0-77.0-0.0","62690468","wem/bandit_party_2","A3NMQ3019X6YE0","either","7","650","","","","","","","1","0","0","0.9327615424","","0.8","0.4","0.2","0.6","","","","","0.6925109639","0.9327615424","0.9095107155","0.4106027186","","","","","","","","","","74","J","1","","","36","main_expt",""
"","bandit","116","446276","0.0-78.0-0.0","62690468","wem/bandit_party_2","A3NMQ3019X6YE0","either","7","836","","","","","","","0","0","1","","0.9196494001","0.8","0.4","0.2","0.6","0.7764255689","0.9196494001","0.9405648028","0.5021263718","","","","","","","","","","","","","","74","J","1","","","37","main_expt",""
"","bandit","117","448312","0.0-79.0-0.0","62690468","wem/bandit_party_2","A3NMQ3019X6YE0","either","7","483","","","","","","","0","1","0","","0.928530414","0.8","0.4","0.2","0.6","0.8392953971","0.928530414","0.9058459248","0.5065313343","","","","","","","","","","","","","","74","J","1","","","38","main_expt",""
"","bandit","118","450659","0.0-80.0-0.0","62690468","wem/bandit_party_2","A3NMQ3019X6YE0","either","7","812","","","","","","","0","1","0","","0.9001545702","0.8","0.4","0.2","0.6","0.7614495855","0.9001545702","0.8784462517","0.6098243774","","","","","","","","","","","","","","74","J","1","","","39","main_expt",""
"","bandit","119","452927","0.0-81.0-0.0","62690468","wem/bandit_party_2","A3NMQ3019X6YE0","either","7","723","","","","","","","1","0","0","0.8432481254","","0.8","0.4","0.2","0.6","","","","","0.8060705796","0.8432481254","0.8408568766","0.679699592","","","","","","","","","","74","J","1","","","40","main_expt",""
"","bandit","120","455093","0.0-82.0-0.0","62690468","wem/bandit_party_2","A3NMQ3019X6YE0","either","7","627","","","","","","","0","1","0","","0.8326479564","0.8","0.4","0.2","0.6","0.7539991053","0.8326479564","0.811342849","0.616488607","","","","","","","","","","","","","","74","J","1","","","41","main_expt",""
"","bandit","121","457144","0.0-83.0-0.0","62690468","wem/bandit_party_2","A3NMQ3019X6YE0","either","7","501","","","","","","","0","1","0","","0.8602810298","0.8","0.4","0.2","0.6","0.7717369324","0.8602810298","0.8058808774","0.6307104111","","","","","","","","","","","","","","74","J","1","","","42","main_expt",""
"","bandit","122","459477","0.0-84.0-0.0","62690468","wem/bandit_party_2","A3NMQ3019X6YE0","either","7","795","","","","","","","0","1","0","","0.894365654","0.8","0.4","0.2","0.6","0.7625968551","0.894365654","0.7899844578","0.554567591","","","","","","","","","","","","","","74","J","1","","","43","main_expt",""
"","bandit","123","461529","0.0-85.0-0.0","62690468","wem/bandit_party_2","A3NMQ3019X6YE0","either","7","508","","","","","","","0","1","0","","0.9033664713","0.8","0.4","0.2","0.6","0.8488621298","0.9033664713","0.7654486741","0.5281861223","","","","","","","","","","","","","","74","J","1","","","44","main_expt",""
"","bandit","124","463542","0.0-86.0-0.0","62690468","wem/bandit_party_2","A3NMQ3019X6YE0","either","7","475","","","","","","","1","0","0","0.8829964613","","0.8","0.4","0.2","0.6","","","","","0.8522077325","0.8829964613","0.7674111825","0.5043334007","","","","","","","","","","74","J","1","","","45","main_expt",""
"","bandit","125","465496","0.0-87.0-0.0","62690468","wem/bandit_party_2","A3NMQ3019X6YE0","either","7","412","","","","","","","1","0","0","0.8674694879","","0.8","0.4","0.2","0.6","","","","","0.8618589195","0.8674694879","0.6301273516","0.5426256613","","","","","","","","","","74","J","1","","","46","main_expt",""
"","bandit","126","467442","0.0-88.0-0.0","62690468","wem/bandit_party_2","A3NMQ3019X6YE0","either","7","401","","","","","","","1","0","0","0.8886720039","","0.8","0.4","0.2","0.6","","","","","0.905897833","0.8886720039","0.7885969413","0.5024796093","","","","","","","","","","74","J","1","","","47","main_expt",""
"","bandit","127","469329","0.0-89.0-0.0","62690468","wem/bandit_party_2","A3NMQ3019X6YE0","either","7","345","","","","","","","0","1","0","","0.9229902905","0.8","0.4","0.2","0.6","0.8929468812","0.9229902905","0.7983786211","0.4689138593","","","","","","","","","","","","","","74","J","1","","","48","main_expt",""
"","bandit","128","471345","0.0-90.0-0.0","62690468","wem/bandit_party_2","A3NMQ3019X6YE0","either","7","480","","","","","","","0","1","0","","0.9141434128","0.8","0.4","0.2","0.6","0.854905512","0.9141434128","0.8249867574","0.4439560463","","","","","","","","","","","","","","74","J","1","","","49","main_expt",""
"","bandit","129","473328","0.0-91.0-0.0","62690468","wem/bandit_party_2","A3NMQ3019X6YE0","either","7","436","","","","","","","0","1","0","","0.9181160336","0.8","0.4","0.2","0.6","0.8363103738","0.9181160336","0.7532301684","0.4079842927","","","","","","","","","","","","","","74","J","1","","","50","main_expt",""
"","bandit","130","475314","0.0-92.0-0.0","62690468","wem/bandit_party_2","A3NMQ3019X6YE0","either","7","441","","","","","","","0","1","0","","0.9266489825","0.8","0.4","0.2","0.6","0.7168506975","0.9266489825","0.6750909554","0.4675199832","","","","","","","","","","","","","","74","J","1","","","51","main_expt",""
"","bandit","131","477275","0.0-93.0-0.0","62690468","wem/bandit_party_2","A3NMQ3019X6YE0","either","7","417","","","","","","","1","0","0","0.9285581488","","0.8","0.4","0.2","0.6","","","","","0.6507986152","0.9285581488","0.6762079337","0.4368052975","","","","","","","","","","74","J","1","","","52","main_expt",""
"","bandit","132","479294","0.0-94.0-0.0","62690468","wem/bandit_party_2","A3NMQ3019X6YE0","either","7","480","","","","","","","0","1","0","","0.9171724481","0.8","0.4","0.2","0.6","0.6531867096","0.9171724481","0.7882030045","0.4967902672","","","","","","","","","","","","","","74","J","1","","","53","main_expt",""
"","bandit","133","481425","0.0-95.0-0.0","62690468","wem/bandit_party_2","A3NMQ3019X6YE0","either","7","595","","","","","","","1","0","0","0.8709862684","","0.8","0.4","0.2","0.6","","","","","0.6178049746","0.8709862684","0.8759533557","0.5321533453","","","","","","","","","","74","J","1","","","54","main_expt",""
"","bandit","134","483393","0.0-96.0-0.0","62690468","wem/bandit_party_2","A3NMQ3019X6YE0","either","7","420","","","","","","","1","0","0","0.9016108676","","0.8","0.4","0.2","0.6","","","","","0.5501477499","0.9016108676","0.9307112091","0.593251847","","","","","","","","","","74","J","1","","","55","main_expt",""
"","bandit","135","485511","0.0-97.0-0.0","62690468","wem/bandit_party_2","A3NMQ3019X6YE0","either","7","568","","","","","","","0","0","1","0.9123335035","","0.8","0.4","0.2","0.6","","","","","0.5181914202","0.9123335035","0.9486344027","0.602347159","","","","","","","","","","74","J","1","","","56","main_expt",""
"","bandit","136","487531","0.0-98.0-0.0","62690468","wem/bandit_party_2","A3NMQ3019X6YE0","either","7","475","","","","","","","0","1","0","","0.9338523698","0.8","0.4","0.2","0.6","0.5052283364","0.9338523698","0.9450559811","0.736851976","","","","","","","","","","","","","","74","J","1","","","57","main_expt",""
"","bandit","137","489479","0.0-99.0-0.0","62690468","wem/bandit_party_2","A3NMQ3019X6YE0","either","7","399","","","","","","","1","0","0","0.9023069914","","0.8","0.4","0.2","0.6","","","","","0.4494585665","0.9023069914","0.960587128","0.7112026436","","","","","","","","","","74","J","1","","","58","main_expt",""
"","bandit","138","491510","0.0-100.0-0.0","62690468","wem/bandit_party_2","A3NMQ3019X6YE0","either","7","484","","","","","","","0","1","0","","0.903153386","0.8","0.4","0.2","0.6","0.4431029696","0.903153386","0.9272570312","0.7605469626","","","","","","","","","","","","","","74","J","1","","","59","main_expt",""
"","bandit","139","493710","0.0-101.0-0.0","62690468","wem/bandit_party_2","A3NMQ3019X6YE0","either","7","639","","","","","","","0","1","0","","0.8975643475","0.8","0.4","0.2","0.6","0.4213069188","0.8975643475","0.9075075979","0.6504737249","","","","","","","","","","","","","","74","J","1","","","60","main_expt",""
"","bandit","140","495909","0.0-102.0-0.0","62690468","wem/bandit_party_2","A3NMQ3019X6YE0","either","7","651","","","","","","","1","0","0","0.8455107238","","0.8","0.4","0.2","0.6","","","","","0.4735464544","0.8455107238","0.9011961695","0.7417300409","","","","","","","","","","74","J","1","","","61","main_expt",""
"","bandit","141","497912","0.0-103.0-0.0","62690468","wem/bandit_party_2","A3NMQ3019X6YE0","either","7","469","","","","","","","0","1","0","","0.8423106617","0.8","0.4","0.2","0.6","0.4260239588","0.8423106617","0.9025442902","0.6889655243","","","","","","","","","","","","","","74","J","1","","","62","main_expt",""
"","bandit","142","500059","0.0-104.0-0.0","62690468","wem/bandit_party_2","A3NMQ3019X6YE0","either","7","601","","","","","","","0","0","1","0.6997676278","","0.8","0.4","0.2","0.6","","","","","0.4048641732","0.6997676278","0.900711875","0.7532165261","","","","","","","","","","74","J","1","","","63","main_expt",""
"","bandit","143","502011","0.0-105.0-0.0","62690468","wem/bandit_party_2","A3NMQ3019X6YE0","either","7","409","","","","","","","1","0","0","0.8033841581","","0.8","0.4","0.2","0.6","","","","","0.261135461","0.8033841581","0.8445511995","0.7614619666","","","","","","","","","","74","J","1","","","64","main_expt",""
"","bandit","144","504045","0.0-106.0-0.0","62690468","wem/bandit_party_2","A3NMQ3019X6YE0","either","7","486","","","","","","","0","1","0","","0.8458775523","0.8","0.4","0.2","0.6","0.4398785507","0.8458775523","0.7838665633","0.7474824059","","","","","","","","","","","","","","74","J","1","","","65","main_expt",""
"","bandit","145","506247","0.0-107.0-0.0","62690468","wem/bandit_party_2","A3NMQ3019X6YE0","either","7","660","","","","","","","0","1","0","","0.8612648572","0.8","0.4","0.2","0.6","0.4549930047","0.8612648572","0.8399866527","0.7083026918","","","","","","","","","","","","","","74","J","1","","","66","main_expt",""
"","bandit","146","508263","0.0-108.0-0.0","62690468","wem/bandit_party_2","A3NMQ3019X6YE0","either","7","465","","","","","","","1","0","0","0.8686018104","","0.8","0.4","0.2","0.6","","","","","0.5565794079","0.8686018104","0.9109535201","0.6535093674","","","","","","","","","","74","J","1","","","67","main_expt",""
"","bandit","147","510543","0.0-109.0-0.0","62690468","wem/bandit_party_2","A3NMQ3019X6YE0","either","7","730","","","","","","","0","1","0","","0.8693437115","0.8","0.4","0.2","0.6","0.4211802827","0.8693437115","0.9064065477","0.4923739087","","","","","","","","","","","","","","74","J","1","","","68","main_expt",""
"","bandit","148","513409","0.0-110.0-0.0","62690468","wem/bandit_party_2","A3NMQ3019X6YE0","either","7","1322","","","","","","","1","0","0","0.9168970181","","0.8","0.4","0.2","0.6","","","","","0.3687693293","0.9168970181","0.9315833469","0.4898097669","","","","","","","","","","74","J","1","","","69","main_expt",""
"","bandit","149","516092","0.0-111.0-0.0","62690468","wem/bandit_party_2","A3NMQ3019X6YE0","either","7","1134","","","","","","","0","1","0","","0.9293527272","0.8","0.4","0.2","0.6","0.3460903474","0.9293527272","0.9393923483","0.4369614599","","","","","","","","","","","","","","74","J","1","","","70","main_expt",""
"","bandit","150","519559","0.0-112.0-0.0","62690468","wem/bandit_party_2","A3NMQ3019X6YE0","either","7","1931","","","","","","","0","1","0","","0.949087413","0.8","0.4","0.2","0.6","0.3278112836","0.949087413","0.9568343035","0.5031037484","","","","","","","","","","","","","","74","J","1","","","71","main_expt",""
"","bandit","151","523259","0.0-113.0-0.0","62690468","wem/bandit_party_2","A3NMQ3019X6YE0","either","7","2153","","","","","","","0","1","0","","0.906373323","0.8","0.4","0.2","0.6","0.2720469766","0.906373323","0.947758434","0.5397903688","","","","","","","","","","","","","","74","J","1","","","72","main_expt",""
"","bandit","152","524843","0.0-114.0-0.0","62690468","wem/bandit_party_2","A3NMQ3019X6YE0","either","7","40","","","","","","","0","1","0","","0.93965919","0.8","0.4","0.2","0.6","0.2451019773","0.93965919","0.9052010222","0.5540652028","","","","","","","","","","","","","","74","J","1","","","73","main_expt",""
"","bandit","153","527010","0.0-115.0-0.0","62690468","wem/bandit_party_2","A3NMQ3019X6YE0","either","7","621","","","","","","","0","1","0","","0.9416319858","0.8","0.4","0.2","0.6","0.2645862521","0.9416319858","0.927704936","0.61733434","","","","","","","","","","","","","","74","J","1","","","74","main_expt",""
"","bandit","154","529092","0.0-116.0-0.0","62690468","wem/bandit_party_2","A3NMQ3019X6YE0","either","7","544","","","","","","","1","0","0","0.9535384208","","0.8","0.4","0.2","0.6","","","","","0.2298582","0.9535384208","0.8769567517","0.6341908543","","","","","","","","","","74","J","1","","","75","main_expt",""
"","bandit","155","531376","0.0-117.0-0.0","62690468","wem/bandit_party_2","A3NMQ3019X6YE0","either","7","739","","","","","","","1","0","0","0.9585479729","","0.8","0.4","0.2","0.6","","","","","0.3460043445","0.9585479729","0.8456064169","0.6355577018","","","","","","","","","","74","J","1","","","76","main_expt",""
"","bandit","156","533244","0.0-118.0-0.0","62690468","wem/bandit_party_2","A3NMQ3019X6YE0","either","7","329","","","","","","","1","0","0","0.9610253773","","0.8","0.4","0.2","0.6","","","","","0.2526488818","0.9610253773","0.8325595713","0.7055426269","","","","","","","","","","74","J","1","","","77","main_expt",""
"","bandit","157","535628","0.0-119.0-0.0","62690468","wem/bandit_party_2","A3NMQ3019X6YE0","either","7","840","","","","","","","0","1","0","","0.9580320452","0.8","0.4","0.2","0.6","0.2625396382","0.9580320452","0.9128982172","0.6137882531","","","","","","","","","","","","","","74","J","1","","","78","main_expt",""
"","bandit","158","538559","0.0-120.0-0.0","62690468","wem/bandit_party_2","A3NMQ3019X6YE0","either","7","1388","","","","","","","0","1","0","","0.9403834825","0.8","0.4","0.2","0.6","0.2957535945","0.9403834825","0.9213349282","0.668392527","","","","","","","","","","","","","","74","J","1","","","79","main_expt",""
"","bandit","159","542012","0.0-121.0-0.0","62690468","wem/bandit_party_2","A3NMQ3019X6YE0","either","7","1904","","","","","","","0","1","0","","0.946171157","0.8","0.4","0.2","0.6","0.1831261498","0.946171157","0.8935563746","0.7457361895","","","","","","","","","","","","","","74","J","1","","","80","main_expt",""
"","bandit","160","545476","0.0-122.0-0.0","62690468","wem/bandit_party_2","A3NMQ3019X6YE0","either","7","1925","","","","","","","0","1","0","","0.9800092583","0.8","0.4","0.2","0.6","0.1450659425","0.9800092583","0.932831263","0.8028050151","","","","","","","","","","","","","","74","J","1","","","81","main_expt",""
"","bandit","161","548930","0.0-123.0-0.0","62690468","wem/bandit_party_2","A3NMQ3019X6YE0","either","7","1899","","","","","","","1","0","0","0.9666397243","","0.8","0.4","0.2","0.6","","","","","0.1486641529","0.9666397243","0.9403650082","0.8727424511","","","","","","","","","","74","J","1","","","82","main_expt",""
"","bandit","162","552378","0.0-124.0-0.0","62690468","wem/bandit_party_2","A3NMQ3019X6YE0","either","7","1894","","","","","","","0","1","0","","0.9637330664","0.8","0.4","0.2","0.6","0.1567811066","0.9637330664","0.9066396881","0.8283068274","","","","","","","","","","","","","","74","J","1","","","83","main_expt",""
"","bandit","163","555710","0.0-125.0-0.0","62690468","wem/bandit_party_2","A3NMQ3019X6YE0","either","7","1790","","","","","","","0","1","0","","0.9617949183","0.8","0.4","0.2","0.6","0.196091916","0.9617949183","0.8962006295","0.8030064341","","","","","","","","","","","","","","74","J","1","","","84","main_expt",""
"","bandit","164","558577","0.0-126.0-0.0","62690468","wem/bandit_party_2","A3NMQ3019X6YE0","either","7","1331","","","","","","","0","1","0","","0.9561985801","0.8","0.4","0.2","0.6","0.1512390112","0.9561985801","0.9093999993","0.8622567251","","","","","","","","","","","","","","74","J","1","","","85","main_expt",""
"","bandit","165","560409","0.0-127.0-0.0","62690468","wem/bandit_party_2","A3NMQ3019X6YE0","either","7","290","","","","","","","0","1","0","","0.9422505668","0.8","0.4","0.2","0.6","0.1486491559","0.9422505668","0.9326862648","0.896584634","","","","","","","","","","","","","","74","J","1","","","86","main_expt",""
"","bandit","166","562243","0.0-128.0-0.0","62690468","wem/bandit_party_2","A3NMQ3019X6YE0","either","7","295","","","","","","","1","0","0","0.926711091","","0.8","0.4","0.2","0.6","","","","","0.1047878604","0.926711091","0.9039434857","0.9208758521","","","","","","","","","","74","J","1","","","87","main_expt",""
"","bandit","167","564611","0.0-129.0-0.0","62690468","wem/bandit_party_2","A3NMQ3019X6YE0","either","7","829","","","","","","","0","0","1","","0.9092576496","0.8","0.4","0.2","0.6","0.07038149384","0.9092576496","0.9195127861","0.9266301883","","","","","","","","","","","","","","74","J","1","","","88","main_expt",""
"","bandit","168","566711","0.0-130.0-0.0","62690468","wem/bandit_party_2","A3NMQ3019X6YE0","either","7","557","","","","","","","1","0","0","0.8948591238","","0.8","0.4","0.2","0.6","","","","","0.1311535074","0.8948591238","0.9225053559","0.9259215542","","","","","","","","","","74","J","1","","","89","main_expt",""
"","bandit","169","568628","0.0-131.0-0.0","62690468","wem/bandit_party_2","A3NMQ3019X6YE0","either","7","370","","","","","","","1","0","0","0.8716727139","","0.8","0.4","0.2","0.6","","","","","0.1241310956","0.8716727139","0.9014563988","0.9400480964","","","","","","","","","","74","J","1","","","90","main_expt",""
"","bandit","170","570460","0.0-132.0-0.0","62690468","wem/bandit_party_2","A3NMQ3019X6YE0","either","7","287","","","","","","","0","0","1","0.8969144331","","0.8","0.4","0.2","0.6","","","","","0.09664170694","0.8969144331","0.9162570652","0.8961855863","","","","","","","","","","74","J","1","","","91","main_expt",""
"","bandit","171","572412","0.0-133.0-0.0","62690468","wem/bandit_party_2","A3NMQ3019X6YE0","either","7","412","","","","","","","1","0","0","0.9171199264","","0.8","0.4","0.2","0.6","","","","","0.09586364307","0.9171199264","0.9171553871","0.9211437923","","","","","","","","","","74","J","1","","","92","main_expt",""
"","bandit","172","574309","0.0-134.0-0.0","62690468","wem/bandit_party_2","A3NMQ3019X6YE0","either","7","348","","","","","","","1","0","0","0.9593171332","","0.8","0.4","0.2","0.6","","","","","0.08304118766","0.9593171332","0.9463284029","0.8947860396","","","","","","","","","","74","J","1","","","93","main_expt",""
"","bandit","173","576193","0.0-135.0-0.0","62690468","wem/bandit_party_2","A3NMQ3019X6YE0","either","7","347","","","","","","","1","0","0","0.959226596","","0.8","0.4","0.2","0.6","","","","","0.1222865453","0.959226596","0.9477079066","0.822540961","","","","","","","","","","74","J","1","","","94","main_expt",""
"","bandit","174","578160","0.0-136.0-0.0","62690468","wem/bandit_party_2","A3NMQ3019X6YE0","either","7","412","","","","","","","0","1","0","","0.947105423","0.8","0.4","0.2","0.6","0.211460517","0.947105423","0.9474919074","0.8288041746","","","","","","","","","","","","","","74","J","1","","","95","main_expt",""
"","bandit","175","580060","0.0-137.0-0.0","62690468","wem/bandit_party_2","A3NMQ3019X6YE0","either","7","360","","","","","","","1","0","0","0.937205139","","0.8","0.4","0.2","0.6","","","","","0.2757920232","0.937205139","0.9722490369","0.8217366877","","","","","","","","","","74","J","1","","","96","main_expt",""
"","bandit","176","581948","0.0-138.0-0.0","62690468","wem/bandit_party_2","A3NMQ3019X6YE0","either","7","344","","","","","","","0","1","0","","0.9472767204","0.8","0.4","0.2","0.6","0.2646876298","0.9472767204","0.980822097","0.725285089","","","","","","","","","","","","","","74","J","1","","","97","main_expt",""
"","bandit","177","583825","0.0-139.0-0.0","62690468","wem/bandit_party_2","A3NMQ3019X6YE0","either","7","341","","","","","","","0","1","0","","0.962959595","0.8","0.4","0.2","0.6","0.3278454636","0.962959595","0.9761591307","0.7958966199","","","","","","","","","","","","","","74","J","1","","","98","main_expt",""
"","bandit","178","585827","0.0-140.0-0.0","62690468","wem/bandit_party_2","A3NMQ3019X6YE0","either","7","465","","","","","","","0","1","0","","0.9720903607","0.8","0.4","0.2","0.6","0.4641870332","0.9720903607","0.9597391097","0.7741840332","","","","","","","","","","","","","","74","J","1","","","99","main_expt",""
"","bandit","179","587511","0.0-141.0-0.0","62690468","wem/bandit_party_2","A3NMQ3019X6YE0","either","7","140","","","","","","","1","0","0","0.9737169538","","0.8","0.4","0.2","0.6","","","","","0.3972344865","0.9737169538","0.9557148533","0.7934767162","","","","","","","","","","74","J","1","","","100","main_expt",""
"","bandit","180","589328","0.0-142.0-0.0","62690468","wem/bandit_party_2","A3NMQ3019X6YE0","either","7","272","","","","","","","0","1","0","","0.986468331","0.8","0.4","0.2","0.6","0.4395304924","0.986468331","0.9687934467","0.8307638242","","","","","","","","","","","","","","74","J","1","","","101","main_expt",""
"","bandit","181","591230","0.0-143.0-0.0","62690468","wem/bandit_party_2","A3NMQ3019X6YE0","either","7","360","","","","","","","1","0","0","0.9859557102","","0.8","0.4","0.2","0.6","","","","","0.5248298482","0.9859557102","0.9713318577","0.7737236933","","","","","","","","","","74","J","1","","","102","main_expt",""
"","bandit","182","593125","0.0-144.0-0.0","62690468","wem/bandit_party_2","A3NMQ3019X6YE0","either","7","349","","","","","","","0","1","0","","0.9828698412","0.8","0.4","0.2","0.6","0.6218364577","0.9828698412","0.9768128314","0.8168427084","","","","","","","","","","","","","","74","J","1","","","103","main_expt",""
"","bandit","183","595125","0.0-145.0-0.0","62690468","wem/bandit_party_2","A3NMQ3019X6YE0","either","7","448","","","","","","","0","1","0","","0.9655029871","0.8","0.4","0.2","0.6","0.5528563194","0.9655029871","0.9566706727","0.7020104164","","","","","","","","","","","","","","74","J","1","","","104","main_expt",""
"","bandit","184","596995","0.0-146.0-0.0","62690468","wem/bandit_party_2","A3NMQ3019X6YE0","either","7","322","","","","","","","0","1","0","","0.9587067199","0.8","0.4","0.2","0.6","0.515821512","0.9587067199","0.9352711559","0.6750414237","","","","","","","","","","","","","","74","J","1","","","105","main_expt",""
"","bandit","185","598860","0.0-147.0-0.0","62690468","wem/bandit_party_2","A3NMQ3019X6YE0","either","7","326","","","","","","","0","1","0","","0.9358961366","0.8","0.4","0.2","0.6","0.5380341879","0.9358961366","0.8980036198","0.5886413089","","","","","","","","","","","","","","74","J","1","","","106","main_expt",""
"","bandit","186","600912","0.0-148.0-0.0","62690468","wem/bandit_party_2","A3NMQ3019X6YE0","either","7","502","","","","","","","0","1","0","","0.8829949032","0.8","0.4","0.2","0.6","0.3291998873","0.8829949032","0.9175797088","0.5507707533","","","","","","","","","","","","","","74","J","1","","","107","main_expt",""
"","bandit","187","602627","0.0-149.0-0.0","62690468","wem/bandit_party_2","A3NMQ3019X6YE0","either","7","167","","","","","","","1","0","0","0.7668100276","","0.8","0.4","0.2","0.6","","","","","0.3608627265","0.7668100276","0.8966825343","0.4325904974","","","","","","","","","","74","J","1","","","108","main_expt",""
"","bandit","188","604512","0.0-150.0-0.0","62690468","wem/bandit_party_2","A3NMQ3019X6YE0","either","7","332","","","","","","","1","0","0","0.7652463225","","0.8","0.4","0.2","0.6","","","","","0.3837942066","0.7652463225","0.8883819791","0.3735159861","","","","","","","","","","74","J","1","","","109","main_expt",""
"","bandit","189","606510","0.0-151.0-0.0","62690468","wem/bandit_party_2","A3NMQ3019X6YE0","either","7","455","","","","","","","0","1","0","","0.7974745759","0.8","0.4","0.2","0.6","0.3019365294","0.7974745759","0.9087011364","0.3704440872","","","","","","","","","","","","","","74","J","1","","","110","main_expt",""
"","bandit","190","608413","0.0-152.0-0.0","62690468","wem/bandit_party_2","A3NMQ3019X6YE0","either","7","360","","","","","","","0","0","1","","0.812352323","0.8","0.4","0.2","0.6","0.3483008865","0.812352323","0.9337026812","0.2749067499","","","","","","","","","","","","","","74","J","1","","","111","main_expt",""
"","bandit","191","610276","0.0-153.0-0.0","62690468","wem/bandit_party_2","A3NMQ3019X6YE0","either","7","322","","","","","","","1","0","0","0.7428975936","","0.8","0.4","0.2","0.6","","","","","0.4342302697","0.7428975936","0.9113388615","0.2734667401","","","","","","","","","","74","J","1","","","112","main_expt",""
"","bandit","192","612044","0.0-154.0-0.0","62690468","wem/bandit_party_2","A3NMQ3019X6YE0","either","7","218","","","","","","","0","1","0","","0.7139653514","0.8","0.4","0.2","0.6","0.5187246657","0.7139653514","0.8980528729","0.2291946885","","","","","","","","","","","","","","74","J","1","","","113","main_expt",""
"","bandit","193","614013","0.0-155.0-0.0","62690468","wem/bandit_party_2","A3NMQ3019X6YE0","either","7","427","","","","","","","1","0","0","0.7945657698","","0.8","0.4","0.2","0.6","","","","","0.5381742134","0.7945657698","0.8036326458","0.2413339081","","","","","","","","","","74","J","1","","","114","main_expt",""
"","bandit","194","615976","0.0-156.0-0.0","62690468","wem/bandit_party_2","A3NMQ3019X6YE0","either","7","417","","","","","","","0","1","0","","0.8405588069","0.8","0.4","0.2","0.6","0.4785029821","0.8405588069","0.8700945717","0.3092826039","","","","","","","","","","","","","","74","J","1","","","115","main_expt",""
"","bandit","195","618327","0.0-157.0-0.0","62690468","wem/bandit_party_2","A3NMQ3019X6YE0","either","7","815","","","","","","","0","1","0","","0.8641798474","0.8","0.4","0.2","0.6","0.4654757386","0.8641798474","0.8895114993","0.2361366225","","","","","","","","","","","","","","74","J","1","","","116","main_expt",""
"","bandit","196","620277","0.0-158.0-0.0","62690468","wem/bandit_party_2","A3NMQ3019X6YE0","either","7","400","","","","","","","0","1","0","","0.8756768431","0.8","0.4","0.2","0.6","0.4578633225","0.8756768431","0.8936856952","0.218402711","","","","","","","","","","","","","","74","J","1","","","117","main_expt",""
"","bandit","197","622729","0.0-159.0-0.0","62690468","wem/bandit_party_2","A3NMQ3019X6YE0","either","7","906","","","","","","","1","0","0","0.9015269718","","0.8","0.4","0.2","0.6","","","","","0.4773941538","0.9015269718","0.8077127093","0.2003641109","","","","","","","","","","74","J","1","","","118","main_expt",""
"","bandit","198","625643","0.0-160.0-0.0","62690468","wem/bandit_party_2","A3NMQ3019X6YE0","either","7","1365","","","","","","","0","1","0","","0.8709738884","0.8","0.4","0.2","0.6","0.508374463","0.8709738884","0.8901108642","0.1375137305","","","","","","","","","","","","","","74","J","1","","","119","main_expt",""
"","bandit","199","627978","0.0-161.0-0.0","62690468","wem/bandit_party_2","A3NMQ3019X6YE0","either","7","787","","","","","","","0","0","1","","0.8268338002","0.8","0.4","0.2","0.6","0.4294310012","0.8268338002","0.8731124259","0.08656631556","","","","","","","","","","","","","","74","J","1","","","120","main_expt",""
"","bandit","200","630646","0.0-162.0-0.0","62690468","wem/bandit_party_2","A3NMQ3019X6YE0","either","7","1117","","","","","","","0","1","0","","0.8432616236","0.8","0.4","0.2","0.6","0.3933985885","0.8432616236","0.8509174952","0.07812634859","","","","","","","","","","","","","","74","J","1","","","121","main_expt",""
"","bandit","201","633976","0.0-163.0-0.0","62690468","wem/bandit_party_2","A3NMQ3019X6YE0","either","7","1781","","","","","","","0","1","0","","0.8128728295","0.8","0.4","0.2","0.6","0.2641409089","0.8128728295","0.8707856005","0.09046411854","","","","","","","","","","","","","","74","J","1","","","122","main_expt",""
"","bandit","202","636028","0.0-164.0-0.0","62690468","wem/bandit_party_2","A3NMQ3019X6YE0","either","7","500","","","","","","","1","0","0","0.752198112","","0.8","0.4","0.2","0.6","","","","","0.2491349268","0.752198112","0.7592524618","0.1132512529","","","","","","","","","","74","J","1","","","123","main_expt",""
"","bandit","203","638426","0.0-165.0-0.0","62690468","wem/bandit_party_2","A3NMQ3019X6YE0","either","7","859","","","","","","","0","1","0","","0.7117781612","0.8","0.4","0.2","0.6","0.2587226179","0.7117781612","0.7330206325","0.09419269712","","","","","","","","","","","","","","74","J","1","","","124","main_expt",""
"","bandit","204","640478","0.0-166.0-0.0","62690468","wem/bandit_party_2","A3NMQ3019X6YE0","either","7","500","","","","","","","0","0","1","0.7177409252","","0.8","0.4","0.2","0.6","","","","","0.2925679814","0.7177409252","0.6903693331","0.110513045","","","","","","","","","","74","J","1","","","125","main_expt",""
"","bandit","205","642492","0.0-167.0-0.0","62690468","wem/bandit_party_2","A3NMQ3019X6YE0","either","7","469","","","","","","","0","1","0","","0.7240917845","0.8","0.4","0.2","0.6","0.3997536411","0.7240917845","0.6370641568","0.07088043536","","","","","","","","","","","","","","74","J","1","","","126","main_expt",""
"","bandit","206","644393","0.0-168.0-0.0","62690468","wem/bandit_party_2","A3NMQ3019X6YE0","either","7","360","","","","","","","0","1","0","","0.6788578752","0.8","0.4","0.2","0.6","0.4120812041","0.6788578752","0.6192694325","0.1041728595","","","","","","","","","","","","","","74","J","1","","","127","main_expt",""
"","bandit","207","646410","0.0-169.0-0.0","62690468","wem/bandit_party_2","A3NMQ3019X6YE0","either","7","477","","","","","","","0","0","1","","0.6257789885","0.8","0.4","0.2","0.6","0.3731276689","0.6257789885","0.559348281","0.1006708935","","","","","","","","","","","","","","74","J","1","","","128","main_expt",""
"","bandit","208","648377","0.0-170.0-0.0","62690468","wem/bandit_party_2","A3NMQ3019X6YE0","either","7","422","","","","","","","0","1","0","","0.4761868647","0.8","0.4","0.2","0.6","0.3263017501","0.4761868647","0.610360397","0.1336488566","","","","","","","","","","","","","","74","J","1","","","129","main_expt",""
"","bandit","209","650278","0.0-171.0-0.0","62690468","wem/bandit_party_2","A3NMQ3019X6YE0","either","7","349","","","","","","","0","0","1","","0.4745188583","0.8","0.4","0.2","0.6","0.3226142564","0.4745188583","0.5737783772","0.1271550391","","","","","","","","","","","","","","74","J","1","","","130","main_expt",""
"","bandit","210","652242","0.0-172.0-0.0","62690468","wem/bandit_party_2","A3NMQ3019X6YE0","either","7","424","","","","","","","0","0","1","","0.6252154127","0.8","0.4","0.2","0.6","0.3907136596","0.4674409752","0.6252154127","0.1594360192","","","","","","","","","","","","","","75","K","2","","","131","main_expt",""
"","bandit","211","654243","0.0-173.0-0.0","62690468","wem/bandit_party_2","A3NMQ3019X6YE0","either","7","452","","","","","","","0","1","0","","0.1027658661","0.8","0.4","0.2","0.6","0.4983036492","0.368649462","0.6473056352","0.1027658661","","","","","","","","","","","","","","76","L","3","","","132","main_expt",""
"","bandit","212","656230","0.0-174.0-0.0","62690468","wem/bandit_party_2","A3NMQ3019X6YE0","either","7","436","","","","","","","0","0","1","0.1223548883","","0.8","0.4","0.2","0.6","","","","","0.6347393695","0.4313577514","0.4595123468","0.1223548883","","","","","","","","","","76","L","3","","","133","main_expt",""
"","bandit","213","658260","0.0-175.0-0.0","62690468","wem/bandit_party_2","A3NMQ3019X6YE0","either","7","482","","","","","","","1","0","0","0.1063029331","","0.8","0.4","0.2","0.6","","","","","0.6037412299","0.3692150919","0.3043385566","0.1063029331","","","","","","","","","","76","L","3","","","134","main_expt",""
"","bandit","214","660198","0.0-176.0-0.0","62690468","wem/bandit_party_2","A3NMQ3019X6YE0","either","7","392","","","","","","","0","0","1","","0.080644856","0.8","0.4","0.2","0.6","0.5511090861","0.3077662431","0.340857567","0.080644856","","","","","","","","","","","","","","76","L","3","","","135","main_expt",""
"","bandit","215","662310","0.0-177.0-0.0","62690468","wem/bandit_party_2","A3NMQ3019X6YE0","either","7","567","","","","","","","0","0","1","0.1359867045","","0.8","0.4","0.2","0.6","","","","","0.585911414","0.314969588","0.2655810755","0.1359867045","","","","","","","","","","76","L","3","","","136","main_expt",""
"","bandit","216","664395","0.0-178.0-0.0","62690468","wem/bandit_party_2","A3NMQ3019X6YE0","either","7","535","","","","","","","1","0","0","0.5805905743","","0.8","0.4","0.2","0.6","","","","","0.5805905743","0.3590847215","0.3025530854","0.168344283","","","","","","","","","","72","H","0","img/none_selected.jpg","","137","main_expt",""
"","bandit","217","666259","0.0-179.0-0.0","62690468","wem/bandit_party_2","A3NMQ3019X6YE0","either","7","317","","","","","","","1","0","0","0.6357737786","","0.8","0.4","0.2","0.6","","","","","0.6357737786","0.3588584756","0.2888348812","0.1867455324","","","","","","","","","","72","H","0","img/none_selected.jpg","","138","main_expt",""
"","bandit","218","668159","0.0-180.0-0.0","62690468","wem/bandit_party_2","A3NMQ3019X6YE0","either","7","361","","","","","","","1","0","0","0.66639317","","0.8","0.4","0.2","0.6","","","","","0.66639317","0.4289761638","0.2463208975","0.2277874407","","","","","","","","","","72","H","0","img/none_selected.jpg","","139","main_expt",""
"","bandit","219","670110","0.0-181.0-0.0","62690468","wem/bandit_party_2","A3NMQ3019X6YE0","either","7","399","","","","","","","0","0","1","0.6365789307","","0.8","0.4","0.2","0.6","","","","","0.6365789307","0.3801639999","0.273109751","0.2577820179","","","","","","","","","","72","H","0","img/none_selected.jpg","","140","main_expt",""
"","bandit","220","672060","0.0-182.0-0.0","62690468","wem/bandit_party_2","A3NMQ3019X6YE0","either","7","398","","","","","","","0","0","1","0.6045632144","","0.8","0.4","0.2","0.6","","","","","0.6045632144","0.2445936549","0.3355442787","0.3674069736","","","","","","","","","","72","H","0","img/none_selected.jpg","","141","main_expt",""
"","bandit","221","673978","0.0-183.0-0.0","62690468","wem/bandit_party_2","A3NMQ3019X6YE0","either","7","368","","","","","","","0","0","1","0.5148607161","","0.8","0.4","0.2","0.6","","","","","0.5148607161","0.3394066497","0.2781999234","0.4345417514","","","","","","","","","","72","H","0","img/none_selected.jpg","","142","main_expt",""
"","bandit","222","676159","0.0-184.0-0.0","62690468","wem/bandit_party_2","A3NMQ3019X6YE0","either","7","636","","","","","","","1","0","0","0.3811672827","","0.8","0.4","0.2","0.6","","","","","0.4754154836","0.2899754881","0.2599467226","0.3811672827","","","","","","","","","","76","L","3","","","143","main_expt",""
"","bandit","223","678110","0.0-185.0-0.0","62690468","wem/bandit_party_2","A3NMQ3019X6YE0","either","7","398","","","","","","","0","0","1","0.2754059391","","0.8","0.4","0.2","0.6","","","","","0.516029258","0.3701332444","0.2353144144","0.2754059391","","","","","","","","","","76","L","3","","","144","main_expt",""
"","bandit","224","691795","0.0-186.0-0.0","62690468","wem/bandit_party_2","A3NMQ3019X6YE0","either","7","12134","","","","","","","0","0","1","","0.2120114759","0.8","0.4","0.2","0.6","0.6646605279","0.3322753171","0.2120114759","0.2773400324","","","","","","","","","","","","","","75","K","2","","","145","main_expt",""
"","bandit","225","693892","0.0-187.0-0.0","62690468","wem/bandit_party_2","A3NMQ3019X6YE0","either","7","560","","","","","","","0","0","1","0.2780426824","","0.8","0.4","0.2","0.6","","","","","0.6331546467","0.3203507811","0.176067728","0.2780426824","","","","","","","","","","76","L","3","","","146","main_expt",""
"","bandit","226","696579","0.0-188.0-0.0","62690468","wem/bandit_party_2","A3NMQ3019X6YE0","either","7","1135","","","","","","","0","1","0","","0.6356747602","0.8","0.4","0.2","0.6","0.6356747602","0.304761248","0.1329453439","0.3373608721","","","","","","","","","","","","","","72","H","0","img/none_selected.jpg","","147","main_expt",""
"","bandit","227","698526","0.0-189.0-0.0","62690468","wem/bandit_party_2","A3NMQ3019X6YE0","either","7","400","","","","","","","1","0","0","0.6301772709","","0.8","0.4","0.2","0.6","","","","","0.6301772709","0.3809280674","0.1465103875","0.3529594122","","","","","","","","","","72","H","0","img/none_selected.jpg","","148","main_expt",""
"","bandit","228","700592","0.0-190.0-0.0","62690468","wem/bandit_party_2","A3NMQ3019X6YE0","either","7","513","","","","","","","1","0","0","0.6640591829","","0.8","0.4","0.2","0.6","","","","","0.6640591829","0.3997986218","0.1190451538","0.3878328211","","","","","","","","","","72","H","0","img/none_selected.jpg","","149","main_expt",""
"","bandit","229","702693","0.0-191.0-0.0","62690468","wem/bandit_party_2","A3NMQ3019X6YE0","either","7","563","","","","","","","0","0","1","0.6592717552","","0.8","0.4","0.2","0.6","","","","","0.6592717552","0.3159341416","0.1195570164","0.42943501","","","","","","","","","","72","H","0","img/none_selected.jpg","","150","main_expt",""
"","bandit","230","704659","0.0-192.0-0.0","62690468","wem/bandit_party_2","A3NMQ3019X6YE0","either","7","415","","","","","","","0","1","0","","0.5928743102","0.8","0.4","0.2","0.6","0.5928743102","0.3052853957","0.100492686","0.5142681232","","","","","","","","","","","","","","72","H","0","img/none_selected.jpg","","151","main_expt",""
"","bandit","231","706664","0.0-193.0-0.0","62690468","wem/bandit_party_2","A3NMQ3019X6YE0","either","7","458","","","","","","","0","0","1","0.6822187145","","0.8","0.4","0.2","0.6","","","","","0.6822187145","0.1896018403","0.1030367897","0.6321073962","","","","","","","","","","72","H","0","img/none_selected.jpg","","152","main_expt",""
"","bandit","232","708592","0.0-194.0-0.0","62690468","wem/bandit_party_2","A3NMQ3019X6YE0","either","7","382","","","","","","","0","0","1","0.6832005509","","0.8","0.4","0.2","0.6","","","","","0.6832005509","0.2439656658","0.2059045691","0.6965670792","","","","","","","","","","72","H","0","img/none_selected.jpg","","153","main_expt",""
"","bandit","233","710861","0.0-195.0-0.0","62690468","wem/bandit_party_2","A3NMQ3019X6YE0","either","7","717","","","","","","","1","0","0","0.7109729062","","0.8","0.4","0.2","0.6","","","","","0.7109729062","0.3068434149","0.2921647579","0.6516005735","","","","","","","","","","72","H","0","img/none_selected.jpg","","154","main_expt",""
"","bandit","234","712876","0.0-196.0-0.0","62690468","wem/bandit_party_2","A3NMQ3019X6YE0","either","7","473","","","","","","","1","0","0","0.6975465092","","0.8","0.4","0.2","0.6","","","","","0.6975465092","0.2314644909","0.1789694193","0.7291318088","","","","","","","","","","72","H","0","img/none_selected.jpg","","155","main_expt",""
"","bandit","235","714893","0.0-197.0-0.0","62690468","wem/bandit_party_2","A3NMQ3019X6YE0","either","7","466","","","","","","","0","0","1","0.6580608271","","0.8","0.4","0.2","0.6","","","","","0.6580608271","0.2154001061","0.2187195075","0.6273572288","","","","","","","","","","72","H","0","img/none_selected.jpg","","156","main_expt",""
"","bandit","236","716843","0.0-198.0-0.0","62690468","wem/bandit_party_2","A3NMQ3019X6YE0","either","7","398","","","","","","","0","0","1","0.5695802138","","0.8","0.4","0.2","0.6","","","","","0.5695802138","0.1648135251","0.2669834713","0.566197257","","","","","","","","","","72","H","0","img/none_selected.jpg","","157","main_expt",""
"","bandit","237","718844","0.0-199.0-0.0","62690468","wem/bandit_party_2","A3NMQ3019X6YE0","either","7","458","","","","","","","0","0","1","0.4733954301","","0.8","0.4","0.2","0.6","","","","","0.4733954301","0.2215973425","0.4240307821","0.4523642269","","","","","","","","","","72","H","0","img/none_selected.jpg","","158","main_expt",""
"","bandit","238","720910","0.0-200.0-0.0","62690468","wem/bandit_party_2","A3NMQ3019X6YE0","either","7","509","","","","","","","1","0","0","0.5619817243","","0.8","0.4","0.2","0.6","","","","","0.5619817243","0.2243274726","0.3840951437","0.3991212054","","","","","","","","","","72","H","0","img/none_selected.jpg","","159","main_expt",""
"","bandit","239","722960","0.0-201.0-0.0","62690468","wem/bandit_party_2","A3NMQ3019X6YE0","either","7","494","","","","","","","0","0","1","0.4701658979","","0.8","0.4","0.2","0.6","","","","","0.4701658979","0.2061161075","0.4098147986","0.3566558104","","","","","","","","","","72","H","0","img/none_selected.jpg","","160","main_expt",""
"","bandit","240","724992","0.0-202.0-0.0","62690468","wem/bandit_party_2","A3NMQ3019X6YE0","either","7","493","","","","","","","0","0","1","0.209200141","","0.8","0.4","0.2","0.6","","","","","0.5673671472","0.209200141","0.4027252302","0.4430908041","","","","","","","","","","74","J","1","","","161","main_expt",""
"","bandit","241","727312","0.0-203.0-0.0","62690468","wem/bandit_party_2","A3NMQ3019X6YE0","either","7","780","","","","","","","0","0","1","","0.3824170733","0.8","0.4","0.2","0.6","0.4921809208","0.1477343718","0.3824170733","0.3966098285","","","","","","","","","","","","","","75","K","2","","","162","main_expt",""
"","bandit","242","729276","0.0-204.0-0.0","62690468","wem/bandit_party_2","A3NMQ3019X6YE0","either","7","416","","","","","","","0","0","1","0.3455868331","","0.8","0.4","0.2","0.6","","","","","0.4204505308","0.1525050104","0.3352280924","0.3455868331","","","","","","","","","","76","L","3","","","163","main_expt",""
"","bandit","243","731059","0.0-205.0-0.0","62690468","wem/bandit_party_2","A3NMQ3019X6YE0","either","7","231","","","","","","","0","0","1","0.534748173","","0.8","0.4","0.2","0.6","","","","","0.534748173","0.08831047354","0.3379187571","0.3368969945","","","","","","","","","","72","H","0","img/none_selected.jpg","","164","main_expt",""
"","bandit","244","732880","0.0-206.0-0.0","62690468","wem/bandit_party_2","A3NMQ3019X6YE0","either","7","265","","","","","","","0","0","1","0.4724966102","","0.8","0.4","0.2","0.6","","","","","0.4724966102","0.1035482763","0.3160546663","0.3767562303","","","","","","","","","","72","H","0","img/none_selected.jpg","","165","main_expt",""
"","bandit","245","734894","0.0-207.0-0.0","62690468","wem/bandit_party_2","A3NMQ3019X6YE0","either","7","460","","","","","","","0","0","1","","0.06888190676","0.8","0.4","0.2","0.6","0.5280505203","0.06888190676","0.3058359067","0.4727650462","","","","","","","","","","","","","","74","J","1","","","166","main_expt",""
"","bandit","246","736694","0.0-208.0-0.0","62690468","wem/bandit_party_2","A3NMQ3019X6YE0","either","7","250","","","","","","","0","1","0","","0.2561334246","0.8","0.4","0.2","0.6","0.589670135","0.06051452263","0.2561334246","0.6140635231","","","","","","","","","","","","","","75","K","2","","","167","main_expt",""
"","bandit","247","738625","0.0-209.0-0.0","62690468","wem/bandit_party_2","A3NMQ3019X6YE0","either","7","379","","","","","","","0","1","0","","0.2459084815","0.8","0.4","0.2","0.6","0.5058201204","0.07905307949","0.2459084815","0.5629225295","","","","","","","","","","","","","","75","K","2","","","168","main_expt",""
"","bandit","248","740595","0.0-210.0-0.0","62690468","wem/bandit_party_2","A3NMQ3019X6YE0","either","7","427","","","","","","","0","0","1","","0.2138460752","0.8","0.4","0.2","0.6","0.4102709571","0.07051596905","0.2138460752","0.6456076899","","","","","","","","","","","","","","75","K","2","","","169","main_expt",""
"","bandit","249","742575","0.0-211.0-0.0","62690468","wem/bandit_party_2","A3NMQ3019X6YE0","either","7","427","","","","","","","0","0","1","","0.1642406351","0.8","0.4","0.2","0.6","0.5061826445","0.1056762318","0.1642406351","0.719827795","","","","","","","","","","","","","","75","K","2","","","170","main_expt",""
"","bandit","250","744525","0.0-212.0-0.0","62690468","wem/bandit_party_2","A3NMQ3019X6YE0","either","7","404","","","","","","","0","0","1","","0.2337150112","0.8","0.4","0.2","0.6","0.6092158501","0.1513980822","0.2337150112","0.6716280274","","","","","","","","","","","","","","75","K","2","","","171","main_expt",""
"","bandit","251","746713","0.0-213.0-0.0","62690468","wem/bandit_party_2","A3NMQ3019X6YE0","either","7","629","","","","","","","1","0","0","0.3128682212","","0.8","0.4","0.2","0.6","","","","","0.691496366","0.1552293495","0.3128682212","0.5683226388","","","","","","","","","","75","K","2","","","172","main_expt",""
"","bandit","252","748661","0.0-214.0-0.0","62690468","wem/bandit_party_2","A3NMQ3019X6YE0","either","7","395","","","","","","","0","0","1","","0.2775517843","0.8","0.4","0.2","0.6","0.7402253768","0.1325975083","0.2775517843","0.4581357746","","","","","","","","","","","","","","75","K","2","","","173","main_expt",""
"","bandit","253","750913","0.0-215.0-0.0","62690468","wem/bandit_party_2","A3NMQ3019X6YE0","either","7","709","","","","","","","0","0","1","0.6601004511","","0.8","0.4","0.2","0.6","","","","","0.6601004511","0.09024892351","0.4159305855","0.5903479164","","","","","","","","","","72","H","0","img/none_selected.jpg","","174","main_expt",""
"","bandit","254","753059","0.0-216.0-0.0","62690468","wem/bandit_party_2","A3NMQ3019X6YE0","either","7","604","","","","","","","1","0","0","0.4471770837","","0.8","0.4","0.2","0.6","","","","","0.6781732273","0.06963745108","0.4471770837","0.5658285383","","","","","","","","","","75","K","2","","","175","main_expt",""
"","bandit","255","755126","0.0-217.0-0.0","62690468","wem/bandit_party_2","A3NMQ3019X6YE0","either","7","524","","","","","","","0","0","1","0.5162211083","","0.8","0.4","0.2","0.6","","","","","0.6932650799","0.07897043431","0.5162211083","0.5313506173","","","","","","","","","","75","K","2","","","176","main_expt",""
"","bandit","256","757277","0.0-218.0-0.0","62690468","wem/bandit_party_2","A3NMQ3019X6YE0","either","7","606","","","","","","","0","0","1","0.4231289234","","0.8","0.4","0.2","0.6","","","","","0.6803850572","0.09469685393","0.6372676231","0.4231289234","","","","","","","","","","76","L","3","","","177","main_expt",""
"","bandit","257","759093","0.0-219.0-0.0","62690468","wem/bandit_party_2","A3NMQ3019X6YE0","either","7","262","","","","","","","0","1","0","","0.6295749113","0.8","0.4","0.2","0.6","0.5407017663","0.1486386852","0.6295749113","0.580807006","","","","","","","","","","","","","","75","K","2","","","178","main_expt",""
"","bandit","258","761096","0.0-220.0-0.0","62690468","wem/bandit_party_2","A3NMQ3019X6YE0","either","7","456","","","","","","","0","0","1","","0.4126066341","0.8","0.4","0.2","0.6","0.5931576708","0.1965095934","0.4126066341","0.5499948007","","","","","","","","","","","","","","75","K","2","","","179","main_expt",""
"","bandit","259","763061","0.0-221.0-0.0","62690468","wem/bandit_party_2","A3NMQ3019X6YE0","either","7","417","","","","","","","0","0","1","","0.516991344","0.8","0.4","0.2","0.6","0.5390819372","0.1749048096","0.516991344","0.4918200669","","","","","","","","","","","","","","75","K","2","","","180","main_expt",""
"","bandit","260","765115","0.0-222.0-0.0","62690468","wem/bandit_party_2","A3NMQ3019X6YE0","either","7","494","","","","","","","0","0","1","","0.4239603033","0.8","0.4","0.2","0.6","0.4929910299","0.232896561","0.4239603033","0.5428702931","","","","","","","","","","","","","","75","K","2","","","181","main_expt",""
"","bandit","261","766976","0.0-223.0-0.0","62690468","wem/bandit_party_2","A3NMQ3019X6YE0","either","7","306","","","","","","","0","0","1","0.458433212","","0.8","0.4","0.2","0.6","","","","","0.458433212","0.2561822725","0.3961891141","0.5870547156","","","","","","","","","","72","H","0","img/none_selected.jpg","","182","main_expt",""
"","bandit","262","768960","0.0-224.0-0.0","62690468","wem/bandit_party_2","A3NMQ3019X6YE0","either","7","436","","","","","","","0","0","1","0.5725449786","","0.8","0.4","0.2","0.6","","","","","0.5725449786","0.2713883962","0.4364601233","0.5031908535","","","","","","","","","","72","H","0","img/none_selected.jpg","","183","main_expt",""
"","bandit","263","770844","0.0-225.0-0.0","62690468","wem/bandit_party_2","A3NMQ3019X6YE0","either","7","330","","","","","","","1","0","0","0.3543557679","","0.8","0.4","0.2","0.6","","","","","0.4878383732","0.3543557679","0.4826964198","0.4239978994","","","","","","","","","","74","J","1","","","184","main_expt",""
"","bandit","264","772778","0.0-226.0-0.0","62690468","wem/bandit_party_2","A3NMQ3019X6YE0","either","7","379","","","","","","","0","0","1","","0.2974533566","0.8","0.4","0.2","0.6","0.5189350158","0.2974533566","0.4448789548","0.3425545299","","","","","","","","","","","","","","74","J","1","","","185","main_expt",""
"","bandit","265","774680","0.0-227.0-0.0","62690468","wem/bandit_party_2","A3NMQ3019X6YE0","either","7","354","","","","","","","0","0","1","","0.3295130888","0.8","0.4","0.2","0.6","0.4310300585","0.3295130888","0.4585835861","0.2594221554","","","","","","","","","","","","","","74","J","1","","","186","main_expt",""
"","bandit","266","776575","0.0-228.0-0.0","62690468","wem/bandit_party_2","A3NMQ3019X6YE0","either","7","356","","","","","","","0","0","1","0.3440574025","","0.8","0.4","0.2","0.6","","","","","0.4005994516","0.3440574025","0.5470412386","0.350747246","","","","","","","","","","74","J","1","","","187","main_expt",""
"","bandit","267","778580","0.0-229.0-0.0","62690468","wem/bandit_party_2","A3NMQ3019X6YE0","either","7","447","","","","","","","0","0","1","","0.3667816541","0.8","0.4","0.2","0.6","0.5684333967","0.3176863717","0.5485419855","0.3667816541","","","","","","","","","","","","","","76","L","3","","","188","main_expt",""
"","bandit","268","780460","0.0-230.0-0.0","62690468","wem/bandit_party_2","A3NMQ3019X6YE0","either","7","335","","","","","","","1","0","0","0.3129240978","","0.8","0.4","0.2","0.6","","","","","0.5768443477","0.3194332301","0.6161015427","0.3129240978","","","","","","","","","","76","L","3","","","189","main_expt",""
"","bandit","269","782377","0.0-231.0-0.0","62690468","wem/bandit_party_2","A3NMQ3019X6YE0","either","7","375","","","","","","","0","0","1","0.3681084497","","0.8","0.4","0.2","0.6","","","","","0.6091254975","0.3585260795","0.5145576236","0.3681084497","","","","","","","","","","76","L","3","","","190","main_expt",""
"","bandit","270","784259","0.0-232.0-0.0","62690468","wem/bandit_party_2","A3NMQ3019X6YE0","either","7","332","","","","","","","0","0","1","","0.3284994938","0.8","0.4","0.2","0.6","0.6355225437","0.4438822556","0.4447609651","0.3284994938","","","","","","","","","","","","","","76","L","3","","","191","main_expt",""
"","bandit","271","785961","0.0-233.0-0.0","62690468","wem/bandit_party_2","A3NMQ3019X6YE0","either","7","150","","","","","","","0","0","1","0.2913335268","","0.8","0.4","0.2","0.6","","","","","0.7449996868","0.6336907385","0.4273979598","0.2913335268","","","","","","","","","","76","L","3","","","192","main_expt",""
"","bandit","272","787961","0.0-234.0-0.0","62690468","wem/bandit_party_2","A3NMQ3019X6YE0","either","7","458","","","","","","","0","1","0","","0.3614904019","0.8","0.4","0.2","0.6","0.7645281636","0.5871300795","0.4382354048","0.3614904019","","","","","","","","","","","","","","76","L","3","","","193","main_expt",""
"","bandit","273","790230","0.0-235.0-0.0","62690468","wem/bandit_party_2","A3NMQ3019X6YE0","either","7","710","","","","","","","0","0","1","0.4180963095","","0.8","0.4","0.2","0.6","","","","","0.7417458559","0.5919999684","0.4367950698","0.4180963095","","","","","","","","","","76","L","3","","","194","main_expt",""
"","bandit","274","792446","0.0-236.0-0.0","62690468","wem/bandit_party_2","A3NMQ3019X6YE0","either","7","659","","","","","","","0","0","1","","0.4129416526","0.8","0.4","0.2","0.6","0.7102393491","0.5599221581","0.4306922929","0.4129416526","","","","","","","","","","","","","","76","L","3","","","195","main_expt",""
"","bandit","275","794628","0.0-237.0-0.0","62690468","wem/bandit_party_2","A3NMQ3019X6YE0","either","7","638","","","","","","","1","0","0","0.6846894693","","0.8","0.4","0.2","0.6","","","","","0.6846894693","0.4552797342","0.4436260943","0.6027995291","","","","","","","","","","72","H","0","img/none_selected.jpg","","196","main_expt",""
"","bandit","276","796627","0.0-238.0-0.0","62690468","wem/bandit_party_2","A3NMQ3019X6YE0","either","7","449","","","","","","","1","0","0","0.6573901597","","0.8","0.4","0.2","0.6","","","","","0.6573901597","0.3045440077","0.4547077395","0.6174547511","","","","","","","","","","72","H","0","img/none_selected.jpg","","197","main_expt",""
"","bandit","277","798559","0.0-239.0-0.0","62690468","wem/bandit_party_2","A3NMQ3019X6YE0","either","7","383","","","","","","","0","0","1","0.7020762336","","0.8","0.4","0.2","0.6","","","","","0.7020762336","0.4061180554","0.545148617","0.5727893511","","","","","","","","","","72","H","0","img/none_selected.jpg","","198","main_expt",""
"","bandit","278","800493","0.0-240.0-0.0","62690468","wem/bandit_party_2","A3NMQ3019X6YE0","either","7","387","","","","","","","1","0","0","0.7749867965","","0.8","0.4","0.2","0.6","","","","","0.7749867965","0.3406873398","0.5838562778","0.5803616598","","","","","","","","","","72","H","0","img/none_selected.jpg","","199","main_expt",""
"","bandit","279","802412","0.0-241.0-0.0","62690468","wem/bandit_party_2","A3NMQ3019X6YE0","either","7","368","","","","","","","1","0","0","0.7971262248","","0.8","0.4","0.2","0.6","","","","","0.7971262248","0.2810551981","0.6569131065","0.5109940584","","","","","","","","","","72","H","0","img/none_selected.jpg","","200","main_expt",""
"","bandit","280","804410","0.0-242.0-0.0","62690468","wem/bandit_party_2","A3NMQ3019X6YE0","either","7","452","","","","","","","0","0","1","0.6431063495","","0.8","0.4","0.2","0.6","","","","","0.6431063495","0.2295892347","0.6559739125","0.444158281","","","","","","","","","","72","H","0","img/none_selected.jpg","","201","main_expt",""
"","bandit","281","806281","0.0-243.0-0.0","62690468","wem/bandit_party_2","A3NMQ3019X6YE0","either","7","321","","","","","","","0","1","0","","0.6153479028","0.8","0.4","0.2","0.6","0.6153479028","0.2134833186","0.5940698896","0.3774362348","","","","","","","","","","","","","","72","H","0","img/none_selected.jpg","","202","main_expt",""
"","bandit","282","808192","0.0-244.0-0.0","62690468","wem/bandit_party_2","A3NMQ3019X6YE0","either","7","363","","","","","","","1","0","0","0.6107921693","","0.8","0.4","0.2","0.6","","","","","0.6107921693","0.1538434825","0.6288005559","0.2852638898","","","","","","","","","","72","H","0","img/none_selected.jpg","","203","main_expt",""
"","bandit","283","810178","0.0-245.0-0.0","62690468","wem/bandit_party_2","A3NMQ3019X6YE0","either","7","435","","","","","","","0","0","1","0.6364312764","","0.8","0.4","0.2","0.6","","","","","0.6364312764","0.08629221539","0.7483345684","0.3900316507","","","","","","","","","","72","H","0","img/none_selected.jpg","","204","main_expt",""
"","bandit","284","812129","0.0-246.0-0.0","62690468","wem/bandit_party_2","A3NMQ3019X6YE0","either","7","399","","","","","","","1","0","0","0.7098325313","","0.8","0.4","0.2","0.6","","","","","0.7098325313","0.1303029892","0.7823609999","0.3334674042","","","","","","","","","","72","H","0","img/none_selected.jpg","","205","main_expt",""
"","bandit","285","814027","0.0-247.0-0.0","62690468","wem/bandit_party_2","A3NMQ3019X6YE0","either","7","343","","","","","","","0","1","0","","0.6423198407","0.8","0.4","0.2","0.6","0.6423198407","0.1290793888","0.7053347691","0.3997779834","","","","","","","","","","","","","","72","H","0","img/none_selected.jpg","","206","main_expt",""
"","bandit","286","815913","0.0-248.0-0.0","62690468","wem/bandit_party_2","A3NMQ3019X6YE0","either","7","326","","","","","","","1","0","0","0.7196337679","","0.8","0.4","0.2","0.6","","","","","0.7196337679","0.1471003053","0.692958529","0.2791746034","","","","","","","","","","72","H","0","img/none_selected.jpg","","207","main_expt",""
"","bandit","287","817959","0.0-249.0-0.0","62690468","wem/bandit_party_2","A3NMQ3019X6YE0","either","7","504","","","","","","","1","0","0","0.7273253538","","0.8","0.4","0.2","0.6","","","","","0.7273253538","0.1204476287","0.5726600787","0.3447420344","","","","","","","","","","72","H","0","img/none_selected.jpg","","208","main_expt",""
"","bandit","288","820210","0.0-250.0-0.0","62690468","wem/bandit_party_2","A3NMQ3019X6YE0","either","7","702","","","","","","","0","0","1","","0.7701678217","0.8","0.4","0.2","0.6","0.7701678217","0.1752658923","0.7193759884","0.2106944101","","","","","","","","","","","","","","72","H","0","img/none_selected.jpg","","209","main_expt",""
"","bandit","289","822227","0.0-251.0-0.0","62690468","wem/bandit_party_2","A3NMQ3019X6YE0","either","7","464","","","","","","","0","0","1","","0.7673062315","0.8","0.4","0.2","0.6","0.7673062315","0.2071456167","0.5469619257","0.2609791638","","","","","","","","","","","","","","72","H","0","img/none_selected.jpg","","210","main_expt",""
"","bandit","290","824278","0.0-252.0-0.0","62690468","wem/bandit_party_2","A3NMQ3019X6YE0","either","7","501","","","","","","","1","0","0","0.7733207599","","0.8","0.4","0.2","0.6","","","","","0.7733207599","0.1982577311","0.5432746348","0.3702243554","","","","","","","","","","72","H","0","img/none_selected.jpg","","211","main_expt",""
"","bandit","291","826345","0.0-253.0-0.0","62690468","wem/bandit_party_2","A3NMQ3019X6YE0","either","7","517","","","","","","","0","1","0","","0.7176010575","0.8","0.4","0.2","0.6","0.7176010575","0.2837026457","0.4857525371","0.4070014152","","","","","","","","","","","","","","72","H","0","img/none_selected.jpg","","212","main_expt",""
"","bandit","292","828443","0.0-254.0-0.0","62690468","wem/bandit_party_2","A3NMQ3019X6YE0","either","7","542","","","","","","","1","0","0","0.7241732444","","0.8","0.4","0.2","0.6","","","","","0.7241732444","0.2192955177","0.4416723402","0.5001351259","","","","","","","","","","72","H","0","img/none_selected.jpg","","213","main_expt",""
"","bandit","293","830627","0.0-255.0-0.0","62690468","wem/bandit_party_2","A3NMQ3019X6YE0","either","7","630","","","","","","","0","0","1","","0.6696022014","0.8","0.4","0.2","0.6","0.6696022014","0.2885853396","0.4231083207","0.5667049056","","","","","","","","","","","","","","72","H","0","img/none_selected.jpg","","214","main_expt",""
"","bandit","294","833026","0.0-256.0-0.0","62690468","wem/bandit_party_2","A3NMQ3019X6YE0","either","7","840","","","","","","","0","0","1","","0.6255990046","0.8","0.4","0.2","0.6","0.6255990046","0.2451296471","0.329019478","0.5259574602","","","","","","","","","","","","","","72","H","0","img/none_selected.jpg","","215","main_expt",""
"","bandit","295","835012","0.0-257.0-0.0","62690468","wem/bandit_party_2","A3NMQ3019X6YE0","either","7","439","","","","","","","0","0","1","0.6771362935","","0.8","0.4","0.2","0.6","","","","","0.6771362935","0.1946790852","0.3469743373","0.5468860011","","","","","","","","","","72","H","0","img/none_selected.jpg","","216","main_expt",""
"","bandit","296","837092","0.0-258.0-0.0","62690468","wem/bandit_party_2","A3NMQ3019X6YE0","either","7","535","","","","","","","1","0","0","0.6918953154","","0.8","0.4","0.2","0.6","","","","","0.6918953154","0.2497229096","0.3618740044","0.6182745027","","","","","","","","","","72","H","0","img/none_selected.jpg","","217","main_expt",""
"","bandit","297","839177","0.0-259.0-0.0","62690468","wem/bandit_party_2","A3NMQ3019X6YE0","either","7","526","","","","","","","1","0","0","0.5726390237","","0.8","0.4","0.2","0.6","","","","","0.5726390237","0.3076421025","0.3574217595","0.5979125128","","","","","","","","","","72","H","0","img/none_selected.jpg","","218","main_expt",""
"","bandit","298","841226","0.0-260.0-0.0","62690468","wem/bandit_party_2","A3NMQ3019X6YE0","either","7","506","","","","","","","0","0","1","0.5179196303","","0.8","0.4","0.2","0.6","","","","","0.5179196303","0.3488941347","0.3862686792","0.5321687475","","","","","","","","","","72","H","0","img/none_selected.jpg","","219","main_expt",""
"","bandit","299","843211","0.0-261.0-0.0","62690468","wem/bandit_party_2","A3NMQ3019X6YE0","either","7","432","","","","","","","0","1","0","","0.5578222379","0.8","0.4","0.2","0.6","0.5578222379","0.306784001","0.4432846828","0.6053830099","","","","","","","","","","","","","","72","H","0","img/none_selected.jpg","","220","main_expt",""
"","bandit","300","845259","0.0-262.0-0.0","62690468","wem/bandit_party_2","A3NMQ3019X6YE0","either","7","497","","","","","","","1","0","0","0.6640911266","","0.8","0.4","0.2","0.6","","","","","0.6640911266","0.3786925452","0.432499938","0.69383498","","","","","","","","","","72","H","0","img/none_selected.jpg","","221","main_expt",""
"","bandit","301","847327","0.0-263.0-0.0","62690468","wem/bandit_party_2","A3NMQ3019X6YE0","either","7","517","","","","","","","0","0","1","0.7340686256","","0.8","0.4","0.2","0.6","","","","","0.7340686256","0.5014801557","0.4050903391","0.783375317","","","","","","","","","","72","H","0","img/none_selected.jpg","","222","main_expt",""
"","bandit","302","849280","0.0-264.0-0.0","62690468","wem/bandit_party_2","A3NMQ3019X6YE0","either","7","405","","","","","","","1","0","0","0.852862777","","0.8","0.4","0.2","0.6","","","","","0.852862777","0.4081704387","0.3282593462","0.8374489269","","","","","","","","","","72","H","0","img/none_selected.jpg","","223","main_expt",""
"","bandit","303","851277","0.0-265.0-0.0","62690468","wem/bandit_party_2","A3NMQ3019X6YE0","either","7","438","","","","","","","1","0","0","0.7830506485","","0.8","0.4","0.2","0.6","","","","","0.7830506485","0.422296693","0.2465370002","0.7801262993","","","","","","","","","","72","H","0","img/none_selected.jpg","","224","main_expt",""
"","bandit","304","853449","0.0-266.0-0.0","62690468","wem/bandit_party_2","A3NMQ3019X6YE0","either","7","621","","","","","","","1","0","0","0.7447555501","","0.8","0.4","0.2","0.6","","","","","0.7447555501","0.3998144739","0.2260872052","0.7438235551","","","","","","","","","","72","H","0","img/none_selected.jpg","","225","main_expt",""
"","bandit","305","855477","0.0-267.0-0.0","62690468","wem/bandit_party_2","A3NMQ3019X6YE0","either","7","472","","","","","","","1","0","0","0.7331719472","","0.8","0.4","0.2","0.6","","","","","0.7331719472","0.2692780115","0.2573895518","0.7561714458","","","","","","","","","","72","H","0","img/none_selected.jpg","","226","main_expt",""
"","bandit","306","857395","0.0-268.0-0.0","62690468","wem/bandit_party_2","A3NMQ3019X6YE0","either","7","358","","","","","","","0","0","1","0.6417259928","","0.8","0.4","0.2","0.6","","","","","0.6417259928","0.268728261","0.2134597582","0.7527106072","","","","","","","","","","72","H","0","img/none_selected.jpg","","227","main_expt",""
"","bandit","307","859692","0.0-269.0-0.0","62690468","wem/bandit_party_2","A3NMQ3019X6YE0","either","7","749","","","","","","","1","0","0","0.6050549784","","0.8","0.4","0.2","0.6","","","","","0.6050549784","0.2211951924","0.348479141","0.6315627418","","","","","","","","","","72","H","0","img/none_selected.jpg","","228","main_expt",""
"","bandit","308","861611","0.0-270.0-0.0","62690468","wem/bandit_party_2","A3NMQ3019X6YE0","either","7","364","","","","","","","1","0","0","0.5962230341","","0.8","0.4","0.2","0.6","","","","","0.5962230341","0.219241791","0.3250735223","0.5564086662","","","","","","","","","","72","H","0","img/none_selected.jpg","","229","main_expt",""
"","bandit","309","863592","0.0-271.0-0.0","62690468","wem/bandit_party_2","A3NMQ3019X6YE0","either","7","429","","","","","","","1","0","0","0.5594933722","","0.8","0.4","0.2","0.6","","","","","0.5594933722","0.291585141","0.3395219718","0.5895813861","","","","","","","","","","72","H","0","img/none_selected.jpg","","230","main_expt",""
"","bandit","310","865962","0.0-272.0-0.0","62690468","wem/bandit_party_2","A3NMQ3019X6YE0","either","7","816","","","","","","","0","0","1","","0.6411036761","0.8","0.4","0.2","0.6","0.6411036761","0.2754541949","0.3315483329","0.6148213975","","","","","","","","","","","","","","72","H","0","img/none_selected.jpg","","231","main_expt",""
"","bandit","311","867993","0.0-273.0-0.0","62690468","wem/bandit_party_2","A3NMQ3019X6YE0","either","7","478","","","","","","","0","1","0","","0.6653930637","0.8","0.4","0.2","0.6","0.6653930637","0.3055336503","0.3876030756","0.5176988489","","","","","","","","","","","","","","72","H","0","img/none_selected.jpg","","232","main_expt",""
"","bandit","312","869944","0.0-274.0-0.0","62690468","wem/bandit_party_2","A3NMQ3019X6YE0","either","7","380","","","","","","","1","0","0","0.5426719569","","0.8","0.4","0.2","0.6","","","","","0.5426719569","0.3390100853","0.3696248546","0.4505666118","","","","","","","","","","72","H","0","img/none_selected.jpg","","233","main_expt",""
"","bandit","313","872192","0.0-275.0-0.0","62690468","wem/bandit_party_2","A3NMQ3019X6YE0","either","7","696","","","","","","","1","0","0","0.5581360181","","0.8","0.4","0.2","0.6","","","","","0.5581360181","0.3165323161","0.3927474605","0.4393496879","","","","","","","","","","72","H","0","img/none_selected.jpg","","234","main_expt",""
"","bandit","314","874360","0.0-276.0-0.0","62690468","wem/bandit_party_2","A3NMQ3019X6YE0","either","7","618","","","","","","","0","0","1","","0.5299247183","0.8","0.4","0.2","0.6","0.5299247183","0.2944333127","0.4734072524","0.3542725407","","","","","","","","","","","","","","72","H","0","img/none_selected.jpg","","235","main_expt",""
"","bandit","315","876777","0.0-277.0-0.0","62690468","wem/bandit_party_2","A3NMQ3019X6YE0","either","7","869","","","","","","","1","0","0","0.4709954077","","0.8","0.4","0.2","0.6","","","","","0.4709954077","0.4127469632","0.5857320117","0.452511288","","","","","","","","","","72","H","0","img/none_selected.jpg","","236","main_expt",""
