"consent","trial_type","trial_index","time_elapsed","internal_node_id","subjID","study","MID","cond","drift","rt","responses","button_pressed","key_press","like","value","connected","gems","bombs","no_reward","GemPrChosen","BombPrChosen","GainOverPainPr_0","GainOverPainPr_1","GainOverPainPr_2","GainOverPainPr_3","LosePr_0","LosePr_1","LosePr_2","LosePr_3","WinPr_0","WinPr_1","WinPr_2","WinPr_3","Q0","Q1","Q2","gender","age","ethnicity","label","expt_phase","target","respCharCode","respKey","respChoiceNum","respChoice","practice","trial_counter","trial_label","Q0_index"
"GDM/GDM_behavioral_consent_30min_online.html","consent","0","12741","0.0-0.0","63053126","wem/bandit_party_2","A2TG7EEQ2XG2IK","either","3","","","","","","","","","","","","","","","","","","","","","","","","","","","","","","","","","","","","","","","","",""
"","survey-text","1","18946","0.0-1.0","63053126","wem/bandit_party_2","A2TG7EEQ2XG2IK","either","3","5179","{""Q0"":""A2TG7EEQ2XG2IK""}","","","","","","","","","","","","","","","","","","","","","","","","","","","","","","","","","","","","","","",""
"","button-response","2","23272","0.0-2.0","63053126","wem/bandit_party_2","A2TG7EEQ2XG2IK","either","3","3303","","1","","","","","","","","","","","","","","","","","","","","","","","","","","","","","","","","","","","","","",""
"","text-replacement","3","40937","0.0-3.0","63053126","wem/bandit_party_2","A2TG7EEQ2XG2IK","either","3","16654","","","32","","","","","","","","","","","","","","","","","","","","","","","","","","","","","","","","","","","","",""
"","text-replacement","4","56718","0.0-4.0","63053126","wem/bandit_party_2","A2TG7EEQ2XG2IK","either","3","15773","","","32","","","","","","","","","","","","","","","","","","","","","","","","","","","","","","","","","","","","",""
"","identification","5","65485","0.0-6.0-0.0","63053126","wem/bandit_party_2","A2TG7EEQ2XG2IK","either","3","8710","","","","5","5","4","","","","","","","","","","","","","","","","","","","","","","","","pre","identification_pre","the Democratic Party","","","","","","","",""
"","identification","6","75195","0.0-6.0-1.0","63053126","wem/bandit_party_2","A2TG7EEQ2XG2IK","either","3","8656","","","","1","2","1","","","","","","","","","","","","","","","","","","","","","","","","pre","identification_pre","the Republican Party","","","","","","","",""
"","text-replacement","7","103789","0.0-7.0","63053126","wem/bandit_party_2","A2TG7EEQ2XG2IK","either","3","27582","","","32","","","","","","","","","","","","","","","","","","","","","","","","","","","","","","","","","","","","",""
"","text-replacement","8","117586","0.0-8.0","63053126","wem/bandit_party_2","A2TG7EEQ2XG2IK","either","3","13790","","","32","","","","","","","","","","","","","","","","","","","","","","","","","","","","","","","","","","","","",""
"","text-replacement","9","130982","0.0-9.0","63053126","wem/bandit_party_2","A2TG7EEQ2XG2IK","either","3","13388","","","32","","","","","","","","","","","","","","","","","","","","","","","","","","","","","","","","","","","","",""
"","text-replacement","10","138617","0.0-10.0","63053126","wem/bandit_party_2","A2TG7EEQ2XG2IK","either","3","7627","","","32","","","","","","","","","","","","","","","","","","","","","","","","","","","","","","","","","","","","",""
"","text-replacement","11","146660","0.0-11.0","63053126","wem/bandit_party_2","A2TG7EEQ2XG2IK","either","3","8037","","","32","","","","","","","","","","","","","","","","","","","","","","","","","","","","","","","","","","","","",""
"","bandit","12","150445","0.0-12.0-0.0","63053126","wem/bandit_party_2","A2TG7EEQ2XG2IK","either","3","2253","","","","","","","0","0","1","0","0","","","","","0","","","","0","","","","","","","","","","","","","74","J","0","img/none_selected_demo.jpg","true","0","",""
"","bandit","13","153563","0.0-13.0-0.0","63053126","wem/bandit_party_2","A2TG7EEQ2XG2IK","either","3","1594","","","","","","","0","0","1","0","0","","","","","0","","","","0","","","","","","","","","","","","","75","K","0","img/none_selected_demo.jpg","true","0","",""
"","text-replacement","14","196865","0.0-14.0","63053126","wem/bandit_party_2","A2TG7EEQ2XG2IK","either","3","43296","","","32","","","","","","","","","","","","","","","","","","","","","","","","","","","","","","","","","","","","",""
"","text-replacement","15","208872","0.0-15.0","63053126","wem/bandit_party_2","A2TG7EEQ2XG2IK","either","3","11999","","","32","","","","","","","","","","","","","","","","","","","","","","","","","","","","","","","","","","","","",""
"","text-replacement","16","216854","0.0-16.0","63053126","wem/bandit_party_2","A2TG7EEQ2XG2IK","either","3","7974","","","32","","","","","","","","","","","","","","","","","","","","","","","","","","","","","","","","","","","","",""
"","text-replacement","17","225079","0.0-17.0","63053126","wem/bandit_party_2","A2TG7EEQ2XG2IK","either","3","8220","","","32","","","","","","","","","","","","","","","","","","","","","","","","","","","","","","","","","","","","",""
"","bandit","18","227950","0.0-18.0-0.0","63053126","wem/bandit_party_2","A2TG7EEQ2XG2IK","either","3","1356","","","","","","","1","0","0","0.8","","0.5","0.5","","","","","","","0.8","0.2","","","","","","","","","","","","74","J","0","img/none_selected_demo.jpg","true","0","80_20_practice",""
"","bandit","19","231031","0.0-18.0-1.0","63053126","wem/bandit_party_2","A2TG7EEQ2XG2IK","either","3","1561","","","","","","","1","0","0","0.8","","0.5","0.5","","","","","","","0.8","0.2","","","","","","","","","","","","74","J","0","img/none_selected_demo.jpg","true","0","80_20_practice",""
"","bandit","20","233767","0.0-18.0-2.0","63053126","wem/bandit_party_2","A2TG7EEQ2XG2IK","either","3","1216","","","","","","","0","0","1","","0.2","0.5","0.5","","","0.8","0.2","","","","","","","","","","","","","","","","75","K","1","","true","0","80_20_practice",""
"","bandit","21","236350","0.0-18.0-3.0","63053126","wem/bandit_party_2","A2TG7EEQ2XG2IK","either","3","1067","","","","","","","0","0","1","","0.2","0.5","0.5","","","0.8","0.2","","","","","","","","","","","","","","","","75","K","1","","true","0","80_20_practice",""
"","bandit","22","238700","0.0-18.0-4.0","63053126","wem/bandit_party_2","A2TG7EEQ2XG2IK","either","3","835","","","","","","","0","0","1","","0.2","0.5","0.5","","","0.8","0.2","","","","","","","","","","","","","","","","75","K","1","","true","0","80_20_practice",""
"","bandit","23","241057","0.0-18.0-5.0","63053126","wem/bandit_party_2","A2TG7EEQ2XG2IK","either","3","843","","","","","","","1","0","0","0.8","","0.5","0.5","","","","","","","0.8","0.2","","","","","","","","","","","","74","J","0","img/none_selected_demo.jpg","true","0","80_20_practice",""
"","bandit","24","244227","0.0-18.0-6.0","63053126","wem/bandit_party_2","A2TG7EEQ2XG2IK","either","3","1624","","","","","","","1","0","0","0.8","","0.5","0.5","","","","","","","0.8","0.2","","","","","","","","","","","","74","J","0","img/none_selected_demo.jpg","true","0","80_20_practice",""
"","bandit","25","246427","0.0-18.0-7.0","63053126","wem/bandit_party_2","A2TG7EEQ2XG2IK","either","3","683","","","","","","","1","0","0","0.8","","0.5","0.5","","","","","","","0.8","0.2","","","","","","","","","","","","74","J","0","img/none_selected_demo.jpg","true","0","80_20_practice",""
"","bandit","26","248932","0.0-18.0-8.0","63053126","wem/bandit_party_2","A2TG7EEQ2XG2IK","either","3","990","","","","","","","0","0","1","0.8","","0.5","0.5","","","","","","","0.8","0.2","","","","","","","","","","","","74","J","0","img/none_selected_demo.jpg","true","0","80_20_practice",""
"","bandit","27","251132","0.0-18.0-9.0","63053126","wem/bandit_party_2","A2TG7EEQ2XG2IK","either","3","684","","","","","","","0","1","0","","0.8","0.5","0.5","","","0.8","0.2","","","","","","","","","","","","","","","","74","J","0","img/none_selected_demo.jpg","true","0","80_20_practice",""
"","bandit","28","254301","0.0-18.0-10.0","63053126","wem/bandit_party_2","A2TG7EEQ2XG2IK","either","3","1639","","","","","","","0","1","0","","0.8","0.5","0.5","","","0.8","0.2","","","","","","","","","","","","","","","","74","J","0","img/none_selected_demo.jpg","true","0","80_20_practice",""
"","bandit","29","256674","0.0-18.0-11.0","63053126","wem/bandit_party_2","A2TG7EEQ2XG2IK","either","3","851","","","","","","","1","0","0","0.8","","0.5","0.5","","","","","","","0.8","0.2","","","","","","","","","","","","74","J","0","img/none_selected_demo.jpg","true","0","80_20_practice",""
"","bandit","30","258652","0.0-18.0-12.0","63053126","wem/bandit_party_2","A2TG7EEQ2XG2IK","either","3","463","","","","","","","1","0","0","0.8","","0.5","0.5","","","","","","","0.8","0.2","","","","","","","","","","","","74","J","0","img/none_selected_demo.jpg","true","0","80_20_practice",""
"","bandit","31","262781","0.0-18.0-13.0","63053126","wem/bandit_party_2","A2TG7EEQ2XG2IK","either","3","2611","","","","","","","0","0","1","0.8","","0.5","0.5","","","","","","","0.8","0.2","","","","","","","","","","","","74","J","0","img/none_selected_demo.jpg","true","0","80_20_practice",""
"","bandit","32","264932","0.0-18.0-14.0","63053126","wem/bandit_party_2","A2TG7EEQ2XG2IK","either","3","625","","","","","","","0","0","1","","0.8","0.5","0.5","","","0.8","0.2","","","","","","","","","","","","","","","","74","J","0","img/none_selected_demo.jpg","true","0","80_20_practice",""
"","bandit","33","267221","0.0-18.0-15.0","63053126","wem/bandit_party_2","A2TG7EEQ2XG2IK","either","3","763","","","","","","","0","1","0","","0.8","0.5","0.5","","","0.8","0.2","","","","","","","","","","","","","","","","74","J","0","img/none_selected_demo.jpg","true","0","80_20_practice",""
"","bandit","34","269504","0.0-18.0-16.0","63053126","wem/bandit_party_2","A2TG7EEQ2XG2IK","either","3","762","","","","","","","0","0","1","","0.8","0.5","0.5","","","0.8","0.2","","","","","","","","","","","","","","","","74","J","0","img/none_selected_demo.jpg","true","0","80_20_practice",""
"","bandit","35","271588","0.0-18.0-17.0","63053126","wem/bandit_party_2","A2TG7EEQ2XG2IK","either","3","566","","","","","","","1","0","0","0.8","","0.5","0.5","","","","","","","0.8","0.2","","","","","","","","","","","","74","J","0","img/none_selected_demo.jpg","true","0","80_20_practice",""
"","bandit","36","273723","0.0-18.0-18.0","63053126","wem/bandit_party_2","A2TG7EEQ2XG2IK","either","3","621","","","","","","","1","0","0","0.8","","0.5","0.5","","","","","","","0.8","0.2","","","","","","","","","","","","74","J","0","img/none_selected_demo.jpg","true","0","80_20_practice",""
"","bandit","37","275298","0.0-18.0-19.0","63053126","wem/bandit_party_2","A2TG7EEQ2XG2IK","either","3","56","","","","","","","1","0","0","0.8","","0.5","0.5","","","","","","","0.8","0.2","","","","","","","","","","","","74","J","0","img/none_selected_demo.jpg","true","0","80_20_practice",""
"","text-replacement","38","285172","0.0-19.0","63053126","wem/bandit_party_2","A2TG7EEQ2XG2IK","either","3","9865","","","32","","","","","","","","","","","","","","","","","","","","","","","","","","","","","","","","","","","","",""
"","bandit","39","288591","0.0-20.0-0.0","63053126","wem/bandit_party_2","A2TG7EEQ2XG2IK","either","3","1898","","","","","","","1","0","0","1","0","","","","","0","1","","","1","0","","","","","","","","","","","","74","J","0","img/none_selected_demo.jpg","true","0","",""
"","text-replacement","40","304181","0.0-21.0","63053126","wem/bandit_party_2","A2TG7EEQ2XG2IK","either","3","15580","","","32","","","","","","","","","","","","","","","","","","","","","","","","","","","","","","","","","","","","",""
"","text-replacement","41","322022","0.0-22.0","63053126","wem/bandit_party_2","A2TG7EEQ2XG2IK","either","3","17833","","","32","","","","","","","","","","","","","","","","","","","","","","","","","","","","","","","","","","","","",""
"","text-replacement","42","331136","0.0-23.0","63053126","wem/bandit_party_2","A2TG7EEQ2XG2IK","either","3","9106","","","32","","","","","","","","","","","","","","","","","","","","","","","","","","","","","","","","","","","","",""
"","text-replacement","43","436888","0.0-24.0","63053126","wem/bandit_party_2","A2TG7EEQ2XG2IK","either","3","105746","","","32","","","","","","","","","","","","","","","","","","","","","","","","","","","","","","","","","","","","",""
"","text-replacement","44","771352","0.0-25.0","63053126","wem/bandit_party_2","A2TG7EEQ2XG2IK","either","3","334458","","","32","","","","","","","","","","","","","","","","","","","","","","","","","","","","","","","","","","","","",""
"","text-replacement","45","777268","0.0-26.0","63053126","wem/bandit_party_2","A2TG7EEQ2XG2IK","either","3","5909","","","32","","","","","","","","","","","","","","","","","","","","","","","","","","","","","","","","","","","","",""
"","text-replacement","46","780918","0.0-27.0","63053126","wem/bandit_party_2","A2TG7EEQ2XG2IK","either","3","3641","","","32","","","","","","","","","","","","","","","","","","","","","","","","","","","","","","","","","","","","",""
"","text-replacement","47","786654","0.0-28.0","63053126","wem/bandit_party_2","A2TG7EEQ2XG2IK","either","3","5730","","","32","","","","","","","","","","","","","","","","","","","","","","","","","","","","","","","","","","","","",""
"","text-replacement","48","794059","0.0-29.0","63053126","wem/bandit_party_2","A2TG7EEQ2XG2IK","either","3","7399","","","32","","","","","","","","","","","","","","","","","","","","","","","","","","","","","","","","","","","","",""
"","text-replacement","49","797596","0.0-30.0","63053126","wem/bandit_party_2","A2TG7EEQ2XG2IK","either","3","3531","","","32","","","","","","","","","","","","","","","","","","","","","","","","","","","","","","","","","","","","",""
"","text-replacement","50","803360","0.0-31.0","63053126","wem/bandit_party_2","A2TG7EEQ2XG2IK","either","3","5758","","","32","","","","","","","","","","","","","","","","","","","","","","","","","","","","","","","","","","","","",""
"","bandit","51","806334","0.0-32.0-0.0","63053126","wem/bandit_party_2","A2TG7EEQ2XG2IK","either","3","1454","","","","","","","0","1","0","","0.8","0.5","0.5","0.5","0.5","0.8","0.2","0.6","0.2","","","","","","","","","","","","","","72","H","0","img/none_selected.jpg","true","0","full_practice",""
"","bandit","52","808963","0.0-32.0-1.0","63053126","wem/bandit_party_2","A2TG7EEQ2XG2IK","either","3","1110","","","","","","","1","0","0","0.8","","0.5","0.5","0.5","0.5","","","","","0.8","0.2","0.6","0.2","","","","","","","","","","72","H","0","img/none_selected.jpg","true","0","full_practice",""
"","bandit","53","811133","0.0-32.0-2.0","63053126","wem/bandit_party_2","A2TG7EEQ2XG2IK","either","3","652","","","","","","","1","0","0","0.8","","0.5","0.5","0.5","0.5","","","","","0.8","0.2","0.6","0.2","","","","","","","","","","72","H","0","img/none_selected.jpg","true","0","full_practice",""
"","bandit","54","813036","0.0-32.0-3.0","63053126","wem/bandit_party_2","A2TG7EEQ2XG2IK","either","3","376","","","","","","","0","1","0","","0.8","0.5","0.5","0.5","0.5","0.8","0.2","0.6","0.2","","","","","","","","","","","","","","72","H","0","img/none_selected.jpg","true","0","full_practice",""
"","bandit","55","814989","0.0-32.0-4.0","63053126","wem/bandit_party_2","A2TG7EEQ2XG2IK","either","3","430","","","","","","","0","1","0","","0.8","0.5","0.5","0.5","0.5","0.8","0.2","0.6","0.2","","","","","","","","","","","","","","72","H","0","img/none_selected.jpg","true","0","full_practice",""
"","bandit","56","817383","0.0-32.0-5.0","63053126","wem/bandit_party_2","A2TG7EEQ2XG2IK","either","3","878","","","","","","","0","1","0","","0.8","0.5","0.5","0.5","0.5","0.8","0.2","0.6","0.2","","","","","","","","","","","","","","72","H","0","img/none_selected.jpg","true","0","full_practice",""
"","bandit","57","819613","0.0-32.0-6.0","63053126","wem/bandit_party_2","A2TG7EEQ2XG2IK","either","3","700","","","","","","","1","0","0","0.8","","0.5","0.5","0.5","0.5","","","","","0.8","0.2","0.6","0.2","","","","","","","","","","72","H","0","img/none_selected.jpg","true","0","full_practice",""
"","bandit","58","821799","0.0-32.0-7.0","63053126","wem/bandit_party_2","A2TG7EEQ2XG2IK","either","3","664","","","","","","","1","0","0","0.8","","0.5","0.5","0.5","0.5","","","","","0.8","0.2","0.6","0.2","","","","","","","","","","72","H","0","img/none_selected.jpg","true","0","full_practice",""
"","bandit","59","824633","0.0-32.0-8.0","63053126","wem/bandit_party_2","A2TG7EEQ2XG2IK","either","3","1320","","","","","","","0","0","1","0.8","","0.5","0.5","0.5","0.5","","","","","0.8","0.2","0.6","0.2","","","","","","","","","","72","H","0","img/none_selected.jpg","true","0","full_practice",""
"","bandit","60","827343","0.0-32.0-9.0","63053126","wem/bandit_party_2","A2TG7EEQ2XG2IK","either","3","1189","","","","","","","1","0","0","0.8","","0.5","0.5","0.5","0.5","","","","","0.8","0.2","0.6","0.2","","","","","","","","","","72","H","0","img/none_selected.jpg","true","0","full_practice",""
"","bandit","61","828876","0.0-32.0-10.0","63053126","wem/bandit_party_2","A2TG7EEQ2XG2IK","either","3","17","","","","","","","1","0","0","0.8","","0.5","0.5","0.5","0.5","","","","","0.8","0.2","0.6","0.2","","","","","","","","","","72","H","0","img/none_selected.jpg","true","0","full_practice",""
"","bandit","62","831554","0.0-32.0-11.0","63053126","wem/bandit_party_2","A2TG7EEQ2XG2IK","either","3","1162","","","","","","","0","1","0","","0.8","0.5","0.5","0.5","0.5","0.8","0.2","0.6","0.2","","","","","","","","","","","","","","72","H","0","img/none_selected.jpg","true","0","full_practice",""
"","bandit","63","833566","0.0-32.0-12.0","63053126","wem/bandit_party_2","A2TG7EEQ2XG2IK","either","3","490","","","","","","","0","0","1","","0.8","0.5","0.5","0.5","0.5","0.8","0.2","0.6","0.2","","","","","","","","","","","","","","72","H","0","img/none_selected.jpg","true","0","full_practice",""
"","bandit","64","835727","0.0-32.0-13.0","63053126","wem/bandit_party_2","A2TG7EEQ2XG2IK","either","3","632","","","","","","","1","0","0","0.8","","0.5","0.5","0.5","0.5","","","","","0.8","0.2","0.6","0.2","","","","","","","","","","72","H","0","img/none_selected.jpg","true","0","full_practice",""
"","bandit","65","837748","0.0-32.0-14.0","63053126","wem/bandit_party_2","A2TG7EEQ2XG2IK","either","3","497","","","","","","","1","0","0","0.8","","0.5","0.5","0.5","0.5","","","","","0.8","0.2","0.6","0.2","","","","","","","","","","72","H","0","img/none_selected.jpg","true","0","full_practice",""
"","bandit","66","839659","0.0-32.0-15.0","63053126","wem/bandit_party_2","A2TG7EEQ2XG2IK","either","3","386","","","","","","","0","0","1","0.8","","0.5","0.5","0.5","0.5","","","","","0.8","0.2","0.6","0.2","","","","","","","","","","72","H","0","img/none_selected.jpg","true","0","full_practice",""
"","bandit","67","841615","0.0-32.0-16.0","63053126","wem/bandit_party_2","A2TG7EEQ2XG2IK","either","3","431","","","","","","","0","1","0","","0.8","0.5","0.5","0.5","0.5","0.8","0.2","0.6","0.2","","","","","","","","","","","","","","72","H","0","img/none_selected.jpg","true","0","full_practice",""
"","bandit","68","843808","0.0-32.0-17.0","63053126","wem/bandit_party_2","A2TG7EEQ2XG2IK","either","3","669","","","","","","","0","1","0","","0.8","0.5","0.5","0.5","0.5","0.8","0.2","0.6","0.2","","","","","","","","","","","","","","72","H","0","img/none_selected.jpg","true","0","full_practice",""
"","bandit","69","845976","0.0-32.0-18.0","63053126","wem/bandit_party_2","A2TG7EEQ2XG2IK","either","3","648","","","","","","","0","0","1","","0.8","0.5","0.5","0.5","0.5","0.8","0.2","0.6","0.2","","","","","","","","","","","","","","72","H","0","img/none_selected.jpg","true","0","full_practice",""
"","bandit","70","848580","0.0-32.0-19.0","63053126","wem/bandit_party_2","A2TG7EEQ2XG2IK","either","3","1075","","","","","","","1","0","0","0.8","","0.5","0.5","0.5","0.5","","","","","0.8","0.2","0.6","0.2","","","","","","","","","","72","H","0","img/none_selected.jpg","true","0","full_practice",""
"","text","71","855139","0.0-33.0","63053126","wem/bandit_party_2","A2TG7EEQ2XG2IK","either","3","6507","","","32","","","","","","","","","","","","","","","","","","","","","","","","","","","","","","","","","","","","",""
"","text-replacement","72","879389","0.0-34.0","63053126","wem/bandit_party_2","A2TG7EEQ2XG2IK","either","3","23239","","","32","","","","","","","","","","","","","","","","","","","","","","","","","","","","","","","","","","","","",""
"","text-replacement","73","928453","0.0-35.0","63053126","wem/bandit_party_2","A2TG7EEQ2XG2IK","either","3","49056","","","32","","","","","","","","","","","","","","","","","","","","","","","","","","","","","","","","","","","","",""
"","text-replacement","74","935414","0.0-36.0","63053126","wem/bandit_party_2","A2TG7EEQ2XG2IK","either","3","6950","","","32","","","","","","","","","","","","","","","","","","","","","","","","","","","","","","","","","","","","",""
"","text-replacement","75","940575","0.0-37.0","63053126","wem/bandit_party_2","A2TG7EEQ2XG2IK","either","3","5152","","","32","","","","","","","","","","","","","","","","","","","","","","","","","","","","","","","","","","","","",""
"","text-replacement","76","947489","0.0-38.0","63053126","wem/bandit_party_2","A2TG7EEQ2XG2IK","either","3","6901","","","32","","","","","","","","","","","","","","","","","","","","","","","","","","","","","","","","","","","","",""
"","survey-multi-choice-replacement","77","956154","0.0-39.0-0.0","63053126","wem/bandit_party_2","A2TG7EEQ2XG2IK","either","3","8640","","","","","","","","","","","","","","","","","","","","","","","","Money will be added to the pool for <span style='color:blue;'>DEMOCRATS</span>","","","","","","","attn_check","","","","","","","","","0"
"","survey-multi-choice-replacement","78","965356","0.0-40.0-0.0","63053126","wem/bandit_party_2","A2TG7EEQ2XG2IK","either","3","8173","","","","","","","","","","","","","","","","","","","","","","","","Equal amounts of money will be added to the pool for <span style='color:blue;'>DEMOCRATS</span> and subtracted from the pool for <span style='color:red;'>REPUBLICANS</span>","","","","","","","attn_check","","","","","","","","","2"
"","survey-multi-choice-replacement","79","970878","0.0-41.0-0.0","63053126","wem/bandit_party_2","A2TG7EEQ2XG2IK","either","3","4483","","","","","","","","","","","","","","","","","","","","","","","","No money will be added to either pool","","","","","","","attn_check","","","","","","","","","3"
"","bandit","80","975886","0.0-42.0-0.0","63053126","wem/bandit_party_2","A2TG7EEQ2XG2IK","either","3","2480","","","","","","","0","0","1","0.1387034319","","0.4","0.8","0.2","0.6","","","","","0.1387034319","0.6473934842","0.6494041588","0.4261870849","","","","","","","","","","72","H","0","img/none_selected.jpg","","1","main_expt",""
"","bandit","81","978485","0.0-43.0-0.0","63053126","wem/bandit_party_2","A2TG7EEQ2XG2IK","either","3","1069","","","","","","","1","0","0","0.5221866694","","0.4","0.8","0.2","0.6","","","","","0.2166337036","0.5221866694","0.7608835745","0.3223101542","","","","","","","","","","74","J","1","","","2","main_expt",""
"","bandit","82","980748","0.0-44.0-0.0","63053126","wem/bandit_party_2","A2TG7EEQ2XG2IK","either","3","724","","","","","","","1","0","0","0.5356292978","","0.4","0.8","0.2","0.6","","","","","0.3253899216","0.5356292978","0.7745567172","0.2541217019","","","","","","","","","","74","J","1","","","3","main_expt",""
"","bandit","83","982979","0.0-45.0-0.0","63053126","wem/bandit_party_2","A2TG7EEQ2XG2IK","either","3","714","","","","","","","1","0","0","0.5154592071","","0.4","0.8","0.2","0.6","","","","","0.3003293127","0.5154592071","0.8315703218","0.2272043942","","","","","","","","","","74","J","1","","","4","main_expt",""
"","bandit","84","984937","0.0-46.0-0.0","63053126","wem/bandit_party_2","A2TG7EEQ2XG2IK","either","3","440","","","","","","","1","0","0","0.4578896037","","0.4","0.8","0.2","0.6","","","","","0.3839660868","0.4578896037","0.8380789219","0.2967729676","","","","","","","","","","74","J","1","","","5","main_expt",""
"","bandit","85","986832","0.0-47.0-0.0","63053126","wem/bandit_party_2","A2TG7EEQ2XG2IK","either","3","371","","","","","","","1","0","0","0.4825789634","","0.4","0.8","0.2","0.6","","","","","0.3833463511","0.4825789634","0.8233568153","0.3211998527","","","","","","","","","","74","J","1","","","6","main_expt",""
"","bandit","86","988766","0.0-48.0-0.0","63053126","wem/bandit_party_2","A2TG7EEQ2XG2IK","either","3","404","","","","","","","0","1","0","","0.4013658759","0.4","0.8","0.2","0.6","0.3173395401","0.4013658759","0.8672840292","0.4190649117","","","","","","","","","","","","","","74","J","1","","","7","main_expt",""
"","bandit","87","990639","0.0-49.0-0.0","63053126","wem/bandit_party_2","A2TG7EEQ2XG2IK","either","3","345","","","","","","","1","0","0","0.3721769634","","0.4","0.8","0.2","0.6","","","","","0.3265190876","0.3721769634","0.7921451217","0.5253498774","","","","","","","","","","74","J","1","","","8","main_expt",""
"","bandit","88","992906","0.0-50.0-0.0","63053126","wem/bandit_party_2","A2TG7EEQ2XG2IK","either","3","740","","","","","","","1","0","0","0.3934089605","","0.4","0.8","0.2","0.6","","","","","0.4229840653","0.3934089605","0.7826569337","0.5552176016","","","","","","","","","","74","J","1","","","9","main_expt",""
"","bandit","89","994906","0.0-51.0-0.0","63053126","wem/bandit_party_2","A2TG7EEQ2XG2IK","either","3","471","","","","","","","0","0","1","0.3360942297","","0.4","0.8","0.2","0.6","","","","","0.5107168356","0.3360942297","0.7150392401","0.654745146","","","","","","","","","","74","J","1","","","10","main_expt",""
"","bandit","90","996830","0.0-52.0-0.0","63053126","wem/bandit_party_2","A2TG7EEQ2XG2IK","either","3","405","","","","","","","0","1","0","","0.4969537907","0.4","0.8","0.2","0.6","0.4383577931","0.4969537907","0.6906605055","0.6089063278","","","","","","","","","","","","","","74","J","1","","","11","main_expt",""
"","bandit","91","998802","0.0-53.0-0.0","63053126","wem/bandit_party_2","A2TG7EEQ2XG2IK","either","3","451","","","","","","","1","0","0","0.4760264401","","0.4","0.8","0.2","0.6","","","","","0.5487148549","0.4760264401","0.6725575113","0.559155858","","","","","","","","","","74","J","1","","","12","main_expt",""
"","bandit","92","1000938","0.0-54.0-0.0","63053126","wem/bandit_party_2","A2TG7EEQ2XG2IK","either","3","609","","","","","","","0","1","0","","0.4008761295","0.4","0.8","0.2","0.6","0.7407599438","0.4008761295","0.7404599176","0.6464491645","","","","","","","","","","","","","","74","J","1","","","13","main_expt",""
"","bandit","93","1002549","0.0-55.0-0.0","63053126","wem/bandit_party_2","A2TG7EEQ2XG2IK","either","3","83","","","","","","","1","0","0","0.358486362","","0.4","0.8","0.2","0.6","","","","","0.8307131687","0.358486362","0.6751607758","0.6936958995","","","","","","","","","","74","J","1","","","14","main_expt",""
"","bandit","94","1004443","0.0-56.0-0.0","63053126","wem/bandit_party_2","A2TG7EEQ2XG2IK","either","3","365","","","","","","","0","0","1","0.395258373","","0.4","0.8","0.2","0.6","","","","","0.8114394421","0.395258373","0.6115440925","0.731471075","","","","","","","","","","74","J","1","","","15","main_expt",""
"","bandit","95","1006299","0.0-57.0-0.0","63053126","wem/bandit_party_2","A2TG7EEQ2XG2IK","either","3","337","","","","","","","0","1","0","","0.4197334966","0.4","0.8","0.2","0.6","0.8242397169","0.4197334966","0.7019001419","0.6487541525","","","","","","","","","","","","","","74","J","1","","","16","main_expt",""
"","bandit","96","1008027","0.0-58.0-0.0","63053126","wem/bandit_party_2","A2TG7EEQ2XG2IK","either","3","200","","","","","","","0","0","1","0.2160816064","","0.4","0.8","0.2","0.6","","","","","0.8317633157","0.2160816064","0.7017998","0.7654634758","","","","","","","","","","74","J","1","","","17","main_expt",""
"","bandit","97","1009820","0.0-59.0-0.0","63053126","wem/bandit_party_2","A2TG7EEQ2XG2IK","either","3","275","","","","","","","0","0","1","0.2058632209","","0.4","0.8","0.2","0.6","","","","","0.8158638682","0.2058632209","0.7672473748","0.7160830043","","","","","","","","","","74","J","1","","","18","main_expt",""
"","bandit","98","1011696","0.0-60.0-0.0","63053126","wem/bandit_party_2","A2TG7EEQ2XG2IK","either","3","346","","","","","","","0","0","1","0.2314559036","","0.4","0.8","0.2","0.6","","","","","0.8291878069","0.2314559036","0.7950219121","0.6856656502","","","","","","","","","","74","J","1","","","19","main_expt",""
"","bandit","99","1013594","0.0-61.0-0.0","63053126","wem/bandit_party_2","A2TG7EEQ2XG2IK","either","3","367","","","","","","","1","0","0","0.1762066147","","0.4","0.8","0.2","0.6","","","","","0.8665153398","0.1762066147","0.8460513568","0.6829400921","","","","","","","","","","74","J","1","","","20","main_expt",""
"","bandit","100","1015530","0.0-62.0-0.0","63053126","wem/bandit_party_2","A2TG7EEQ2XG2IK","either","3","404","","","","","","","1","0","0","0.150477598","","0.4","0.8","0.2","0.6","","","","","0.8181415858","0.150477598","0.8571228725","0.6849203215","","","","","","","","","","74","J","1","","","21","main_expt",""
"","bandit","101","1017442","0.0-63.0-0.0","63053126","wem/bandit_party_2","A2TG7EEQ2XG2IK","either","3","390","","","","","","","0","0","1","","0.1957635407","0.4","0.8","0.2","0.6","0.7731960963","0.1957635407","0.8498483749","0.6832197831","","","","","","","","","","","","","","74","J","1","","","22","main_expt",""
"","bandit","102","1019321","0.0-64.0-0.0","63053126","wem/bandit_party_2","A2TG7EEQ2XG2IK","either","3","354","","","","","","","0","0","1","0.2193187944","","0.4","0.8","0.2","0.6","","","","","0.8004626553","0.2193187944","0.887495535","0.6103957523","","","","","","","","","","74","J","1","","","23","main_expt",""
"","bandit","103","1021287","0.0-65.0-0.0","63053126","wem/bandit_party_2","A2TG7EEQ2XG2IK","either","3","438","","","","","","","0","0","1","0.1836328706","","0.4","0.8","0.2","0.6","","","","","0.7941911222","0.1836328706","0.918231735","0.5485819736","","","","","","","","","","74","J","1","","","24","main_expt",""
"","bandit","104","1023253","0.0-66.0-0.0","63053126","wem/bandit_party_2","A2TG7EEQ2XG2IK","either","3","444","","","","","","","0","1","0","","0.9111146318","0.4","0.8","0.2","0.6","0.7100633829","0.1410441375","0.9111146318","0.5852935809","","","","","","","","","","","","","","75","K","2","","","25","main_expt",""
"","bandit","105","1025154","0.0-67.0-0.0","63053126","wem/bandit_party_2","A2TG7EEQ2XG2IK","either","3","370","","","","","","","0","1","0","","0.9190640316","0.4","0.8","0.2","0.6","0.6872129375","0.1082593399","0.9190640316","0.6097892937","","","","","","","","","","","","","","75","K","2","","","26","main_expt",""
"","bandit","106","1027043","0.0-68.0-0.0","63053126","wem/bandit_party_2","A2TG7EEQ2XG2IK","either","3","358","","","","","","","0","1","0","","0.9372614837","0.4","0.8","0.2","0.6","0.6798864795","0.1042047793","0.9372614837","0.6653335402","","","","","","","","","","","","","","75","K","2","","","27","main_expt",""
"","bandit","107","1028896","0.0-69.0-0.0","63053126","wem/bandit_party_2","A2TG7EEQ2XG2IK","either","3","330","","","","","","","0","1","0","","0.9269484959","0.4","0.8","0.2","0.6","0.6812343762","0.1153509117","0.9269484959","0.6850825106","","","","","","","","","","","","","","75","K","2","","","28","main_expt",""
"","bandit","108","1030760","0.0-70.0-0.0","63053126","wem/bandit_party_2","A2TG7EEQ2XG2IK","either","3","334","","","","","","","1","0","0","0.9376772981","","0.4","0.8","0.2","0.6","","","","","0.5305157647","0.1601566248","0.9376772981","0.7309016742","","","","","","","","","","75","K","2","","","29","main_expt",""
"","bandit","109","1032604","0.0-71.0-0.0","63053126","wem/bandit_party_2","A2TG7EEQ2XG2IK","either","3","325","","","","","","","0","1","0","","0.8795505253","0.4","0.8","0.2","0.6","0.4713174284","0.09548927903","0.8795505253","0.8141980113","","","","","","","","","","","","","","75","K","2","","","30","main_expt",""
"","bandit","110","1034530","0.0-72.0-0.0","63053126","wem/bandit_party_2","A2TG7EEQ2XG2IK","either","3","405","","","","","","","0","1","0","","0.8605863748","0.4","0.8","0.2","0.6","0.2938490869","0.09272353297","0.8605863748","0.8926711601","","","","","","","","","","","","","","75","K","2","","","31","main_expt",""
"","bandit","111","1036471","0.0-73.0-0.0","63053126","wem/bandit_party_2","A2TG7EEQ2XG2IK","either","3","412","","","","","","","0","1","0","","0.757600507","0.4","0.8","0.2","0.6","0.3005160425","0.09547929832","0.757600507","0.8397563013","","","","","","","","","","","","","","75","K","2","","","32","main_expt",""
"","bandit","112","1038395","0.0-74.0-0.0","63053126","wem/bandit_party_2","A2TG7EEQ2XG2IK","either","3","391","","","","","","","0","1","0","","0.7257103923","0.4","0.8","0.2","0.6","0.3661211491","0.08683876107","0.7257103923","0.8251988787","","","","","","","","","","","","","","75","K","2","","","33","main_expt",""
"","bandit","113","1040324","0.0-75.0-0.0","63053126","wem/bandit_party_2","A2TG7EEQ2XG2IK","either","3","380","","","","","","","0","1","0","","0.5786815464","0.4","0.8","0.2","0.6","0.4614725573","0.08117088791","0.5786815464","0.7303528712","","","","","","","","","","","","","","75","K","2","","","34","main_expt",""
"","bandit","114","1042358","0.0-76.0-0.0","63053126","wem/bandit_party_2","A2TG7EEQ2XG2IK","either","3","501","","","","","","","1","0","0","0.4812266686","","0.4","0.8","0.2","0.6","","","","","0.4597324626","0.09593582107","0.4812266686","0.8093673003","","","","","","","","","","75","K","2","","","35","main_expt",""
"","bandit","115","1044281","0.0-77.0-0.0","63053126","wem/bandit_party_2","A2TG7EEQ2XG2IK","either","3","402","","","","","","","0","0","1","","0.4459447539","0.4","0.8","0.2","0.6","0.4294742096","0.1392988708","0.4459447539","0.79718131","","","","","","","","","","","","","","75","K","2","","","36","main_expt",""
"","bandit","116","1046148","0.0-78.0-0.0","63053126","wem/bandit_party_2","A2TG7EEQ2XG2IK","either","3","351","","","","","","","1","0","0","0.5737218407","","0.4","0.8","0.2","0.6","","","","","0.5301274199","0.07673209605","0.5737218407","0.8157762275","","","","","","","","","","75","K","2","","","37","main_expt",""
"","bandit","117","1048052","0.0-79.0-0.0","63053126","wem/bandit_party_2","A2TG7EEQ2XG2IK","either","3","382","","","","","","","0","1","0","","0.6008421093","0.4","0.8","0.2","0.6","0.5746889943","0.1078843958","0.6008421093","0.7941499978","","","","","","","","","","","","","","75","K","2","","","38","main_expt",""
"","bandit","118","1050224","0.0-80.0-0.0","63053126","wem/bandit_party_2","A2TG7EEQ2XG2IK","either","3","649","","","","","","","0","0","1","","0.6076920036","0.4","0.8","0.2","0.6","0.6621100331","0.09731722171","0.6076920036","0.7352357368","","","","","","","","","","","","","","75","K","2","","","39","main_expt",""
"","bandit","119","1052096","0.0-81.0-0.0","63053126","wem/bandit_party_2","A2TG7EEQ2XG2IK","either","3","340","","","","","","","0","1","0","","0.6616622706","0.4","0.8","0.2","0.6","0.6794361822","0.2123509389","0.6616622706","0.7920886563","","","","","","","","","","","","","","75","K","2","","","40","main_expt",""
"","bandit","120","1054236","0.0-82.0-0.0","63053126","wem/bandit_party_2","A2TG7EEQ2XG2IK","either","3","619","","","","","","","1","0","0","0.6945341382","","0.4","0.8","0.2","0.6","","","","","0.7140523024","0.1265365425","0.6945341382","0.8780543775","","","","","","","","","","75","K","2","","","41","main_expt",""
"","bandit","121","1056017","0.0-83.0-0.0","63053126","wem/bandit_party_2","A2TG7EEQ2XG2IK","either","3","263","","","","","","","1","0","0","0.6833149102","","0.4","0.8","0.2","0.6","","","","","0.6669732994","0.166138795","0.6833149102","0.9167256642","","","","","","","","","","75","K","2","","","42","main_expt",""
"","bandit","122","1059019","0.0-84.0-0.0","63053126","wem/bandit_party_2","A2TG7EEQ2XG2IK","either","3","1482","","","","","","","0","1","0","","0.7094953576","0.4","0.8","0.2","0.6","0.5435093165","0.1782339186","0.7094953576","0.9407985187","","","","","","","","","","","","","","75","K","2","","","43","main_expt",""
"","bandit","123","1061140","0.0-85.0-0.0","63053126","wem/bandit_party_2","A2TG7EEQ2XG2IK","either","3","583","","","","","","","1","0","0","0.7519468023","","0.4","0.8","0.2","0.6","","","","","0.6002661395","0.1342945815","0.7519468023","0.9000978766","","","","","","","","","","75","K","2","","","44","main_expt",""
"","bandit","124","1063487","0.0-86.0-0.0","63053126","wem/bandit_party_2","A2TG7EEQ2XG2IK","either","3","816","","","","","","","0","0","1","","0.7673203249","0.4","0.8","0.2","0.6","0.5948203474","0.09086288848","0.7673203249","0.9190036262","","","","","","","","","","","","","","75","K","2","","","45","main_expt",""
"","bandit","125","1066239","0.0-87.0-0.0","63053126","wem/bandit_party_2","A2TG7EEQ2XG2IK","either","3","1229","","","","","","","0","1","0","","0.722836051","0.4","0.8","0.2","0.6","0.6230250108","0.06420934006","0.722836051","0.8865788656","","","","","","","","","","","","","","75","K","2","","","46","main_expt",""
"","bandit","126","1068232","0.0-88.0-0.0","63053126","wem/bandit_party_2","A2TG7EEQ2XG2IK","either","3","471","","","","","","","0","1","0","","0.7392487755","0.4","0.8","0.2","0.6","0.7239235909","0.02332738683","0.7392487755","0.8207935484","","","","","","","","","","","","","","75","K","2","","","47","main_expt",""
"","bandit","127","1070377","0.0-89.0-0.0","63053126","wem/bandit_party_2","A2TG7EEQ2XG2IK","either","3","625","","","","","","","0","1","0","","0.7551111279","0.4","0.8","0.2","0.6","0.7715310514","0.03517565614","0.7551111279","0.8170742187","","","","","","","","","","","","","","75","K","2","","","48","main_expt",""
"","bandit","128","1072751","0.0-90.0-0.0","63053126","wem/bandit_party_2","A2TG7EEQ2XG2IK","either","3","842","","","","","","","0","0","1","","0.6917772817","0.4","0.8","0.2","0.6","0.822179592","0.04466115719","0.6917772817","0.7874830355","","","","","","","","","","","","","","75","K","2","","","49","main_expt",""
"","bandit","129","1075344","0.0-91.0-0.0","63053126","wem/bandit_party_2","A2TG7EEQ2XG2IK","either","3","1060","","","","","","","0","1","0","","0.6689959301","0.4","0.8","0.2","0.6","0.8108951243","0.05053383529","0.6689959301","0.8279472521","","","","","","","","","","","","","","75","K","2","","","50","main_expt",""
"","bandit","130","1077717","0.0-92.0-0.0","63053126","wem/bandit_party_2","A2TG7EEQ2XG2IK","either","3","854","","","","","","","0","0","1","","0.6020608281","0.4","0.8","0.2","0.6","0.7649170446","0.04681033125","0.6020608281","0.8426817256","","","","","","","","","","","","","","75","K","2","","","51","main_expt",""
"","bandit","131","1079370","0.0-93.0-0.0","63053126","wem/bandit_party_2","A2TG7EEQ2XG2IK","either","3","127","","","","","","","1","0","0","0.6583182673","","0.4","0.8","0.2","0.6","","","","","0.8169848275","0.09308222201","0.6583182673","0.8377647656","","","","","","","","","","75","K","2","","","52","main_expt",""
"","bandit","132","1081358","0.0-94.0-0.0","63053126","wem/bandit_party_2","A2TG7EEQ2XG2IK","either","3","469","","","","","","","0","1","0","","0.5419436754","0.4","0.8","0.2","0.6","0.8843577791","0.1397702629","0.5419436754","0.8241398149","","","","","","","","","","","","","","75","K","2","","","53","main_expt",""
"","bandit","133","1082948","0.0-95.0-0.0","63053126","wem/bandit_party_2","A2TG7EEQ2XG2IK","either","3","68","","","","","","","0","0","1","","0.5717614462","0.4","0.8","0.2","0.6","0.8854515068","0.110287685","0.5717614462","0.7289352116","","","","","","","","","","","","","","75","K","2","","","54","main_expt",""
"","bandit","134","1085779","0.0-96.0-0.0","63053126","wem/bandit_party_2","A2TG7EEQ2XG2IK","either","3","1285","","","","","","","0","1","0","","0.5497935615","0.4","0.8","0.2","0.6","0.8884574585","0.1843384007","0.5497935615","0.5895019519","","","","","","","","","","","","","","75","K","2","","","55","main_expt",""
"","bandit","135","1087825","0.0-97.0-0.0","63053126","wem/bandit_party_2","A2TG7EEQ2XG2IK","either","3","525","","","","","","","1","0","0","0.4902645195","","0.4","0.8","0.2","0.6","","","","","0.8840911236","0.2056752237","0.4902645195","0.4622464331","","","","","","","","","","75","K","2","","","56","main_expt",""
"","bandit","136","1090790","0.0-98.0-0.0","63053126","wem/bandit_party_2","A2TG7EEQ2XG2IK","either","3","1446","","","","","","","0","1","0","","0.5258365243","0.4","0.8","0.2","0.6","0.864283103","0.3410726922","0.5258365243","0.490024734","","","","","","","","","","","","","","75","K","2","","","57","main_expt",""
"","bandit","137","1092648","0.0-99.0-0.0","63053126","wem/bandit_party_2","A2TG7EEQ2XG2IK","either","3","337","","","","","","","1","0","0","0.6097664349","","0.4","0.8","0.2","0.6","","","","","0.7377821737","0.3873695161","0.6097664349","0.6182628796","","","","","","","","","","75","K","2","","","58","main_expt",""
"","bandit","138","1094501","0.0-100.0-0.0","63053126","wem/bandit_party_2","A2TG7EEQ2XG2IK","either","3","327","","","","","","","0","0","1","","0.6016711108","0.4","0.8","0.2","0.6","0.7469541206","0.3281321534","0.6016711108","0.6976829826","","","","","","","","","","","","","","75","K","2","","","59","main_expt",""
"","bandit","139","1096486","0.0-101.0-0.0","63053126","wem/bandit_party_2","A2TG7EEQ2XG2IK","either","3","447","","","","","","","0","1","0","","0.5544917648","0.4","0.8","0.2","0.6","0.8019510571","0.2380439254","0.5544917648","0.675433977","","","","","","","","","","","","","","75","K","2","","","60","main_expt",""
"","bandit","140","1098439","0.0-102.0-0.0","63053126","wem/bandit_party_2","A2TG7EEQ2XG2IK","either","3","398","","","","","","","0","1","0","","0.6842720067","0.4","0.8","0.2","0.6","0.8943887388","0.2228222105","0.6842720067","0.7206550838","","","","","","","","","","","","","","75","K","2","","","61","main_expt",""
"","bandit","141","1100942","0.0-103.0-0.0","63053126","wem/bandit_party_2","A2TG7EEQ2XG2IK","either","3","978","","","","","","","0","0","1","","0.6824345281","0.4","0.8","0.2","0.6","0.8942973556","0.2489253665","0.6824345281","0.7184677658","","","","","","","","","","","","","","75","K","2","","","62","main_expt",""
"","bandit","142","1103808","0.0-104.0-0.0","63053126","wem/bandit_party_2","A2TG7EEQ2XG2IK","either","3","1330","","","","","","","0","0","1","","0.7321168219","0.4","0.8","0.2","0.6","0.8829609874","0.2298237489","0.7321168219","0.6785259816","","","","","","","","","","","","","","75","K","2","","","63","main_expt",""
"","bandit","143","1105703","0.0-105.0-0.0","63053126","wem/bandit_party_2","A2TG7EEQ2XG2IK","either","3","373","","","","","","","0","1","0","","0.8123013145","0.4","0.8","0.2","0.6","0.8175344892","0.1849055857","0.8123013145","0.6349383059","","","","","","","","","","","","","","75","K","2","","","64","main_expt",""
"","bandit","144","1108649","0.0-106.0-0.0","63053126","wem/bandit_party_2","A2TG7EEQ2XG2IK","either","3","1413","","","","","","","0","0","1","","0.8236121316","0.4","0.8","0.2","0.6","0.7812905168","0.2285715909","0.8236121316","0.629769122","","","","","","","","","","","","","","75","K","2","","","65","main_expt",""
"","bandit","145","1110903","0.0-107.0-0.0","63053126","wem/bandit_party_2","A2TG7EEQ2XG2IK","either","3","732","","","","","","","1","0","0","0.7158950816","","0.4","0.8","0.2","0.6","","","","","0.7848445355","0.2477643906","0.8270077233","0.7158950816","","","","","","","","","","76","L","3","","","66","main_expt",""
"","bandit","146","1113217","0.0-108.0-0.0","63053126","wem/bandit_party_2","A2TG7EEQ2XG2IK","either","3","791","","","","","","","1","0","0","0.6309271871","","0.4","0.8","0.2","0.6","","","","","0.763143195","0.1801078726","0.7601471472","0.6309271871","","","","","","","","","","76","L","3","","","67","main_expt",""
"","bandit","147","1115787","0.0-109.0-0.0","63053126","wem/bandit_party_2","A2TG7EEQ2XG2IK","either","3","1045","","","","","","","0","1","0","","0.617221228","0.4","0.8","0.2","0.6","0.7966751536","0.08479184886","0.7567750057","0.617221228","","","","","","","","","","","","","","76","L","3","","","68","main_expt",""
"","bandit","148","1117698","0.0-110.0-0.0","63053126","wem/bandit_party_2","A2TG7EEQ2XG2IK","either","3","389","","","","","","","0","1","0","","0.6235929763","0.4","0.8","0.2","0.6","0.8534335227","0.06982522498","0.6871277649","0.6235929763","","","","","","","","","","","","","","76","L","3","","","69","main_expt",""
"","bandit","149","1119746","0.0-111.0-0.0","63053126","wem/bandit_party_2","A2TG7EEQ2XG2IK","either","3","516","","","","","","","0","0","1","","0.5543620559","0.4","0.8","0.2","0.6","0.8915498471","0.05029268469","0.773099018","0.5543620559","","","","","","","","","","","","","","76","L","3","","","70","main_expt",""
"","bandit","150","1121619","0.0-112.0-0.0","63053126","wem/bandit_party_2","A2TG7EEQ2XG2IK","either","3","339","","","","","","","1","0","0","0.5333999135","","0.4","0.8","0.2","0.6","","","","","0.8736989015","0.06413839938","0.7412476729","0.5333999135","","","","","","","","","","76","L","3","","","71","main_expt",""
"","bandit","151","1123513","0.0-113.0-0.0","63053126","wem/bandit_party_2","A2TG7EEQ2XG2IK","either","3","357","","","","","","","0","1","0","","0.5905126671","0.4","0.8","0.2","0.6","0.8837551658","0.05155778705","0.8080704968","0.5905126671","","","","","","","","","","","","","","76","L","3","","","72","main_expt",""
"","bandit","152","1125400","0.0-114.0-0.0","63053126","wem/bandit_party_2","A2TG7EEQ2XG2IK","either","3","365","","","","","","","0","0","1","","0.6925119087","0.4","0.8","0.2","0.6","0.8495494246","0.0232747386","0.8270016227","0.6925119087","","","","","","","","","","","","","","76","L","3","","","73","main_expt",""
"","bandit","153","1127299","0.0-115.0-0.0","63053126","wem/bandit_party_2","A2TG7EEQ2XG2IK","either","3","372","","","","","","","0","1","0","","0.7134745341","0.4","0.8","0.2","0.6","0.9127472651","0.04751547773","0.7872017979","0.7134745341","","","","","","","","","","","","","","76","L","3","","","74","main_expt",""
"","bandit","154","1131216","0.0-116.0-0.0","63053126","wem/bandit_party_2","A2TG7EEQ2XG2IK","either","3","2393","","","","","","","0","1","0","","0.8065440948","0.4","0.8","0.2","0.6","0.9199060817","0.05282531612","0.6167225576","0.8065440948","","","","","","","","","","","","","","76","L","3","","","75","main_expt",""
"","bandit","155","1134146","0.0-117.0-0.0","63053126","wem/bandit_party_2","A2TG7EEQ2XG2IK","either","3","1399","","","","","","","0","1","0","","0.7849172319","0.4","0.8","0.2","0.6","0.8691294168","0.08738729654","0.637182095","0.7849172319","","","","","","","","","","","","","","76","L","3","","","76","main_expt",""
"","bandit","156","1136159","0.0-118.0-0.0","63053126","wem/bandit_party_2","A2TG7EEQ2XG2IK","either","3","489","","","","","","","1","0","0","0.7818962729","","0.4","0.8","0.2","0.6","","","","","0.9111329321","0.08851312664","0.7169911294","0.7818962729","","","","","","","","","","76","L","3","","","77","main_expt",""
"","bandit","157","1138050","0.0-119.0-0.0","63053126","wem/bandit_party_2","A2TG7EEQ2XG2IK","either","3","354","","","","","","","0","1","0","","0.7002933386","0.4","0.8","0.2","0.6","0.9286966754","0.145228539","0.7446448061","0.7002933386","","","","","","","","","","","","","","76","L","3","","","78","main_expt",""
"","bandit","158","1139998","0.0-120.0-0.0","63053126","wem/bandit_party_2","A2TG7EEQ2XG2IK","either","3","428","","","","","","","0","0","1","","0.6510109529","0.4","0.8","0.2","0.6","0.9616021792","0.1669860915","0.8152221547","0.6510109529","","","","","","","","","","","","","","76","L","3","","","79","main_expt",""
"","bandit","159","1142748","0.0-121.0-0.0","63053126","wem/bandit_party_2","A2TG7EEQ2XG2IK","either","3","1221","","","","","","","1","0","0","0.6765614865","","0.4","0.8","0.2","0.6","","","","","0.950571795","0.1922913003","0.810351938","0.6765614865","","","","","","","","","","76","L","3","","","80","main_expt",""
"","bandit","160","1144684","0.0-122.0-0.0","63053126","wem/bandit_party_2","A2TG7EEQ2XG2IK","either","3","403","","","","","","","0","1","0","","0.5908869344","0.4","0.8","0.2","0.6","0.9331160128","0.2407870914","0.8895110989","0.5908869344","","","","","","","","","","","","","","76","L","3","","","81","main_expt",""
"","bandit","161","1147729","0.0-123.0-0.0","63053126","wem/bandit_party_2","A2TG7EEQ2XG2IK","either","3","1514","","","","","","","0","0","1","","0.5267531711","0.4","0.8","0.2","0.6","0.9465986336","0.3077898034","0.9046816681","0.5267531711","","","","","","","","","","","","","","76","L","3","","","82","main_expt",""
"","bandit","162","1149667","0.0-124.0-0.0","63053126","wem/bandit_party_2","A2TG7EEQ2XG2IK","either","3","407","","","","","","","1","0","0","0.6168373964","","0.4","0.8","0.2","0.6","","","","","0.9371159138","0.2337579628","0.8465278631","0.6168373964","","","","","","","","","","76","L","3","","","83","main_expt",""
"","bandit","163","1151580","0.0-125.0-0.0","63053126","wem/bandit_party_2","A2TG7EEQ2XG2IK","either","3","393","","","","","","","1","0","0","0.5733990252","","0.4","0.8","0.2","0.6","","","","","0.8998840018","0.2781329454","0.7584930438","0.5733990252","","","","","","","","","","76","L","3","","","84","main_expt",""
"","bandit","164","1153507","0.0-126.0-0.0","63053126","wem/bandit_party_2","A2TG7EEQ2XG2IK","either","3","400","","","","","","","0","0","1","0.4719695616","","0.4","0.8","0.2","0.6","","","","","0.9102188985","0.3013149798","0.7727946294","0.4719695616","","","","","","","","","","76","L","3","","","85","main_expt",""
"","bandit","165","1155512","0.0-127.0-0.0","63053126","wem/bandit_party_2","A2TG7EEQ2XG2IK","either","3","461","","","","","","","0","0","1","0.6941651786","","0.4","0.8","0.2","0.6","","","","","0.9000055418","0.3231836659","0.8216594778","0.6941651786","","","","","","","","","","76","L","3","","","86","main_expt",""
"","bandit","166","1157515","0.0-128.0-0.0","63053126","wem/bandit_party_2","A2TG7EEQ2XG2IK","either","3","462","","","","","","","0","0","1","0.5408952125","","0.4","0.8","0.2","0.6","","","","","0.8563468124","0.3986379136","0.7833884788","0.5408952125","","","","","","","","","","76","L","3","","","87","main_expt",""
"","bandit","167","1159423","0.0-129.0-0.0","63053126","wem/bandit_party_2","A2TG7EEQ2XG2IK","either","3","386","","","","","","","0","0","1","0.5438891422","","0.4","0.8","0.2","0.6","","","","","0.7349543302","0.4230151841","0.7804426693","0.5438891422","","","","","","","","","","76","L","3","","","88","main_expt",""
"","bandit","168","1161307","0.0-130.0-0.0","63053126","wem/bandit_party_2","A2TG7EEQ2XG2IK","either","3","356","","","","","","","0","0","1","","0.4294971294","0.4","0.8","0.2","0.6","0.7907967515","0.3761858397","0.7930928848","0.4294971294","","","","","","","","","","","","","","76","L","3","","","89","main_expt",""
"","bandit","169","1166392","0.0-131.0-0.0","63053126","wem/bandit_party_2","A2TG7EEQ2XG2IK","either","3","3557","","","","","","","0","0","1","0.4928337868","","0.4","0.8","0.2","0.6","","","","","0.7883246469","0.4799086841","0.7683039237","0.4928337868","","","","","","","","","","76","L","3","","","90","main_expt",""
"","bandit","170","1169136","0.0-132.0-0.0","63053126","wem/bandit_party_2","A2TG7EEQ2XG2IK","either","3","1205","","","","","","","1","0","0","0.8389096604","","0.4","0.8","0.2","0.6","","","","","0.8389096604","0.4558425901","0.8072091422","0.5655090935","","","","","","","","","","72","H","0","img/none_selected.jpg","","91","main_expt",""
"","bandit","171","1171386","0.0-133.0-0.0","63053126","wem/bandit_party_2","A2TG7EEQ2XG2IK","either","3","725","","","","","","","1","0","0","0.8064187158","","0.4","0.8","0.2","0.6","","","","","0.8064187158","0.3781515597","0.7791444337","0.6154818033","","","","","","","","","","72","H","0","img/none_selected.jpg","","92","main_expt",""
"","bandit","172","1173594","0.0-134.0-0.0","63053126","wem/bandit_party_2","A2TG7EEQ2XG2IK","either","3","685","","","","","","","1","0","0","0.7542368763","","0.4","0.8","0.2","0.6","","","","","0.7542368763","0.2858753042","0.8498372391","0.7381217307","","","","","","","","","","72","H","0","img/none_selected.jpg","","93","main_expt",""
"","bandit","173","1175638","0.0-135.0-0.0","63053126","wem/bandit_party_2","A2TG7EEQ2XG2IK","either","3","515","","","","","","","0","1","0","","0.6932487021","0.4","0.8","0.2","0.6","0.6932487021","0.3914428564","0.8440610374","0.7776388333","","","","","","","","","","","","","","72","H","0","img/none_selected.jpg","","94","main_expt",""
"","bandit","174","1177677","0.0-136.0-0.0","63053126","wem/bandit_party_2","A2TG7EEQ2XG2IK","either","3","503","","","","","","","0","1","0","","0.6706070003","0.4","0.8","0.2","0.6","0.6706070003","0.3800018616","0.8092418145","0.8299152283","","","","","","","","","","","","","","72","H","0","img/none_selected.jpg","","95","main_expt",""
"","bandit","175","1179663","0.0-137.0-0.0","63053126","wem/bandit_party_2","A2TG7EEQ2XG2IK","either","3","450","","","","","","","1","0","0","0.6670251336","","0.4","0.8","0.2","0.6","","","","","0.6670251336","0.3078584031","0.8655172998","0.7697811485","","","","","","","","","","72","H","0","img/none_selected.jpg","","96","main_expt",""
"","bandit","176","1181857","0.0-138.0-0.0","63053126","wem/bandit_party_2","A2TG7EEQ2XG2IK","either","3","661","","","","","","","0","0","1","","0.7023758817","0.4","0.8","0.2","0.6","0.7023758817","0.218486712","0.8735151232","0.7487724405","","","","","","","","","","","","","","72","H","0","img/none_selected.jpg","","97","main_expt",""
"","bandit","177","1184016","0.0-139.0-0.0","63053126","wem/bandit_party_2","A2TG7EEQ2XG2IK","either","3","632","","","","","","","0","1","0","","0.7036518389","0.4","0.8","0.2","0.6","0.7036518389","0.2037628256","0.84409386","0.7450583294","","","","","","","","","","","","","","72","H","0","img/none_selected.jpg","","98","main_expt",""
"","bandit","178","1185996","0.0-140.0-0.0","63053126","wem/bandit_party_2","A2TG7EEQ2XG2IK","either","3","458","","","","","","","1","0","0","0.8401346726","","0.4","0.8","0.2","0.6","","","","","0.8401346726","0.2400196326","0.8089648913","0.7227120129","","","","","","","","","","72","H","0","img/none_selected.jpg","","99","main_expt",""
"","bandit","179","1187909","0.0-141.0-0.0","63053126","wem/bandit_party_2","A2TG7EEQ2XG2IK","either","3","388","","","","","","","1","0","0","0.8640782416","","0.4","0.8","0.2","0.6","","","","","0.8640782416","0.3298222115","0.7259557377","0.5872141049","","","","","","","","","","72","H","0","img/none_selected.jpg","","100","main_expt",""
"","bandit","180","1189951","0.0-142.0-0.0","63053126","wem/bandit_party_2","A2TG7EEQ2XG2IK","either","3","506","","","","","","","1","0","0","0.8232172207","","0.4","0.8","0.2","0.6","","","","","0.8232172207","0.3108047587","0.6332869741","0.6432213136","","","","","","","","","","72","H","0","img/none_selected.jpg","","101","main_expt",""
"","bandit","181","1191824","0.0-143.0-0.0","63053126","wem/bandit_party_2","A2TG7EEQ2XG2IK","either","3","333","","","","","","","0","0","1","","0.8451901448","0.4","0.8","0.2","0.6","0.8451901448","0.2869381514","0.659443461","0.6009476408","","","","","","","","","","","","","","72","H","0","img/none_selected.jpg","","102","main_expt",""
"","bandit","182","1193849","0.0-144.0-0.0","63053126","wem/bandit_party_2","A2TG7EEQ2XG2IK","either","3","499","","","","","","","0","1","0","","0.8792283932","0.4","0.8","0.2","0.6","0.8792283932","0.246485708","0.5959971703","0.6120105745","","","","","","","","","","","","","","72","H","0","img/none_selected.jpg","","103","main_expt",""
"","bandit","183","1195740","0.0-145.0-0.0","63053126","wem/bandit_party_2","A2TG7EEQ2XG2IK","either","3","368","","","","","","","0","1","0","","0.8887181638","0.4","0.8","0.2","0.6","0.8887181638","0.2175667678","0.5643630141","0.6821098495","","","","","","","","","","","","","","72","H","0","img/none_selected.jpg","","104","main_expt",""
"","bandit","184","1197694","0.0-146.0-0.0","63053126","wem/bandit_party_2","A2TG7EEQ2XG2IK","either","3","433","","","","","","","1","0","0","0.8013578166","","0.4","0.8","0.2","0.6","","","","","0.8013578166","0.2645808036","0.5489079514","0.7228510016","","","","","","","","","","72","H","0","img/none_selected.jpg","","105","main_expt",""
"","bandit","185","1199613","0.0-147.0-0.0","63053126","wem/bandit_party_2","A2TG7EEQ2XG2IK","either","3","397","","","","","","","0","1","0","","0.7307006529","0.4","0.8","0.2","0.6","0.7307006529","0.2652424516","0.4336033326","0.6639212405","","","","","","","","","","","","","","72","H","0","img/none_selected.jpg","","106","main_expt",""
"","bandit","186","1201790","0.0-148.0-0.0","63053126","wem/bandit_party_2","A2TG7EEQ2XG2IK","either","3","641","","","","","","","0","0","1","0.7519500851","","0.4","0.8","0.2","0.6","","","","","0.7519500851","0.2481661544","0.4779201531","0.6237034742","","","","","","","","","","72","H","0","img/none_selected.jpg","","107","main_expt",""
"","bandit","187","1203714","0.0-149.0-0.0","63053126","wem/bandit_party_2","A2TG7EEQ2XG2IK","either","3","390","","","","","","","0","0","1","","0.7457577851","0.4","0.8","0.2","0.6","0.7457577851","0.2361720859","0.5075294874","0.5847293191","","","","","","","","","","","","","","72","H","0","img/none_selected.jpg","","108","main_expt",""
"","bandit","188","1205624","0.0-150.0-0.0","63053126","wem/bandit_party_2","A2TG7EEQ2XG2IK","either","3","373","","","","","","","0","1","0","","0.77583868","0.4","0.8","0.2","0.6","0.77583868","0.2799679389","0.522842385","0.6260859175","","","","","","","","","","","","","","72","H","0","img/none_selected.jpg","","109","main_expt",""
"","bandit","189","1207577","0.0-151.0-0.0","63053126","wem/bandit_party_2","A2TG7EEQ2XG2IK","either","3","430","","","","","","","1","0","0","0.7520827962","","0.4","0.8","0.2","0.6","","","","","0.7520827962","0.3333098602","0.419893696","0.4788227383","","","","","","","","","","72","H","0","img/none_selected.jpg","","110","main_expt",""
"","bandit","190","1209542","0.0-152.0-0.0","63053126","wem/bandit_party_2","A2TG7EEQ2XG2IK","either","3","443","","","","","","","0","0","1","","0.6512809768","0.4","0.8","0.2","0.6","0.6512809768","0.3669732535","0.431092028","0.6019778282","","","","","","","","","","","","","","72","H","0","img/none_selected.jpg","","111","main_expt",""
"","bandit","191","1211451","0.0-153.0-0.0","63053126","wem/bandit_party_2","A2TG7EEQ2XG2IK","either","3","383","","","","","","","0","0","1","","0.5891937939","0.4","0.8","0.2","0.6","0.5891937939","0.389765336","0.3590071368","0.546445977","","","","","","","","","","","","","","72","H","0","img/none_selected.jpg","","112","main_expt",""
"","bandit","192","1213857","0.0-154.0-0.0","63053126","wem/bandit_party_2","A2TG7EEQ2XG2IK","either","3","880","","","","","","","0","0","1","0.3191506652","","0.4","0.8","0.2","0.6","","","","","0.6490525038","0.3191506652","0.4498419114","0.6256092846","","","","","","","","","","74","J","1","","","113","main_expt",""
"","bandit","193","1215789","0.0-155.0-0.0","63053126","wem/bandit_party_2","A2TG7EEQ2XG2IK","either","3","407","","","","","","","0","0","1","","0.2090321438","0.4","0.8","0.2","0.6","0.6283680234","0.2090321438","0.4829831469","0.6577617598","","","","","","","","","","","","","","74","J","1","","","114","main_expt",""
"","bandit","194","1217853","0.0-156.0-0.0","63053126","wem/bandit_party_2","A2TG7EEQ2XG2IK","either","3","538","","","","","","","0","0","1","","0.4846695964","0.4","0.8","0.2","0.6","0.6064224059","0.2094439124","0.4846695964","0.7140476354","","","","","","","","","","","","","","75","K","2","","","115","main_expt",""
"","bandit","195","1219742","0.0-157.0-0.0","63053126","wem/bandit_party_2","A2TG7EEQ2XG2IK","either","3","365","","","","","","","0","0","1","0.5396909338","","0.4","0.8","0.2","0.6","","","","","0.545813367","0.2695181069","0.5396909338","0.6589976567","","","","","","","","","","75","K","2","","","116","main_expt",""
"","bandit","196","1221637","0.0-158.0-0.0","63053126","wem/bandit_party_2","A2TG7EEQ2XG2IK","either","3","371","","","","","","","0","1","0","","0.5378282835","0.4","0.8","0.2","0.6","0.5179373022","0.3402036285","0.5378282835","0.6937703341","","","","","","","","","","","","","","75","K","2","","","117","main_expt",""
"","bandit","197","1223548","0.0-159.0-0.0","63053126","wem/bandit_party_2","A2TG7EEQ2XG2IK","either","3","388","","","","","","","0","1","0","","0.5729988564","0.4","0.8","0.2","0.6","0.4014157923","0.3101634078","0.5729988564","0.77114399","","","","","","","","","","","","","","75","K","2","","","118","main_expt",""
"","bandit","198","1225443","0.0-160.0-0.0","63053126","wem/bandit_party_2","A2TG7EEQ2XG2IK","either","3","355","","","","","","","0","0","1","","0.5630251564","0.4","0.8","0.2","0.6","0.4360264599","0.3242193616","0.5630251564","0.710000291","","","","","","","","","","","","","","75","K","2","","","119","main_expt",""
"","bandit","199","1227351","0.0-161.0-0.0","63053126","wem/bandit_party_2","A2TG7EEQ2XG2IK","either","3","368","","","","","","","0","0","1","","0.6482115929","0.4","0.8","0.2","0.6","0.3297853269","0.3334277272","0.6482115929","0.6767982245","","","","","","","","","","","","","","75","K","2","","","120","main_expt",""
"","bandit","200","1229605","0.0-162.0-0.0","63053126","wem/bandit_party_2","A2TG7EEQ2XG2IK","either","3","728","","","","","","","1","0","0","0.7360115258","","0.4","0.8","0.2","0.6","","","","","0.3767442019","0.4066521311","0.5688505083","0.7360115258","","","","","","","","","","76","L","3","","","121","main_expt",""
"","bandit","201","1231557","0.0-163.0-0.0","63053126","wem/bandit_party_2","A2TG7EEQ2XG2IK","either","3","424","","","","","","","1","0","0","0.7258716992","","0.4","0.8","0.2","0.6","","","","","0.3589515546","0.5193034213","0.5349597204","0.7258716992","","","","","","","","","","76","L","3","","","122","main_expt",""
"","bandit","202","1233577","0.0-164.0-0.0","63053126","wem/bandit_party_2","A2TG7EEQ2XG2IK","either","3","498","","","","","","","0","1","0","","0.7848203729","0.4","0.8","0.2","0.6","0.3461890545","0.5594962391","0.412887176","0.7848203729","","","","","","","","","","","","","","76","L","3","","","123","main_expt",""
"","bandit","203","1235495","0.0-165.0-0.0","63053126","wem/bandit_party_2","A2TG7EEQ2XG2IK","either","3","389","","","","","","","0","1","0","","0.7673004895","0.4","0.8","0.2","0.6","0.2287340519","0.6876014299","0.4137060999","0.7673004895","","","","","","","","","","","","","","76","L","3","","","124","main_expt",""
"","bandit","204","1237491","0.0-166.0-0.0","63053126","wem/bandit_party_2","A2TG7EEQ2XG2IK","either","3","447","","","","","","","1","0","0","0.8020703208","","0.4","0.8","0.2","0.6","","","","","0.2900718705","0.7354493796","0.3226696341","0.8020703208","","","","","","","","","","76","L","3","","","125","main_expt",""
"","bandit","205","1239542","0.0-167.0-0.0","63053126","wem/bandit_party_2","A2TG7EEQ2XG2IK","either","3","515","","","","","","","1","0","0","0.8196031782","","0.4","0.8","0.2","0.6","","","","","0.2880997441","0.76840964","0.3904211026","0.8196031782","","","","","","","","","","76","L","3","","","126","main_expt",""
"","bandit","206","1241509","0.0-168.0-0.0","63053126","wem/bandit_party_2","A2TG7EEQ2XG2IK","either","3","437","","","","","","","0","0","1","0.7095492128","","0.4","0.8","0.2","0.6","","","","","0.3451069126","0.7310750685","0.4227014292","0.7095492128","","","","","","","","","","76","L","3","","","127","main_expt",""
"","bandit","207","1243411","0.0-169.0-0.0","63053126","wem/bandit_party_2","A2TG7EEQ2XG2IK","either","3","375","","","","","","","0","0","1","","0.711577854","0.4","0.8","0.2","0.6","0.3129298861","0.6582635175","0.543317668","0.711577854","","","","","","","","","","","","","","76","L","3","","","128","main_expt",""
"","bandit","208","1245315","0.0-170.0-0.0","63053126","wem/bandit_party_2","A2TG7EEQ2XG2IK","either","3","381","","","","","","","0","0","1","0.7022761705","","0.4","0.8","0.2","0.6","","","","","0.3507055597","0.7529887683","0.5906282681","0.7022761705","","","","","","","","","","76","L","3","","","129","main_expt",""
"","bandit","209","1247248","0.0-171.0-0.0","63053126","wem/bandit_party_2","A2TG7EEQ2XG2IK","either","3","407","","","","","","","1","0","0","0.7309419319","","0.4","0.8","0.2","0.6","","","","","0.3753424236","0.7929301986","0.6636268631","0.7309419319","","","","","","","","","","76","L","3","","","130","main_expt",""
"","bandit","210","1249146","0.0-172.0-0.0","63053126","wem/bandit_party_2","A2TG7EEQ2XG2IK","either","3","352","","","","","","","0","0","1","","0.6904825683","0.4","0.8","0.2","0.6","0.3473486375","0.8149544693","0.5686699027","0.6904825683","","","","","","","","","","","","","","76","L","3","","","131","main_expt",""
"","bandit","211","1251400","0.0-173.0-0.0","63053126","wem/bandit_party_2","A2TG7EEQ2XG2IK","either","3","720","","","","","","","1","0","0","0.7153166113","","0.4","0.8","0.2","0.6","","","","","0.303679922","0.7626544417","0.6564012045","0.7153166113","","","","","","","","","","76","L","3","","","132","main_expt",""
"","bandit","212","1253050","0.0-174.0-0.0","63053126","wem/bandit_party_2","A2TG7EEQ2XG2IK","either","3","124","","","","","","","0","0","1","","0.8135501627","0.4","0.8","0.2","0.6","0.3385565331","0.7584501248","0.5876654864","0.8135501627","","","","","","","","","","","","","","76","L","3","","","133","main_expt",""
"","bandit","213","1255144","0.0-175.0-0.0","63053126","wem/bandit_party_2","A2TG7EEQ2XG2IK","either","3","568","","","","","","","1","0","0","0.7707892239","","0.4","0.8","0.2","0.6","","","","","0.3686406913","0.7905015291","0.5299368298","0.7707892239","","","","","","","","","","76","L","3","","","134","main_expt",""
"","bandit","214","1258385","0.0-176.0-0.0","63053126","wem/bandit_party_2","A2TG7EEQ2XG2IK","either","3","1716","","","","","","","1","0","0","0.7689088841","","0.4","0.8","0.2","0.6","","","","","0.3672202126","0.7515189777","0.4547966061","0.7689088841","","","","","","","","","","76","L","3","","","135","main_expt",""
"","bandit","215","1260717","0.0-177.0-0.0","63053126","wem/bandit_party_2","A2TG7EEQ2XG2IK","either","3","788","","","","","","","0","0","1","0.6641324257","","0.4","0.8","0.2","0.6","","","","","0.4064769993","0.7293518859","0.5290841583","0.6641324257","","","","","","","","","","76","L","3","","","136","main_expt",""
"","bandit","216","1262799","0.0-178.0-0.0","63053126","wem/bandit_party_2","A2TG7EEQ2XG2IK","either","3","543","","","","","","","0","1","0","","0.635388201","0.4","0.8","0.2","0.6","0.3492503667","0.7286216209","0.419904672","0.635388201","","","","","","","","","","","","","","76","L","3","","","137","main_expt",""
"","bandit","217","1264564","0.0-179.0-0.0","63053126","wem/bandit_party_2","A2TG7EEQ2XG2IK","either","3","236","","","","","","","1","0","0","0.6889508363","","0.4","0.8","0.2","0.6","","","","","0.3315752647","0.7425921641","0.4532768315","0.6889508363","","","","","","","","","","76","L","3","","","138","main_expt",""
"","bandit","218","1268014","0.0-180.0-0.0","63053126","wem/bandit_party_2","A2TG7EEQ2XG2IK","either","3","1926","","","","","","","0","1","0","","0.6481427694","0.4","0.8","0.2","0.6","0.3080831972","0.7356638012","0.4194835996","0.6481427694","","","","","","","","","","","","","","76","L","3","","","139","main_expt",""
"","bandit","219","1271270","0.0-181.0-0.0","63053126","wem/bandit_party_2","A2TG7EEQ2XG2IK","either","3","1729","","","","","","","0","0","1","0.6497449761","","0.4","0.8","0.2","0.6","","","","","0.3254670704","0.7334346803","0.420008375","0.6497449761","","","","","","","","","","76","L","3","","","140","main_expt",""
"","bandit","220","1276078","0.0-182.0-0.0","63053126","wem/bandit_party_2","A2TG7EEQ2XG2IK","either","3","3269","","","","","","","1","0","0","0.7328205829","","0.4","0.8","0.2","0.6","","","","","0.3452870884","0.7737071977","0.3908595681","0.7328205829","","","","","","","","","","76","L","3","","","141","main_expt",""
"","bandit","221","1277866","0.0-183.0-0.0","63053126","wem/bandit_party_2","A2TG7EEQ2XG2IK","either","3","256","","","","","","","1","0","0","0.6396752577","","0.4","0.8","0.2","0.6","","","","","0.2659846132","0.7912630164","0.3994278682","0.6396752577","","","","","","","","","","76","L","3","","","142","main_expt",""
"","bandit","222","1280103","0.0-184.0-0.0","63053126","wem/bandit_party_2","A2TG7EEQ2XG2IK","either","3","713","","","","","","","1","0","0","0.5974809775","","0.4","0.8","0.2","0.6","","","","","0.2549781044","0.7709923268","0.3137486051","0.5974809775","","","","","","","","","","76","L","3","","","143","main_expt",""
"","bandit","223","1282632","0.0-185.0-0.0","63053126","wem/bandit_party_2","A2TG7EEQ2XG2IK","either","3","998","","","","","","","0","1","0","","0.5953980303","0.4","0.8","0.2","0.6","0.3603981418","0.7492848764","0.3961992406","0.5953980303","","","","","","","","","","","","","","76","L","3","","","144","main_expt",""
"","bandit","224","1284222","0.0-186.0-0.0","63053126","wem/bandit_party_2","A2TG7EEQ2XG2IK","either","3","53","","","","","","","0","1","0","","0.6215671736","0.4","0.8","0.2","0.6","0.3682949958","0.7343485297","0.3186856111","0.6215671736","","","","","","","","","","","","","","76","L","3","","","145","main_expt",""
"","bandit","225","1286960","0.0-187.0-0.0","63053126","wem/bandit_party_2","A2TG7EEQ2XG2IK","either","3","1202","","","","","","","1","0","0","0.5766937592","","0.4","0.8","0.2","0.6","","","","","0.5028772858","0.7701032705","0.2724247948","0.5766937592","","","","","","","","","","76","L","3","","","146","main_expt",""
"","bandit","226","1289474","0.0-188.0-0.0","63053126","wem/bandit_party_2","A2TG7EEQ2XG2IK","either","3","991","","","","","","","0","1","0","","0.4600492943","0.4","0.8","0.2","0.6","0.4186890645","0.7521601774","0.2844288079","0.4600492943","","","","","","","","","","","","","","76","L","3","","","147","main_expt",""
"","bandit","227","1294048","0.0-189.0-0.0","63053126","wem/bandit_party_2","A2TG7EEQ2XG2IK","either","3","3047","","","","","","","1","0","0","0.4575448178","","0.4","0.8","0.2","0.6","","","","","0.3928328601","0.7762143641","0.3095389551","0.4575448178","","","","","","","","","","76","L","3","","","148","main_expt",""
"","bandit","228","1296622","0.0-190.0-0.0","63053126","wem/bandit_party_2","A2TG7EEQ2XG2IK","either","3","1036","","","","","","","1","0","0","0.3840278576","","0.4","0.8","0.2","0.6","","","","","0.4220063763","0.716016993","0.2464654743","0.3840278576","","","","","","","","","","76","L","3","","","149","main_expt",""
"","bandit","229","1299608","0.0-191.0-0.0","63053126","wem/bandit_party_2","A2TG7EEQ2XG2IK","either","3","1455","","","","","","","0","0","1","0.3004406684","","0.4","0.8","0.2","0.6","","","","","0.3206822378","0.7182774931","0.2088091358","0.3004406684","","","","","","","","","","76","L","3","","","150","main_expt",""
"","bandit","230","1302598","0.0-192.0-0.0","63053126","wem/bandit_party_2","A2TG7EEQ2XG2IK","either","3","1450","","","","","","","0","0","1","","0.2769981479","0.4","0.8","0.2","0.6","0.3380172956","0.8028216805","0.2670014618","0.2769981479","","","","","","","","","","","","","","76","L","3","","","151","main_expt",""
"","bandit","231","1305118","0.0-193.0-0.0","63053126","wem/bandit_party_2","A2TG7EEQ2XG2IK","either","3","993","","","","","","","0","0","1","0.40565407","","0.4","0.8","0.2","0.6","","","","","0.2461440624","0.8634692279","0.3100930243","0.40565407","","","","","","","","","","76","L","3","","","152","main_expt",""
"","bandit","232","1306999","0.0-194.0-0.0","63053126","wem/bandit_party_2","A2TG7EEQ2XG2IK","either","3","332","","","","","","","0","0","1","","0.3796096158","0.4","0.8","0.2","0.6","0.1852716423","0.7719190238","0.3796096158","0.3829351634","","","","","","","","","","","","","","75","K","2","","","153","main_expt",""
"","bandit","233","1308862","0.0-195.0-0.0","63053126","wem/bandit_party_2","A2TG7EEQ2XG2IK","either","3","331","","","","","","","0","0","1","0.2265028128","","0.4","0.8","0.2","0.6","","","","","0.1660439368","0.8343429945","0.2265028128","0.4912137185","","","","","","","","","","75","K","2","","","154","main_expt",""
"","bandit","234","1310741","0.0-196.0-0.0","63053126","wem/bandit_party_2","A2TG7EEQ2XG2IK","either","3","352","","","","","","","0","0","1","0.2135741777","","0.4","0.8","0.2","0.6","","","","","0.2241607793","0.7908731232","0.2135741777","0.5312535156","","","","","","","","","","75","K","2","","","155","main_expt",""
"","bandit","235","1312628","0.0-197.0-0.0","63053126","wem/bandit_party_2","A2TG7EEQ2XG2IK","either","3","355","","","","","","","0","1","0","","0.1338357519","0.4","0.8","0.2","0.6","0.1566338899","0.7848911391","0.1338357519","0.5747898199","","","","","","","","","","","","","","75","K","2","","","156","main_expt",""
"","bandit","236","1314610","0.0-198.0-0.0","63053126","wem/bandit_party_2","A2TG7EEQ2XG2IK","either","3","458","","","","","","","0","0","1","0.1344370697","","0.4","0.8","0.2","0.6","","","","","0.1839373886","0.7467155263","0.1344370697","0.5948125822","","","","","","","","","","75","K","2","","","157","main_expt",""
"","bandit","237","1316476","0.0-199.0-0.0","63053126","wem/bandit_party_2","A2TG7EEQ2XG2IK","either","3","341","","","","","","","0","0","1","","0.1217930933","0.4","0.8","0.2","0.6","0.155802242","0.7413618202","0.1217930933","0.6533804049","","","","","","","","","","","","","","75","K","2","","","158","main_expt",""
"","bandit","238","1318323","0.0-200.0-0.0","63053126","wem/bandit_party_2","A2TG7EEQ2XG2IK","either","3","302","","","","","","","0","0","1","","0.08524485746","0.4","0.8","0.2","0.6","0.2304237345","0.6882043704","0.08524485746","0.5777198579","","","","","","","","","","","","","","75","K","2","","","159","main_expt",""
"","bandit","239","1320810","0.0-201.0-0.0","63053126","wem/bandit_party_2","A2TG7EEQ2XG2IK","either","3","941","","","","","","","1","0","0","0.7253096401","","0.4","0.8","0.2","0.6","","","","","0.2242026456","0.7253096401","0.07332219892","0.6777741118","","","","","","","","","","74","J","1","","","160","main_expt",""
"","bandit","240","1322962","0.0-202.0-0.0","63053126","wem/bandit_party_2","A2TG7EEQ2XG2IK","either","3","614","","","","","","","1","0","0","0.6989182833","","0.4","0.8","0.2","0.6","","","","","0.2708915048","0.6989182833","0.1063489691","0.6249074267","","","","","","","","","","74","J","1","","","161","main_expt",""
"","bandit","241","1324961","0.0-203.0-0.0","63053126","wem/bandit_party_2","A2TG7EEQ2XG2IK","either","3","474","","","","","","","1","0","0","0.7679575172","","0.4","0.8","0.2","0.6","","","","","0.2921592604","0.7679575172","0.09670310095","0.6755041601","","","","","","","","","","74","J","1","","","162","main_expt",""
"","bandit","242","1327125","0.0-204.0-0.0","63053126","wem/bandit_party_2","A2TG7EEQ2XG2IK","either","3","637","","","","","","","0","0","1","0.6877390752","","0.4","0.8","0.2","0.6","","","","","0.2050535257","0.6877390752","0.1266359811","0.6461818487","","","","","","","","","","74","J","1","","","163","main_expt",""
"","bandit","243","1329116","0.0-205.0-0.0","63053126","wem/bandit_party_2","A2TG7EEQ2XG2IK","either","3","461","","","","","","","0","0","1","0.6957575266","","0.4","0.8","0.2","0.6","","","","","0.1998759094","0.6957575266","0.1212611996","0.76368027","","","","","","","","","","74","J","1","","","164","main_expt",""
"","bandit","244","1331208","0.0-206.0-0.0","63053126","wem/bandit_party_2","A2TG7EEQ2XG2IK","either","3","550","","","","","","","1","0","0","0.6760148625","","0.4","0.8","0.2","0.6","","","","","0.1821974317","0.6760148625","0.1917887173","0.8400099296","","","","","","","","","","74","J","1","","","165","main_expt",""
"","bandit","245","1333765","0.0-207.0-0.0","63053126","wem/bandit_party_2","A2TG7EEQ2XG2IK","either","3","1005","","","","","","","0","0","1","","0.6463317238","0.4","0.8","0.2","0.6","0.2916844583","0.6463317238","0.1560613016","0.8573275969","","","","","","","","","","","","","","74","J","1","","","166","main_expt",""
"","bandit","246","1335740","0.0-208.0-0.0","63053126","wem/bandit_party_2","A2TG7EEQ2XG2IK","either","3","449","","","","","","","1","0","0","0.5613055562","","0.4","0.8","0.2","0.6","","","","","0.3087465624","0.5613055562","0.2214887095","0.7735369509","","","","","","","","","","74","J","1","","","167","main_expt",""
"","bandit","247","1338026","0.0-209.0-0.0","63053126","wem/bandit_party_2","A2TG7EEQ2XG2IK","either","3","763","","","","","","","1","0","0","0.5586162784","","0.4","0.8","0.2","0.6","","","","","0.3896626528","0.5586162784","0.3463453368","0.8091314607","","","","","","","","","","74","J","1","","","168","main_expt",""
"","bandit","248","1340354","0.0-210.0-0.0","63053126","wem/bandit_party_2","A2TG7EEQ2XG2IK","either","3","798","","","","","","","0","1","0","","0.597448185","0.4","0.8","0.2","0.6","0.4458805252","0.597448185","0.3222551453","0.8364166478","","","","","","","","","","","","","","74","J","1","","","169","main_expt",""
"","bandit","249","1343118","0.0-211.0-0.0","63053126","wem/bandit_party_2","A2TG7EEQ2XG2IK","either","3","1218","","","","","","","0","0","1","0.5351242352","","0.4","0.8","0.2","0.6","","","","","0.4844269655","0.5351242352","0.2556410415","0.7867883415","","","","","","","","","","74","J","1","","","170","main_expt",""
"","bandit","250","1344858","0.0-212.0-0.0","63053126","wem/bandit_party_2","A2TG7EEQ2XG2IK","either","3","204","","","","","","","0","0","1","0.4819966971","","0.4","0.8","0.2","0.6","","","","","0.4858642724","0.4819966971","0.2248109201","0.8728822524","","","","","","","","","","74","J","1","","","171","main_expt",""
"","bandit","251","1346887","0.0-213.0-0.0","63053126","wem/bandit_party_2","A2TG7EEQ2XG2IK","either","3","503","","","","","","","0","0","1","","0.4038669266","0.4","0.8","0.2","0.6","0.5060245996","0.4038669266","0.3468742366","0.7804912391","","","","","","","","","","","","","","74","J","1","","","172","main_expt",""
"","bandit","252","1348424","0.0-214.0-0.0","63053126","wem/bandit_party_2","A2TG7EEQ2XG2IK","either","3","2","","","","","","","0","0","1","0.3102533384","","0.4","0.8","0.2","0.6","","","","","0.5413528159","0.3102533384","0.234408543","0.7728490534","","","","","","","","","","74","J","1","","","173","main_expt",""
"","bandit","253","1351581","0.0-215.0-0.0","63053126","wem/bandit_party_2","A2TG7EEQ2XG2IK","either","3","1627","","","","","","","0","0","1","","0.3818943333","0.4","0.8","0.2","0.6","0.6505326818","0.3818943333","0.1404050277","0.814185781","","","","","","","","","","","","","","74","J","1","","","174","main_expt",""
"","bandit","254","1354300","0.0-216.0-0.0","63053126","wem/bandit_party_2","A2TG7EEQ2XG2IK","either","3","1182","","","","","","","0","0","1","0.6470977149","","0.4","0.8","0.2","0.6","","","","","0.6470977149","0.2893198216","0.1081611795","0.8010682597","","","","","","","","","","72","H","0","img/none_selected.jpg","","175","main_expt",""
"","bandit","255","1355911","0.0-217.0-0.0","63053126","wem/bandit_party_2","A2TG7EEQ2XG2IK","either","3","75","","","","","","","0","1","0","","0.6844229635","0.4","0.8","0.2","0.6","0.6844229635","0.226416223","0.0730283124","0.7083228223","","","","","","","","","","","","","","72","H","0","img/none_selected.jpg","","176","main_expt",""
"","bandit","256","1357893","0.0-218.0-0.0","63053126","wem/bandit_party_2","A2TG7EEQ2XG2IK","either","3","450","","","","","","","0","1","0","","0.6883244284","0.4","0.8","0.2","0.6","0.6883244284","0.2786676386","0.07044941978","0.7408938443","","","","","","","","","","","","","","72","H","0","img/none_selected.jpg","","177","main_expt",""
"","bandit","257","1360084","0.0-219.0-0.0","63053126","wem/bandit_party_2","A2TG7EEQ2XG2IK","either","3","664","","","","","","","0","1","0","","0.6098590842","0.4","0.8","0.2","0.6","0.6098590842","0.2279078815","0.06886985111","0.6621187214","","","","","","","","","","","","","","72","H","0","img/none_selected.jpg","","178","main_expt",""
"","bandit","258","1361924","0.0-220.0-0.0","63053126","wem/bandit_party_2","A2TG7EEQ2XG2IK","either","3","312","","","","","","","0","1","0","","0.5924449164","0.4","0.8","0.2","0.6","0.5924449164","0.1690126781","0.07254371148","0.6765487854","","","","","","","","","","","","","","72","H","0","img/none_selected.jpg","","179","main_expt",""
"","bandit","259","1365808","0.0-221.0-0.0","63053126","wem/bandit_party_2","A2TG7EEQ2XG2IK","either","3","2350","","","","","","","1","0","0","0.4915111467","","0.4","0.8","0.2","0.6","","","","","0.4915111467","0.1356066944","0.055057054","0.7276027883","","","","","","","","","","72","H","0","img/none_selected.jpg","","180","main_expt",""
"","bandit","260","1367832","0.0-222.0-0.0","63053126","wem/bandit_party_2","A2TG7EEQ2XG2IK","either","3","475","","","","","","","0","1","0","","0.4713933083","0.4","0.8","0.2","0.6","0.4713933083","0.1889441784","0.1187845962","0.7083410305","","","","","","","","","","","","","","72","H","0","img/none_selected.jpg","","181","main_expt",""
"","bandit","261","1370549","0.0-223.0-0.0","63053126","wem/bandit_party_2","A2TG7EEQ2XG2IK","either","3","1178","","","","","","","0","1","0","","0.500114893","0.4","0.8","0.2","0.6","0.500114893","0.2163976064","0.1304227184","0.6489729838","","","","","","","","","","","","","","72","H","0","img/none_selected.jpg","","182","main_expt",""
"","bandit","262","1373024","0.0-224.0-0.0","63053126","wem/bandit_party_2","A2TG7EEQ2XG2IK","either","3","943","","","","","","","0","0","1","","0.4949273894","0.4","0.8","0.2","0.6","0.4949273894","0.1902524086","0.1374638341","0.6956751073","","","","","","","","","","","","","","72","H","0","img/none_selected.jpg","","183","main_expt",""
"","bandit","263","1376411","0.0-225.0-0.0","63053126","wem/bandit_party_2","A2TG7EEQ2XG2IK","either","3","1856","","","","","","","0","0","1","","0.4271361476","0.4","0.8","0.2","0.6","0.4271361476","0.2265805791","0.1914365344","0.6066537109","","","","","","","","","","","","","","72","H","0","img/none_selected.jpg","","184","main_expt",""
"","bandit","264","1380208","0.0-226.0-0.0","63053126","wem/bandit_party_2","A2TG7EEQ2XG2IK","either","3","2246","","","","","","","0","0","1","0.4558255176","","0.4","0.8","0.2","0.6","","","","","0.4558255176","0.1843452782","0.1939872458","0.6337362372","","","","","","","","","","72","H","0","img/none_selected.jpg","","185","main_expt",""
"","bandit","265","1382315","0.0-227.0-0.0","63053126","wem/bandit_party_2","A2TG7EEQ2XG2IK","either","3","576","","","","","","","0","0","1","","0.4031301461","0.4","0.8","0.2","0.6","0.4031301461","0.1898387663","0.2219937035","0.5908962551","","","","","","","","","","","","","","72","H","0","img/none_selected.jpg","","186","main_expt",""
"","bandit","266","1384185","0.0-228.0-0.0","63053126","wem/bandit_party_2","A2TG7EEQ2XG2IK","either","3","337","","","","","","","1","0","0","0.3993697366","","0.4","0.8","0.2","0.6","","","","","0.3993697366","0.210498268","0.2024523472","0.7651761031","","","","","","","","","","72","H","0","img/none_selected.jpg","","187","main_expt",""
"","bandit","267","1386295","0.0-229.0-0.0","63053126","wem/bandit_party_2","A2TG7EEQ2XG2IK","either","3","581","","","","","","","0","1","0","","0.4478687375","0.4","0.8","0.2","0.6","0.4478687375","0.2368649008","0.1930401344","0.7928336054","","","","","","","","","","","","","","72","H","0","img/none_selected.jpg","","188","main_expt",""
"","bandit","268","1388311","0.0-230.0-0.0","63053126","wem/bandit_party_2","A2TG7EEQ2XG2IK","either","3","483","","","","","","","0","0","1","","0.3699601256","0.4","0.8","0.2","0.6","0.3699601256","0.291591963","0.3255404916","0.8917358491","","","","","","","","","","","","","","72","H","0","img/none_selected.jpg","","189","main_expt",""
"","bandit","269","1390876","0.0-231.0-0.0","63053126","wem/bandit_party_2","A2TG7EEQ2XG2IK","either","3","1016","","","","","","","1","0","0","0.3723251068","","0.4","0.8","0.2","0.6","","","","","0.3723251068","0.4411779124","0.2364063212","0.898448025","","","","","","","","","","72","H","0","img/none_selected.jpg","","190","main_expt",""
"","bandit","270","1393242","0.0-232.0-0.0","63053126","wem/bandit_party_2","A2TG7EEQ2XG2IK","either","3","829","","","","","","","0","0","1","","0.3309849287","0.4","0.8","0.2","0.6","0.3309849287","0.3968704403","0.2662767285","0.9186708851","","","","","","","","","","","","","","72","H","0","img/none_selected.jpg","","191","main_expt",""
"","bandit","271","1396042","0.0-233.0-0.0","63053126","wem/bandit_party_2","A2TG7EEQ2XG2IK","either","3","1269","","","","","","","0","0","1","0.2865625263","","0.4","0.8","0.2","0.6","","","","","0.2865625263","0.4512817608","0.2815174114","0.9314477517","","","","","","","","","","72","H","0","img/none_selected.jpg","","192","main_expt",""
"","bandit","272","1399960","0.0-234.0-0.0","63053126","wem/bandit_party_2","A2TG7EEQ2XG2IK","either","3","2389","","","","","","","0","0","1","0.2862811746","","0.4","0.8","0.2","0.6","","","","","0.2862811746","0.4788006455","0.3461293965","0.9090465067","","","","","","","","","","72","H","0","img/none_selected.jpg","","193","main_expt",""
"","bandit","273","1404254","0.0-235.0-0.0","63053126","wem/bandit_party_2","A2TG7EEQ2XG2IK","either","3","2756","","","","","","","1","0","0","0.4651889587","","0.4","0.8","0.2","0.6","","","","","0.2785288642","0.4651889587","0.3303735913","0.8762249788","","","","","","","","","","74","J","1","","","194","main_expt",""
"","bandit","274","1406843","0.0-236.0-0.0","63053126","wem/bandit_party_2","A2TG7EEQ2XG2IK","either","3","1059","","","","","","","0","1","0","","0.4718629942","0.4","0.8","0.2","0.6","0.2283941808","0.4718629942","0.3194565039","0.8623185747","","","","","","","","","","","","","","74","J","1","","","195","main_expt",""
"","bandit","275","1409021","0.0-237.0-0.0","63053126","wem/bandit_party_2","A2TG7EEQ2XG2IK","either","3","648","","","","","","","0","0","1","0.3825708332","","0.4","0.8","0.2","0.6","","","","","0.214282227","0.3825708332","0.4103944464","0.7745977574","","","","","","","","","","74","J","1","","","196","main_expt",""
"","bandit","276","1411065","0.0-238.0-0.0","63053126","wem/bandit_party_2","A2TG7EEQ2XG2IK","either","3","508","","","","","","","1","0","0","0.4530864699","","0.4","0.8","0.2","0.6","","","","","0.1422959513","0.4530864699","0.4445726534","0.7723069829","","","","","","","","","","74","J","1","","","197","main_expt",""
"","bandit","277","1413011","0.0-239.0-0.0","63053126","wem/bandit_party_2","A2TG7EEQ2XG2IK","either","3","400","","","","","","","0","0","1","","0.4337652667","0.4","0.8","0.2","0.6","0.1126324943","0.4337652667","0.4351718099","0.7084082875","","","","","","","","","","","","","","74","J","1","","","198","main_expt",""
"","bandit","278","1414957","0.0-240.0-0.0","63053126","wem/bandit_party_2","A2TG7EEQ2XG2IK","either","3","405","","","","","","","1","0","0","0.4138332966","","0.4","0.8","0.2","0.6","","","","","0.1144166609","0.4138332966","0.4641294157","0.7016883558","","","","","","","","","","74","J","1","","","199","main_expt",""
"","bandit","279","1416961","0.0-241.0-0.0","63053126","wem/bandit_party_2","A2TG7EEQ2XG2IK","either","3","475","","","","","","","1","0","0","0.5005175686","","0.4","0.8","0.2","0.6","","","","","0.1518003708","0.5005175686","0.4468687069","0.6504384346","","","","","","","","","","74","J","1","","","200","main_expt",""
"","bandit","280","1418877","0.0-242.0-0.0","63053126","wem/bandit_party_2","A2TG7EEQ2XG2IK","either","3","385","","","","","","","1","0","0","0.5122642399","","0.4","0.8","0.2","0.6","","","","","0.1974433607","0.5122642399","0.5087435212","0.7904945102","","","","","","","","","","74","J","1","","","201","main_expt",""
"","bandit","281","1420771","0.0-243.0-0.0","63053126","wem/bandit_party_2","A2TG7EEQ2XG2IK","either","3","363","","","","","","","0","0","1","0.5414597976","","0.4","0.8","0.2","0.6","","","","","0.2000842809","0.5414597976","0.4992132835","0.7039472437","","","","","","","","","","74","J","1","","","202","main_expt",""
"","bandit","282","1422843","0.0-244.0-0.0","63053126","wem/bandit_party_2","A2TG7EEQ2XG2IK","either","3","532","","","","","","","1","0","0","0.4993649945","","0.4","0.8","0.2","0.6","","","","","0.1715580826","0.4993649945","0.4859842053","0.7478807213","","","","","","","","","","74","J","1","","","203","main_expt",""
"","bandit","283","1425335","0.0-245.0-0.0","63053126","wem/bandit_party_2","A2TG7EEQ2XG2IK","either","3","965","","","","","","","0","0","1","0.4056752737","","0.4","0.8","0.2","0.6","","","","","0.3028604286","0.4056752737","0.6162755314","0.7346150791","","","","","","","","","","74","J","1","","","204","main_expt",""
"","bandit","284","1427046","0.0-246.0-0.0","63053126","wem/bandit_party_2","A2TG7EEQ2XG2IK","either","3","181","","","","","","","0","0","1","","0.4174768156","0.4","0.8","0.2","0.6","0.3714949669","0.4174768156","0.6204906845","0.7240623961","","","","","","","","","","","","","","74","J","1","","","205","main_expt",""
"","bandit","285","1428848","0.0-247.0-0.0","63053126","wem/bandit_party_2","A2TG7EEQ2XG2IK","either","3","271","","","","","","","0","0","1","","0.6390595606","0.4","0.8","0.2","0.6","0.3034865557","0.4364097613","0.6390595606","0.733657826","","","","","","","","","","","","","","75","K","2","","","206","main_expt",""
"","bandit","286","1431106","0.0-248.0-0.0","63053126","wem/bandit_party_2","A2TG7EEQ2XG2IK","either","3","726","","","","","","","0","1","0","","0.6022157482","0.4","0.8","0.2","0.6","0.2688105372","0.4666062126","0.6022157482","0.6797091947","","","","","","","","","","","","","","75","K","2","","","207","main_expt",""
"","bandit","287","1433306","0.0-249.0-0.0","63053126","wem/bandit_party_2","A2TG7EEQ2XG2IK","either","3","670","","","","","","","0","1","0","","0.6598502583","0.4","0.8","0.2","0.6","0.2240001326","0.4594719295","0.6598502583","0.472157919","","","","","","","","","","","","","","75","K","2","","","208","main_expt",""
"","bandit","288","1435277","0.0-250.0-0.0","63053126","wem/bandit_party_2","A2TG7EEQ2XG2IK","either","3","434","","","","","","","0","0","1","0.6329069529","","0.4","0.8","0.2","0.6","","","","","0.3284172364","0.5415101973","0.6329069529","0.4993955773","","","","","","","","","","75","K","2","","","209","main_expt",""
"","bandit","289","1437209","0.0-251.0-0.0","63053126","wem/bandit_party_2","A2TG7EEQ2XG2IK","either","3","391","","","","","","","0","1","0","","0.5418549626","0.4","0.8","0.2","0.6","0.3178667136","0.5627952802","0.5418549626","0.3923888982","","","","","","","","","","","","","","75","K","2","","","210","main_expt",""
"","bandit","290","1439201","0.0-252.0-0.0","63053126","wem/bandit_party_2","A2TG7EEQ2XG2IK","either","3","442","","","","","","","0","1","0","","0.7265410197","0.4","0.8","0.2","0.6","0.278360526","0.5779033475","0.7265410197","0.4183885941","","","","","","","","","","","","","","75","K","2","","","211","main_expt",""
"","bandit","291","1441339","0.0-253.0-0.0","63053126","wem/bandit_party_2","A2TG7EEQ2XG2IK","either","3","608","","","","","","","0","1","0","","0.6550819281","0.4","0.8","0.2","0.6","0.2720231684","0.6169713091","0.6550819281","0.5367383083","","","","","","","","","","","","","","75","K","2","","","212","main_expt",""
"","bandit","292","1443731","0.0-254.0-0.0","63053126","wem/bandit_party_2","A2TG7EEQ2XG2IK","either","3","862","","","","","","","0","1","0","","0.5812500281","0.4","0.8","0.2","0.6","0.3445332441","0.5688165975","0.5812500281","0.5779451767","","","","","","","","","","","","","","75","K","2","","","213","main_expt",""
"","bandit","293","1446002","0.0-255.0-0.0","63053126","wem/bandit_party_2","A2TG7EEQ2XG2IK","either","3","738","","","","","","","0","0","1","","0.6912727382","0.4","0.8","0.2","0.6","0.331154659","0.5354690829","0.6912727382","0.5615700258","","","","","","","","","","","","","","75","K","2","","","214","main_expt",""
"","bandit","294","1448208","0.0-256.0-0.0","63053126","wem/bandit_party_2","A2TG7EEQ2XG2IK","either","3","673","","","","","","","0","1","0","","0.695573978","0.4","0.8","0.2","0.6","0.3168016653","0.4395706401","0.695573978","0.5361399643","","","","","","","","","","","","","","75","K","2","","","215","main_expt",""
"","bandit","295","1450658","0.0-257.0-0.0","63053126","wem/bandit_party_2","A2TG7EEQ2XG2IK","either","3","909","","","","","","","0","0","1","","0.6531454011","0.4","0.8","0.2","0.6","0.2870858596","0.4522294324","0.6531454011","0.620750855","","","","","","","","","","","","","","75","K","2","","","216","main_expt",""
"","bandit","296","1453182","0.0-258.0-0.0","63053126","wem/bandit_party_2","A2TG7EEQ2XG2IK","either","3","981","","","","","","","0","1","0","","0.6459690495","0.4","0.8","0.2","0.6","0.2877345098","0.4141575353","0.6459690495","0.4812239037","","","","","","","","","","","","","","75","K","2","","","217","main_expt",""
"","bandit","297","1457826","0.0-259.0-0.0","63053126","wem/bandit_party_2","A2TG7EEQ2XG2IK","either","3","3110","","","","","","","0","1","0","","0.6679944541","0.4","0.8","0.2","0.6","0.3608492067","0.3009722504","0.6679944541","0.4028497994","","","","","","","","","","","","","","75","K","2","","","218","main_expt",""
"","bandit","298","1459840","0.0-260.0-0.0","63053126","wem/bandit_party_2","A2TG7EEQ2XG2IK","either","3","468","","","","","","","0","1","0","","0.7159195147","0.4","0.8","0.2","0.6","0.4380407461","0.2706893249","0.7159195147","0.4441021312","","","","","","","","","","","","","","75","K","2","","","219","main_expt",""
"","bandit","299","1461769","0.0-261.0-0.0","63053126","wem/bandit_party_2","A2TG7EEQ2XG2IK","either","3","380","","","","","","","1","0","0","0.6874484601","","0.4","0.8","0.2","0.6","","","","","0.4769938592","0.3821277721","0.6874484601","0.4867825248","","","","","","","","","","75","K","2","","","220","main_expt",""
"","bandit","300","1463797","0.0-262.0-0.0","63053126","wem/bandit_party_2","A2TG7EEQ2XG2IK","either","3","470","","","","","","","0","0","1","0.6528128226","","0.4","0.8","0.2","0.6","","","","","0.4612627877","0.4534214389","0.6528128226","0.5428062785","","","","","","","","","","75","K","2","","","221","main_expt",""
"","bandit","301","1465803","0.0-263.0-0.0","63053126","wem/bandit_party_2","A2TG7EEQ2XG2IK","either","3","477","","","","","","","1","0","0","0.6836467719","","0.4","0.8","0.2","0.6","","","","","0.4192901336","0.6049712458","0.6836467719","0.5993321864","","","","","","","","","","75","K","2","","","222","main_expt",""
"","bandit","302","1468015","0.0-264.0-0.0","63053126","wem/bandit_party_2","A2TG7EEQ2XG2IK","either","3","681","","","","","","","1","0","0","0.7820879334","","0.4","0.8","0.2","0.6","","","","","0.5559965486","0.6389506418","0.7820879334","0.4920604154","","","","","","","","","","75","K","2","","","223","main_expt",""
"","bandit","303","1470503","0.0-265.0-0.0","63053126","wem/bandit_party_2","A2TG7EEQ2XG2IK","either","3","958","","","","","","","0","1","0","","0.763226653","0.4","0.8","0.2","0.6","0.6687933923","0.6677375732","0.763226653","0.5344282052","","","","","","","","","","","","","","75","K","2","","","224","main_expt",""
"","bandit","304","1472418","0.0-266.0-0.0","63053126","wem/bandit_party_2","A2TG7EEQ2XG2IK","either","3","378","","","","","","","0","0","1","","0.6931961842","0.4","0.8","0.2","0.6","0.5954484576","0.7706853934","0.6931961842","0.5583452501","","","","","","","","","","","","","","75","K","2","","","225","main_expt",""
"","bandit","305","1474368","0.0-267.0-0.0","63053126","wem/bandit_party_2","A2TG7EEQ2XG2IK","either","3","407","","","","","","","0","1","0","","0.6633974694","0.4","0.8","0.2","0.6","0.6152447968","0.7624197083","0.6633974694","0.5126042404","","","","","","","","","","","","","","75","K","2","","","226","main_expt",""
"","bandit","306","1476563","0.0-268.0-0.0","63053126","wem/bandit_party_2","A2TG7EEQ2XG2IK","either","3","657","","","","","","","0","0","1","","0.6567175756","0.4","0.8","0.2","0.6","0.6597553912","0.7287840805","0.6567175756","0.5720595628","","","","","","","","","","","","","","75","K","2","","","227","main_expt",""
"","bandit","307","1479615","0.0-269.0-0.0","63053126","wem/bandit_party_2","A2TG7EEQ2XG2IK","either","3","1519","","","","","","","0","1","0","","0.6052730858","0.4","0.8","0.2","0.6","0.594895186","0.7993891034","0.6052730858","0.6134710885","","","","","","","","","","","","","","75","K","2","","","228","main_expt",""
"","bandit","308","1482809","0.0-270.0-0.0","63053126","wem/bandit_party_2","A2TG7EEQ2XG2IK","either","3","1658","","","","","","","0","0","1","","0.5548990383","0.4","0.8","0.2","0.6","0.5722559027","0.8374027748","0.5548990383","0.5669106804","","","","","","","","","","","","","","75","K","2","","","229","main_expt",""
"","bandit","309","1484906","0.0-271.0-0.0","63053126","wem/bandit_party_2","A2TG7EEQ2XG2IK","either","3","541","","","","","","","0","1","0","","0.6017114108","0.4","0.8","0.2","0.6","0.5409090622","0.8414873787","0.6017114108","0.6286782819","","","","","","","","","","","","","","75","K","2","","","230","main_expt",""
"","bandit","310","1487019","0.0-272.0-0.0","63053126","wem/bandit_party_2","A2TG7EEQ2XG2IK","either","3","554","","","","","","","0","1","0","","0.5525336349","0.4","0.8","0.2","0.6","0.518727512","0.8531648874","0.5525336349","0.5594948871","","","","","","","","","","","","","","75","K","2","","","231","main_expt",""
"","bandit","311","1491578","0.0-273.0-0.0","63053126","wem/bandit_party_2","A2TG7EEQ2XG2IK","either","3","3024","","","","","","","0","0","1","0.4493361955","","0.4","0.8","0.2","0.6","","","","","0.5200298571","0.8813812612","0.4493361955","0.5817998964","","","","","","","","","","75","K","2","","","232","main_expt",""
"","bandit","312","1494457","0.0-274.0-0.0","63053126","wem/bandit_party_2","A2TG7EEQ2XG2IK","either","3","1337","","","","","","","0","1","0","","0.5280832246","0.4","0.8","0.2","0.6","0.4564343731","0.8916766345","0.5280832246","0.5971875981","","","","","","","","","","","","","","75","K","2","","","233","main_expt",""
"","bandit","313","1497031","0.0-275.0-0.0","63053126","wem/bandit_party_2","A2TG7EEQ2XG2IK","either","3","1024","","","","","","","0","0","1","","0.6814540918","0.4","0.8","0.2","0.6","0.4168065644","0.842820862","0.6814540918","0.5227237997","","","","","","","","","","","","","","75","K","2","","","234","main_expt",""
"","bandit","314","1500540","0.0-276.0-0.0","63053126","wem/bandit_party_2","A2TG7EEQ2XG2IK","either","3","1975","","","","","","","0","0","1","","0.5518959403","0.4","0.8","0.2","0.6","0.4340770274","0.7856269381","0.5518959403","0.6231997156","","","","","","","","","","","","","","75","K","2","","","235","main_expt",""
"","bandit","315","1502481","0.0-277.0-0.0","63053126","wem/bandit_party_2","A2TG7EEQ2XG2IK","either","3","408","","","","","","","0","0","1","","0.4965619817","0.4","0.8","0.2","0.6","0.4489205242","0.8092971262","0.4965619817","0.558272317","","","","","","","","","","","","","","75","K","2","","","236","main_expt",""
