"consent","trial_type","trial_index","time_elapsed","internal_node_id","subjID","study","MID","cond","drift","rt","responses","button_pressed","key_press","like","value","connected","gems","bombs","no_reward","GemPrChosen","BombPrChosen","GainOverPainPr_0","GainOverPainPr_1","GainOverPainPr_2","GainOverPainPr_3","LosePr_0","LosePr_1","LosePr_2","LosePr_3","WinPr_0","WinPr_1","WinPr_2","WinPr_3","Q0","Q1","Q2","gender","age","ethnicity","label","expt_phase","target","respCharCode","respKey","respChoiceNum","respChoice","practice","trial_counter","trial_label","Q0_index"
"GDM/GDM_behavioral_consent_30min_online.html","consent","0","40772","0.0-0.0","63642213","wem/bandit_party_2","A3BJBG67JHPAJF","either","7","","","","","","","","","","","","","","","","","","","","","","","","","","","","","","","","","","","","","","","","",""
"","survey-text","1","48086","0.0-1.0","63642213","wem/bandit_party_2","A3BJBG67JHPAJF","either","7","6306","{""Q0"":""A3BJBG67JHPAJF""}","","","","","","","","","","","","","","","","","","","","","","","","","","","","","","","","","","","","","","",""
"","button-response","2","52034","0.0-2.0","63642213","wem/bandit_party_2","A3BJBG67JHPAJF","either","7","2938","","2","","","","","","","","","","","","","","","","","","","","","","","","","","","","","","","","","","","","","",""
"","text-replacement","3","76736","0.0-3.0","63642213","wem/bandit_party_2","A3BJBG67JHPAJF","either","7","23695","","","32","","","","","","","","","","","","","","","","","","","","","","","","","","","","","","","","","","","","",""
"","text-replacement","4","94869","0.0-4.0","63642213","wem/bandit_party_2","A3BJBG67JHPAJF","either","7","18130","","","32","","","","","","","","","","","","","","","","","","","","","","","","","","","","","","","","","","","","",""
"","text-replacement","5","119963","0.0-5.0-0.0","63642213","wem/bandit_party_2","A3BJBG67JHPAJF","either","7","25091","","","32","","","","","","","","","","","","","","","","","","","","","","","","","","","","","","","","","","","","",""
"","identification","6","129796","0.0-6.0-0.0","63642213","wem/bandit_party_2","A3BJBG67JHPAJF","either","7","9819","","","","3","3","3","","","","","","","","","","","","","","","","","","","","","","","","pre","identification_pre","the Democratic Party","","","","","","","",""
"","identification","7","137934","0.0-6.0-1.0","63642213","wem/bandit_party_2","A3BJBG67JHPAJF","either","7","7128","","","","3","3","3","","","","","","","","","","","","","","","","","","","","","","","","pre","identification_pre","the Republican Party","","","","","","","",""
"","text-replacement","8","150141","0.0-7.0","63642213","wem/bandit_party_2","A3BJBG67JHPAJF","either","7","11203","","","32","","","","","","","","","","","","","","","","","","","","","","","","","","","","","","","","","","","","",""
"","text-replacement","9","163704","0.0-8.0","63642213","wem/bandit_party_2","A3BJBG67JHPAJF","either","7","13560","","","32","","","","","","","","","","","","","","","","","","","","","","","","","","","","","","","","","","","","",""
"","text-replacement","10","175051","0.0-9.0","63642213","wem/bandit_party_2","A3BJBG67JHPAJF","either","7","11345","","","32","","","","","","","","","","","","","","","","","","","","","","","","","","","","","","","","","","","","",""
"","text-replacement","11","181119","0.0-10.0","63642213","wem/bandit_party_2","A3BJBG67JHPAJF","either","7","6064","","","32","","","","","","","","","","","","","","","","","","","","","","","","","","","","","","","","","","","","",""
"","text-replacement","12","187544","0.0-11.0","63642213","wem/bandit_party_2","A3BJBG67JHPAJF","either","7","6423","","","32","","","","","","","","","","","","","","","","","","","","","","","","","","","","","","","","","","","","",""
"","bandit","13","191481","0.0-12.0-0.0","63642213","wem/bandit_party_2","A3BJBG67JHPAJF","either","7","2425","","","","","","","0","0","1","0","0","","","","","0","","","","0","","","","","","","","","","","","","74","J","0","img/none_selected_demo.jpg","true","0","",""
"","bandit","14","195060","0.0-13.0-0.0","63642213","wem/bandit_party_2","A3BJBG67JHPAJF","either","7","2075","","","","","","","0","0","1","0","0","","","","","0","","","","0","","","","","","","","","","","","","75","K","0","img/none_selected_demo.jpg","true","0","",""
"","text-replacement","15","202181","0.0-14.0","63642213","wem/bandit_party_2","A3BJBG67JHPAJF","either","7","7119","","","32","","","","","","","","","","","","","","","","","","","","","","","","","","","","","","","","","","","","",""
"","text-replacement","16","215964","0.0-15.0","63642213","wem/bandit_party_2","A3BJBG67JHPAJF","either","7","13780","","","32","","","","","","","","","","","","","","","","","","","","","","","","","","","","","","","","","","","","",""
"","text-replacement","17","227223","0.0-16.0","63642213","wem/bandit_party_2","A3BJBG67JHPAJF","either","7","11257","","","32","","","","","","","","","","","","","","","","","","","","","","","","","","","","","","","","","","","","",""
"","text-replacement","18","235981","0.0-17.0","63642213","wem/bandit_party_2","A3BJBG67JHPAJF","either","7","8755","","","32","","","","","","","","","","","","","","","","","","","","","","","","","","","","","","","","","","","","",""
"","bandit","19","239070","0.0-18.0-0.0","63642213","wem/bandit_party_2","A3BJBG67JHPAJF","either","7","1581","","","","","","","0","1","0","","0.8","0.5","0.5","","","0.8","0.2","","","","","","","","","","","","","","","","74","J","0","img/none_selected_demo.jpg","true","0","80_20_practice",""
"","bandit","20","242230","0.0-18.0-1.0","63642213","wem/bandit_party_2","A3BJBG67JHPAJF","either","7","1647","","","","","","","0","1","0","","0.8","0.5","0.5","","","0.8","0.2","","","","","","","","","","","","","","","","74","J","0","img/none_selected_demo.jpg","true","0","80_20_practice",""
"","bandit","21","244669","0.0-18.0-2.0","63642213","wem/bandit_party_2","A3BJBG67JHPAJF","either","7","932","","","","","","","0","0","1","","0.8","0.5","0.5","","","0.8","0.2","","","","","","","","","","","","","","","","74","J","0","img/none_selected_demo.jpg","true","0","80_20_practice",""
"","bandit","22","247229","0.0-18.0-3.0","63642213","wem/bandit_party_2","A3BJBG67JHPAJF","either","7","1053","","","","","","","1","0","0","0.8","","0.5","0.5","","","","","","","0.8","0.2","","","","","","","","","","","","74","J","0","img/none_selected_demo.jpg","true","0","80_20_practice",""
"","bandit","23","249205","0.0-18.0-4.0","63642213","wem/bandit_party_2","A3BJBG67JHPAJF","either","7","465","","","","","","","0","0","1","","0.8","0.5","0.5","","","0.8","0.2","","","","","","","","","","","","","","","","74","J","0","img/none_selected_demo.jpg","true","0","80_20_practice",""
"","bandit","24","251281","0.0-18.0-5.0","63642213","wem/bandit_party_2","A3BJBG67JHPAJF","either","7","567","","","","","","","1","0","0","0.8","","0.5","0.5","","","","","","","0.8","0.2","","","","","","","","","","","","74","J","0","img/none_selected_demo.jpg","true","0","80_20_practice",""
"","bandit","25","253461","0.0-18.0-6.0","63642213","wem/bandit_party_2","A3BJBG67JHPAJF","either","7","671","","","","","","","0","0","1","","0.8","0.5","0.5","","","0.8","0.2","","","","","","","","","","","","","","","","74","J","0","img/none_selected_demo.jpg","true","0","80_20_practice",""
"","bandit","26","255608","0.0-18.0-7.0","63642213","wem/bandit_party_2","A3BJBG67JHPAJF","either","7","637","","","","","","","1","0","0","0.8","","0.5","0.5","","","","","","","0.8","0.2","","","","","","","","","","","","74","J","0","img/none_selected_demo.jpg","true","0","80_20_practice",""
"","bandit","27","257738","0.0-18.0-8.0","63642213","wem/bandit_party_2","A3BJBG67JHPAJF","either","7","620","","","","","","","0","1","0","","0.8","0.5","0.5","","","0.8","0.2","","","","","","","","","","","","","","","","74","J","0","img/none_selected_demo.jpg","true","0","80_20_practice",""
"","bandit","28","259800","0.0-18.0-9.0","63642213","wem/bandit_party_2","A3BJBG67JHPAJF","either","7","553","","","","","","","0","0","1","0.8","","0.5","0.5","","","","","","","0.8","0.2","","","","","","","","","","","","74","J","0","img/none_selected_demo.jpg","true","0","80_20_practice",""
"","bandit","29","261685","0.0-18.0-10.0","63642213","wem/bandit_party_2","A3BJBG67JHPAJF","either","7","375","","","","","","","1","0","0","0.8","","0.5","0.5","","","","","","","0.8","0.2","","","","","","","","","","","","74","J","0","img/none_selected_demo.jpg","true","0","80_20_practice",""
"","bandit","30","263652","0.0-18.0-11.0","63642213","wem/bandit_party_2","A3BJBG67JHPAJF","either","7","460","","","","","","","0","0","1","0.2","","0.5","0.5","","","","","","","0.8","0.2","","","","","","","","","","","","75","K","1","","true","0","80_20_practice",""
"","bandit","31","265451","0.0-18.0-12.0","63642213","wem/bandit_party_2","A3BJBG67JHPAJF","either","7","289","","","","","","","0","0","1","0.2","","0.5","0.5","","","","","","","0.8","0.2","","","","","","","","","","","","75","K","1","","true","0","80_20_practice",""
"","bandit","32","267273","0.0-18.0-13.0","63642213","wem/bandit_party_2","A3BJBG67JHPAJF","either","7","316","","","","","","","0","0","1","","0.2","0.5","0.5","","","0.8","0.2","","","","","","","","","","","","","","","","75","K","1","","true","0","80_20_practice",""
"","bandit","33","269504","0.0-18.0-14.0","63642213","wem/bandit_party_2","A3BJBG67JHPAJF","either","7","724","","","","","","","1","0","0","0.8","","0.5","0.5","","","","","","","0.8","0.2","","","","","","","","","","","","74","J","0","img/none_selected_demo.jpg","true","0","80_20_practice",""
"","bandit","34","271285","0.0-18.0-15.0","63642213","wem/bandit_party_2","A3BJBG67JHPAJF","either","7","273","","","","","","","0","1","0","","0.8","0.5","0.5","","","0.8","0.2","","","","","","","","","","","","","","","","74","J","0","img/none_selected_demo.jpg","true","0","80_20_practice",""
"","bandit","35","273114","0.0-18.0-16.0","63642213","wem/bandit_party_2","A3BJBG67JHPAJF","either","7","323","","","","","","","0","1","0","","0.8","0.5","0.5","","","0.8","0.2","","","","","","","","","","","","","","","","74","J","0","img/none_selected_demo.jpg","true","0","80_20_practice",""
"","bandit","36","274920","0.0-18.0-17.0","63642213","wem/bandit_party_2","A3BJBG67JHPAJF","either","7","298","","","","","","","1","0","0","0.8","","0.5","0.5","","","","","","","0.8","0.2","","","","","","","","","","","","74","J","0","img/none_selected_demo.jpg","true","0","80_20_practice",""
"","bandit","37","276733","0.0-18.0-18.0","63642213","wem/bandit_party_2","A3BJBG67JHPAJF","either","7","305","","","","","","","0","1","0","","0.8","0.5","0.5","","","0.8","0.2","","","","","","","","","","","","","","","","74","J","0","img/none_selected_demo.jpg","true","0","80_20_practice",""
"","bandit","38","278576","0.0-18.0-19.0","63642213","wem/bandit_party_2","A3BJBG67JHPAJF","either","7","335","","","","","","","0","1","0","","0.8","0.5","0.5","","","0.8","0.2","","","","","","","","","","","","","","","","74","J","0","img/none_selected_demo.jpg","true","0","80_20_practice",""
"","text-replacement","39","284834","0.0-19.0","63642213","wem/bandit_party_2","A3BJBG67JHPAJF","either","7","6255","","","32","","","","","","","","","","","","","","","","","","","","","","","","","","","","","","","","","","","","",""
"","bandit","40","288065","0.0-20.0-0.0","63642213","wem/bandit_party_2","A3BJBG67JHPAJF","either","7","1722","","","","","","","1","0","0","1","0","","","","","0","1","","","1","0","","","","","","","","","","","","74","J","0","img/none_selected_demo.jpg","true","0","",""
"","text-replacement","41","288221","0.0-21.0","63642213","wem/bandit_party_2","A3BJBG67JHPAJF","either","7","152","","","32","","","","","","","","","","","","","","","","","","","","","","","","","","","","","","","","","","","","",""
"","text-replacement","42","292210","0.0-22.0","63642213","wem/bandit_party_2","A3BJBG67JHPAJF","either","7","3985","","","32","","","","","","","","","","","","","","","","","","","","","","","","","","","","","","","","","","","","",""
"","text-replacement","43","296492","0.0-23.0","63642213","wem/bandit_party_2","A3BJBG67JHPAJF","either","7","4278","","","32","","","","","","","","","","","","","","","","","","","","","","","","","","","","","","","","","","","","",""
"","text-replacement","44","300979","0.0-24.0","63642213","wem/bandit_party_2","A3BJBG67JHPAJF","either","7","4484","","","32","","","","","","","","","","","","","","","","","","","","","","","","","","","","","","","","","","","","",""
"","text-replacement","45","320502","0.0-25.0","63642213","wem/bandit_party_2","A3BJBG67JHPAJF","either","7","19520","","","32","","","","","","","","","","","","","","","","","","","","","","","","","","","","","","","","","","","","",""
"","text-replacement","46","324735","0.0-26.0","63642213","wem/bandit_party_2","A3BJBG67JHPAJF","either","7","4232","","","32","","","","","","","","","","","","","","","","","","","","","","","","","","","","","","","","","","","","",""
"","text-replacement","47","331532","0.0-27.0","63642213","wem/bandit_party_2","A3BJBG67JHPAJF","either","7","6793","","","32","","","","","","","","","","","","","","","","","","","","","","","","","","","","","","","","","","","","",""
"","text-replacement","48","341226","0.0-28.0","63642213","wem/bandit_party_2","A3BJBG67JHPAJF","either","7","9690","","","32","","","","","","","","","","","","","","","","","","","","","","","","","","","","","","","","","","","","",""
"","text-replacement","49","346677","0.0-29.0","63642213","wem/bandit_party_2","A3BJBG67JHPAJF","either","7","5446","","","32","","","","","","","","","","","","","","","","","","","","","","","","","","","","","","","","","","","","",""
"","text-replacement","50","349250","0.0-30.0","63642213","wem/bandit_party_2","A3BJBG67JHPAJF","either","7","2570","","","32","","","","","","","","","","","","","","","","","","","","","","","","","","","","","","","","","","","","",""
"","text-replacement","51","357754","0.0-31.0","63642213","wem/bandit_party_2","A3BJBG67JHPAJF","either","7","8500","","","32","","","","","","","","","","","","","","","","","","","","","","","","","","","","","","","","","","","","",""
"","bandit","52","361111","0.0-32.0-0.0","63642213","wem/bandit_party_2","A3BJBG67JHPAJF","either","7","1849","","","","","","","1","0","0","0.8","","0.5","0.5","0.5","0.5","","","","","0.8","0.2","0.6","0.2","","","","","","","","","","72","H","0","img/none_selected.jpg","true","0","full_practice",""
"","bandit","53","362885","0.0-32.0-1.0","63642213","wem/bandit_party_2","A3BJBG67JHPAJF","either","7","264","","","","","","","0","0","1","","0.8","0.5","0.5","0.5","0.5","0.8","0.2","0.6","0.2","","","","","","","","","","","","","","72","H","0","img/none_selected.jpg","true","0","full_practice",""
"","bandit","54","365427","0.0-32.0-2.0","63642213","wem/bandit_party_2","A3BJBG67JHPAJF","either","7","1034","","","","","","","0","1","0","","0.8","0.5","0.5","0.5","0.5","0.8","0.2","0.6","0.2","","","","","","","","","","","","","","72","H","0","img/none_selected.jpg","true","0","full_practice",""
"","bandit","55","367208","0.0-32.0-3.0","63642213","wem/bandit_party_2","A3BJBG67JHPAJF","either","7","273","","","","","","","0","1","0","","0.8","0.5","0.5","0.5","0.5","0.8","0.2","0.6","0.2","","","","","","","","","","","","","","72","H","0","img/none_selected.jpg","true","0","full_practice",""
"","bandit","56","369072","0.0-32.0-4.0","63642213","wem/bandit_party_2","A3BJBG67JHPAJF","either","7","355","","","","","","","1","0","0","0.8","","0.5","0.5","0.5","0.5","","","","","0.8","0.2","0.6","0.2","","","","","","","","","","72","H","0","img/none_selected.jpg","true","0","full_practice",""
"","bandit","57","370885","0.0-32.0-5.0","63642213","wem/bandit_party_2","A3BJBG67JHPAJF","either","7","306","","","","","","","1","0","0","0.8","","0.5","0.5","0.5","0.5","","","","","0.8","0.2","0.6","0.2","","","","","","","","","","72","H","0","img/none_selected.jpg","true","0","full_practice",""
"","bandit","58","372712","0.0-32.0-6.0","63642213","wem/bandit_party_2","A3BJBG67JHPAJF","either","7","318","","","","","","","0","1","0","","0.8","0.5","0.5","0.5","0.5","0.8","0.2","0.6","0.2","","","","","","","","","","","","","","72","H","0","img/none_selected.jpg","true","0","full_practice",""
"","bandit","59","374544","0.0-32.0-7.0","63642213","wem/bandit_party_2","A3BJBG67JHPAJF","either","7","322","","","","","","","0","0","1","","0.8","0.5","0.5","0.5","0.5","0.8","0.2","0.6","0.2","","","","","","","","","","","","","","72","H","0","img/none_selected.jpg","true","0","full_practice",""
"","bandit","60","376361","0.0-32.0-8.0","63642213","wem/bandit_party_2","A3BJBG67JHPAJF","either","7","305","","","","","","","0","0","1","0.2","","0.5","0.5","0.5","0.5","","","","","0.8","0.2","0.6","0.2","","","","","","","","","","74","J","1","","true","0","full_practice",""
"","bandit","61","379262","0.0-32.0-9.0","63642213","wem/bandit_party_2","A3BJBG67JHPAJF","either","7","1391","","","","","","","0","1","0","","0.2","0.5","0.5","0.5","0.5","0.8","0.2","0.6","0.2","","","","","","","","","","","","","","74","J","1","","true","0","full_practice",""
"","bandit","62","381088","0.0-32.0-10.0","63642213","wem/bandit_party_2","A3BJBG67JHPAJF","either","7","315","","","","","","","0","0","1","","0.2","0.5","0.5","0.5","0.5","0.8","0.2","0.6","0.2","","","","","","","","","","","","","","74","J","1","","true","0","full_practice",""
"","bandit","63","382928","0.0-32.0-11.0","63642213","wem/bandit_party_2","A3BJBG67JHPAJF","either","7","335","","","","","","","0","0","1","","0.2","0.5","0.5","0.5","0.5","0.8","0.2","0.6","0.2","","","","","","","","","","","","","","74","J","1","","true","0","full_practice",""
"","bandit","64","384933","0.0-32.0-12.0","63642213","wem/bandit_party_2","A3BJBG67JHPAJF","either","7","495","","","","","","","1","0","0","0.6","","0.5","0.5","0.5","0.5","","","","","0.8","0.2","0.6","0.2","","","","","","","","","","75","K","2","","true","0","full_practice",""
"","bandit","65","386999","0.0-32.0-13.0","63642213","wem/bandit_party_2","A3BJBG67JHPAJF","either","7","560","","","","","","","0","1","0","","0.6","0.5","0.5","0.5","0.5","0.8","0.2","0.6","0.2","","","","","","","","","","","","","","75","K","2","","true","0","full_practice",""
"","bandit","66","388814","0.0-32.0-14.0","63642213","wem/bandit_party_2","A3BJBG67JHPAJF","either","7","305","","","","","","","0","0","1","0.6","","0.5","0.5","0.5","0.5","","","","","0.8","0.2","0.6","0.2","","","","","","","","","","75","K","2","","true","0","full_practice",""
"","bandit","67","390628","0.0-32.0-15.0","63642213","wem/bandit_party_2","A3BJBG67JHPAJF","either","7","301","","","","","","","1","0","0","0.6","","0.5","0.5","0.5","0.5","","","","","0.8","0.2","0.6","0.2","","","","","","","","","","75","K","2","","true","0","full_practice",""
"","bandit","68","392451","0.0-32.0-16.0","63642213","wem/bandit_party_2","A3BJBG67JHPAJF","either","7","308","","","","","","","1","0","0","0.6","","0.5","0.5","0.5","0.5","","","","","0.8","0.2","0.6","0.2","","","","","","","","","","75","K","2","","true","0","full_practice",""
"","bandit","69","394485","0.0-32.0-17.0","63642213","wem/bandit_party_2","A3BJBG67JHPAJF","either","7","527","","","","","","","1","0","0","0.6","","0.5","0.5","0.5","0.5","","","","","0.8","0.2","0.6","0.2","","","","","","","","","","75","K","2","","true","0","full_practice",""
"","bandit","70","396812","0.0-32.0-18.0","63642213","wem/bandit_party_2","A3BJBG67JHPAJF","either","7","817","","","","","","","1","0","0","0.6","","0.5","0.5","0.5","0.5","","","","","0.8","0.2","0.6","0.2","","","","","","","","","","75","K","2","","true","0","full_practice",""
"","bandit","71","398750","0.0-32.0-19.0","63642213","wem/bandit_party_2","A3BJBG67JHPAJF","either","7","428","","","","","","","1","0","0","0.6","","0.5","0.5","0.5","0.5","","","","","0.8","0.2","0.6","0.2","","","","","","","","","","75","K","2","","true","0","full_practice",""
"","text","72","403404","0.0-33.0","63642213","wem/bandit_party_2","A3BJBG67JHPAJF","either","7","4650","","","32","","","","","","","","","","","","","","","","","","","","","","","","","","","","","","","","","","","","",""
"","text-replacement","73","419048","0.0-34.0","63642213","wem/bandit_party_2","A3BJBG67JHPAJF","either","7","14637","","","32","","","","","","","","","","","","","","","","","","","","","","","","","","","","","","","","","","","","",""
"","text-replacement","74","438214","0.0-35.0","63642213","wem/bandit_party_2","A3BJBG67JHPAJF","either","7","19160","","","32","","","","","","","","","","","","","","","","","","","","","","","","","","","","","","","","","","","","",""
"","text-replacement","75","451978","0.0-36.0","63642213","wem/bandit_party_2","A3BJBG67JHPAJF","either","7","13760","","","32","","","","","","","","","","","","","","","","","","","","","","","","","","","","","","","","","","","","",""
"","text-replacement","76","458162","0.0-37.0","63642213","wem/bandit_party_2","A3BJBG67JHPAJF","either","7","6178","","","32","","","","","","","","","","","","","","","","","","","","","","","","","","","","","","","","","","","","",""
"","text-replacement","77","472541","0.0-38.0","63642213","wem/bandit_party_2","A3BJBG67JHPAJF","either","7","14375","","","32","","","","","","","","","","","","","","","","","","","","","","","","","","","","","","","","","","","","",""
"","survey-multi-choice-replacement","78","479142","0.0-39.0-0.0","63642213","wem/bandit_party_2","A3BJBG67JHPAJF","either","7","6587","","","","","","","","","","","","","","","","","","","","","","","","Money will be added to the pool for <span style='color:blue;'>DEMOCRATS</span>","","","","","","","attn_check","","","","","","","","","0"
"","survey-multi-choice-replacement","79","486190","0.0-40.0-0.0","63642213","wem/bandit_party_2","A3BJBG67JHPAJF","either","7","6040","","","","","","","","","","","","","","","","","","","","","","","","Equal amounts of money will be added to the pool for <span style='color:blue;'>DEMOCRATS</span> and subtracted from the pool for <span style='color:red;'>REPUBLICANS</span>","","","","","","","attn_check","","","","","","","","","2"
"","survey-multi-choice-replacement","80","490812","0.0-41.0-0.0","63642213","wem/bandit_party_2","A3BJBG67JHPAJF","either","7","3613","","","","","","","","","","","","","","","","","","","","","","","","No money will be added to either pool","","","","","","","attn_check","","","","","","","","","3"
"","bandit","81","495388","0.0-42.0-0.0","63642213","wem/bandit_party_2","A3BJBG67JHPAJF","either","7","2060","","","","","","","0","0","1","0.1731741302","","0.8","0.2","0.4","0.6","","","","","0.1731741302","0.5514722813","0.2888626749","0.7088318221","","","","","","","","","","72","H","0","img/none_selected.jpg","","1","main_expt",""
"","bandit","82","497248","0.0-43.0-0.0","63642213","wem/bandit_party_2","A3BJBG67JHPAJF","either","7","348","","","","","","","0","0","1","","0.5039303977","0.8","0.2","0.4","0.6","0.2874485847","0.5039303977","0.3999538902","0.6292935488","","","","","","","","","","","","","","74","J","1","","","2","main_expt",""
"","bandit","83","499128","0.0-44.0-0.0","63642213","wem/bandit_party_2","A3BJBG67JHPAJF","either","7","367","","","","","","","0","0","1","0.4126831114","","0.8","0.2","0.4","0.6","","","","","0.2683250969","0.5527877924","0.4126831114","0.5285482983","","","","","","","","","","75","K","2","","","3","main_expt",""
"","bandit","84","500928","0.0-45.0-0.0","63642213","wem/bandit_party_2","A3BJBG67JHPAJF","either","7","290","","","","","","","1","0","0","0.6744491701","","0.8","0.2","0.4","0.6","","","","","0.3988631097","0.6336700584","0.3923803367","0.6744491701","","","","","","","","","","76","L","3","","","4","main_expt",""
"","bandit","85","502741","0.0-46.0-0.0","63642213","wem/bandit_party_2","A3BJBG67JHPAJF","either","7","304","","","","","","","1","0","0","0.7922285807","","0.8","0.2","0.4","0.6","","","","","0.3568799457","0.6340088104","0.3803283439","0.7922285807","","","","","","","","","","76","L","3","","","5","main_expt",""
"","bandit","86","504505","0.0-47.0-0.0","63642213","wem/bandit_party_2","A3BJBG67JHPAJF","either","7","247","","","","","","","1","0","0","0.7459441126","","0.8","0.2","0.4","0.6","","","","","0.3188731731","0.5784181907","0.4214296899","0.7459441126","","","","","","","","","","76","L","3","","","6","main_expt",""
"","bandit","87","506304","0.0-48.0-0.0","63642213","wem/bandit_party_2","A3BJBG67JHPAJF","either","7","284","","","","","","","0","0","1","","0.7681481668","0.8","0.2","0.4","0.6","0.4574196012","0.6727083857","0.4755968838","0.7681481668","","","","","","","","","","","","","","76","L","3","","","7","main_expt",""
"","bandit","88","508066","0.0-49.0-0.0","63642213","wem/bandit_party_2","A3BJBG67JHPAJF","either","7","251","","","","","","","0","0","1","0.7251609313","","0.8","0.2","0.4","0.6","","","","","0.5037884951","0.7574508858","0.5353568537","0.7251609313","","","","","","","","","","76","L","3","","","8","main_expt",""
"","bandit","89","509825","0.0-50.0-0.0","63642213","wem/bandit_party_2","A3BJBG67JHPAJF","either","7","239","","","","","","","0","1","0","","0.5750013994","0.8","0.2","0.4","0.6","0.5750013994","0.8280759311","0.6246831942","0.7403055102","","","","","","","","","","","","","","72","H","0","img/none_selected.jpg","","9","main_expt",""
"","bandit","90","511612","0.0-51.0-0.0","63642213","wem/bandit_party_2","A3BJBG67JHPAJF","either","7","276","","","","","","","0","0","1","0.5399040382","","0.8","0.2","0.4","0.6","","","","","0.5399040382","0.859726102","0.4475954046","0.722944265","","","","","","","","","","72","H","0","img/none_selected.jpg","","10","main_expt",""
"","bandit","91","513393","0.0-52.0-0.0","63642213","wem/bandit_party_2","A3BJBG67JHPAJF","either","7","270","","","","","","","0","0","1","0.5181098662","","0.8","0.2","0.4","0.6","","","","","0.5181098662","0.877956501","0.4514702697","0.6833847698","","","","","","","","","","72","H","0","img/none_selected.jpg","","11","main_expt",""
"","bandit","92","515356","0.0-53.0-0.0","63642213","wem/bandit_party_2","A3BJBG67JHPAJF","either","7","450","","","","","","","0","1","0","","0.8883669707","0.8","0.2","0.4","0.6","0.5489165229","0.8883669707","0.4873058782","0.689227163","","","","","","","","","","","","","","74","J","1","","","12","main_expt",""
"","bandit","93","516917","0.0-54.0-0.0","63642213","wem/bandit_party_2","A3BJBG67JHPAJF","either","7","53","","","","","","","0","0","1","","0.817149195","0.8","0.2","0.4","0.6","0.6186986429","0.817149195","0.4862469224","0.5178623456","","","","","","","","","","","","","","74","J","1","","","13","main_expt",""
"","bandit","94","518744","0.0-55.0-0.0","63642213","wem/bandit_party_2","A3BJBG67JHPAJF","either","7","318","","","","","","","0","1","0","","0.8589139609","0.8","0.2","0.4","0.6","0.4944095791","0.8589139609","0.360908092","0.4768489018","","","","","","","","","","","","","","74","J","1","","","14","main_expt",""
"","bandit","95","520538","0.0-56.0-0.0","63642213","wem/bandit_party_2","A3BJBG67JHPAJF","either","7","285","","","","","","","0","0","1","","0.7955781648","0.8","0.2","0.4","0.6","0.4820951366","0.7955781648","0.4126647893","0.5201849276","","","","","","","","","","","","","","74","J","1","","","15","main_expt",""
"","bandit","96","522714","0.0-57.0-0.0","63642213","wem/bandit_party_2","A3BJBG67JHPAJF","either","7","664","","","","","","","1","0","0","0.8864445785","","0.8","0.2","0.4","0.6","","","","","0.4888848296","0.8864445785","0.4930686601","0.6862231469","","","","","","","","","","74","J","1","","","16","main_expt",""
"","bandit","97","524516","0.0-58.0-0.0","63642213","wem/bandit_party_2","A3BJBG67JHPAJF","either","7","294","","","","","","","1","0","0","0.8746062981","","0.8","0.2","0.4","0.6","","","","","0.381306026","0.8746062981","0.5162343008","0.7297328357","","","","","","","","","","74","J","1","","","17","main_expt",""
"","bandit","98","526309","0.0-59.0-0.0","63642213","wem/bandit_party_2","A3BJBG67JHPAJF","either","7","282","","","","","","","1","0","0","0.8910236512","","0.8","0.2","0.4","0.6","","","","","0.3537135189","0.8910236512","0.5627456494","0.6686287009","","","","","","","","","","74","J","1","","","18","main_expt",""
"","bandit","99","528095","0.0-60.0-0.0","63642213","wem/bandit_party_2","A3BJBG67JHPAJF","either","7","274","","","","","","","1","0","0","0.8932054573","","0.8","0.2","0.4","0.6","","","","","0.4891458502","0.8932054573","0.4478227807","0.7885428456","","","","","","","","","","74","J","1","","","19","main_expt",""
"","bandit","100","529850","0.0-61.0-0.0","63642213","wem/bandit_party_2","A3BJBG67JHPAJF","either","7","241","","","","","","","0","1","0","","0.8900063933","0.8","0.2","0.4","0.6","0.5440957398","0.8900063933","0.5306796692","0.7442236049","","","","","","","","","","","","","","74","J","1","","","20","main_expt",""
"","bandit","101","531644","0.0-62.0-0.0","63642213","wem/bandit_party_2","A3BJBG67JHPAJF","either","7","282","","","","","","","0","1","0","","0.8748704397","0.8","0.2","0.4","0.6","0.5621313733","0.8748704397","0.5423611418","0.7908218503","","","","","","","","","","","","","","74","J","1","","","21","main_expt",""
"","bandit","102","533424","0.0-63.0-0.0","63642213","wem/bandit_party_2","A3BJBG67JHPAJF","either","7","274","","","","","","","0","1","0","","0.8498769136","0.8","0.2","0.4","0.6","0.5296345876","0.8498769136","0.4190568807","0.7163236006","","","","","","","","","","","","","","74","J","1","","","22","main_expt",""
"","bandit","103","535255","0.0-64.0-0.0","63642213","wem/bandit_party_2","A3BJBG67JHPAJF","either","7","322","","","","","","","0","1","0","","0.8357449374","0.8","0.2","0.4","0.6","0.5187107172","0.8357449374","0.4329937009","0.7061190667","","","","","","","","","","","","","","74","J","1","","","23","main_expt",""
"","bandit","104","537217","0.0-65.0-0.0","63642213","wem/bandit_party_2","A3BJBG67JHPAJF","either","7","452","","","","","","","1","0","0","0.8431908073","","0.8","0.2","0.4","0.6","","","","","0.6000521927","0.8431908073","0.4298879426","0.7470556917","","","","","","","","","","74","J","1","","","24","main_expt",""
"","bandit","105","538970","0.0-66.0-0.0","63642213","wem/bandit_party_2","A3BJBG67JHPAJF","either","7","247","","","","","","","0","1","0","","0.8741885854","0.8","0.2","0.4","0.6","0.5443047256","0.8741885854","0.2992323157","0.8154180688","","","","","","","","","","","","","","74","J","1","","","25","main_expt",""
"","bandit","106","540778","0.0-67.0-0.0","63642213","wem/bandit_party_2","A3BJBG67JHPAJF","either","7","301","","","","","","","0","1","0","","0.8940719671","0.8","0.2","0.4","0.6","0.592493964","0.8940719671","0.3857263224","0.8395379789","","","","","","","","","","","","","","74","J","1","","","26","main_expt",""
"","bandit","107","542571","0.0-68.0-0.0","63642213","wem/bandit_party_2","A3BJBG67JHPAJF","either","7","287","","","","","","","0","1","0","","0.8733378856","0.8","0.2","0.4","0.6","0.5779569403","0.8733378856","0.3715251318","0.8023078409","","","","","","","","","","","","","","74","J","1","","","27","main_expt",""
"","bandit","108","544525","0.0-69.0-0.0","63642213","wem/bandit_party_2","A3BJBG67JHPAJF","either","7","441","","","","","","","0","1","0","","0.8695586723","0.8","0.2","0.4","0.6","0.7077223562","0.8695586723","0.3387808014","0.8248968235","","","","","","","","","","","","","","74","J","1","","","28","main_expt",""
"","bandit","109","546454","0.0-70.0-0.0","63642213","wem/bandit_party_2","A3BJBG67JHPAJF","either","7","416","","","","","","","0","1","0","","0.7908290088","0.8","0.2","0.4","0.6","0.7070353494","0.7908290088","0.3737397218","0.8621011303","","","","","","","","","","","","","","74","J","1","","","29","main_expt",""
"","bandit","110","548306","0.0-71.0-0.0","63642213","wem/bandit_party_2","A3BJBG67JHPAJF","either","7","345","","","","","","","0","1","0","","0.8518997755","0.8","0.2","0.4","0.6","0.6585428656","0.8518997755","0.3232047389","0.8873668535","","","","","","","","","","","","","","74","J","1","","","30","main_expt",""
"","bandit","111","550159","0.0-72.0-0.0","63642213","wem/bandit_party_2","A3BJBG67JHPAJF","either","7","343","","","","","","","1","0","0","0.8509842625","","0.8","0.2","0.4","0.6","","","","","0.6724088618","0.8509842625","0.4130267239","0.9318975106","","","","","","","","","","74","J","1","","","31","main_expt",""
"","bandit","112","551983","0.0-73.0-0.0","63642213","wem/bandit_party_2","A3BJBG67JHPAJF","either","7","312","","","","","","","0","1","0","","0.872996121","0.8","0.2","0.4","0.6","0.6416581209","0.872996121","0.4167758813","0.9013609786","","","","","","","","","","","","","","74","J","1","","","32","main_expt",""
"","bandit","113","553754","0.0-74.0-0.0","63642213","wem/bandit_party_2","A3BJBG67JHPAJF","either","7","260","","","","","","","0","1","0","","0.8571046391","0.8","0.2","0.4","0.6","0.7055802426","0.8571046391","0.4546052232","0.9041531295","","","","","","","","","","","","","","74","J","1","","","33","main_expt",""
"","bandit","114","555563","0.0-75.0-0.0","63642213","wem/bandit_party_2","A3BJBG67JHPAJF","either","7","296","","","","","","","0","0","1","0.9175819521","","0.8","0.2","0.4","0.6","","","","","0.7554114371","0.9175819521","0.5231803088","0.9386104272","","","","","","","","","","74","J","1","","","34","main_expt",""
"","bandit","115","557424","0.0-76.0-0.0","63642213","wem/bandit_party_2","A3BJBG67JHPAJF","either","7","351","","","","","","","0","0","1","0.4661188593","","0.8","0.2","0.4","0.6","","","","","0.8008095759","0.9503165686","0.4661188593","0.9180645683","","","","","","","","","","75","K","2","","","35","main_expt",""
"","bandit","116","559184","0.0-77.0-0.0","63642213","wem/bandit_party_2","A3BJBG67JHPAJF","either","7","252","","","","","","","0","0","1","","0.4106027186","0.8","0.2","0.4","0.6","0.6925109639","0.9327615424","0.4106027186","0.9095107155","","","","","","","","","","","","","","75","K","2","","","36","main_expt",""
"","bandit","117","560957","0.0-78.0-0.0","63642213","wem/bandit_party_2","A3BJBG67JHPAJF","either","7","259","","","","","","","0","1","0","","0.9196494001","0.8","0.2","0.4","0.6","0.7764255689","0.9196494001","0.5021263718","0.9405648028","","","","","","","","","","","","","","74","J","1","","","37","main_expt",""
"","bandit","118","562753","0.0-79.0-0.0","63642213","wem/bandit_party_2","A3BJBG67JHPAJF","either","7","286","","","","","","","0","1","0","","0.928530414","0.8","0.2","0.4","0.6","0.8392953971","0.928530414","0.5065313343","0.9058459248","","","","","","","","","","","","","","74","J","1","","","38","main_expt",""
"","bandit","119","564547","0.0-80.0-0.0","63642213","wem/bandit_party_2","A3BJBG67JHPAJF","either","7","283","","","","","","","0","1","0","","0.9001545702","0.8","0.2","0.4","0.6","0.7614495855","0.9001545702","0.6098243774","0.8784462517","","","","","","","","","","","","","","74","J","1","","","39","main_expt",""
"","bandit","120","566368","0.0-81.0-0.0","63642213","wem/bandit_party_2","A3BJBG67JHPAJF","either","7","313","","","","","","","1","0","0","0.8432481254","","0.8","0.2","0.4","0.6","","","","","0.8060705796","0.8432481254","0.679699592","0.8408568766","","","","","","","","","","74","J","1","","","40","main_expt",""
"","bandit","121","568100","0.0-82.0-0.0","63642213","wem/bandit_party_2","A3BJBG67JHPAJF","either","7","222","","","","","","","1","0","0","0.8326479564","","0.8","0.2","0.4","0.6","","","","","0.7539991053","0.8326479564","0.616488607","0.811342849","","","","","","","","","","74","J","1","","","41","main_expt",""
"","bandit","122","569897","0.0-83.0-0.0","63642213","wem/bandit_party_2","A3BJBG67JHPAJF","either","7","288","","","","","","","0","1","0","","0.8602810298","0.8","0.2","0.4","0.6","0.7717369324","0.8602810298","0.6307104111","0.8058808774","","","","","","","","","","","","","","74","J","1","","","42","main_expt",""
"","bandit","123","571669","0.0-84.0-0.0","63642213","wem/bandit_party_2","A3BJBG67JHPAJF","either","7","261","","","","","","","0","1","0","","0.894365654","0.8","0.2","0.4","0.6","0.7625968551","0.894365654","0.554567591","0.7899844578","","","","","","","","","","","","","","74","J","1","","","43","main_expt",""
"","bandit","124","573502","0.0-85.0-0.0","63642213","wem/bandit_party_2","A3BJBG67JHPAJF","either","7","324","","","","","","","0","0","1","0.9033664713","","0.8","0.2","0.4","0.6","","","","","0.8488621298","0.9033664713","0.5281861223","0.7654486741","","","","","","","","","","74","J","1","","","44","main_expt",""
"","bandit","125","575306","0.0-86.0-0.0","63642213","wem/bandit_party_2","A3BJBG67JHPAJF","either","7","292","","","","","","","0","1","0","","0.8829964613","0.8","0.2","0.4","0.6","0.8522077325","0.8829964613","0.5043334007","0.7674111825","","","","","","","","","","","","","","74","J","1","","","45","main_expt",""
"","bandit","126","577184","0.0-87.0-0.0","63642213","wem/bandit_party_2","A3BJBG67JHPAJF","either","7","367","","","","","","","0","1","0","","0.8674694879","0.8","0.2","0.4","0.6","0.8618589195","0.8674694879","0.5426256613","0.6301273516","","","","","","","","","","","","","","74","J","1","","","46","main_expt",""
"","bandit","127","578961","0.0-88.0-0.0","63642213","wem/bandit_party_2","A3BJBG67JHPAJF","either","7","269","","","","","","","0","1","0","","0.8886720039","0.8","0.2","0.4","0.6","0.905897833","0.8886720039","0.5024796093","0.7885969413","","","","","","","","","","","","","","74","J","1","","","47","main_expt",""
"","bandit","128","580730","0.0-89.0-0.0","63642213","wem/bandit_party_2","A3BJBG67JHPAJF","either","7","259","","","","","","","0","0","1","","0.9229902905","0.8","0.2","0.4","0.6","0.8929468812","0.9229902905","0.4689138593","0.7983786211","","","","","","","","","","","","","","74","J","1","","","48","main_expt",""
"","bandit","129","582465","0.0-90.0-0.0","63642213","wem/bandit_party_2","A3BJBG67JHPAJF","either","7","223","","","","","","","1","0","0","0.9141434128","","0.8","0.2","0.4","0.6","","","","","0.854905512","0.9141434128","0.4439560463","0.8249867574","","","","","","","","","","74","J","1","","","49","main_expt",""
"","bandit","130","584170","0.0-91.0-0.0","63642213","wem/bandit_party_2","A3BJBG67JHPAJF","either","7","191","","","","","","","0","1","0","","0.9181160336","0.8","0.2","0.4","0.6","0.8363103738","0.9181160336","0.4079842927","0.7532301684","","","","","","","","","","","","","","74","J","1","","","50","main_expt",""
"","bandit","131","585998","0.0-92.0-0.0","63642213","wem/bandit_party_2","A3BJBG67JHPAJF","either","7","322","","","","","","","0","1","0","","0.9266489825","0.8","0.2","0.4","0.6","0.7168506975","0.9266489825","0.4675199832","0.6750909554","","","","","","","","","","","","","","74","J","1","","","51","main_expt",""
"","bandit","132","587820","0.0-93.0-0.0","63642213","wem/bandit_party_2","A3BJBG67JHPAJF","either","7","308","","","","","","","0","1","0","","0.9285581488","0.8","0.2","0.4","0.6","0.6507986152","0.9285581488","0.4368052975","0.6762079337","","","","","","","","","","","","","","74","J","1","","","52","main_expt",""
"","bandit","133","589657","0.0-94.0-0.0","63642213","wem/bandit_party_2","A3BJBG67JHPAJF","either","7","330","","","","","","","0","1","0","","0.9171724481","0.8","0.2","0.4","0.6","0.6531867096","0.9171724481","0.4967902672","0.7882030045","","","","","","","","","","","","","","74","J","1","","","53","main_expt",""
"","bandit","134","591480","0.0-95.0-0.0","63642213","wem/bandit_party_2","A3BJBG67JHPAJF","either","7","307","","","","","","","0","1","0","","0.8709862684","0.8","0.2","0.4","0.6","0.6178049746","0.8709862684","0.5321533453","0.8759533557","","","","","","","","","","","","","","74","J","1","","","54","main_expt",""
"","bandit","135","593295","0.0-96.0-0.0","63642213","wem/bandit_party_2","A3BJBG67JHPAJF","either","7","303","","","","","","","0","1","0","","0.9016108676","0.8","0.2","0.4","0.6","0.5501477499","0.9016108676","0.593251847","0.9307112091","","","","","","","","","","","","","","74","J","1","","","55","main_expt",""
"","bandit","136","595074","0.0-97.0-0.0","63642213","wem/bandit_party_2","A3BJBG67JHPAJF","either","7","269","","","","","","","0","1","0","","0.9123335035","0.8","0.2","0.4","0.6","0.5181914202","0.9123335035","0.602347159","0.9486344027","","","","","","","","","","","","","","74","J","1","","","56","main_expt",""
"","bandit","137","596844","0.0-98.0-0.0","63642213","wem/bandit_party_2","A3BJBG67JHPAJF","either","7","262","","","","","","","1","0","0","0.9338523698","","0.8","0.2","0.4","0.6","","","","","0.5052283364","0.9338523698","0.736851976","0.9450559811","","","","","","","","","","74","J","1","","","57","main_expt",""
"","bandit","138","598643","0.0-99.0-0.0","63642213","wem/bandit_party_2","A3BJBG67JHPAJF","either","7","287","","","","","","","0","1","0","","0.9023069914","0.8","0.2","0.4","0.6","0.4494585665","0.9023069914","0.7112026436","0.960587128","","","","","","","","","","","","","","74","J","1","","","58","main_expt",""
"","bandit","139","600444","0.0-100.0-0.0","63642213","wem/bandit_party_2","A3BJBG67JHPAJF","either","7","295","","","","","","","0","1","0","","0.903153386","0.8","0.2","0.4","0.6","0.4431029696","0.903153386","0.7605469626","0.9272570312","","","","","","","","","","","","","","74","J","1","","","59","main_expt",""
"","bandit","140","602255","0.0-101.0-0.0","63642213","wem/bandit_party_2","A3BJBG67JHPAJF","either","7","305","","","","","","","1","0","0","0.8975643475","","0.8","0.2","0.4","0.6","","","","","0.4213069188","0.8975643475","0.6504737249","0.9075075979","","","","","","","","","","74","J","1","","","60","main_expt",""
"","bandit","141","604028","0.0-102.0-0.0","63642213","wem/bandit_party_2","A3BJBG67JHPAJF","either","7","267","","","","","","","0","0","1","","0.8455107238","0.8","0.2","0.4","0.6","0.4735464544","0.8455107238","0.7417300409","0.9011961695","","","","","","","","","","","","","","74","J","1","","","61","main_expt",""
"","bandit","142","605720","0.0-103.0-0.0","63642213","wem/bandit_party_2","A3BJBG67JHPAJF","either","7","181","","","","","","","0","1","0","","0.8423106617","0.8","0.2","0.4","0.6","0.4260239588","0.8423106617","0.6889655243","0.9025442902","","","","","","","","","","","","","","74","J","1","","","62","main_expt",""
"","bandit","143","607408","0.0-104.0-0.0","63642213","wem/bandit_party_2","A3BJBG67JHPAJF","either","7","173","","","","","","","0","1","0","","0.6997676278","0.8","0.2","0.4","0.6","0.4048641732","0.6997676278","0.7532165261","0.900711875","","","","","","","","","","","","","","74","J","1","","","63","main_expt",""
"","bandit","144","609110","0.0-105.0-0.0","63642213","wem/bandit_party_2","A3BJBG67JHPAJF","either","7","192","","","","","","","1","0","0","0.8033841581","","0.8","0.2","0.4","0.6","","","","","0.261135461","0.8033841581","0.7614619666","0.8445511995","","","","","","","","","","74","J","1","","","64","main_expt",""
"","bandit","145","610903","0.0-106.0-0.0","63642213","wem/bandit_party_2","A3BJBG67JHPAJF","either","7","284","","","","","","","0","1","0","","0.8458775523","0.8","0.2","0.4","0.6","0.4398785507","0.8458775523","0.7474824059","0.7838665633","","","","","","","","","","","","","","74","J","1","","","65","main_expt",""
"","bandit","146","612699","0.0-107.0-0.0","63642213","wem/bandit_party_2","A3BJBG67JHPAJF","either","7","288","","","","","","","0","1","0","","0.8612648572","0.8","0.2","0.4","0.6","0.4549930047","0.8612648572","0.7083026918","0.8399866527","","","","","","","","","","","","","","74","J","1","","","66","main_expt",""
"","bandit","147","614493","0.0-108.0-0.0","63642213","wem/bandit_party_2","A3BJBG67JHPAJF","either","7","285","","","","","","","0","1","0","","0.8686018104","0.8","0.2","0.4","0.6","0.5565794079","0.8686018104","0.6535093674","0.9109535201","","","","","","","","","","","","","","74","J","1","","","67","main_expt",""
"","bandit","148","616268","0.0-109.0-0.0","63642213","wem/bandit_party_2","A3BJBG67JHPAJF","either","7","262","","","","","","","1","0","0","0.8693437115","","0.8","0.2","0.4","0.6","","","","","0.4211802827","0.8693437115","0.4923739087","0.9064065477","","","","","","","","","","74","J","1","","","68","main_expt",""
"","bandit","149","618068","0.0-110.0-0.0","63642213","wem/bandit_party_2","A3BJBG67JHPAJF","either","7","292","","","","","","","0","1","0","","0.9168970181","0.8","0.2","0.4","0.6","0.3687693293","0.9168970181","0.4898097669","0.9315833469","","","","","","","","","","","","","","74","J","1","","","69","main_expt",""
"","bandit","150","619848","0.0-111.0-0.0","63642213","wem/bandit_party_2","A3BJBG67JHPAJF","either","7","266","","","","","","","0","1","0","","0.9293527272","0.8","0.2","0.4","0.6","0.3460903474","0.9293527272","0.4369614599","0.9393923483","","","","","","","","","","","","","","74","J","1","","","70","main_expt",""
"","bandit","151","621660","0.0-112.0-0.0","63642213","wem/bandit_party_2","A3BJBG67JHPAJF","either","7","303","","","","","","","0","0","1","","0.949087413","0.8","0.2","0.4","0.6","0.3278112836","0.949087413","0.5031037484","0.9568343035","","","","","","","","","","","","","","74","J","1","","","71","main_expt",""
"","bandit","152","623538","0.0-113.0-0.0","63642213","wem/bandit_party_2","A3BJBG67JHPAJF","either","7","371","","","","","","","0","0","1","","0.906373323","0.8","0.2","0.4","0.6","0.2720469766","0.906373323","0.5397903688","0.947758434","","","","","","","","","","","","","","74","J","1","","","72","main_expt",""
"","bandit","153","625247","0.0-114.0-0.0","63642213","wem/bandit_party_2","A3BJBG67JHPAJF","either","7","201","","","","","","","0","1","0","","0.93965919","0.8","0.2","0.4","0.6","0.2451019773","0.93965919","0.5540652028","0.9052010222","","","","","","","","","","","","","","74","J","1","","","73","main_expt",""
"","bandit","154","627751","0.0-115.0-0.0","63642213","wem/bandit_party_2","A3BJBG67JHPAJF","either","7","988","","","","","","","0","1","0","","0.9416319858","0.8","0.2","0.4","0.6","0.2645862521","0.9416319858","0.61733434","0.927704936","","","","","","","","","","","","","","74","J","1","","","74","main_expt",""
"","bandit","155","629579","0.0-116.0-0.0","63642213","wem/bandit_party_2","A3BJBG67JHPAJF","either","7","313","","","","","","","0","1","0","","0.9535384208","0.8","0.2","0.4","0.6","0.2298582","0.9535384208","0.6341908543","0.8769567517","","","","","","","","","","","","","","74","J","1","","","75","main_expt",""
"","bandit","156","631363","0.0-117.0-0.0","63642213","wem/bandit_party_2","A3BJBG67JHPAJF","either","7","271","","","","","","","0","0","1","","0.9585479729","0.8","0.2","0.4","0.6","0.3460043445","0.9585479729","0.6355577018","0.8456064169","","","","","","","","","","","","","","74","J","1","","","76","main_expt",""
"","bandit","157","633214","0.0-118.0-0.0","63642213","wem/bandit_party_2","A3BJBG67JHPAJF","either","7","339","","","","","","","0","1","0","","0.9610253773","0.8","0.2","0.4","0.6","0.2526488818","0.9610253773","0.7055426269","0.8325595713","","","","","","","","","","","","","","74","J","1","","","77","main_expt",""
"","bandit","158","635047","0.0-119.0-0.0","63642213","wem/bandit_party_2","A3BJBG67JHPAJF","either","7","320","","","","","","","1","0","0","0.9580320452","","0.8","0.2","0.4","0.6","","","","","0.2625396382","0.9580320452","0.6137882531","0.9128982172","","","","","","","","","","74","J","1","","","78","main_expt",""
"","bandit","159","636821","0.0-120.0-0.0","63642213","wem/bandit_party_2","A3BJBG67JHPAJF","either","7","260","","","","","","","0","1","0","","0.9403834825","0.8","0.2","0.4","0.6","0.2957535945","0.9403834825","0.668392527","0.9213349282","","","","","","","","","","","","","","74","J","1","","","79","main_expt",""
"","bandit","160","638569","0.0-121.0-0.0","63642213","wem/bandit_party_2","A3BJBG67JHPAJF","either","7","233","","","","","","","0","1","0","","0.946171157","0.8","0.2","0.4","0.6","0.1831261498","0.946171157","0.7457361895","0.8935563746","","","","","","","","","","","","","","74","J","1","","","80","main_expt",""
"","bandit","161","640312","0.0-122.0-0.0","63642213","wem/bandit_party_2","A3BJBG67JHPAJF","either","7","229","","","","","","","0","1","0","","0.9800092583","0.8","0.2","0.4","0.6","0.1450659425","0.9800092583","0.8028050151","0.932831263","","","","","","","","","","","","","","74","J","1","","","81","main_expt",""
"","bandit","162","642089","0.0-123.0-0.0","63642213","wem/bandit_party_2","A3BJBG67JHPAJF","either","7","265","","","","","","","0","1","0","","0.9666397243","0.8","0.2","0.4","0.6","0.1486641529","0.9666397243","0.8727424511","0.9403650082","","","","","","","","","","","","","","74","J","1","","","82","main_expt",""
"","bandit","163","643890","0.0-124.0-0.0","63642213","wem/bandit_party_2","A3BJBG67JHPAJF","either","7","288","","","","","","","0","1","0","","0.9637330664","0.8","0.2","0.4","0.6","0.1567811066","0.9637330664","0.8283068274","0.9066396881","","","","","","","","","","","","","","74","J","1","","","83","main_expt",""
"","bandit","164","645695","0.0-125.0-0.0","63642213","wem/bandit_party_2","A3BJBG67JHPAJF","either","7","290","","","","","","","0","1","0","","0.9617949183","0.8","0.2","0.4","0.6","0.196091916","0.9617949183","0.8030064341","0.8962006295","","","","","","","","","","","","","","74","J","1","","","84","main_expt",""
"","bandit","165","647516","0.0-126.0-0.0","63642213","wem/bandit_party_2","A3BJBG67JHPAJF","either","7","312","","","","","","","0","1","0","","0.9561985801","0.8","0.2","0.4","0.6","0.1512390112","0.9561985801","0.8622567251","0.9093999993","","","","","","","","","","","","","","74","J","1","","","85","main_expt",""
"","bandit","166","649335","0.0-127.0-0.0","63642213","wem/bandit_party_2","A3BJBG67JHPAJF","either","7","309","","","","","","","0","1","0","","0.9422505668","0.8","0.2","0.4","0.6","0.1486491559","0.9422505668","0.896584634","0.9326862648","","","","","","","","","","","","","","74","J","1","","","86","main_expt",""
"","bandit","167","651143","0.0-128.0-0.0","63642213","wem/bandit_party_2","A3BJBG67JHPAJF","either","7","295","","","","","","","0","1","0","","0.926711091","0.8","0.2","0.4","0.6","0.1047878604","0.926711091","0.9208758521","0.9039434857","","","","","","","","","","","","","","74","J","1","","","87","main_expt",""
"","bandit","168","652911","0.0-129.0-0.0","63642213","wem/bandit_party_2","A3BJBG67JHPAJF","either","7","255","","","","","","","0","1","0","","0.9092576496","0.8","0.2","0.4","0.6","0.07038149384","0.9092576496","0.9266301883","0.9195127861","","","","","","","","","","","","","","74","J","1","","","88","main_expt",""
"","bandit","169","654719","0.0-130.0-0.0","63642213","wem/bandit_party_2","A3BJBG67JHPAJF","either","7","287","","","","","","","0","1","0","","0.8948591238","0.8","0.2","0.4","0.6","0.1311535074","0.8948591238","0.9259215542","0.9225053559","","","","","","","","","","","","","","74","J","1","","","89","main_expt",""
"","bandit","170","656481","0.0-131.0-0.0","63642213","wem/bandit_party_2","A3BJBG67JHPAJF","either","7","249","","","","","","","0","1","0","","0.8716727139","0.8","0.2","0.4","0.6","0.1241310956","0.8716727139","0.9400480964","0.9014563988","","","","","","","","","","","","","","74","J","1","","","90","main_expt",""
"","bandit","171","658331","0.0-132.0-0.0","63642213","wem/bandit_party_2","A3BJBG67JHPAJF","either","7","338","","","","","","","1","0","0","0.8969144331","","0.8","0.2","0.4","0.6","","","","","0.09664170694","0.8969144331","0.8961855863","0.9162570652","","","","","","","","","","74","J","1","","","91","main_expt",""
"","bandit","172","660127","0.0-133.0-0.0","63642213","wem/bandit_party_2","A3BJBG67JHPAJF","either","7","280","","","","","","","0","1","0","","0.9171199264","0.8","0.2","0.4","0.6","0.09586364307","0.9171199264","0.9211437923","0.9171553871","","","","","","","","","","","","","","74","J","1","","","92","main_expt",""
"","bandit","173","661944","0.0-134.0-0.0","63642213","wem/bandit_party_2","A3BJBG67JHPAJF","either","7","305","","","","","","","0","1","0","","0.9593171332","0.8","0.2","0.4","0.6","0.08304118766","0.9593171332","0.8947860396","0.9463284029","","","","","","","","","","","","","","74","J","1","","","93","main_expt",""
"","bandit","174","663793","0.0-135.0-0.0","63642213","wem/bandit_party_2","A3BJBG67JHPAJF","either","7","333","","","","","","","1","0","0","0.959226596","","0.8","0.2","0.4","0.6","","","","","0.1222865453","0.959226596","0.822540961","0.9477079066","","","","","","","","","","74","J","1","","","94","main_expt",""
"","bandit","175","665622","0.0-136.0-0.0","63642213","wem/bandit_party_2","A3BJBG67JHPAJF","either","7","314","","","","","","","0","1","0","","0.947105423","0.8","0.2","0.4","0.6","0.211460517","0.947105423","0.8288041746","0.9474919074","","","","","","","","","","","","","","74","J","1","","","95","main_expt",""
"","bandit","176","667629","0.0-137.0-0.0","63642213","wem/bandit_party_2","A3BJBG67JHPAJF","either","7","499","","","","","","","0","1","0","","0.937205139","0.8","0.2","0.4","0.6","0.2757920232","0.937205139","0.8217366877","0.9722490369","","","","","","","","","","","","","","74","J","1","","","96","main_expt",""
"","bandit","177","669486","0.0-138.0-0.0","63642213","wem/bandit_party_2","A3BJBG67JHPAJF","either","7","343","","","","","","","0","1","0","","0.9472767204","0.8","0.2","0.4","0.6","0.2646876298","0.9472767204","0.725285089","0.980822097","","","","","","","","","","","","","","74","J","1","","","97","main_expt",""
"","bandit","178","671332","0.0-139.0-0.0","63642213","wem/bandit_party_2","A3BJBG67JHPAJF","either","7","331","","","","","","","1","0","0","0.962959595","","0.8","0.2","0.4","0.6","","","","","0.3278454636","0.962959595","0.7958966199","0.9761591307","","","","","","","","","","74","J","1","","","98","main_expt",""
"","bandit","179","673162","0.0-140.0-0.0","63642213","wem/bandit_party_2","A3BJBG67JHPAJF","either","7","321","","","","","","","1","0","0","0.9720903607","","0.8","0.2","0.4","0.6","","","","","0.4641870332","0.9720903607","0.7741840332","0.9597391097","","","","","","","","","","74","J","1","","","99","main_expt",""
"","bandit","180","674984","0.0-141.0-0.0","63642213","wem/bandit_party_2","A3BJBG67JHPAJF","either","7","309","","","","","","","0","1","0","","0.9737169538","0.8","0.2","0.4","0.6","0.3972344865","0.9737169538","0.7934767162","0.9557148533","","","","","","","","","","","","","","74","J","1","","","100","main_expt",""
"","bandit","181","676765","0.0-142.0-0.0","63642213","wem/bandit_party_2","A3BJBG67JHPAJF","either","7","272","","","","","","","0","1","0","","0.986468331","0.8","0.2","0.4","0.6","0.4395304924","0.986468331","0.8307638242","0.9687934467","","","","","","","","","","","","","","74","J","1","","","101","main_expt",""
"","bandit","182","678614","0.0-143.0-0.0","63642213","wem/bandit_party_2","A3BJBG67JHPAJF","either","7","339","","","","","","","1","0","0","0.9859557102","","0.8","0.2","0.4","0.6","","","","","0.5248298482","0.9859557102","0.7737236933","0.9713318577","","","","","","","","","","74","J","1","","","102","main_expt",""
"","bandit","183","681613","0.0-144.0-0.0","63642213","wem/bandit_party_2","A3BJBG67JHPAJF","either","7","1485","","","","","","","0","0","1","","0.9828698412","0.8","0.2","0.4","0.6","0.6218364577","0.9828698412","0.8168427084","0.9768128314","","","","","","","","","","","","","","74","J","1","","","103","main_expt",""
"","bandit","184","683508","0.0-145.0-0.0","63642213","wem/bandit_party_2","A3BJBG67JHPAJF","either","7","383","","","","","","","1","0","0","0.9655029871","","0.8","0.2","0.4","0.6","","","","","0.5528563194","0.9655029871","0.7020104164","0.9566706727","","","","","","","","","","74","J","1","","","104","main_expt",""
"","bandit","185","685345","0.0-146.0-0.0","63642213","wem/bandit_party_2","A3BJBG67JHPAJF","either","7","322","","","","","","","0","1","0","","0.9587067199","0.8","0.2","0.4","0.6","0.515821512","0.9587067199","0.6750414237","0.9352711559","","","","","","","","","","","","","","74","J","1","","","105","main_expt",""
"","bandit","186","687200","0.0-147.0-0.0","63642213","wem/bandit_party_2","A3BJBG67JHPAJF","either","7","347","","","","","","","0","1","0","","0.9358961366","0.8","0.2","0.4","0.6","0.5380341879","0.9358961366","0.5886413089","0.8980036198","","","","","","","","","","","","","","74","J","1","","","106","main_expt",""
"","bandit","187","689035","0.0-148.0-0.0","63642213","wem/bandit_party_2","A3BJBG67JHPAJF","either","7","326","","","","","","","0","1","0","","0.8829949032","0.8","0.2","0.4","0.6","0.3291998873","0.8829949032","0.5507707533","0.9175797088","","","","","","","","","","","","","","74","J","1","","","107","main_expt",""
"","bandit","188","690877","0.0-149.0-0.0","63642213","wem/bandit_party_2","A3BJBG67JHPAJF","either","7","327","","","","","","","1","0","0","0.7668100276","","0.8","0.2","0.4","0.6","","","","","0.3608627265","0.7668100276","0.4325904974","0.8966825343","","","","","","","","","","74","J","1","","","108","main_expt",""
"","bandit","189","692679","0.0-150.0-0.0","63642213","wem/bandit_party_2","A3BJBG67JHPAJF","either","7","293","","","","","","","0","1","0","","0.7652463225","0.8","0.2","0.4","0.6","0.3837942066","0.7652463225","0.3735159861","0.8883819791","","","","","","","","","","","","","","74","J","1","","","109","main_expt",""
"","bandit","190","694622","0.0-151.0-0.0","63642213","wem/bandit_party_2","A3BJBG67JHPAJF","either","7","428","","","","","","","0","1","0","","0.7974745759","0.8","0.2","0.4","0.6","0.3019365294","0.7974745759","0.3704440872","0.9087011364","","","","","","","","","","","","","","74","J","1","","","110","main_expt",""
"","bandit","191","696577","0.0-152.0-0.0","63642213","wem/bandit_party_2","A3BJBG67JHPAJF","either","7","441","","","","","","","0","1","0","","0.812352323","0.8","0.2","0.4","0.6","0.3483008865","0.812352323","0.2749067499","0.9337026812","","","","","","","","","","","","","","74","J","1","","","111","main_expt",""
"","bandit","192","698619","0.0-153.0-0.0","63642213","wem/bandit_party_2","A3BJBG67JHPAJF","either","7","527","","","","","","","0","0","1","","0.7428975936","0.8","0.2","0.4","0.6","0.4342302697","0.7428975936","0.2734667401","0.9113388615","","","","","","","","","","","","","","74","J","1","","","112","main_expt",""
"","bandit","193","700567","0.0-154.0-0.0","63642213","wem/bandit_party_2","A3BJBG67JHPAJF","either","7","431","","","","","","","0","1","0","","0.7139653514","0.8","0.2","0.4","0.6","0.5187246657","0.7139653514","0.2291946885","0.8980528729","","","","","","","","","","","","","","74","J","1","","","113","main_expt",""
"","bandit","194","702746","0.0-155.0-0.0","63642213","wem/bandit_party_2","A3BJBG67JHPAJF","either","7","671","","","","","","","0","0","1","","0.7945657698","0.8","0.2","0.4","0.6","0.5381742134","0.7945657698","0.2413339081","0.8036326458","","","","","","","","","","","","","","74","J","1","","","114","main_expt",""
"","bandit","195","706095","0.0-156.0-0.0","63642213","wem/bandit_party_2","A3BJBG67JHPAJF","either","7","1834","","","","","","","0","1","0","","0.8405588069","0.8","0.2","0.4","0.6","0.4785029821","0.8405588069","0.3092826039","0.8700945717","","","","","","","","","","","","","","74","J","1","","","115","main_expt",""
"","bandit","196","707934","0.0-157.0-0.0","63642213","wem/bandit_party_2","A3BJBG67JHPAJF","either","7","330","","","","","","","0","0","1","","0.8641798474","0.8","0.2","0.4","0.6","0.4654757386","0.8641798474","0.2361366225","0.8895114993","","","","","","","","","","","","","","74","J","1","","","116","main_expt",""
"","bandit","197","709754","0.0-158.0-0.0","63642213","wem/bandit_party_2","A3BJBG67JHPAJF","either","7","310","","","","","","","0","1","0","","0.8756768431","0.8","0.2","0.4","0.6","0.4578633225","0.8756768431","0.218402711","0.8936856952","","","","","","","","","","","","","","74","J","1","","","117","main_expt",""
"","bandit","198","711992","0.0-159.0-0.0","63642213","wem/bandit_party_2","A3BJBG67JHPAJF","either","7","721","","","","","","","0","1","0","","0.9015269718","0.8","0.2","0.4","0.6","0.4773941538","0.9015269718","0.2003641109","0.8077127093","","","","","","","","","","","","","","74","J","1","","","118","main_expt",""
"","bandit","199","713985","0.0-160.0-0.0","63642213","wem/bandit_party_2","A3BJBG67JHPAJF","either","7","481","","","","","","","0","1","0","","0.8709738884","0.8","0.2","0.4","0.6","0.508374463","0.8709738884","0.1375137305","0.8901108642","","","","","","","","","","","","","","74","J","1","","","119","main_expt",""
"","bandit","200","715934","0.0-161.0-0.0","63642213","wem/bandit_party_2","A3BJBG67JHPAJF","either","7","439","","","","","","","0","1","0","","0.8268338002","0.8","0.2","0.4","0.6","0.4294310012","0.8268338002","0.08656631556","0.8731124259","","","","","","","","","","","","","","74","J","1","","","120","main_expt",""
"","bandit","201","717727","0.0-162.0-0.0","63642213","wem/bandit_party_2","A3BJBG67JHPAJF","either","7","280","","","","","","","1","0","0","0.8432616236","","0.8","0.2","0.4","0.6","","","","","0.3933985885","0.8432616236","0.07812634859","0.8509174952","","","","","","","","","","74","J","1","","","121","main_expt",""
"","bandit","202","719591","0.0-163.0-0.0","63642213","wem/bandit_party_2","A3BJBG67JHPAJF","either","7","345","","","","","","","0","1","0","","0.8128728295","0.8","0.2","0.4","0.6","0.2641409089","0.8128728295","0.09046411854","0.8707856005","","","","","","","","","","","","","","74","J","1","","","122","main_expt",""
"","bandit","203","721616","0.0-164.0-0.0","63642213","wem/bandit_party_2","A3BJBG67JHPAJF","either","7","514","","","","","","","0","0","1","0.752198112","","0.8","0.2","0.4","0.6","","","","","0.2491349268","0.752198112","0.1132512529","0.7592524618","","","","","","","","","","74","J","1","","","123","main_expt",""
"","bandit","204","723587","0.0-165.0-0.0","63642213","wem/bandit_party_2","A3BJBG67JHPAJF","either","7","456","","","","","","","0","1","0","","0.7117781612","0.8","0.2","0.4","0.6","0.2587226179","0.7117781612","0.09419269712","0.7330206325","","","","","","","","","","","","","","74","J","1","","","124","main_expt",""
"","bandit","205","725449","0.0-166.0-0.0","63642213","wem/bandit_party_2","A3BJBG67JHPAJF","either","7","349","","","","","","","0","1","0","","0.7177409252","0.8","0.2","0.4","0.6","0.2925679814","0.7177409252","0.110513045","0.6903693331","","","","","","","","","","","","","","74","J","1","","","125","main_expt",""
"","bandit","206","727430","0.0-167.0-0.0","63642213","wem/bandit_party_2","A3BJBG67JHPAJF","either","7","471","","","","","","","0","0","1","","0.7240917845","0.8","0.2","0.4","0.6","0.3997536411","0.7240917845","0.07088043536","0.6370641568","","","","","","","","","","","","","","74","J","1","","","126","main_expt",""
"","bandit","207","729296","0.0-168.0-0.0","63642213","wem/bandit_party_2","A3BJBG67JHPAJF","either","7","358","","","","","","","0","0","1","0.6788578752","","0.8","0.2","0.4","0.6","","","","","0.4120812041","0.6788578752","0.1041728595","0.6192694325","","","","","","","","","","74","J","1","","","127","main_expt",""
"","bandit","208","731140","0.0-169.0-0.0","63642213","wem/bandit_party_2","A3BJBG67JHPAJF","either","7","331","","","","","","","0","1","0","","0.6257789885","0.8","0.2","0.4","0.6","0.3731276689","0.6257789885","0.1006708935","0.559348281","","","","","","","","","","","","","","74","J","1","","","128","main_expt",""
"","bandit","209","733221","0.0-170.0-0.0","63642213","wem/bandit_party_2","A3BJBG67JHPAJF","either","7","571","","","","","","","0","1","0","","0.4761868647","0.8","0.2","0.4","0.6","0.3263017501","0.4761868647","0.1336488566","0.610360397","","","","","","","","","","","","","","74","J","1","","","129","main_expt",""
"","bandit","210","735395","0.0-171.0-0.0","63642213","wem/bandit_party_2","A3BJBG67JHPAJF","either","7","655","","","","","","","0","0","1","","0.4745188583","0.8","0.2","0.4","0.6","0.3226142564","0.4745188583","0.1271550391","0.5737783772","","","","","","","","","","","","","","74","J","1","","","130","main_expt",""
"","bandit","211","737850","0.0-172.0-0.0","63642213","wem/bandit_party_2","A3BJBG67JHPAJF","either","7","942","","","","","","","0","0","1","0.1594360192","","0.8","0.2","0.4","0.6","","","","","0.3907136596","0.4674409752","0.1594360192","0.6252154127","","","","","","","","","","75","K","2","","","131","main_expt",""
"","bandit","212","739692","0.0-173.0-0.0","63642213","wem/bandit_party_2","A3BJBG67JHPAJF","either","7","335","","","","","","","0","0","1","","0.1027658661","0.8","0.2","0.4","0.6","0.4983036492","0.368649462","0.1027658661","0.6473056352","","","","","","","","","","","","","","75","K","2","","","132","main_expt",""
"","bandit","213","741624","0.0-174.0-0.0","63642213","wem/bandit_party_2","A3BJBG67JHPAJF","either","7","415","","","","","","","0","0","1","","0.4595123468","0.8","0.2","0.4","0.6","0.6347393695","0.4313577514","0.1223548883","0.4595123468","","","","","","","","","","","","","","76","L","3","","","133","main_expt",""
"","bandit","214","743521","0.0-175.0-0.0","63642213","wem/bandit_party_2","A3BJBG67JHPAJF","either","7","378","","","","","","","1","0","0","0.3043385566","","0.8","0.2","0.4","0.6","","","","","0.6037412299","0.3692150919","0.1063029331","0.3043385566","","","","","","","","","","76","L","3","","","134","main_expt",""
"","bandit","215","745468","0.0-176.0-0.0","63642213","wem/bandit_party_2","A3BJBG67JHPAJF","either","7","431","","","","","","","0","0","1","0.340857567","","0.8","0.2","0.4","0.6","","","","","0.5511090861","0.3077662431","0.080644856","0.340857567","","","","","","","","","","76","L","3","","","135","main_expt",""
"","bandit","216","747331","0.0-177.0-0.0","63642213","wem/bandit_party_2","A3BJBG67JHPAJF","either","7","355","","","","","","","0","0","1","0.2655810755","","0.8","0.2","0.4","0.6","","","","","0.585911414","0.314969588","0.1359867045","0.2655810755","","","","","","","","","","76","L","3","","","136","main_expt",""
"","bandit","217","749410","0.0-178.0-0.0","63642213","wem/bandit_party_2","A3BJBG67JHPAJF","either","7","570","","","","","","","1","0","0","0.5805905743","","0.8","0.2","0.4","0.6","","","","","0.5805905743","0.3590847215","0.168344283","0.3025530854","","","","","","","","","","72","H","0","img/none_selected.jpg","","137","main_expt",""
"","bandit","218","751253","0.0-179.0-0.0","63642213","wem/bandit_party_2","A3BJBG67JHPAJF","either","7","332","","","","","","","0","0","1","0.6357737786","","0.8","0.2","0.4","0.6","","","","","0.6357737786","0.3588584756","0.1867455324","0.2888348812","","","","","","","","","","72","H","0","img/none_selected.jpg","","138","main_expt",""
"","bandit","219","753194","0.0-180.0-0.0","63642213","wem/bandit_party_2","A3BJBG67JHPAJF","either","7","429","","","","","","","0","1","0","","0.66639317","0.8","0.2","0.4","0.6","0.66639317","0.4289761638","0.2277874407","0.2463208975","","","","","","","","","","","","","","72","H","0","img/none_selected.jpg","","139","main_expt",""
"","bandit","220","755029","0.0-181.0-0.0","63642213","wem/bandit_party_2","A3BJBG67JHPAJF","either","7","326","","","","","","","1","0","0","0.6365789307","","0.8","0.2","0.4","0.6","","","","","0.6365789307","0.3801639999","0.2577820179","0.273109751","","","","","","","","","","72","H","0","img/none_selected.jpg","","140","main_expt",""
"","bandit","221","756973","0.0-182.0-0.0","63642213","wem/bandit_party_2","A3BJBG67JHPAJF","either","7","427","","","","","","","1","0","0","0.6045632144","","0.8","0.2","0.4","0.6","","","","","0.6045632144","0.2445936549","0.3674069736","0.3355442787","","","","","","","","","","72","H","0","img/none_selected.jpg","","141","main_expt",""
"","bandit","222","758949","0.0-183.0-0.0","63642213","wem/bandit_party_2","A3BJBG67JHPAJF","either","7","466","","","","","","","0","0","1","","0.5148607161","0.8","0.2","0.4","0.6","0.5148607161","0.3394066497","0.4345417514","0.2781999234","","","","","","","","","","","","","","72","H","0","img/none_selected.jpg","","142","main_expt",""
"","bandit","223","760827","0.0-184.0-0.0","63642213","wem/bandit_party_2","A3BJBG67JHPAJF","either","7","369","","","","","","","1","0","0","0.4754154836","","0.8","0.2","0.4","0.6","","","","","0.4754154836","0.2899754881","0.3811672827","0.2599467226","","","","","","","","","","72","H","0","img/none_selected.jpg","","143","main_expt",""
"","bandit","224","762816","0.0-185.0-0.0","63642213","wem/bandit_party_2","A3BJBG67JHPAJF","either","7","475","","","","","","","0","0","1","0.516029258","","0.8","0.2","0.4","0.6","","","","","0.516029258","0.3701332444","0.2754059391","0.2353144144","","","","","","","","","","72","H","0","img/none_selected.jpg","","144","main_expt",""
"","bandit","225","764645","0.0-186.0-0.0","63642213","wem/bandit_party_2","A3BJBG67JHPAJF","either","7","317","","","","","","","1","0","0","0.6646605279","","0.8","0.2","0.4","0.6","","","","","0.6646605279","0.3322753171","0.2773400324","0.2120114759","","","","","","","","","","72","H","0","img/none_selected.jpg","","145","main_expt",""
"","bandit","226","-2188412","0.0-187.0-0.0","63642213","wem/bandit_party_2","A3BJBG67JHPAJF","either","7","432","","","","","","","1","0","0","0.6331546467","","0.8","0.2","0.4","0.6","","","","","0.6331546467","0.3203507811","0.2780426824","0.176067728","","","","","","","","","","72","H","0","img/none_selected.jpg","","146","main_expt",""
"","bandit","227","-2186561","0.0-188.0-0.0","63642213","wem/bandit_party_2","A3BJBG67JHPAJF","either","7","341","","","","","","","0","0","1","0.6356747602","","0.8","0.2","0.4","0.6","","","","","0.6356747602","0.304761248","0.3373608721","0.1329453439","","","","","","","","","","72","H","0","img/none_selected.jpg","","147","main_expt",""
"","bandit","228","-2184732","0.0-189.0-0.0","63642213","wem/bandit_party_2","A3BJBG67JHPAJF","either","7","321","","","","","","","0","0","1","0.6301772709","","0.8","0.2","0.4","0.6","","","","","0.6301772709","0.3809280674","0.3529594122","0.1465103875","","","","","","","","","","72","H","0","img/none_selected.jpg","","148","main_expt",""
"","bandit","229","-2182889","0.0-190.0-0.0","63642213","wem/bandit_party_2","A3BJBG67JHPAJF","either","7","331","","","","","","","0","1","0","","0.3997986218","0.8","0.2","0.4","0.6","0.6640591829","0.3997986218","0.3878328211","0.1190451538","","","","","","","","","","","","","","74","J","1","","","149","main_expt",""
"","bandit","230","-2180835","0.0-191.0-0.0","63642213","wem/bandit_party_2","A3BJBG67JHPAJF","either","7","543","","","","","","","0","1","0","","0.3159341416","0.8","0.2","0.4","0.6","0.6592717552","0.3159341416","0.42943501","0.1195570164","","","","","","","","","","","","","","74","J","1","","","150","main_expt",""
"","bandit","231","-2179004","0.0-192.0-0.0","63642213","wem/bandit_party_2","A3BJBG67JHPAJF","either","7","315","","","","","","","0","0","1","","0.3052853957","0.8","0.2","0.4","0.6","0.5928743102","0.3052853957","0.5142681232","0.100492686","","","","","","","","","","","","","","74","J","1","","","151","main_expt",""
"","bandit","232","-2177033","0.0-193.0-0.0","63642213","wem/bandit_party_2","A3BJBG67JHPAJF","either","7","453","","","","","","","0","0","1","","0.1896018403","0.8","0.2","0.4","0.6","0.6822187145","0.1896018403","0.6321073962","0.1030367897","","","","","","","","","","","","","","74","J","1","","","152","main_expt",""
"","bandit","233","-2175139","0.0-194.0-0.0","63642213","wem/bandit_party_2","A3BJBG67JHPAJF","either","7","385","","","","","","","0","0","1","0.2439656658","","0.8","0.2","0.4","0.6","","","","","0.6832005509","0.2439656658","0.6965670792","0.2059045691","","","","","","","","","","74","J","1","","","153","main_expt",""
"","bandit","234","-2173114","0.0-195.0-0.0","63642213","wem/bandit_party_2","A3BJBG67JHPAJF","either","7","513","","","","","","","0","0","1","0.3068434149","","0.8","0.2","0.4","0.6","","","","","0.7109729062","0.3068434149","0.6516005735","0.2921647579","","","","","","","","","","74","J","1","","","154","main_expt",""
"","bandit","235","-2171300","0.0-196.0-0.0","63642213","wem/bandit_party_2","A3BJBG67JHPAJF","either","7","303","","","","","","","0","0","1","","0.6975465092","0.8","0.2","0.4","0.6","0.6975465092","0.2314644909","0.7291318088","0.1789694193","","","","","","","","","","","","","","72","H","0","img/none_selected.jpg","","155","main_expt",""
"","bandit","236","-2169246","0.0-197.0-0.0","63642213","wem/bandit_party_2","A3BJBG67JHPAJF","either","7","542","","","","","","","0","0","1","0.6580608271","","0.8","0.2","0.4","0.6","","","","","0.6580608271","0.2154001061","0.6273572288","0.2187195075","","","","","","","","","","72","H","0","img/none_selected.jpg","","156","main_expt",""
"","bandit","237","-2167393","0.0-198.0-0.0","63642213","wem/bandit_party_2","A3BJBG67JHPAJF","either","7","337","","","","","","","1","0","0","0.5695802138","","0.8","0.2","0.4","0.6","","","","","0.5695802138","0.1648135251","0.566197257","0.2669834713","","","","","","","","","","72","H","0","img/none_selected.jpg","","157","main_expt",""
"","bandit","238","-2165534","0.0-199.0-0.0","63642213","wem/bandit_party_2","A3BJBG67JHPAJF","either","7","349","","","","","","","0","0","1","0.4733954301","","0.8","0.2","0.4","0.6","","","","","0.4733954301","0.2215973425","0.4523642269","0.4240307821","","","","","","","","","","72","H","0","img/none_selected.jpg","","158","main_expt",""
"","bandit","239","-2163713","0.0-200.0-0.0","63642213","wem/bandit_party_2","A3BJBG67JHPAJF","either","7","310","","","","","","","0","0","1","0.5619817243","","0.8","0.2","0.4","0.6","","","","","0.5619817243","0.2243274726","0.3991212054","0.3840951437","","","","","","","","","","72","H","0","img/none_selected.jpg","","159","main_expt",""
"","bandit","240","-2161883","0.0-201.0-0.0","63642213","wem/bandit_party_2","A3BJBG67JHPAJF","either","7","322","","","","","","","0","0","1","","0.2061161075","0.8","0.2","0.4","0.6","0.4701658979","0.2061161075","0.3566558104","0.4098147986","","","","","","","","","","","","","","74","J","1","","","160","main_expt",""
"","bandit","241","-2160076","0.0-202.0-0.0","63642213","wem/bandit_party_2","A3BJBG67JHPAJF","either","7","298","","","","","","","0","0","1","0.4430908041","","0.8","0.2","0.4","0.6","","","","","0.5673671472","0.209200141","0.4430908041","0.4027252302","","","","","","","","","","75","K","2","","","161","main_expt",""
"","bandit","242","-2158291","0.0-203.0-0.0","63642213","wem/bandit_party_2","A3BJBG67JHPAJF","either","7","275","","","","","","","0","0","1","0.3824170733","","0.8","0.2","0.4","0.6","","","","","0.4921809208","0.1477343718","0.3966098285","0.3824170733","","","","","","","","","","76","L","3","","","162","main_expt",""
"","bandit","243","-2156476","0.0-204.0-0.0","63642213","wem/bandit_party_2","A3BJBG67JHPAJF","either","7","298","","","","","","","0","0","1","","0.3352280924","0.8","0.2","0.4","0.6","0.4204505308","0.1525050104","0.3455868331","0.3352280924","","","","","","","","","","","","","","76","L","3","","","163","main_expt",""
"","bandit","244","-2154645","0.0-205.0-0.0","63642213","wem/bandit_party_2","A3BJBG67JHPAJF","either","7","324","","","","","","","0","0","1","0.3368969945","","0.8","0.2","0.4","0.6","","","","","0.534748173","0.08831047354","0.3368969945","0.3379187571","","","","","","","","","","75","K","2","","","164","main_expt",""
"","bandit","245","-2152861","0.0-206.0-0.0","63642213","wem/bandit_party_2","A3BJBG67JHPAJF","either","7","272","","","","","","","0","0","1","","0.1035482763","0.8","0.2","0.4","0.6","0.4724966102","0.1035482763","0.3767562303","0.3160546663","","","","","","","","","","","","","","74","J","1","","","165","main_expt",""
"","bandit","246","-2151073","0.0-207.0-0.0","63642213","wem/bandit_party_2","A3BJBG67JHPAJF","either","7","274","","","","","","","1","0","0","0.5280505203","","0.8","0.2","0.4","0.6","","","","","0.5280505203","0.06888190676","0.4727650462","0.3058359067","","","","","","","","","","72","H","0","img/none_selected.jpg","","166","main_expt",""
"","bandit","247","-2149224","0.0-208.0-0.0","63642213","wem/bandit_party_2","A3BJBG67JHPAJF","either","7","337","","","","","","","0","0","1","0.589670135","","0.8","0.2","0.4","0.6","","","","","0.589670135","0.06051452263","0.6140635231","0.2561334246","","","","","","","","","","72","H","0","img/none_selected.jpg","","167","main_expt",""
"","bandit","248","-2147414","0.0-209.0-0.0","63642213","wem/bandit_party_2","A3BJBG67JHPAJF","either","7","301","","","","","","","0","0","1","0.5058201204","","0.8","0.2","0.4","0.6","","","","","0.5058201204","0.07905307949","0.5629225295","0.2459084815","","","","","","","","","","72","H","0","img/none_selected.jpg","","168","main_expt",""
"","bandit","249","-2145587","0.0-210.0-0.0","63642213","wem/bandit_party_2","A3BJBG67JHPAJF","either","7","311","","","","","","","0","0","1","","0.4102709571","0.8","0.2","0.4","0.6","0.4102709571","0.07051596905","0.6456076899","0.2138460752","","","","","","","","","","","","","","72","H","0","img/none_selected.jpg","","169","main_expt",""
"","bandit","250","-2143780","0.0-211.0-0.0","63642213","wem/bandit_party_2","A3BJBG67JHPAJF","either","7","296","","","","","","","1","0","0","0.5061826445","","0.8","0.2","0.4","0.6","","","","","0.5061826445","0.1056762318","0.719827795","0.1642406351","","","","","","","","","","72","H","0","img/none_selected.jpg","","170","main_expt",""
"","bandit","251","-2141939","0.0-212.0-0.0","63642213","wem/bandit_party_2","A3BJBG67JHPAJF","either","7","330","","","","","","","0","0","1","0.6092158501","","0.8","0.2","0.4","0.6","","","","","0.6092158501","0.1513980822","0.6716280274","0.2337150112","","","","","","","","","","72","H","0","img/none_selected.jpg","","171","main_expt",""
"","bandit","252","-2140170","0.0-213.0-0.0","63642213","wem/bandit_party_2","A3BJBG67JHPAJF","either","7","255","","","","","","","0","0","1","0.691496366","","0.8","0.2","0.4","0.6","","","","","0.691496366","0.1552293495","0.5683226388","0.3128682212","","","","","","","","","","72","H","0","img/none_selected.jpg","","172","main_expt",""
"","bandit","253","-2138362","0.0-214.0-0.0","63642213","wem/bandit_party_2","A3BJBG67JHPAJF","either","7","296","","","","","","","1","0","0","0.7402253768","","0.8","0.2","0.4","0.6","","","","","0.7402253768","0.1325975083","0.4581357746","0.2775517843","","","","","","","","","","72","H","0","img/none_selected.jpg","","173","main_expt",""
"","bandit","254","-2136348","0.0-215.0-0.0","63642213","wem/bandit_party_2","A3BJBG67JHPAJF","either","7","497","","","","","","","1","0","0","0.6601004511","","0.8","0.2","0.4","0.6","","","","","0.6601004511","0.09024892351","0.5903479164","0.4159305855","","","","","","","","","","72","H","0","img/none_selected.jpg","","174","main_expt",""
"","bandit","255","-2134517","0.0-216.0-0.0","63642213","wem/bandit_party_2","A3BJBG67JHPAJF","either","7","313","","","","","","","1","0","0","0.6781732273","","0.8","0.2","0.4","0.6","","","","","0.6781732273","0.06963745108","0.5658285383","0.4471770837","","","","","","","","","","72","H","0","img/none_selected.jpg","","175","main_expt",""
"","bandit","256","-2132748","0.0-217.0-0.0","63642213","wem/bandit_party_2","A3BJBG67JHPAJF","either","7","257","","","","","","","1","0","0","0.6932650799","","0.8","0.2","0.4","0.6","","","","","0.6932650799","0.07897043431","0.5313506173","0.5162211083","","","","","","","","","","72","H","0","img/none_selected.jpg","","176","main_expt",""
"","bandit","257","-2130923","0.0-218.0-0.0","63642213","wem/bandit_party_2","A3BJBG67JHPAJF","either","7","307","","","","","","","0","0","1","0.6803850572","","0.8","0.2","0.4","0.6","","","","","0.6803850572","0.09469685393","0.4231289234","0.6372676231","","","","","","","","","","72","H","0","img/none_selected.jpg","","177","main_expt",""
"","bandit","258","-2129271","0.0-219.0-0.0","63642213","wem/bandit_party_2","A3BJBG67JHPAJF","either","7","141","","","","","","","1","0","0","0.5407017663","","0.8","0.2","0.4","0.6","","","","","0.5407017663","0.1486386852","0.580807006","0.6295749113","","","","","","","","","","72","H","0","img/none_selected.jpg","","178","main_expt",""
"","bandit","259","-2127451","0.0-220.0-0.0","63642213","wem/bandit_party_2","A3BJBG67JHPAJF","either","7","310","","","","","","","1","0","0","0.5931576708","","0.8","0.2","0.4","0.6","","","","","0.5931576708","0.1965095934","0.5499948007","0.4126066341","","","","","","","","","","72","H","0","img/none_selected.jpg","","179","main_expt",""
"","bandit","260","-2125629","0.0-221.0-0.0","63642213","wem/bandit_party_2","A3BJBG67JHPAJF","either","7","302","","","","","","","1","0","0","0.5390819372","","0.8","0.2","0.4","0.6","","","","","0.5390819372","0.1749048096","0.4918200669","0.516991344","","","","","","","","","","72","H","0","img/none_selected.jpg","","180","main_expt",""
"","bandit","261","-2123790","0.0-222.0-0.0","63642213","wem/bandit_party_2","A3BJBG67JHPAJF","either","7","327","","","","","","","0","1","0","","0.4929910299","0.8","0.2","0.4","0.6","0.4929910299","0.232896561","0.5428702931","0.4239603033","","","","","","","","","","","","","","72","H","0","img/none_selected.jpg","","181","main_expt",""
"","bandit","262","-2121964","0.0-223.0-0.0","63642213","wem/bandit_party_2","A3BJBG67JHPAJF","either","7","313","","","","","","","1","0","0","0.458433212","","0.8","0.2","0.4","0.6","","","","","0.458433212","0.2561822725","0.5870547156","0.3961891141","","","","","","","","","","72","H","0","img/none_selected.jpg","","182","main_expt",""
"","bandit","263","-2120454","0.0-224.0-0.0","63642213","wem/bandit_party_2","A3BJBG67JHPAJF","either","7","1","","","","","","","0","1","0","","0.5725449786","0.8","0.2","0.4","0.6","0.5725449786","0.2713883962","0.5031908535","0.4364601233","","","","","","","","","","","","","","72","H","0","img/none_selected.jpg","","183","main_expt",""
"","bandit","264","-2118683","0.0-225.0-0.0","63642213","wem/bandit_party_2","A3BJBG67JHPAJF","either","7","257","","","","","","","1","0","0","0.4878383732","","0.8","0.2","0.4","0.6","","","","","0.4878383732","0.3543557679","0.4239978994","0.4826964198","","","","","","","","","","72","H","0","img/none_selected.jpg","","184","main_expt",""
"","bandit","265","-2116855","0.0-226.0-0.0","63642213","wem/bandit_party_2","A3BJBG67JHPAJF","either","7","316","","","","","","","1","0","0","0.5189350158","","0.8","0.2","0.4","0.6","","","","","0.5189350158","0.2974533566","0.3425545299","0.4448789548","","","","","","","","","","72","H","0","img/none_selected.jpg","","185","main_expt",""
"","bandit","266","-2114480","0.0-227.0-0.0","63642213","wem/bandit_party_2","A3BJBG67JHPAJF","either","7","864","","","","","","","0","0","1","0.4310300585","","0.8","0.2","0.4","0.6","","","","","0.4310300585","0.3295130888","0.2594221554","0.4585835861","","","","","","","","","","72","H","0","img/none_selected.jpg","","186","main_expt",""
"","bandit","267","-2112350","0.0-228.0-0.0","63642213","wem/bandit_party_2","A3BJBG67JHPAJF","either","7","611","","","","","","","0","0","1","0.4005994516","","0.8","0.2","0.4","0.6","","","","","0.4005994516","0.3440574025","0.350747246","0.5470412386","","","","","","","","","","72","H","0","img/none_selected.jpg","","187","main_expt",""
"","bandit","268","-2110578","0.0-229.0-0.0","63642213","wem/bandit_party_2","A3BJBG67JHPAJF","either","7","262","","","","","","","1","0","0","0.5684333967","","0.8","0.2","0.4","0.6","","","","","0.5684333967","0.3176863717","0.3667816541","0.5485419855","","","","","","","","","","72","H","0","img/none_selected.jpg","","188","main_expt",""
"","bandit","269","-2108655","0.0-230.0-0.0","63642213","wem/bandit_party_2","A3BJBG67JHPAJF","either","7","413","","","","","","","1","0","0","0.5768443477","","0.8","0.2","0.4","0.6","","","","","0.5768443477","0.3194332301","0.3129240978","0.6161015427","","","","","","","","","","72","H","0","img/none_selected.jpg","","189","main_expt",""
"","bandit","270","-2106787","0.0-231.0-0.0","63642213","wem/bandit_party_2","A3BJBG67JHPAJF","either","7","350","","","","","","","0","1","0","","0.6091254975","0.8","0.2","0.4","0.6","0.6091254975","0.3585260795","0.3681084497","0.5145576236","","","","","","","","","","","","","","72","H","0","img/none_selected.jpg","","190","main_expt",""
"","bandit","271","-2104919","0.0-232.0-0.0","63642213","wem/bandit_party_2","A3BJBG67JHPAJF","either","7","357","","","","","","","1","0","0","0.6355225437","","0.8","0.2","0.4","0.6","","","","","0.6355225437","0.4438822556","0.3284994938","0.4447609651","","","","","","","","","","72","H","0","img/none_selected.jpg","","191","main_expt",""
"","bandit","272","-2102978","0.0-233.0-0.0","63642213","wem/bandit_party_2","A3BJBG67JHPAJF","either","7","424","","","","","","","1","0","0","0.7449996868","","0.8","0.2","0.4","0.6","","","","","0.7449996868","0.6336907385","0.2913335268","0.4273979598","","","","","","","","","","72","H","0","img/none_selected.jpg","","192","main_expt",""
"","bandit","273","-2101029","0.0-234.0-0.0","63642213","wem/bandit_party_2","A3BJBG67JHPAJF","either","7","436","","","","","","","0","0","1","0.7645281636","","0.8","0.2","0.4","0.6","","","","","0.7645281636","0.5871300795","0.3614904019","0.4382354048","","","","","","","","","","72","H","0","img/none_selected.jpg","","193","main_expt",""
"","bandit","274","-2099208","0.0-235.0-0.0","63642213","wem/bandit_party_2","A3BJBG67JHPAJF","either","7","300","","","","","","","1","0","0","0.7417458559","","0.8","0.2","0.4","0.6","","","","","0.7417458559","0.5919999684","0.4180963095","0.4367950698","","","","","","","","","","72","H","0","img/none_selected.jpg","","194","main_expt",""
"","bandit","275","-2097205","0.0-236.0-0.0","63642213","wem/bandit_party_2","A3BJBG67JHPAJF","either","7","490","","","","","","","1","0","0","0.7102393491","","0.8","0.2","0.4","0.6","","","","","0.7102393491","0.5599221581","0.4129416526","0.4306922929","","","","","","","","","","72","H","0","img/none_selected.jpg","","195","main_expt",""
"","bandit","276","-2095383","0.0-237.0-0.0","63642213","wem/bandit_party_2","A3BJBG67JHPAJF","either","7","309","","","","","","","1","0","0","0.6846894693","","0.8","0.2","0.4","0.6","","","","","0.6846894693","0.4552797342","0.6027995291","0.4436260943","","","","","","","","","","72","H","0","img/none_selected.jpg","","196","main_expt",""
"","bandit","277","-2093337","0.0-238.0-0.0","63642213","wem/bandit_party_2","A3BJBG67JHPAJF","either","7","527","","","","","","","1","0","0","0.6573901597","","0.8","0.2","0.4","0.6","","","","","0.6573901597","0.3045440077","0.6174547511","0.4547077395","","","","","","","","","","72","H","0","img/none_selected.jpg","","197","main_expt",""
"","bandit","278","-2091445","0.0-239.0-0.0","63642213","wem/bandit_party_2","A3BJBG67JHPAJF","either","7","372","","","","","","","1","0","0","0.7020762336","","0.8","0.2","0.4","0.6","","","","","0.7020762336","0.4061180554","0.5727893511","0.545148617","","","","","","","","","","72","H","0","img/none_selected.jpg","","198","main_expt",""
"","bandit","279","-2089325","0.0-240.0-0.0","63642213","wem/bandit_party_2","A3BJBG67JHPAJF","either","7","610","","","","","","","1","0","0","0.7749867965","","0.8","0.2","0.4","0.6","","","","","0.7749867965","0.3406873398","0.5803616598","0.5838562778","","","","","","","","","","72","H","0","img/none_selected.jpg","","199","main_expt",""
"","bandit","280","-2087355","0.0-241.0-0.0","63642213","wem/bandit_party_2","A3BJBG67JHPAJF","either","7","458","","","","","","","0","0","1","","0.7971262248","0.8","0.2","0.4","0.6","0.7971262248","0.2810551981","0.5109940584","0.6569131065","","","","","","","","","","","","","","72","H","0","img/none_selected.jpg","","200","main_expt",""
"","bandit","281","-2085341","0.0-242.0-0.0","63642213","wem/bandit_party_2","A3BJBG67JHPAJF","either","7","500","","","","","","","0","0","1","0.6431063495","","0.8","0.2","0.4","0.6","","","","","0.6431063495","0.2295892347","0.444158281","0.6559739125","","","","","","","","","","72","H","0","img/none_selected.jpg","","201","main_expt",""
"","bandit","282","-2083475","0.0-243.0-0.0","63642213","wem/bandit_party_2","A3BJBG67JHPAJF","either","7","342","","","","","","","0","0","1","0.6153479028","","0.8","0.2","0.4","0.6","","","","","0.6153479028","0.2134833186","0.3774362348","0.5940698896","","","","","","","","","","72","H","0","img/none_selected.jpg","","202","main_expt",""
"","bandit","283","-2081619","0.0-244.0-0.0","63642213","wem/bandit_party_2","A3BJBG67JHPAJF","either","7","342","","","","","","","1","0","0","0.6107921693","","0.8","0.2","0.4","0.6","","","","","0.6107921693","0.1538434825","0.2852638898","0.6288005559","","","","","","","","","","72","H","0","img/none_selected.jpg","","203","main_expt",""
"","bandit","284","-2079690","0.0-245.0-0.0","63642213","wem/bandit_party_2","A3BJBG67JHPAJF","either","7","409","","","","","","","0","0","1","0.6364312764","","0.8","0.2","0.4","0.6","","","","","0.6364312764","0.08629221539","0.3900316507","0.7483345684","","","","","","","","","","72","H","0","img/none_selected.jpg","","204","main_expt",""
"","bandit","285","-2077799","0.0-246.0-0.0","63642213","wem/bandit_party_2","A3BJBG67JHPAJF","either","7","377","","","","","","","0","0","1","0.7098325313","","0.8","0.2","0.4","0.6","","","","","0.7098325313","0.1303029892","0.3334674042","0.7823609999","","","","","","","","","","72","H","0","img/none_selected.jpg","","205","main_expt",""
"","bandit","286","-2075047","0.0-247.0-0.0","63642213","wem/bandit_party_2","A3BJBG67JHPAJF","either","7","1244","","","","","","","0","0","1","0.6423198407","","0.8","0.2","0.4","0.6","","","","","0.6423198407","0.1290793888","0.3997779834","0.7053347691","","","","","","","","","","72","H","0","img/none_selected.jpg","","206","main_expt",""
"","bandit","287","-2073063","0.0-248.0-0.0","63642213","wem/bandit_party_2","A3BJBG67JHPAJF","either","7","474","","","","","","","0","1","0","","0.2791746034","0.8","0.2","0.4","0.6","0.7196337679","0.1471003053","0.2791746034","0.692958529","","","","","","","","","","","","","","75","K","2","","","207","main_expt",""
"","bandit","288","-2071213","0.0-249.0-0.0","63642213","wem/bandit_party_2","A3BJBG67JHPAJF","either","7","335","","","","","","","0","1","0","","0.3447420344","0.8","0.2","0.4","0.6","0.7273253538","0.1204476287","0.3447420344","0.5726600787","","","","","","","","","","","","","","75","K","2","","","208","main_expt",""
"","bandit","289","-2069422","0.0-250.0-0.0","63642213","wem/bandit_party_2","A3BJBG67JHPAJF","either","7","278","","","","","","","0","0","1","0.2106944101","","0.8","0.2","0.4","0.6","","","","","0.7701678217","0.1752658923","0.2106944101","0.7193759884","","","","","","","","","","75","K","2","","","209","main_expt",""
"","bandit","290","-2067491","0.0-251.0-0.0","63642213","wem/bandit_party_2","A3BJBG67JHPAJF","either","7","414","","","","","","","0","0","1","0.2609791638","","0.8","0.2","0.4","0.6","","","","","0.7673062315","0.2071456167","0.2609791638","0.5469619257","","","","","","","","","","75","K","2","","","210","main_expt",""
"","bandit","291","-2065671","0.0-252.0-0.0","63642213","wem/bandit_party_2","A3BJBG67JHPAJF","either","7","303","","","","","","","0","0","1","0.3702243554","","0.8","0.2","0.4","0.6","","","","","0.7733207599","0.1982577311","0.3702243554","0.5432746348","","","","","","","","","","75","K","2","","","211","main_expt",""
"","bandit","292","-2063858","0.0-253.0-0.0","63642213","wem/bandit_party_2","A3BJBG67JHPAJF","either","7","293","","","","","","","0","0","1","0.4857525371","","0.8","0.2","0.4","0.6","","","","","0.7176010575","0.2837026457","0.4070014152","0.4857525371","","","","","","","","","","76","L","3","","","212","main_expt",""
"","bandit","293","-2062117","0.0-254.0-0.0","63642213","wem/bandit_party_2","A3BJBG67JHPAJF","either","7","231","","","","","","","0","1","0","","0.4416723402","0.8","0.2","0.4","0.6","0.7241732444","0.2192955177","0.5001351259","0.4416723402","","","","","","","","","","","","","","76","L","3","","","213","main_expt",""
"","bandit","294","-2060265","0.0-255.0-0.0","63642213","wem/bandit_party_2","A3BJBG67JHPAJF","either","7","338","","","","","","","0","1","0","","0.4231083207","0.8","0.2","0.4","0.6","0.6696022014","0.2885853396","0.5667049056","0.4231083207","","","","","","","","","","","","","","76","L","3","","","214","main_expt",""
"","bandit","295","-2058363","0.0-256.0-0.0","63642213","wem/bandit_party_2","A3BJBG67JHPAJF","either","7","391","","","","","","","0","0","1","0.329019478","","0.8","0.2","0.4","0.6","","","","","0.6255990046","0.2451296471","0.5259574602","0.329019478","","","","","","","","","","76","L","3","","","215","main_expt",""
"","bandit","296","-2056408","0.0-257.0-0.0","63642213","wem/bandit_party_2","A3BJBG67JHPAJF","either","7","447","","","","","","","0","0","1","0.3469743373","","0.8","0.2","0.4","0.6","","","","","0.6771362935","0.1946790852","0.5468860011","0.3469743373","","","","","","","","","","76","L","3","","","216","main_expt",""
"","bandit","297","-2054332","0.0-258.0-0.0","63642213","wem/bandit_party_2","A3BJBG67JHPAJF","either","7","557","","","","","","","0","1","0","","0.3618740044","0.8","0.2","0.4","0.6","0.6918953154","0.2497229096","0.6182745027","0.3618740044","","","","","","","","","","","","","","76","L","3","","","217","main_expt",""
"","bandit","298","-2052530","0.0-259.0-0.0","63642213","wem/bandit_party_2","A3BJBG67JHPAJF","either","7","280","","","","","","","0","0","1","","0.3574217595","0.8","0.2","0.4","0.6","0.5726390237","0.3076421025","0.5979125128","0.3574217595","","","","","","","","","","","","","","76","L","3","","","218","main_expt",""
"","bandit","299","-2050742","0.0-260.0-0.0","63642213","wem/bandit_party_2","A3BJBG67JHPAJF","either","7","271","","","","","","","0","0","1","0.3862686792","","0.8","0.2","0.4","0.6","","","","","0.5179196303","0.3488941347","0.5321687475","0.3862686792","","","","","","","","","","76","L","3","","","219","main_expt",""
"","bandit","300","-2048957","0.0-261.0-0.0","63642213","wem/bandit_party_2","A3BJBG67JHPAJF","either","7","265","","","","","","","1","0","0","0.4432846828","","0.8","0.2","0.4","0.6","","","","","0.5578222379","0.306784001","0.6053830099","0.4432846828","","","","","","","","","","76","L","3","","","220","main_expt",""
"","bandit","301","-2047107","0.0-262.0-0.0","63642213","wem/bandit_party_2","A3BJBG67JHPAJF","either","7","330","","","","","","","1","0","0","0.432499938","","0.8","0.2","0.4","0.6","","","","","0.6640911266","0.3786925452","0.69383498","0.432499938","","","","","","","","","","76","L","3","","","221","main_expt",""
"","bandit","302","-2045289","0.0-263.0-0.0","63642213","wem/bandit_party_2","A3BJBG67JHPAJF","either","7","304","","","","","","","1","0","0","0.4050903391","","0.8","0.2","0.4","0.6","","","","","0.7340686256","0.5014801557","0.783375317","0.4050903391","","","","","","","","","","76","L","3","","","222","main_expt",""
"","bandit","303","-2043469","0.0-264.0-0.0","63642213","wem/bandit_party_2","A3BJBG67JHPAJF","either","7","309","","","","","","","1","0","0","0.3282593462","","0.8","0.2","0.4","0.6","","","","","0.852862777","0.4081704387","0.8374489269","0.3282593462","","","","","","","","","","76","L","3","","","223","main_expt",""
"","bandit","304","-2041571","0.0-265.0-0.0","63642213","wem/bandit_party_2","A3BJBG67JHPAJF","either","7","377","","","","","","","0","0","1","0.2465370002","","0.8","0.2","0.4","0.6","","","","","0.7830506485","0.422296693","0.7801262993","0.2465370002","","","","","","","","","","76","L","3","","","224","main_expt",""
"","bandit","305","-2039774","0.0-266.0-0.0","63642213","wem/bandit_party_2","A3BJBG67JHPAJF","either","7","287","","","","","","","0","0","1","0.2260872052","","0.8","0.2","0.4","0.6","","","","","0.7447555501","0.3998144739","0.7438235551","0.2260872052","","","","","","","","","","76","L","3","","","225","main_expt",""
"","bandit","306","-2037984","0.0-267.0-0.0","63642213","wem/bandit_party_2","A3BJBG67JHPAJF","either","7","280","","","","","","","0","0","1","0.2573895518","","0.8","0.2","0.4","0.6","","","","","0.7331719472","0.2692780115","0.7561714458","0.2573895518","","","","","","","","","","76","L","3","","","226","main_expt",""
"","bandit","307","-2036221","0.0-268.0-0.0","63642213","wem/bandit_party_2","A3BJBG67JHPAJF","either","7","251","","","","","","","1","0","0","0.2134597582","","0.8","0.2","0.4","0.6","","","","","0.6417259928","0.268728261","0.7527106072","0.2134597582","","","","","","","","","","76","L","3","","","227","main_expt",""
"","bandit","308","-2034274","0.0-269.0-0.0","63642213","wem/bandit_party_2","A3BJBG67JHPAJF","either","7","427","","","","","","","0","0","1","0.348479141","","0.8","0.2","0.4","0.6","","","","","0.6050549784","0.2211951924","0.6315627418","0.348479141","","","","","","","","","","76","L","3","","","228","main_expt",""
"","bandit","309","-2032431","0.0-270.0-0.0","63642213","wem/bandit_party_2","A3BJBG67JHPAJF","either","7","331","","","","","","","0","0","1","","0.3250735223","0.8","0.2","0.4","0.6","0.5962230341","0.219241791","0.5564086662","0.3250735223","","","","","","","","","","","","","","76","L","3","","","229","main_expt",""
"","bandit","310","-2029347","0.0-271.0-0.0","63642213","wem/bandit_party_2","A3BJBG67JHPAJF","either","7","1566","","","","","","","0","0","1","","0.3395219718","0.8","0.2","0.4","0.6","0.5594933722","0.291585141","0.5895813861","0.3395219718","","","","","","","","","","","","","","76","L","3","","","230","main_expt",""
"","bandit","311","-2027423","0.0-272.0-0.0","63642213","wem/bandit_party_2","A3BJBG67JHPAJF","either","7","415","","","","","","","1","0","0","0.6411036761","","0.8","0.2","0.4","0.6","","","","","0.6411036761","0.2754541949","0.6148213975","0.3315483329","","","","","","","","","","72","H","0","img/none_selected.jpg","","231","main_expt",""
"","bandit","312","-2025627","0.0-273.0-0.0","63642213","wem/bandit_party_2","A3BJBG67JHPAJF","either","7","275","","","","","","","1","0","0","0.6653930637","","0.8","0.2","0.4","0.6","","","","","0.6653930637","0.3055336503","0.5176988489","0.3876030756","","","","","","","","","","72","H","0","img/none_selected.jpg","","232","main_expt",""
"","bandit","313","-2023861","0.0-274.0-0.0","63642213","wem/bandit_party_2","A3BJBG67JHPAJF","either","7","256","","","","","","","1","0","0","0.5426719569","","0.8","0.2","0.4","0.6","","","","","0.5426719569","0.3390100853","0.4505666118","0.3696248546","","","","","","","","","","72","H","0","img/none_selected.jpg","","233","main_expt",""
"","bandit","314","-2022086","0.0-275.0-0.0","63642213","wem/bandit_party_2","A3BJBG67JHPAJF","either","7","255","","","","","","","1","0","0","0.5581360181","","0.8","0.2","0.4","0.6","","","","","0.5581360181","0.3165323161","0.4393496879","0.3927474605","","","","","","","","","","72","H","0","img/none_selected.jpg","","234","main_expt",""
"","bandit","315","-2020346","0.0-276.0-0.0","63642213","wem/bandit_party_2","A3BJBG67JHPAJF","either","7","232","","","","","","","0","0","1","","0.5299247183","0.8","0.2","0.4","0.6","0.5299247183","0.2944333127","0.3542725407","0.4734072524","","","","","","","","","","","","","","72","H","0","img/none_selected.jpg","","235","main_expt",""
