"consent","trial_type","trial_index","time_elapsed","internal_node_id","subjID","study","MID","cond","drift","rt","responses","button_pressed","key_press","like","value","connected","gems","bombs","no_reward","GemPrChosen","BombPrChosen","GainOverPainPr_0","GainOverPainPr_1","GainOverPainPr_2","GainOverPainPr_3","LosePr_0","LosePr_1","LosePr_2","LosePr_3","WinPr_0","WinPr_1","WinPr_2","WinPr_3","Q0","Q1","Q2","gender","age","ethnicity","label","expt_phase","target","respCharCode","respKey","respChoiceNum","respChoice","practice","trial_counter","trial_label","Q0_index"
"GDM/GDM_behavioral_consent_30min_online.html","consent","0","11510","0.0-0.0","64644388","wem/bandit_party_2","A2S4YDJ9UGAXFQ","either","1","","","","","","","","","","","","","","","","","","","","","","","","","","","","","","","","","","","","","","","","",""
"","survey-text","1","15415","0.0-1.0","64644388","wem/bandit_party_2","A2S4YDJ9UGAXFQ","either","1","2893","{""Q0"":""A2S4YDJ9UGAXFQ""}","","","","","","","","","","","","","","","","","","","","","","","","","","","","","","","","","","","","","","",""
"","button-response","2","18221","0.0-2.0","64644388","wem/bandit_party_2","A2S4YDJ9UGAXFQ","either","1","1798","","1","","","","","","","","","","","","","","","","","","","","","","","","","","","","","","","","","","","","","",""
"","text-replacement","3","28098","0.0-3.0","64644388","wem/bandit_party_2","A2S4YDJ9UGAXFQ","either","1","8868","","","32","","","","","","","","","","","","","","","","","","","","","","","","","","","","","","","","","","","","",""
"","text-replacement","4","34495","0.0-4.0","64644388","wem/bandit_party_2","A2S4YDJ9UGAXFQ","either","1","6394","","","32","","","","","","","","","","","","","","","","","","","","","","","","","","","","","","","","","","","","",""
"","identification","5","39151","0.0-6.0-0.0","64644388","wem/bandit_party_2","A2S4YDJ9UGAXFQ","either","1","4617","","","","5","5","5","","","","","","","","","","","","","","","","","","","","","","","","pre","identification_pre","the Democratic Party","","","","","","","",""
"","identification","6","43221","0.0-6.0-1.0","64644388","wem/bandit_party_2","A2S4YDJ9UGAXFQ","either","1","3041","","","","1","1","1","","","","","","","","","","","","","","","","","","","","","","","","pre","identification_pre","the Republican Party","","","","","","","",""
"","text-replacement","7","47966","0.0-7.0","64644388","wem/bandit_party_2","A2S4YDJ9UGAXFQ","either","1","3742","","","32","","","","","","","","","","","","","","","","","","","","","","","","","","","","","","","","","","","","",""
"","text-replacement","8","53446","0.0-8.0","64644388","wem/bandit_party_2","A2S4YDJ9UGAXFQ","either","1","5478","","","32","","","","","","","","","","","","","","","","","","","","","","","","","","","","","","","","","","","","",""
"","text-replacement","9","60454","0.0-9.0","64644388","wem/bandit_party_2","A2S4YDJ9UGAXFQ","either","1","7004","","","32","","","","","","","","","","","","","","","","","","","","","","","","","","","","","","","","","","","","",""
"","text-replacement","10","62485","0.0-10.0","64644388","wem/bandit_party_2","A2S4YDJ9UGAXFQ","either","1","2029","","","32","","","","","","","","","","","","","","","","","","","","","","","","","","","","","","","","","","","","",""
"","text-replacement","11","65798","0.0-11.0","64644388","wem/bandit_party_2","A2S4YDJ9UGAXFQ","either","1","3311","","","32","","","","","","","","","","","","","","","","","","","","","","","","","","","","","","","","","","","","",""
"","bandit","12","69624","0.0-12.0-0.0","64644388","wem/bandit_party_2","A2S4YDJ9UGAXFQ","either","1","2316","","","","","","","0","0","1","0","0","","","","","0","","","","0","","","","","","","","","","","","","74","J","0","img/none_selected_demo.jpg","true","0","",""
"","bandit","13","72574","0.0-13.0-0.0","64644388","wem/bandit_party_2","A2S4YDJ9UGAXFQ","either","1","1439","","","","","","","0","0","1","0","0","","","","","0","","","","0","","","","","","","","","","","","","75","K","0","img/none_selected_demo.jpg","true","0","",""
"","text-replacement","14","76526","0.0-14.0","64644388","wem/bandit_party_2","A2S4YDJ9UGAXFQ","either","1","3949","","","32","","","","","","","","","","","","","","","","","","","","","","","","","","","","","","","","","","","","",""
"","text-replacement","15","81237","0.0-15.0","64644388","wem/bandit_party_2","A2S4YDJ9UGAXFQ","either","1","4707","","","32","","","","","","","","","","","","","","","","","","","","","","","","","","","","","","","","","","","","",""
"","text-replacement","16","86053","0.0-16.0","64644388","wem/bandit_party_2","A2S4YDJ9UGAXFQ","either","1","4813","","","32","","","","","","","","","","","","","","","","","","","","","","","","","","","","","","","","","","","","",""
"","text-replacement","17","88726","0.0-17.0","64644388","wem/bandit_party_2","A2S4YDJ9UGAXFQ","either","1","2669","","","32","","","","","","","","","","","","","","","","","","","","","","","","","","","","","","","","","","","","",""
"","bandit","18","90646","0.0-18.0-0.0","64644388","wem/bandit_party_2","A2S4YDJ9UGAXFQ","either","1","410","","","","","","","0","1","0","","0.8","0.5","0.5","","","0.8","0.2","","","","","","","","","","","","","","","","74","J","0","img/none_selected_demo.jpg","true","0","80_20_practice",""
"","bandit","19","92414","0.0-18.0-1.0","64644388","wem/bandit_party_2","A2S4YDJ9UGAXFQ","either","1","259","","","","","","","1","0","0","0.8","","0.5","0.5","","","","","","","0.8","0.2","","","","","","","","","","","","74","J","0","img/none_selected_demo.jpg","true","0","80_20_practice",""
"","bandit","20","94197","0.0-18.0-2.0","64644388","wem/bandit_party_2","A2S4YDJ9UGAXFQ","either","1","273","","","","","","","0","1","0","","0.8","0.5","0.5","","","0.8","0.2","","","","","","","","","","","","","","","","74","J","0","img/none_selected_demo.jpg","true","0","80_20_practice",""
"","bandit","21","95940","0.0-18.0-3.0","64644388","wem/bandit_party_2","A2S4YDJ9UGAXFQ","either","1","235","","","","","","","0","0","1","","0.8","0.5","0.5","","","0.8","0.2","","","","","","","","","","","","","","","","74","J","0","img/none_selected_demo.jpg","true","0","80_20_practice",""
"","bandit","22","97732","0.0-18.0-4.0","64644388","wem/bandit_party_2","A2S4YDJ9UGAXFQ","either","1","284","","","","","","","0","1","0","","0.8","0.5","0.5","","","0.8","0.2","","","","","","","","","","","","","","","","74","J","0","img/none_selected_demo.jpg","true","0","80_20_practice",""
"","bandit","23","99557","0.0-18.0-5.0","64644388","wem/bandit_party_2","A2S4YDJ9UGAXFQ","either","1","317","","","","","","","0","0","1","","0.2","0.5","0.5","","","0.8","0.2","","","","","","","","","","","","","","","","75","K","1","","true","0","80_20_practice",""
"","bandit","24","101326","0.0-18.0-6.0","64644388","wem/bandit_party_2","A2S4YDJ9UGAXFQ","either","1","259","","","","","","","0","0","1","","0.2","0.5","0.5","","","0.8","0.2","","","","","","","","","","","","","","","","75","K","1","","true","0","80_20_practice",""
"","bandit","25","103069","0.0-18.0-7.0","64644388","wem/bandit_party_2","A2S4YDJ9UGAXFQ","either","1","235","","","","","","","0","0","1","","0.2","0.5","0.5","","","0.8","0.2","","","","","","","","","","","","","","","","75","K","1","","true","0","80_20_practice",""
"","bandit","26","104853","0.0-18.0-8.0","64644388","wem/bandit_party_2","A2S4YDJ9UGAXFQ","either","1","275","","","","","","","0","0","1","0.2","","0.5","0.5","","","","","","","0.8","0.2","","","","","","","","","","","","75","K","1","","true","0","80_20_practice",""
"","bandit","27","106615","0.0-18.0-9.0","64644388","wem/bandit_party_2","A2S4YDJ9UGAXFQ","either","1","252","","","","","","","0","0","1","0.2","","0.5","0.5","","","","","","","0.8","0.2","","","","","","","","","","","","75","K","1","","true","0","80_20_practice",""
"","bandit","28","108334","0.0-18.0-10.0","64644388","wem/bandit_party_2","A2S4YDJ9UGAXFQ","either","1","210","","","","","","","0","0","1","0.8","","0.5","0.5","","","","","","","0.8","0.2","","","","","","","","","","","","74","J","0","img/none_selected_demo.jpg","true","0","80_20_practice",""
"","bandit","29","110021","0.0-18.0-11.0","64644388","wem/bandit_party_2","A2S4YDJ9UGAXFQ","either","1","177","","","","","","","0","0","1","0.8","","0.5","0.5","","","","","","","0.8","0.2","","","","","","","","","","","","74","J","0","img/none_selected_demo.jpg","true","0","80_20_practice",""
"","bandit","30","112406","0.0-18.0-12.0","64644388","wem/bandit_party_2","A2S4YDJ9UGAXFQ","either","1","874","","","","","","","1","0","0","0.8","","0.5","0.5","","","","","","","0.8","0.2","","","","","","","","","","","","74","J","0","img/none_selected_demo.jpg","true","0","80_20_practice",""
"","bandit","31","114166","0.0-18.0-13.0","64644388","wem/bandit_party_2","A2S4YDJ9UGAXFQ","either","1","249","","","","","","","1","0","0","0.8","","0.5","0.5","","","","","","","0.8","0.2","","","","","","","","","","","","74","J","0","img/none_selected_demo.jpg","true","0","80_20_practice",""
"","bandit","32","115679","0.0-18.0-14.0","64644388","wem/bandit_party_2","A2S4YDJ9UGAXFQ","either","1","2","","","","","","","1","0","0","0.8","","0.5","0.5","","","","","","","0.8","0.2","","","","","","","","","","","","74","J","0","img/none_selected_demo.jpg","true","0","80_20_practice",""
"","bandit","33","118221","0.0-18.0-15.0","64644388","wem/bandit_party_2","A2S4YDJ9UGAXFQ","either","1","1035","","","","","","","1","0","0","0.8","","0.5","0.5","","","","","","","0.8","0.2","","","","","","","","","","","","74","J","0","img/none_selected_demo.jpg","true","0","80_20_practice",""
"","bandit","34","120024","0.0-18.0-16.0","64644388","wem/bandit_party_2","A2S4YDJ9UGAXFQ","either","1","290","","","","","","","1","0","0","0.8","","0.5","0.5","","","","","","","0.8","0.2","","","","","","","","","","","","74","J","0","img/none_selected_demo.jpg","true","0","80_20_practice",""
"","bandit","35","121845","0.0-18.0-17.0","64644388","wem/bandit_party_2","A2S4YDJ9UGAXFQ","either","1","311","","","","","","","1","0","0","0.8","","0.5","0.5","","","","","","","0.8","0.2","","","","","","","","","","","","74","J","0","img/none_selected_demo.jpg","true","0","80_20_practice",""
"","bandit","36","123815","0.0-18.0-18.0","64644388","wem/bandit_party_2","A2S4YDJ9UGAXFQ","either","1","459","","","","","","","0","1","0","","0.8","0.5","0.5","","","0.8","0.2","","","","","","","","","","","","","","","","74","J","0","img/none_selected_demo.jpg","true","0","80_20_practice",""
"","bandit","37","125580","0.0-18.0-19.0","64644388","wem/bandit_party_2","A2S4YDJ9UGAXFQ","either","1","256","","","","","","","0","0","1","0.8","","0.5","0.5","","","","","","","0.8","0.2","","","","","","","","","","","","74","J","0","img/none_selected_demo.jpg","true","0","80_20_practice",""
"","text-replacement","38","143399","0.0-19.0","64644388","wem/bandit_party_2","A2S4YDJ9UGAXFQ","either","1","17814","","","32","","","","","","","","","","","","","","","","","","","","","","","","","","","","","","","","","","","","",""
"","bandit","39","145413","0.0-20.0-0.0","64644388","wem/bandit_party_2","A2S4YDJ9UGAXFQ","either","1","504","","","","","","","1","0","0","1","0","","","","","0","1","","","1","0","","","","","","","","","","","","74","J","0","img/none_selected_demo.jpg","true","0","",""
"","text-replacement","40","146973","0.0-21.0","64644388","wem/bandit_party_2","A2S4YDJ9UGAXFQ","either","1","1557","","","32","","","","","","","","","","","","","","","","","","","","","","","","","","","","","","","","","","","","",""
"","text-replacement","41","148405","0.0-22.0","64644388","wem/bandit_party_2","A2S4YDJ9UGAXFQ","either","1","1428","","","32","","","","","","","","","","","","","","","","","","","","","","","","","","","","","","","","","","","","",""
"","text-replacement","42","149270","0.0-23.0","64644388","wem/bandit_party_2","A2S4YDJ9UGAXFQ","either","1","861","","","32","","","","","","","","","","","","","","","","","","","","","","","","","","","","","","","","","","","","",""
"","text-replacement","43","150509","0.0-24.0","64644388","wem/bandit_party_2","A2S4YDJ9UGAXFQ","either","1","1235","","","32","","","","","","","","","","","","","","","","","","","","","","","","","","","","","","","","","","","","",""
"","text-replacement","44","151741","0.0-25.0","64644388","wem/bandit_party_2","A2S4YDJ9UGAXFQ","either","1","1228","","","32","","","","","","","","","","","","","","","","","","","","","","","","","","","","","","","","","","","","",""
"","text-replacement","45","152717","0.0-26.0","64644388","wem/bandit_party_2","A2S4YDJ9UGAXFQ","either","1","973","","","32","","","","","","","","","","","","","","","","","","","","","","","","","","","","","","","","","","","","",""
"","text-replacement","46","154102","0.0-27.0","64644388","wem/bandit_party_2","A2S4YDJ9UGAXFQ","either","1","1381","","","32","","","","","","","","","","","","","","","","","","","","","","","","","","","","","","","","","","","","",""
"","text-replacement","47","155501","0.0-28.0","64644388","wem/bandit_party_2","A2S4YDJ9UGAXFQ","either","1","1395","","","32","","","","","","","","","","","","","","","","","","","","","","","","","","","","","","","","","","","","",""
"","text-replacement","48","156717","0.0-29.0","64644388","wem/bandit_party_2","A2S4YDJ9UGAXFQ","either","1","1212","","","32","","","","","","","","","","","","","","","","","","","","","","","","","","","","","","","","","","","","",""
"","text-replacement","49","158110","0.0-30.0","64644388","wem/bandit_party_2","A2S4YDJ9UGAXFQ","either","1","1389","","","32","","","","","","","","","","","","","","","","","","","","","","","","","","","","","","","","","","","","",""
"","text-replacement","50","163076","0.0-31.0","64644388","wem/bandit_party_2","A2S4YDJ9UGAXFQ","either","1","4962","","","32","","","","","","","","","","","","","","","","","","","","","","","","","","","","","","","","","","","","",""
"","bandit","51","165254","0.0-32.0-0.0","64644388","wem/bandit_party_2","A2S4YDJ9UGAXFQ","either","1","670","","","","","","","0","1","0","","0.8","0.5","0.5","0.5","0.5","0.8","0.2","0.6","0.2","","","","","","","","","","","","","","72","H","0","img/none_selected.jpg","true","0","full_practice",""
"","bandit","52","166932","0.0-32.0-1.0","64644388","wem/bandit_party_2","A2S4YDJ9UGAXFQ","either","1","168","","","","","","","0","1","0","","0.2","0.5","0.5","0.5","0.5","0.8","0.2","0.6","0.2","","","","","","","","","","","","","","74","J","1","","true","0","full_practice",""
"","bandit","53","168510","0.0-32.0-2.0","64644388","wem/bandit_party_2","A2S4YDJ9UGAXFQ","either","1","66","","","","","","","0","0","1","0.2","","0.5","0.5","0.5","0.5","","","","","0.8","0.2","0.6","0.2","","","","","","","","","","76","L","3","","true","0","full_practice",""
"","bandit","54","170166","0.0-32.0-3.0","64644388","wem/bandit_party_2","A2S4YDJ9UGAXFQ","either","1","144","","","","","","","0","1","0","","0.2","0.5","0.5","0.5","0.5","0.8","0.2","0.6","0.2","","","","","","","","","","","","","","76","L","3","","true","0","full_practice",""
"","bandit","55","171788","0.0-32.0-4.0","64644388","wem/bandit_party_2","A2S4YDJ9UGAXFQ","either","1","112","","","","","","","0","0","1","0.2","","0.5","0.5","0.5","0.5","","","","","0.8","0.2","0.6","0.2","","","","","","","","","","74","J","1","","true","0","full_practice",""
"","bandit","56","173469","0.0-32.0-5.0","64644388","wem/bandit_party_2","A2S4YDJ9UGAXFQ","either","1","170","","","","","","","0","1","0","","0.8","0.5","0.5","0.5","0.5","0.8","0.2","0.6","0.2","","","","","","","","","","","","","","72","H","0","img/none_selected.jpg","true","0","full_practice",""
"","bandit","57","175277","0.0-32.0-6.0","64644388","wem/bandit_party_2","A2S4YDJ9UGAXFQ","either","1","295","","","","","","","1","0","0","0.6","","0.5","0.5","0.5","0.5","","","","","0.8","0.2","0.6","0.2","","","","","","","","","","75","K","2","","true","0","full_practice",""
"","bandit","58","176869","0.0-32.0-7.0","64644388","wem/bandit_party_2","A2S4YDJ9UGAXFQ","either","1","82","","","","","","","0","1","0","","0.6","0.5","0.5","0.5","0.5","0.8","0.2","0.6","0.2","","","","","","","","","","","","","","75","K","2","","true","0","full_practice",""
"","bandit","59","178397","0.0-32.0-8.0","64644388","wem/bandit_party_2","A2S4YDJ9UGAXFQ","either","1","15","","","","","","","0","0","1","0.6","","0.5","0.5","0.5","0.5","","","","","0.8","0.2","0.6","0.2","","","","","","","","","","75","K","2","","true","0","full_practice",""
"","bandit","60","180141","0.0-32.0-9.0","64644388","wem/bandit_party_2","A2S4YDJ9UGAXFQ","either","1","234","","","","","","","0","1","0","","0.6","0.5","0.5","0.5","0.5","0.8","0.2","0.6","0.2","","","","","","","","","","","","","","75","K","2","","true","0","full_practice",""
"","bandit","61","181709","0.0-32.0-10.0","64644388","wem/bandit_party_2","A2S4YDJ9UGAXFQ","either","1","56","","","","","","","1","0","0","0.8","","0.5","0.5","0.5","0.5","","","","","0.8","0.2","0.6","0.2","","","","","","","","","","72","H","0","img/none_selected.jpg","true","0","full_practice",""
"","bandit","62","183300","0.0-32.0-11.0","64644388","wem/bandit_party_2","A2S4YDJ9UGAXFQ","either","1","83","","","","","","","0","1","0","","0.8","0.5","0.5","0.5","0.5","0.8","0.2","0.6","0.2","","","","","","","","","","","","","","72","H","0","img/none_selected.jpg","true","0","full_practice",""
"","bandit","63","184892","0.0-32.0-12.0","64644388","wem/bandit_party_2","A2S4YDJ9UGAXFQ","either","1","85","","","","","","","0","0","1","0.2","","0.5","0.5","0.5","0.5","","","","","0.8","0.2","0.6","0.2","","","","","","","","","","74","J","1","","true","0","full_practice",""
"","bandit","64","186438","0.0-32.0-13.0","64644388","wem/bandit_party_2","A2S4YDJ9UGAXFQ","either","1","34","","","","","","","0","0","1","0.2","","0.5","0.5","0.5","0.5","","","","","0.8","0.2","0.6","0.2","","","","","","","","","","74","J","1","","true","0","full_practice",""
"","bandit","65","188037","0.0-32.0-14.0","64644388","wem/bandit_party_2","A2S4YDJ9UGAXFQ","either","1","89","","","","","","","0","0","1","0.2","","0.5","0.5","0.5","0.5","","","","","0.8","0.2","0.6","0.2","","","","","","","","","","74","J","1","","true","0","full_practice",""
"","bandit","66","189822","0.0-32.0-15.0","64644388","wem/bandit_party_2","A2S4YDJ9UGAXFQ","either","1","273","","","","","","","0","0","1","0.2","","0.5","0.5","0.5","0.5","","","","","0.8","0.2","0.6","0.2","","","","","","","","","","76","L","3","","true","0","full_practice",""
"","bandit","67","191484","0.0-32.0-16.0","64644388","wem/bandit_party_2","A2S4YDJ9UGAXFQ","either","1","151","","","","","","","0","0","1","","0.2","0.5","0.5","0.5","0.5","0.8","0.2","0.6","0.2","","","","","","","","","","","","","","76","L","3","","true","0","full_practice",""
"","bandit","68","193029","0.0-32.0-17.0","64644388","wem/bandit_party_2","A2S4YDJ9UGAXFQ","either","1","33","","","","","","","0","0","1","0.2","","0.5","0.5","0.5","0.5","","","","","0.8","0.2","0.6","0.2","","","","","","","","","","74","J","1","","true","0","full_practice",""
"","bandit","69","194684","0.0-32.0-18.0","64644388","wem/bandit_party_2","A2S4YDJ9UGAXFQ","either","1","145","","","","","","","0","0","1","","0.8","0.5","0.5","0.5","0.5","0.8","0.2","0.6","0.2","","","","","","","","","","","","","","72","H","0","img/none_selected.jpg","true","0","full_practice",""
"","bandit","70","196534","0.0-32.0-19.0","64644388","wem/bandit_party_2","A2S4YDJ9UGAXFQ","either","1","339","","","","","","","0","1","0","","0.6","0.5","0.5","0.5","0.5","0.8","0.2","0.6","0.2","","","","","","","","","","","","","","75","K","2","","true","0","full_practice",""
"","text","71","199061","0.0-33.0","64644388","wem/bandit_party_2","A2S4YDJ9UGAXFQ","either","1","2511","","","32","","","","","","","","","","","","","","","","","","","","","","","","","","","","","","","","","","","","",""
"","text-replacement","72","206197","0.0-34.0","64644388","wem/bandit_party_2","A2S4YDJ9UGAXFQ","either","1","6129","","","32","","","","","","","","","","","","","","","","","","","","","","","","","","","","","","","","","","","","",""
"","text-replacement","73","210758","0.0-35.0","64644388","wem/bandit_party_2","A2S4YDJ9UGAXFQ","either","1","4555","","","32","","","","","","","","","","","","","","","","","","","","","","","","","","","","","","","","","","","","",""
"","text-replacement","74","212974","0.0-36.0","64644388","wem/bandit_party_2","A2S4YDJ9UGAXFQ","either","1","2209","","","32","","","","","","","","","","","","","","","","","","","","","","","","","","","","","","","","","","","","",""
"","text-replacement","75","214158","0.0-37.0","64644388","wem/bandit_party_2","A2S4YDJ9UGAXFQ","either","1","1178","","","32","","","","","","","","","","","","","","","","","","","","","","","","","","","","","","","","","","","","",""
"","text-replacement","76","217821","0.0-38.0","64644388","wem/bandit_party_2","A2S4YDJ9UGAXFQ","either","1","3658","","","32","","","","","","","","","","","","","","","","","","","","","","","","","","","","","","","","","","","","",""
"","survey-multi-choice-replacement","77","225110","0.0-39.0-0.0","64644388","wem/bandit_party_2","A2S4YDJ9UGAXFQ","either","1","7263","","","","","","","","","","","","","","","","","","","","","","","","Money will be added to the pool for <span style='color:blue;'>DEMOCRATS</span>","","","","","","","attn_check","","","","","","","","","0"
"","survey-multi-choice-replacement","78","230613","0.0-40.0-0.0","64644388","wem/bandit_party_2","A2S4YDJ9UGAXFQ","either","1","4476","","","","","","","","","","","","","","","","","","","","","","","","Equal amounts of money will be added to the pool for <span style='color:blue;'>DEMOCRATS</span> and subtracted from the pool for <span style='color:red;'>REPUBLICANS</span>","","","","","","","attn_check","","","","","","","","","2"
"","survey-multi-choice-replacement","79","234052","0.0-41.0-0.0","64644388","wem/bandit_party_2","A2S4YDJ9UGAXFQ","either","1","2412","","","","","","","","","","","","","","","","","","","","","","","","No money will be added to either pool","","","","","","","attn_check","","","","","","","","","3"
"","bandit","80","237325","0.0-42.0-0.0","64644388","wem/bandit_party_2","A2S4YDJ9UGAXFQ","either","1","754","","","","","","","0","1","0","","0.4995060561","0.6","0.2","0.8","0.4","0.4995060561","0.7674833066","0.8101107889","0.5202783506","","","","","","","","","","","","","","72","H","0","img/none_selected.jpg","","1","main_expt",""
"","bandit","81","238998","0.0-43.0-0.0","64644388","wem/bandit_party_2","A2S4YDJ9UGAXFQ","either","1","159","","","","","","","1","0","0","0.8827976921","","0.6","0.2","0.8","0.4","","","","","0.4452888422","0.7786696111","0.8827976921","0.4559554218","","","","","","","","","","75","K","2","","","2","main_expt",""
"","bandit","82","240708","0.0-44.0-0.0","64644388","wem/bandit_party_2","A2S4YDJ9UGAXFQ","either","1","198","","","","","","","1","0","0","0.918633781","","0.6","0.2","0.8","0.4","","","","","0.4956599627","0.7883912796","0.918633781","0.3791335739","","","","","","","","","","75","K","2","","","3","main_expt",""
"","bandit","83","242420","0.0-45.0-0.0","64644388","wem/bandit_party_2","A2S4YDJ9UGAXFQ","either","1","201","","","","","","","1","0","0","0.8961075186","","0.6","0.2","0.8","0.4","","","","","0.3939226057","0.8311681014","0.8961075186","0.362446662","","","","","","","","","","75","K","2","","","4","main_expt",""
"","bandit","84","244052","0.0-46.0-0.0","64644388","wem/bandit_party_2","A2S4YDJ9UGAXFQ","either","1","121","","","","","","","1","0","0","0.9065038385","","0.6","0.2","0.8","0.4","","","","","0.4737796053","0.706748425","0.9065038385","0.4337427147","","","","","","","","","","75","K","2","","","5","main_expt",""
"","bandit","85","245614","0.0-47.0-0.0","64644388","wem/bandit_party_2","A2S4YDJ9UGAXFQ","either","1","50","","","","","","","1","0","0","0.9628954729","","0.6","0.2","0.8","0.4","","","","","0.5798080576","0.7246132019","0.9628954729","0.4260566605","","","","","","","","","","75","K","2","","","6","main_expt",""
"","bandit","86","247132","0.0-48.0-0.0","64644388","wem/bandit_party_2","A2S4YDJ9UGAXFQ","either","1","7","","","","","","","1","0","0","0.9244273404","","0.6","0.2","0.8","0.4","","","","","0.6184433593","0.822103072","0.9244273404","0.5595739282","","","","","","","","","","75","K","2","","","7","main_expt",""
"","bandit","87","248709","0.0-49.0-0.0","64644388","wem/bandit_party_2","A2S4YDJ9UGAXFQ","either","1","65","","","","","","","0","1","0","","0.9214665689","0.6","0.2","0.8","0.4","0.5380809204","0.8176183596","0.9214665689","0.5757792393","","","","","","","","","","","","","","75","K","2","","","8","main_expt",""
"","bandit","88","250293","0.0-50.0-0.0","64644388","wem/bandit_party_2","A2S4YDJ9UGAXFQ","either","1","70","","","","","","","0","1","0","","0.5508288143","0.6","0.2","0.8","0.4","0.4884558296","0.7421782695","0.9604963414","0.5508288143","","","","","","","","","","","","","","76","L","3","","","9","main_expt",""
"","bandit","89","251909","0.0-51.0-0.0","64644388","wem/bandit_party_2","A2S4YDJ9UGAXFQ","either","1","103","","","","","","","1","0","0","0.7112185725","","0.6","0.2","0.8","0.4","","","","","0.6062827564","0.7112185725","0.973544224","0.4615344473","","","","","","","","","","74","J","1","","","10","main_expt",""
"","bandit","90","253533","0.0-52.0-0.0","64644388","wem/bandit_party_2","A2S4YDJ9UGAXFQ","either","1","115","","","","","","","0","0","1","","0.6656122322","0.6","0.2","0.8","0.4","0.6618996933","0.6656122322","0.9756729976","0.4731032433","","","","","","","","","","","","","","74","J","1","","","11","main_expt",""
"","bandit","91","255179","0.0-53.0-0.0","64644388","wem/bandit_party_2","A2S4YDJ9UGAXFQ","either","1","140","","","","","","","0","0","1","0.632951522","","0.6","0.2","0.8","0.4","","","","","0.6589688621","0.632951522","0.9824084628","0.5028989732","","","","","","","","","","74","J","1","","","12","main_expt",""
"","bandit","92","256909","0.0-54.0-0.0","64644388","wem/bandit_party_2","A2S4YDJ9UGAXFQ","either","1","217","","","","","","","0","0","1","0.7483501345","","0.6","0.2","0.8","0.4","","","","","0.7483501345","0.6428643634","0.9852841122","0.5252386458","","","","","","","","","","72","H","0","img/none_selected.jpg","","13","main_expt",""
"","bandit","93","258525","0.0-55.0-0.0","64644388","wem/bandit_party_2","A2S4YDJ9UGAXFQ","either","1","103","","","","","","","1","0","0","0.9844185579","","0.6","0.2","0.8","0.4","","","","","0.7642220585","0.5693663763","0.9844185579","0.4883642101","","","","","","","","","","75","K","2","","","14","main_expt",""
"","bandit","94","260207","0.0-56.0-0.0","64644388","wem/bandit_party_2","A2S4YDJ9UGAXFQ","either","1","169","","","","","","","1","0","0","0.9716790186","","0.6","0.2","0.8","0.4","","","","","0.8255663415","0.6354763258","0.9716790186","0.5125695872","","","","","","","","","","75","K","2","","","15","main_expt",""
"","bandit","95","261901","0.0-57.0-0.0","64644388","wem/bandit_party_2","A2S4YDJ9UGAXFQ","either","1","181","","","","","","","1","0","0","0.9724226268","","0.6","0.2","0.8","0.4","","","","","0.8262734196","0.6074668868","0.9724226268","0.483313844","","","","","","","","","","75","K","2","","","16","main_expt",""
"","bandit","96","263708","0.0-58.0-0.0","64644388","wem/bandit_party_2","A2S4YDJ9UGAXFQ","either","1","298","","","","","","","1","0","0","0.969397438","","0.6","0.2","0.8","0.4","","","","","0.8957105494","0.634379517","0.969397438","0.4764119597","","","","","","","","","","75","K","2","","","17","main_expt",""
"","bandit","97","265221","0.0-59.0-0.0","64644388","wem/bandit_party_2","A2S4YDJ9UGAXFQ","either","1","5","","","","","","","1","0","0","0.9487821198","","0.6","0.2","0.8","0.4","","","","","0.8243017832","0.7399013172","0.9487821198","0.4742144938","","","","","","","","","","75","K","2","","","18","main_expt",""
"","bandit","98","266965","0.0-60.0-0.0","64644388","wem/bandit_party_2","A2S4YDJ9UGAXFQ","either","1","233","","","","","","","1","0","0","0.8822386923","","0.6","0.2","0.8","0.4","","","","","0.8174393347","0.6892422428","0.8822386923","0.5445729057","","","","","","","","","","75","K","2","","","19","main_expt",""
"","bandit","99","268724","0.0-61.0-0.0","64644388","wem/bandit_party_2","A2S4YDJ9UGAXFQ","either","1","247","","","","","","","0","1","0","","0.8658452863","0.6","0.2","0.8","0.4","0.8457625901","0.5544472153","0.8658452863","0.5114357523","","","","","","","","","","","","","","75","K","2","","","20","main_expt",""
"","bandit","100","270261","0.0-62.0-0.0","64644388","wem/bandit_party_2","A2S4YDJ9UGAXFQ","either","1","25","","","","","","","1","0","0","0.8597265301","","0.6","0.2","0.8","0.4","","","","","0.8565453533","0.4705077418","0.8597265301","0.4948626968","","","","","","","","","","75","K","2","","","21","main_expt",""
"","bandit","101","272038","0.0-63.0-0.0","64644388","wem/bandit_party_2","A2S4YDJ9UGAXFQ","either","1","264","","","","","","","1","0","0","0.929530396","","0.6","0.2","0.8","0.4","","","","","0.8821281293","0.5364913494","0.929530396","0.3750889156","","","","","","","","","","75","K","2","","","22","main_expt",""
"","bandit","102","273789","0.0-64.0-0.0","64644388","wem/bandit_party_2","A2S4YDJ9UGAXFQ","either","1","239","","","","","","","0","1","0","","0.9149061772","0.6","0.2","0.8","0.4","0.8253896901","0.5450887529","0.9149061772","0.3874093852","","","","","","","","","","","","","","75","K","2","","","23","main_expt",""
"","bandit","103","275302","0.0-65.0-0.0","64644388","wem/bandit_party_2","A2S4YDJ9UGAXFQ","either","1","1","","","","","","","0","1","0","","0.9389899916","0.6","0.2","0.8","0.4","0.8682133559","0.6013055931","0.9389899916","0.4126546177","","","","","","","","","","","","","","75","K","2","","","24","main_expt",""
"","bandit","104","276965","0.0-66.0-0.0","64644388","wem/bandit_party_2","A2S4YDJ9UGAXFQ","either","1","153","","","","","","","1","0","0","0.9583062328","","0.6","0.2","0.8","0.4","","","","","0.8186134727","0.7116226269","0.9583062328","0.3871809826","","","","","","","","","","75","K","2","","","25","main_expt",""
"","bandit","105","278757","0.0-67.0-0.0","64644388","wem/bandit_party_2","A2S4YDJ9UGAXFQ","either","1","278","","","","","","","1","0","0","0.9349434311","","0.6","0.2","0.8","0.4","","","","","0.841170918","0.7284905038","0.9349434311","0.4162773602","","","","","","","","","","75","K","2","","","26","main_expt",""
"","bandit","106","280870","0.0-68.0-0.0","64644388","wem/bandit_party_2","A2S4YDJ9UGAXFQ","either","1","599","","","","","","","0","0","1","0.9147743466","","0.6","0.2","0.8","0.4","","","","","0.8332298301","0.7007901837","0.9147743466","0.4153433109","","","","","","","","","","75","K","2","","","27","main_expt",""
"","bandit","107","282677","0.0-69.0-0.0","64644388","wem/bandit_party_2","A2S4YDJ9UGAXFQ","either","1","294","","","","","","","1","0","0","0.8913744663","","0.6","0.2","0.8","0.4","","","","","0.8340804883","0.7197690037","0.8913744663","0.3083156359","","","","","","","","","","75","K","2","","","28","main_expt",""
"","bandit","108","284341","0.0-70.0-0.0","64644388","wem/bandit_party_2","A2S4YDJ9UGAXFQ","either","1","150","","","","","","","0","1","0","","0.9004815278","0.6","0.2","0.8","0.4","0.8800986549","0.7569205749","0.9004815278","0.4048150761","","","","","","","","","","","","","","75","K","2","","","29","main_expt",""
"","bandit","109","286022","0.0-71.0-0.0","64644388","wem/bandit_party_2","A2S4YDJ9UGAXFQ","either","1","166","","","","","","","0","1","0","","0.8335499875","0.6","0.2","0.8","0.4","0.800988266","0.7007062976","0.8335499875","0.5604470694","","","","","","","","","","","","","","75","K","2","","","30","main_expt",""
"","bandit","110","287732","0.0-72.0-0.0","64644388","wem/bandit_party_2","A2S4YDJ9UGAXFQ","either","1","199","","","","","","","1","0","0","0.7904098286","","0.6","0.2","0.8","0.4","","","","","0.8092707987","0.6218809145","0.7904098286","0.5114456598","","","","","","","","","","75","K","2","","","31","main_expt",""
"","bandit","111","289725","0.0-73.0-0.0","64644388","wem/bandit_party_2","A2S4YDJ9UGAXFQ","either","1","487","","","","","","","1","0","0","0.8156470634","","0.6","0.2","0.8","0.4","","","","","0.7600689364","0.5448888872","0.8156470634","0.5195843055","","","","","","","","","","75","K","2","","","32","main_expt",""
"","bandit","112","291909","0.0-74.0-0.0","64644388","wem/bandit_party_2","A2S4YDJ9UGAXFQ","either","1","675","","","","","","","0","1","0","","0.7458483223","0.6","0.2","0.8","0.4","0.7268405739","0.4396040002","0.7458483223","0.4278216128","","","","","","","","","","","","","","75","K","2","","","33","main_expt",""
"","bandit","113","293499","0.0-75.0-0.0","64644388","wem/bandit_party_2","A2S4YDJ9UGAXFQ","either","1","78","","","","","","","0","0","1","0.8745519215","","0.6","0.2","0.8","0.4","","","","","0.7867385379","0.3418027302","0.8745519215","0.4581725564","","","","","","","","","","75","K","2","","","34","main_expt",""
"","bandit","114","295203","0.0-76.0-0.0","64644388","wem/bandit_party_2","A2S4YDJ9UGAXFQ","either","1","198","","","","","","","1","0","0","0.8761773117","","0.6","0.2","0.8","0.4","","","","","0.7776722478","0.3770378826","0.8761773117","0.5170179058","","","","","","","","","","75","K","2","","","35","main_expt",""
"","bandit","115","297087","0.0-77.0-0.0","64644388","wem/bandit_party_2","A2S4YDJ9UGAXFQ","either","1","369","","","","","","","1","0","0","0.8898579413","","0.6","0.2","0.8","0.4","","","","","0.8110731924","0.3264650107","0.8898579413","0.5761285305","","","","","","","","","","75","K","2","","","36","main_expt",""
"","bandit","116","298644","0.0-78.0-0.0","64644388","wem/bandit_party_2","A2S4YDJ9UGAXFQ","either","1","44","","","","","","","0","1","0","","0.9189960073","0.6","0.2","0.8","0.4","0.8371501114","0.1696248696","0.9189960073","0.5824592389","","","","","","","","","","","","","","75","K","2","","","37","main_expt",""
"","bandit","117","300236","0.0-79.0-0.0","64644388","wem/bandit_party_2","A2S4YDJ9UGAXFQ","either","1","82","","","","","","","1","0","0","0.9429067042","","0.6","0.2","0.8","0.4","","","","","0.801984358","0.3008725236","0.9429067042","0.5039158184","","","","","","","","","","75","K","2","","","38","main_expt",""
"","bandit","118","301769","0.0-80.0-0.0","64644388","wem/bandit_party_2","A2S4YDJ9UGAXFQ","either","1","19","","","","","","","1","0","0","0.8860185862","","0.6","0.2","0.8","0.4","","","","","0.836760671","0.3612597963","0.8860185862","0.4906961915","","","","","","","","","","75","K","2","","","39","main_expt",""
"","bandit","119","305020","0.0-81.0-0.0","64644388","wem/bandit_party_2","A2S4YDJ9UGAXFQ","either","1","1739","","","","","","","0","1","0","","0.8958725565","0.6","0.2","0.8","0.4","0.7930168878","0.3316001813","0.8958725565","0.5118773476","","","","","","","","","","","","","","75","K","2","","","40","main_expt",""
"","bandit","120","306693","0.0-82.0-0.0","64644388","wem/bandit_party_2","A2S4YDJ9UGAXFQ","either","1","159","","","","","","","0","1","0","","0.8369757826","0.6","0.2","0.8","0.4","0.6758505439","0.251761063","0.8369757826","0.5207000815","","","","","","","","","","","","","","75","K","2","","","41","main_expt",""
"","bandit","121","308237","0.0-83.0-0.0","64644388","wem/bandit_party_2","A2S4YDJ9UGAXFQ","either","1","30","","","","","","","1","0","0","0.8724413244","","0.6","0.2","0.8","0.4","","","","","0.669091732","0.3764367217","0.8724413244","0.6208632684","","","","","","","","","","75","K","2","","","42","main_expt",""
"","bandit","122","310006","0.0-84.0-0.0","64644388","wem/bandit_party_2","A2S4YDJ9UGAXFQ","either","1","255","","","","","","","1","0","0","0.8721156492","","0.6","0.2","0.8","0.4","","","","","0.5774386383","0.4280411123","0.8721156492","0.6736877605","","","","","","","","","","75","K","2","","","43","main_expt",""
"","bandit","123","311652","0.0-85.0-0.0","64644388","wem/bandit_party_2","A2S4YDJ9UGAXFQ","either","1","133","","","","","","","1","0","0","0.874486911","","0.6","0.2","0.8","0.4","","","","","0.5402750746","0.4250007774","0.874486911","0.6770598463","","","","","","","","","","75","K","2","","","44","main_expt",""
"","bandit","124","313180","0.0-86.0-0.0","64644388","wem/bandit_party_2","A2S4YDJ9UGAXFQ","either","1","18","","","","","","","1","0","0","0.7653026016","","0.6","0.2","0.8","0.4","","","","","0.4769525635","0.3964774122","0.7653026016","0.6811336834","","","","","","","","","","75","K","2","","","45","main_expt",""
"","bandit","125","314870","0.0-87.0-0.0","64644388","wem/bandit_party_2","A2S4YDJ9UGAXFQ","either","1","175","","","","","","","1","0","0","0.6884850605","","0.6","0.2","0.8","0.4","","","","","0.460739512","0.3755541509","0.6884850605","0.7409040253","","","","","","","","","","75","K","2","","","46","main_expt",""
"","bandit","126","316476","0.0-88.0-0.0","64644388","wem/bandit_party_2","A2S4YDJ9UGAXFQ","either","1","94","","","","","","","1","0","0","0.6869729855","","0.6","0.2","0.8","0.4","","","","","0.3953603582","0.3698766084","0.6869729855","0.8602274841","","","","","","","","","","75","K","2","","","47","main_expt",""
"","bandit","127","318205","0.0-89.0-0.0","64644388","wem/bandit_party_2","A2S4YDJ9UGAXFQ","either","1","214","","","","","","","1","0","0","0.624749708","","0.6","0.2","0.8","0.4","","","","","0.5194217752","0.2924141828","0.624749708","0.8947369126","","","","","","","","","","75","K","2","","","48","main_expt",""
"","bandit","128","319749","0.0-90.0-0.0","64644388","wem/bandit_party_2","A2S4YDJ9UGAXFQ","either","1","32","","","","","","","0","0","1","0.6269608649","","0.6","0.2","0.8","0.4","","","","","0.5015721984","0.2506794134","0.6269608649","0.9071052574","","","","","","","","","","75","K","2","","","49","main_expt",""
"","bandit","129","321413","0.0-91.0-0.0","64644388","wem/bandit_party_2","A2S4YDJ9UGAXFQ","either","1","149","","","","","","","0","0","1","0.5394470416","","0.6","0.2","0.8","0.4","","","","","0.4427204185","0.2200095001","0.5394470416","0.8569531155","","","","","","","","","","75","K","2","","","50","main_expt",""
"","bandit","130","323044","0.0-92.0-0.0","64644388","wem/bandit_party_2","A2S4YDJ9UGAXFQ","either","1","118","","","","","","","0","0","1","0.4991806479","","0.6","0.2","0.8","0.4","","","","","0.5194544998","0.2703780474","0.4991806479","0.8728609703","","","","","","","","","","75","K","2","","","51","main_expt",""
"","bandit","131","324605","0.0-93.0-0.0","64644388","wem/bandit_party_2","A2S4YDJ9UGAXFQ","either","1","46","","","","","","","0","0","1","","0.3215640211","0.6","0.2","0.8","0.4","0.4420680866","0.3215640211","0.5431464126","0.902184381","","","","","","","","","","","","","","74","J","1","","","52","main_expt",""
"","bandit","132","326244","0.0-94.0-0.0","64644388","wem/bandit_party_2","A2S4YDJ9UGAXFQ","either","1","124","","","","","","","0","1","0","","0.5541791803","0.6","0.2","0.8","0.4","0.5541791803","0.2918797996","0.4799783957","0.8975054296","","","","","","","","","","","","","","72","H","0","img/none_selected.jpg","","53","main_expt",""
"","bandit","133","328014","0.0-95.0-0.0","64644388","wem/bandit_party_2","A2S4YDJ9UGAXFQ","either","1","255","","","","","","","0","1","0","","0.6187664305","0.6","0.2","0.8","0.4","0.6187664305","0.2432815539","0.3946877269","0.9436546011","","","","","","","","","","","","","","72","H","0","img/none_selected.jpg","","54","main_expt",""
"","bandit","134","329828","0.0-96.0-0.0","64644388","wem/bandit_party_2","A2S4YDJ9UGAXFQ","either","1","300","","","","","","","1","0","0","0.538030076","","0.6","0.2","0.8","0.4","","","","","0.538030076","0.1993500609","0.3892466866","0.9411334538","","","","","","","","","","72","H","0","img/none_selected.jpg","","55","main_expt",""
"","bandit","135","331349","0.0-97.0-0.0","64644388","wem/bandit_party_2","A2S4YDJ9UGAXFQ","either","1","6","","","","","","","0","0","1","0.5137881872","","0.6","0.2","0.8","0.4","","","","","0.5137881872","0.1832364248","0.347268188","0.862285227","","","","","","","","","","72","H","0","img/none_selected.jpg","","56","main_expt",""
"","bandit","136","332964","0.0-98.0-0.0","64644388","wem/bandit_party_2","A2S4YDJ9UGAXFQ","either","1","101","","","","","","","0","0","1","","0.6274604021","0.6","0.2","0.8","0.4","0.6274604021","0.1703919496","0.3462231845","0.9034803314","","","","","","","","","","","","","","72","H","0","img/none_selected.jpg","","57","main_expt",""
"","bandit","137","334685","0.0-99.0-0.0","64644388","wem/bandit_party_2","A2S4YDJ9UGAXFQ","either","1","206","","","","","","","0","1","0","","0.9062052911","0.6","0.2","0.8","0.4","0.5636132077","0.2146973212","0.3707442777","0.9062052911","","","","","","","","","","","","","","76","L","3","","","58","main_expt",""
"","bandit","138","336201","0.0-100.0-0.0","64644388","wem/bandit_party_2","A2S4YDJ9UGAXFQ","either","1","2","","","","","","","0","1","0","","0.9169546289","0.6","0.2","0.8","0.4","0.6555757088","0.2118107272","0.4530366532","0.9169546289","","","","","","","","","","","","","","76","L","3","","","59","main_expt",""
"","bandit","139","337957","0.0-101.0-0.0","64644388","wem/bandit_party_2","A2S4YDJ9UGAXFQ","either","1","241","","","","","","","1","0","0","0.9048679239","","0.6","0.2","0.8","0.4","","","","","0.6555481193","0.2096036334","0.4335409142","0.9048679239","","","","","","","","","","76","L","3","","","60","main_expt",""
"","bandit","140","339517","0.0-102.0-0.0","64644388","wem/bandit_party_2","A2S4YDJ9UGAXFQ","either","1","45","","","","","","","0","1","0","","0.9346572725","0.6","0.2","0.8","0.4","0.6988977931","0.1985607356","0.3601573371","0.9346572725","","","","","","","","","","","","","","76","L","3","","","61","main_expt",""
"","bandit","141","341220","0.0-103.0-0.0","64644388","wem/bandit_party_2","A2S4YDJ9UGAXFQ","either","1","189","","","","","","","0","1","0","","0.9332729597","0.6","0.2","0.8","0.4","0.6124712875","0.2352246004","0.3187004912","0.9332729597","","","","","","","","","","","","","","76","L","3","","","62","main_expt",""
"","bandit","142","342933","0.0-104.0-0.0","64644388","wem/bandit_party_2","A2S4YDJ9UGAXFQ","either","1","199","","","","","","","1","0","0","0.9300142507","","0.6","0.2","0.8","0.4","","","","","0.4881994696","0.1989126294","0.331276396","0.9300142507","","","","","","","","","","76","L","3","","","63","main_expt",""
"","bandit","143","344629","0.0-105.0-0.0","64644388","wem/bandit_party_2","A2S4YDJ9UGAXFQ","either","1","181","","","","","","","0","1","0","","0.8992917639","0.6","0.2","0.8","0.4","0.5007509184","0.2231035509","0.3984677","0.8992917639","","","","","","","","","","","","","","76","L","3","","","64","main_expt",""
"","bandit","144","346145","0.0-106.0-0.0","64644388","wem/bandit_party_2","A2S4YDJ9UGAXFQ","either","1","0","","","","","","","0","0","1","0.7939475476","","0.6","0.2","0.8","0.4","","","","","0.6077525222","0.174077904","0.3012021372","0.7939475476","","","","","","","","","","76","L","3","","","65","main_expt",""
"","bandit","145","347684","0.0-107.0-0.0","64644388","wem/bandit_party_2","A2S4YDJ9UGAXFQ","either","1","25","","","","","","","0","0","1","","0.2848395029","0.6","0.2","0.8","0.4","0.4876759876","0.1505104035","0.2848395029","0.7848839068","","","","","","","","","","","","","","75","K","2","","","66","main_expt",""
"","bandit","146","349253","0.0-108.0-0.0","64644388","wem/bandit_party_2","A2S4YDJ9UGAXFQ","either","1","61","","","","","","","0","0","1","","0.1706094741","0.6","0.2","0.8","0.4","0.4705728971","0.1706094741","0.2908363747","0.7712869283","","","","","","","","","","","","","","74","J","1","","","67","main_expt",""
"","bandit","147","350894","0.0-109.0-0.0","64644388","wem/bandit_party_2","A2S4YDJ9UGAXFQ","either","1","125","","","","","","","0","1","0","","0.5822594153","0.6","0.2","0.8","0.4","0.5822594153","0.193375558","0.3226378352","0.7426915226","","","","","","","","","","","","","","72","H","0","img/none_selected.jpg","","68","main_expt",""
"","bandit","148","352485","0.0-110.0-0.0","64644388","wem/bandit_party_2","A2S4YDJ9UGAXFQ","either","1","77","","","","","","","0","1","0","","0.6189715015","0.6","0.2","0.8","0.4","0.6189715015","0.226811003","0.4490581071","0.592712881","","","","","","","","","","","","","","72","H","0","img/none_selected.jpg","","69","main_expt",""
"","bandit","149","354197","0.0-111.0-0.0","64644388","wem/bandit_party_2","A2S4YDJ9UGAXFQ","either","1","196","","","","","","","0","0","1","0.5307799745","","0.6","0.2","0.8","0.4","","","","","0.5307799745","0.191142909","0.42365523","0.6587085967","","","","","","","","","","72","H","0","img/none_selected.jpg","","70","main_expt",""
"","bandit","150","355805","0.0-112.0-0.0","64644388","wem/bandit_party_2","A2S4YDJ9UGAXFQ","either","1","91","","","","","","","1","0","0","0.7562029562","","0.6","0.2","0.8","0.4","","","","","0.5205551237","0.2371486809","0.427101634","0.7562029562","","","","","","","","","","76","L","3","","","71","main_expt",""
"","bandit","151","357853","0.0-113.0-0.0","64644388","wem/bandit_party_2","A2S4YDJ9UGAXFQ","either","1","533","","","","","","","1","0","0","0.670676276","","0.6","0.2","0.8","0.4","","","","","0.5913901284","0.2602117984","0.5387899421","0.670676276","","","","","","","","","","76","L","3","","","72","main_expt",""
"","bandit","152","359820","0.0-114.0-0.0","64644388","wem/bandit_party_2","A2S4YDJ9UGAXFQ","either","1","453","","","","","","","0","1","0","","0.6870219419","0.6","0.2","0.8","0.4","0.7127465592","0.1837165363","0.4931252492","0.6870219419","","","","","","","","","","","","","","76","L","3","","","73","main_expt",""
"","bandit","153","361715","0.0-115.0-0.0","64644388","wem/bandit_party_2","A2S4YDJ9UGAXFQ","either","1","384","","","","","","","0","0","1","","0.582898469","0.6","0.2","0.8","0.4","0.7804212289","0.2032334464","0.3888626504","0.582898469","","","","","","","","","","","","","","76","L","3","","","74","main_expt",""
"","bandit","154","363244","0.0-116.0-0.0","64644388","wem/bandit_party_2","A2S4YDJ9UGAXFQ","either","1","19","","","","","","","0","0","1","0.3866429177","","0.6","0.2","0.8","0.4","","","","","0.7966502287","0.2782751631","0.3866429177","0.6452442043","","","","","","","","","","75","K","2","","","75","main_expt",""
"","bandit","155","364940","0.0-117.0-0.0","64644388","wem/bandit_party_2","A2S4YDJ9UGAXFQ","either","1","182","","","","","","","0","1","0","","0.3318782676","0.6","0.2","0.8","0.4","0.7775959854","0.3318782676","0.3948468247","0.7031137023","","","","","","","","","","","","","","74","J","1","","","76","main_expt",""
"","bandit","156","366588","0.0-118.0-0.0","64644388","wem/bandit_party_2","A2S4YDJ9UGAXFQ","either","1","134","","","","","","","0","0","1","0.312607664","","0.6","0.2","0.8","0.4","","","","","0.8523583745","0.312607664","0.4853082722","0.6096498107","","","","","","","","","","74","J","1","","","77","main_expt",""
"","bandit","157","368156","0.0-119.0-0.0","64644388","wem/bandit_party_2","A2S4YDJ9UGAXFQ","either","1","53","","","","","","","0","0","1","0.7707034136","","0.6","0.2","0.8","0.4","","","","","0.7707034136","0.3250695504","0.4971609959","0.532302087","","","","","","","","","","72","H","0","img/none_selected.jpg","","78","main_expt",""
"","bandit","158","369886","0.0-120.0-0.0","64644388","wem/bandit_party_2","A2S4YDJ9UGAXFQ","either","1","213","","","","","","","0","1","0","","0.7919080975","0.6","0.2","0.8","0.4","0.7919080975","0.277144637","0.5349041547","0.4448734945","","","","","","","","","","","","","","72","H","0","img/none_selected.jpg","","79","main_expt",""
"","bandit","159","371548","0.0-121.0-0.0","64644388","wem/bandit_party_2","A2S4YDJ9UGAXFQ","either","1","146","","","","","","","0","1","0","","0.8107458935","0.6","0.2","0.8","0.4","0.8107458935","0.293018971","0.4713204996","0.34513516","","","","","","","","","","","","","","72","H","0","img/none_selected.jpg","","80","main_expt",""
"","bandit","160","373148","0.0-122.0-0.0","64644388","wem/bandit_party_2","A2S4YDJ9UGAXFQ","either","1","84","","","","","","","0","0","1","","0.7851591746","0.6","0.2","0.8","0.4","0.7851591746","0.2730851157","0.4132476049","0.406584365","","","","","","","","","","","","","","72","H","0","img/none_selected.jpg","","81","main_expt",""
"","bandit","161","374765","0.0-123.0-0.0","64644388","wem/bandit_party_2","A2S4YDJ9UGAXFQ","either","1","101","","","","","","","0","1","0","","0.4640808921","0.6","0.2","0.8","0.4","0.8067558171","0.2436011542","0.4640808921","0.5068312928","","","","","","","","","","","","","","75","K","2","","","82","main_expt",""
"","bandit","162","376325","0.0-124.0-0.0","64644388","wem/bandit_party_2","A2S4YDJ9UGAXFQ","either","1","44","","","","","","","1","0","0","0.442115463","","0.6","0.2","0.8","0.4","","","","","0.7777816444","0.2009218657","0.442115463","0.5209063211","","","","","","","","","","75","K","2","","","83","main_expt",""
"","bandit","163","378037","0.0-125.0-0.0","64644388","wem/bandit_party_2","A2S4YDJ9UGAXFQ","either","1","197","","","","","","","0","0","1","0.5117806844","","0.6","0.2","0.8","0.4","","","","","0.7801041195","0.1550904625","0.5117806844","0.6221591745","","","","","","","","","","75","K","2","","","84","main_expt",""
"","bandit","164","379556","0.0-126.0-0.0","64644388","wem/bandit_party_2","A2S4YDJ9UGAXFQ","either","1","2","","","","","","","0","0","1","","0.6939346182","0.6","0.2","0.8","0.4","0.7593249252","0.1193398435","0.5309627618","0.6939346182","","","","","","","","","","","","","","76","L","3","","","85","main_expt",""
"","bandit","165","381285","0.0-127.0-0.0","64644388","wem/bandit_party_2","A2S4YDJ9UGAXFQ","either","1","212","","","","","","","0","0","1","","0.1398572341","0.6","0.2","0.8","0.4","0.7911667705","0.1398572341","0.5482659382","0.7533471596","","","","","","","","","","","","","","74","J","1","","","86","main_expt",""
"","bandit","166","382973","0.0-128.0-0.0","64644388","wem/bandit_party_2","A2S4YDJ9UGAXFQ","either","1","172","","","","","","","0","1","0","","0.8480662183","0.6","0.2","0.8","0.4","0.8480662183","0.1941505275","0.4772076429","0.8040573679","","","","","","","","","","","","","","72","H","0","img/none_selected.jpg","","87","main_expt",""
"","bandit","167","384702","0.0-129.0-0.0","64644388","wem/bandit_party_2","A2S4YDJ9UGAXFQ","either","1","212","","","","","","","0","1","0","","0.8110462569","0.6","0.2","0.8","0.4","0.8110462569","0.09645570925","0.5202977678","0.7800800897","","","","","","","","","","","","","","72","H","0","img/none_selected.jpg","","88","main_expt",""
"","bandit","168","386372","0.0-130.0-0.0","64644388","wem/bandit_party_2","A2S4YDJ9UGAXFQ","either","1","154","","","","","","","1","0","0","0.7924414871","","0.6","0.2","0.8","0.4","","","","","0.7924414871","0.1304326216","0.4970482359","0.7329239748","","","","","","","","","","72","H","0","img/none_selected.jpg","","89","main_expt",""
"","bandit","169","388428","0.0-131.0-0.0","64644388","wem/bandit_party_2","A2S4YDJ9UGAXFQ","either","1","539","","","","","","","1","0","0","0.8190855249","","0.6","0.2","0.8","0.4","","","","","0.8190855249","0.1410434261","0.4671205494","0.7202813078","","","","","","","","","","72","H","0","img/none_selected.jpg","","90","main_expt",""
"","bandit","170","390109","0.0-132.0-0.0","64644388","wem/bandit_party_2","A2S4YDJ9UGAXFQ","either","1","166","","","","","","","1","0","0","0.858270253","","0.6","0.2","0.8","0.4","","","","","0.858270253","0.1277095213","0.5518401665","0.698586111","","","","","","","","","","72","H","0","img/none_selected.jpg","","91","main_expt",""
"","bandit","171","391908","0.0-133.0-0.0","64644388","wem/bandit_party_2","A2S4YDJ9UGAXFQ","either","1","283","","","","","","","0","1","0","","0.8583259383","0.6","0.2","0.8","0.4","0.8583259383","0.08596821216","0.620788192","0.6054304462","","","","","","","","","","","","","","72","H","0","img/none_selected.jpg","","92","main_expt",""
"","bandit","172","393620","0.0-134.0-0.0","64644388","wem/bandit_party_2","A2S4YDJ9UGAXFQ","either","1","197","","","","","","","1","0","0","0.8335107661","","0.6","0.2","0.8","0.4","","","","","0.8335107661","0.05652587691","0.679669404","0.6829204303","","","","","","","","","","72","H","0","img/none_selected.jpg","","93","main_expt",""
"","bandit","173","395534","0.0-135.0-0.0","64644388","wem/bandit_party_2","A2S4YDJ9UGAXFQ","either","1","405","","","","","","","1","0","0","0.8849423118","","0.6","0.2","0.8","0.4","","","","","0.8849423118","0.07490457358","0.6726581754","0.6084783934","","","","","","","","","","72","H","0","img/none_selected.jpg","","94","main_expt",""
"","bandit","174","397292","0.0-136.0-0.0","64644388","wem/bandit_party_2","A2S4YDJ9UGAXFQ","either","1","243","","","","","","","1","0","0","0.9175662658","","0.6","0.2","0.8","0.4","","","","","0.9175662658","0.05201682933","0.5983950962","0.51962455","","","","","","","","","","72","H","0","img/none_selected.jpg","","95","main_expt",""
"","bandit","175","399014","0.0-137.0-0.0","64644388","wem/bandit_party_2","A2S4YDJ9UGAXFQ","either","1","208","","","","","","","0","1","0","","0.8726153548","0.6","0.2","0.8","0.4","0.8726153548","0.0353667714","0.6316158747","0.453067158","","","","","","","","","","","","","","72","H","0","img/none_selected.jpg","","96","main_expt",""
"","bandit","176","400710","0.0-138.0-0.0","64644388","wem/bandit_party_2","A2S4YDJ9UGAXFQ","either","1","180","","","","","","","0","0","1","0.04301306848","","0.6","0.2","0.8","0.4","","","","","0.7260562137","0.04301306848","0.6660601513","0.4090095009","","","","","","","","","","74","J","1","","","97","main_expt",""
"","bandit","177","402268","0.0-139.0-0.0","64644388","wem/bandit_party_2","A2S4YDJ9UGAXFQ","either","1","42","","","","","","","0","1","0","","0.6185462561","0.6","0.2","0.8","0.4","0.6506148609","0.03950067624","0.6185462561","0.360727585","","","","","","","","","","","","","","75","K","2","","","98","main_expt",""
"","bandit","178","404062","0.0-140.0-0.0","64644388","wem/bandit_party_2","A2S4YDJ9UGAXFQ","either","1","278","","","","","","","1","0","0","0.581128502","","0.6","0.2","0.8","0.4","","","","","0.5816342488","0.03156699585","0.581128502","0.3351327477","","","","","","","","","","75","K","2","","","99","main_expt",""
"","bandit","179","406447","0.0-141.0-0.0","64644388","wem/bandit_party_2","A2S4YDJ9UGAXFQ","either","1","867","","","","","","","0","0","1","0.0248161238","","0.6","0.2","0.8","0.4","","","","","0.5521464449","0.0248161238","0.479775063","0.3491912274","","","","","","","","","","74","J","1","","","100","main_expt",""
"","bandit","180","408926","0.0-142.0-0.0","64644388","wem/bandit_party_2","A2S4YDJ9UGAXFQ","either","1","962","","","","","","","1","0","0","0.5114647241","","0.6","0.2","0.8","0.4","","","","","0.6063232436","0.02218075004","0.5114647241","0.4105375765","","","","","","","","","","75","K","2","","","101","main_expt",""
"","bandit","181","410559","0.0-143.0-0.0","64644388","wem/bandit_party_2","A2S4YDJ9UGAXFQ","either","1","116","","","","","","","1","0","0","0.4718740674","","0.6","0.2","0.8","0.4","","","","","0.5636213764","0.01802152149","0.4718740674","0.438632671","","","","","","","","","","75","K","2","","","102","main_expt",""
"","bandit","182","412109","0.0-144.0-0.0","64644388","wem/bandit_party_2","A2S4YDJ9UGAXFQ","either","1","34","","","","","","","1","0","0","0.5245129891","","0.6","0.2","0.8","0.4","","","","","0.5370473259","0.01877214671","0.5245129891","0.372838406","","","","","","","","","","75","K","2","","","103","main_expt",""
"","bandit","183","413774","0.0-145.0-0.0","64644388","wem/bandit_party_2","A2S4YDJ9UGAXFQ","either","1","148","","","","","","","0","0","1","0.5170751474","","0.6","0.2","0.8","0.4","","","","","0.549647281","0.01556743346","0.5170751474","0.3057692375","","","","","","","","","","75","K","2","","","104","main_expt",""
"","bandit","184","415414","0.0-146.0-0.0","64644388","wem/bandit_party_2","A2S4YDJ9UGAXFQ","either","1","132","","","","","","","1","0","0","0.472330124","","0.6","0.2","0.8","0.4","","","","","0.4225976111","0.03717147126","0.472330124","0.37369274","","","","","","","","","","75","K","2","","","105","main_expt",""
"","bandit","185","417053","0.0-147.0-0.0","64644388","wem/bandit_party_2","A2S4YDJ9UGAXFQ","either","1","123","","","","","","","0","0","1","0.568133852","","0.6","0.2","0.8","0.4","","","","","0.5005163425","0.07687033395","0.568133852","0.3179799449","","","","","","","","","","75","K","2","","","106","main_expt",""
"","bandit","186","418782","0.0-148.0-0.0","64644388","wem/bandit_party_2","A2S4YDJ9UGAXFQ","either","1","212","","","","","","","1","0","0","0.536018559","","0.6","0.2","0.8","0.4","","","","","0.3995396385","0.07659049968","0.536018559","0.3053765494","","","","","","","","","","75","K","2","","","107","main_expt",""
"","bandit","187","420430","0.0-149.0-0.0","64644388","wem/bandit_party_2","A2S4YDJ9UGAXFQ","either","1","130","","","","","","","0","0","1","","0.3880888981","0.6","0.2","0.8","0.4","0.3855926336","0.07827602418","0.3880888981","0.2732860947","","","","","","","","","","","","","","75","K","2","","","108","main_expt",""
"","bandit","188","421949","0.0-150.0-0.0","64644388","wem/bandit_party_2","A2S4YDJ9UGAXFQ","either","1","3","","","","","","","0","1","0","","0.3675045314","0.6","0.2","0.8","0.4","0.3059937163","0.1352418701","0.3675045314","0.2624197952","","","","","","","","","","","","","","75","K","2","","","109","main_expt",""
"","bandit","189","423830","0.0-151.0-0.0","64644388","wem/bandit_party_2","A2S4YDJ9UGAXFQ","either","1","362","","","","","","","0","0","1","","0.4560700489","0.6","0.2","0.8","0.4","0.2752892785","0.1705666919","0.4560700489","0.3303210632","","","","","","","","","","","","","","75","K","2","","","110","main_expt",""
"","bandit","190","425422","0.0-152.0-0.0","64644388","wem/bandit_party_2","A2S4YDJ9UGAXFQ","either","1","76","","","","","","","0","0","1","","0.2202970635","0.6","0.2","0.8","0.4","0.3038626008","0.2202970635","0.5366389876","0.3541452024","","","","","","","","","","","","","","74","J","1","","","111","main_expt",""
"","bandit","191","426980","0.0-153.0-0.0","64644388","wem/bandit_party_2","A2S4YDJ9UGAXFQ","either","1","42","","","","","","","0","1","0","","0.2308866464","0.6","0.2","0.8","0.4","0.2308866464","0.2368742277","0.5742054707","0.4468573219","","","","","","","","","","","","","","72","H","0","img/none_selected.jpg","","112","main_expt",""
"","bandit","192","428638","0.0-154.0-0.0","64644388","wem/bandit_party_2","A2S4YDJ9UGAXFQ","either","1","140","","","","","","","1","0","0","0.2420052043","","0.6","0.2","0.8","0.4","","","","","0.2420052043","0.2487241586","0.6014260319","0.5163231944","","","","","","","","","","72","H","0","img/none_selected.jpg","","113","main_expt",""
"","bandit","193","430269","0.0-155.0-0.0","64644388","wem/bandit_party_2","A2S4YDJ9UGAXFQ","either","1","115","","","","","","","0","0","1","0.3277817495","","0.6","0.2","0.8","0.4","","","","","0.3277817495","0.238824581","0.5398035654","0.4064640458","","","","","","","","","","72","H","0","img/none_selected.jpg","","114","main_expt",""
"","bandit","194","431797","0.0-156.0-0.0","64644388","wem/bandit_party_2","A2S4YDJ9UGAXFQ","either","1","10","","","","","","","0","1","0","","0.1480638281","0.6","0.2","0.8","0.4","0.3280884562","0.1480638281","0.5008208772","0.4085425191","","","","","","","","","","","","","","74","J","1","","","115","main_expt",""
"","bandit","195","433446","0.0-157.0-0.0","64644388","wem/bandit_party_2","A2S4YDJ9UGAXFQ","either","1","137","","","","","","","0","0","1","","0.1246447603","0.6","0.2","0.8","0.4","0.4137256642","0.1246447603","0.4200837231","0.4412864427","","","","","","","","","","","","","","74","J","1","","","116","main_expt",""
"","bandit","196","434990","0.0-158.0-0.0","64644388","wem/bandit_party_2","A2S4YDJ9UGAXFQ","either","1","26","","","","","","","0","0","1","0.4094987027","","0.6","0.2","0.8","0.4","","","","","0.372751341","0.1308085784","0.4094987027","0.5188885271","","","","","","","","","","75","K","2","","","117","main_expt",""
"","bandit","197","436686","0.0-159.0-0.0","64644388","wem/bandit_party_2","A2S4YDJ9UGAXFQ","either","1","178","","","","","","","0","0","1","","0.5728151575","0.6","0.2","0.8","0.4","0.4225631273","0.09076242324","0.3862907493","0.5728151575","","","","","","","","","","","","","","76","L","3","","","118","main_expt",""
"","bandit","198","438310","0.0-160.0-0.0","64644388","wem/bandit_party_2","A2S4YDJ9UGAXFQ","either","1","106","","","","","","","0","0","1","","0.09057925276","0.6","0.2","0.8","0.4","0.4188482812","0.09057925276","0.4437318585","0.5065624602","","","","","","","","","","","","","","74","J","1","","","119","main_expt",""
"","bandit","199","439991","0.0-161.0-0.0","64644388","wem/bandit_party_2","A2S4YDJ9UGAXFQ","either","1","162","","","","","","","0","1","0","","0.4064427813","0.6","0.2","0.8","0.4","0.3729077829","0.1288926122","0.293469011","0.4064427813","","","","","","","","","","","","","","76","L","3","","","120","main_expt",""
"","bandit","200","441783","0.0-162.0-0.0","64644388","wem/bandit_party_2","A2S4YDJ9UGAXFQ","either","1","273","","","","","","","0","1","0","","0.3817262037","0.6","0.2","0.8","0.4","0.3817262037","0.1479701512","0.2141601759","0.3948988447","","","","","","","","","","","","","","72","H","0","img/none_selected.jpg","","121","main_expt",""
"","bandit","201","443381","0.0-163.0-0.0","64644388","wem/bandit_party_2","A2S4YDJ9UGAXFQ","either","1","81","","","","","","","0","0","1","0.3537210734","","0.6","0.2","0.8","0.4","","","","","0.3537210734","0.1663524813","0.2594293103","0.316823658","","","","","","","","","","72","H","0","img/none_selected.jpg","","122","main_expt",""
"","bandit","202","444982","0.0-164.0-0.0","64644388","wem/bandit_party_2","A2S4YDJ9UGAXFQ","either","1","83","","","","","","","0","0","1","0.1993917655","","0.6","0.2","0.8","0.4","","","","","0.3633727708","0.1993917655","0.1519240937","0.3045978244","","","","","","","","","","74","J","1","","","123","main_expt",""
"","bandit","203","446621","0.0-165.0-0.0","64644388","wem/bandit_party_2","A2S4YDJ9UGAXFQ","either","1","121","","","","","","","0","0","1","0.2311656533","","0.6","0.2","0.8","0.4","","","","","0.4139908316","0.2948689786","0.2311656533","0.2389028675","","","","","","","","","","75","K","2","","","124","main_expt",""
"","bandit","204","448294","0.0-166.0-0.0","64644388","wem/bandit_party_2","A2S4YDJ9UGAXFQ","either","1","154","","","","","","","0","0","1","","0.3619800754","0.6","0.2","0.8","0.4","0.3619800754","0.4054398129","0.1956748967","0.2166803268","","","","","","","","","","","","","","72","H","0","img/none_selected.jpg","","125","main_expt",""
"","bandit","205","450087","0.0-167.0-0.0","64644388","wem/bandit_party_2","A2S4YDJ9UGAXFQ","either","1","272","","","","","","","0","0","1","0.353362548","","0.6","0.2","0.8","0.4","","","","","0.353362548","0.5337661481","0.1419383156","0.1613674106","","","","","","","","","","72","H","0","img/none_selected.jpg","","126","main_expt",""
"","bandit","206","451837","0.0-168.0-0.0","64644388","wem/bandit_party_2","A2S4YDJ9UGAXFQ","either","1","233","","","","","","","0","1","0","","0.1682412955","0.6","0.2","0.8","0.4","0.2888217425","0.5510518781","0.1768105291","0.1682412955","","","","","","","","","","","","","","76","L","3","","","127","main_expt",""
"","bandit","207","453358","0.0-169.0-0.0","64644388","wem/bandit_party_2","A2S4YDJ9UGAXFQ","either","1","2","","","","","","","0","0","1","","0.1655910943","0.6","0.2","0.8","0.4","0.3131893798","0.4746642732","0.1187699492","0.1655910943","","","","","","","","","","","","","","76","L","3","","","128","main_expt",""
"","bandit","208","455015","0.0-170.0-0.0","64644388","wem/bandit_party_2","A2S4YDJ9UGAXFQ","either","1","139","","","","","","","0","0","1","","0.1845506081","0.6","0.2","0.8","0.4","0.2826861836","0.5345142674","0.1860330609","0.1845506081","","","","","","","","","","","","","","76","L","3","","","129","main_expt",""
"","bandit","209","456589","0.0-171.0-0.0","64644388","wem/bandit_party_2","A2S4YDJ9UGAXFQ","either","1","57","","","","","","","0","0","1","0.09722607165","","0.6","0.2","0.8","0.4","","","","","0.3434973012","0.6617219445","0.09722607165","0.1548240476","","","","","","","","","","75","K","2","","","130","main_expt",""
"","bandit","210","458126","0.0-172.0-0.0","64644388","wem/bandit_party_2","A2S4YDJ9UGAXFQ","either","1","17","","","","","","","0","0","1","0.05626421391","","0.6","0.2","0.8","0.4","","","","","0.3848082556","0.6183560712","0.05626421391","0.1503989","","","","","","","","","","75","K","2","","","131","main_expt",""
"","bandit","211","459692","0.0-173.0-0.0","64644388","wem/bandit_party_2","A2S4YDJ9UGAXFQ","either","1","49","","","","","","","0","0","1","","0.7009512511","0.6","0.2","0.8","0.4","0.4140069858","0.7009512511","0.1149854728","0.1199593994","","","","","","","","","","","","","","74","J","1","","","132","main_expt",""
"","bandit","212","461357","0.0-174.0-0.0","64644388","wem/bandit_party_2","A2S4YDJ9UGAXFQ","either","1","152","","","","","","","0","0","1","","0.3745017877","0.6","0.2","0.8","0.4","0.3745017877","0.5838974895","0.1698175541","0.1518383839","","","","","","","","","","","","","","72","H","0","img/none_selected.jpg","","133","main_expt",""
"","bandit","213","462966","0.0-175.0-0.0","64644388","wem/bandit_party_2","A2S4YDJ9UGAXFQ","either","1","91","","","","","","","0","1","0","","0.6628563986","0.6","0.2","0.8","0.4","0.3918835711","0.6628563986","0.1925371395","0.1855528241","","","","","","","","","","","","","","74","J","1","","","134","main_expt",""
"","bandit","214","464662","0.0-176.0-0.0","64644388","wem/bandit_party_2","A2S4YDJ9UGAXFQ","either","1","178","","","","","","","1","0","0","0.5610912218","","0.6","0.2","0.8","0.4","","","","","0.3405764209","0.5610912218","0.246136332","0.2187769305","","","","","","","","","","74","J","1","","","135","main_expt",""
"","bandit","215","466286","0.0-177.0-0.0","64644388","wem/bandit_party_2","A2S4YDJ9UGAXFQ","either","1","106","","","","","","","0","1","0","","0.4834649218","0.6","0.2","0.8","0.4","0.4155430462","0.4834649218","0.2277518718","0.2001534018","","","","","","","","","","","","","","74","J","1","","","136","main_expt",""
"","bandit","216","467869","0.0-178.0-0.0","64644388","wem/bandit_party_2","A2S4YDJ9UGAXFQ","either","1","65","","","","","","","0","0","1","0.513072369","","0.6","0.2","0.8","0.4","","","","","0.3389252929","0.513072369","0.252962458","0.176995917","","","","","","","","","","74","J","1","","","137","main_expt",""
"","bandit","217","469568","0.0-179.0-0.0","64644388","wem/bandit_party_2","A2S4YDJ9UGAXFQ","either","1","179","","","","","","","0","0","1","","0.5502636267","0.6","0.2","0.8","0.4","0.2698753193","0.5502636267","0.3018696236","0.1460019238","","","","","","","","","","","","","","74","J","1","","","138","main_expt",""
"","bandit","218","471246","0.0-180.0-0.0","64644388","wem/bandit_party_2","A2S4YDJ9UGAXFQ","either","1","159","","","","","","","0","0","1","","0.347353107","0.6","0.2","0.8","0.4","0.2821570394","0.4564922144","0.347353107","0.06707115951","","","","","","","","","","","","","","75","K","2","","","139","main_expt",""
"","bandit","219","473127","0.0-181.0-0.0","64644388","wem/bandit_party_2","A2S4YDJ9UGAXFQ","either","1","363","","","","","","","0","0","1","0.1071331831","","0.6","0.2","0.8","0.4","","","","","0.3577533322","0.4116013625","0.2477375586","0.1071331831","","","","","","","","","","76","L","3","","","140","main_expt",""
"","bandit","220","474828","0.0-182.0-0.0","64644388","wem/bandit_party_2","A2S4YDJ9UGAXFQ","either","1","184","","","","","","","0","0","1","0.4250900652","","0.6","0.2","0.8","0.4","","","","","0.4250900652","0.4498847811","0.2880826197","0.1224459691","","","","","","","","","","72","H","0","img/none_selected.jpg","","141","main_expt",""
"","bandit","221","476479","0.0-183.0-0.0","64644388","wem/bandit_party_2","A2S4YDJ9UGAXFQ","either","1","131","","","","","","","0","0","1","","0.4822150968","0.6","0.2","0.8","0.4","0.3451055681","0.4822150968","0.2287108423","0.1127900777","","","","","","","","","","","","","","74","J","1","","","142","main_expt",""
"","bandit","222","478206","0.0-184.0-0.0","64644388","wem/bandit_party_2","A2S4YDJ9UGAXFQ","either","1","208","","","","","","","0","0","1","0.2096850542","","0.6","0.2","0.8","0.4","","","","","0.4661026996","0.513506041","0.2096850542","0.1736101882","","","","","","","","","","75","K","2","","","143","main_expt",""
"","bandit","223","479965","0.0-185.0-0.0","64644388","wem/bandit_party_2","A2S4YDJ9UGAXFQ","either","1","240","","","","","","","0","0","1","","0.1231714597","0.6","0.2","0.8","0.4","0.4683168179","0.556822441","0.2214165798","0.1231714597","","","","","","","","","","","","","","76","L","3","","","144","main_expt",""
"","bandit","224","481677","0.0-186.0-0.0","64644388","wem/bandit_party_2","A2S4YDJ9UGAXFQ","either","1","192","","","","","","","0","0","1","","0.448697065","0.6","0.2","0.8","0.4","0.448697065","0.5633269006","0.2412424024","0.10514291","","","","","","","","","","","","","","72","H","0","img/none_selected.jpg","","145","main_expt",""
"","bandit","225","483318","0.0-187.0-0.0","64644388","wem/bandit_party_2","A2S4YDJ9UGAXFQ","either","1","130","","","","","","","1","0","0","0.6482805244","","0.6","0.2","0.8","0.4","","","","","0.4560677512","0.6482805244","0.1841611904","0.0972381369","","","","","","","","","","74","J","1","","","146","main_expt",""
"","bandit","226","484854","0.0-188.0-0.0","64644388","wem/bandit_party_2","A2S4YDJ9UGAXFQ","either","1","17","","","","","","","0","0","1","","0.6036290043","0.6","0.2","0.8","0.4","0.513472809","0.6036290043","0.1577922033","0.1897119627","","","","","","","","","","","","","","74","J","1","","","147","main_expt",""
"","bandit","227","486470","0.0-189.0-0.0","64644388","wem/bandit_party_2","A2S4YDJ9UGAXFQ","either","1","96","","","","","","","0","0","1","","0.6110248825","0.6","0.2","0.8","0.4","0.3820674583","0.6110248825","0.1663963597","0.1759094881","","","","","","","","","","","","","","74","J","1","","","148","main_expt",""
"","bandit","228","488094","0.0-190.0-0.0","64644388","wem/bandit_party_2","A2S4YDJ9UGAXFQ","either","1","105","","","","","","","0","0","1","0.6453676348","","0.6","0.2","0.8","0.4","","","","","0.3116557105","0.6453676348","0.319747154","0.2204336569","","","","","","","","","","74","J","1","","","149","main_expt",""
"","bandit","229","489830","0.0-191.0-0.0","64644388","wem/bandit_party_2","A2S4YDJ9UGAXFQ","either","1","216","","","","","","","0","1","0","","0.66235511","0.6","0.2","0.8","0.4","0.3039338698","0.66235511","0.5410110608","0.2328853871","","","","","","","","","","","","","","74","J","1","","","150","main_expt",""
"","bandit","230","491397","0.0-192.0-0.0","64644388","wem/bandit_party_2","A2S4YDJ9UGAXFQ","either","1","48","","","","","","","0","0","1","","0.5547575852","0.6","0.2","0.8","0.4","0.3092958796","0.5547575852","0.5584745132","0.2652525627","","","","","","","","","","","","","","74","J","1","","","151","main_expt",""
"","bandit","231","492919","0.0-193.0-0.0","64644388","wem/bandit_party_2","A2S4YDJ9UGAXFQ","either","1","2","","","","","","","0","1","0","","0.5223098228","0.6","0.2","0.8","0.4","0.3097370874","0.5223098228","0.5709378499","0.2654363334","","","","","","","","","","","","","","74","J","1","","","152","main_expt",""
"","bandit","232","494808","0.0-194.0-0.0","64644388","wem/bandit_party_2","A2S4YDJ9UGAXFQ","either","1","367","","","","","","","0","1","0","","0.5137303037","0.6","0.2","0.8","0.4","0.2955649657","0.5137303037","0.6314515046","0.3505589273","","","","","","","","","","","","","","74","J","1","","","153","main_expt",""
"","bandit","233","496351","0.0-195.0-0.0","64644388","wem/bandit_party_2","A2S4YDJ9UGAXFQ","either","1","24","","","","","","","0","1","0","","0.5193194566","0.6","0.2","0.8","0.4","0.221553637","0.5193194566","0.6734276465","0.39889796","","","","","","","","","","","","","","74","J","1","","","154","main_expt",""
"","bandit","234","498086","0.0-196.0-0.0","64644388","wem/bandit_party_2","A2S4YDJ9UGAXFQ","either","1","215","","","","","","","0","1","0","","0.4736812385","0.6","0.2","0.8","0.4","0.2231547498","0.4736812385","0.7019144477","0.4202606707","","","","","","","","","","","","","","74","J","1","","","155","main_expt",""
"","bandit","235","499782","0.0-197.0-0.0","64644388","wem/bandit_party_2","A2S4YDJ9UGAXFQ","either","1","176","","","","","","","0","0","1","","0.4616442501","0.6","0.2","0.8","0.4","0.2750957943","0.4616442501","0.6695455193","0.4814159609","","","","","","","","","","","","","","74","J","1","","","156","main_expt",""
"","bandit","236","501583","0.0-198.0-0.0","64644388","wem/bandit_party_2","A2S4YDJ9UGAXFQ","either","1","280","","","","","","","0","1","0","","0.6179864128","0.6","0.2","0.8","0.4","0.2005793054","0.5025740222","0.6179864128","0.5316807058","","","","","","","","","","","","","","75","K","2","","","157","main_expt",""
"","bandit","237","503342","0.0-199.0-0.0","64644388","wem/bandit_party_2","A2S4YDJ9UGAXFQ","either","1","239","","","","","","","1","0","0","0.7380689997","","0.6","0.2","0.8","0.4","","","","","0.2502080146","0.4548105643","0.7380689997","0.5429668589","","","","","","","","","","75","K","2","","","158","main_expt",""
"","bandit","238","504901","0.0-200.0-0.0","64644388","wem/bandit_party_2","A2S4YDJ9UGAXFQ","either","1","40","","","","","","","0","0","1","0.7632184112","","0.6","0.2","0.8","0.4","","","","","0.2729805177","0.4622667215","0.7632184112","0.5991419929","","","","","","","","","","75","K","2","","","159","main_expt",""
"","bandit","239","506439","0.0-201.0-0.0","64644388","wem/bandit_party_2","A2S4YDJ9UGAXFQ","either","1","16","","","","","","","0","0","1","0.2801697818","","0.6","0.2","0.8","0.4","","","","","0.2801697818","0.4600517474","0.6917664031","0.6480894682","","","","","","","","","","72","H","0","img/none_selected.jpg","","160","main_expt",""
"","bandit","240","507974","0.0-202.0-0.0","64644388","wem/bandit_party_2","A2S4YDJ9UGAXFQ","either","1","16","","","","","","","0","1","0","","0.481388234","0.6","0.2","0.8","0.4","0.2437938608","0.481388234","0.7106531984","0.6776161973","","","","","","","","","","","","","","74","J","1","","","161","main_expt",""
"","bandit","241","509829","0.0-203.0-0.0","64644388","wem/bandit_party_2","A2S4YDJ9UGAXFQ","either","1","336","","","","","","","0","1","0","","0.7134031715","0.6","0.2","0.8","0.4","0.2687553501","0.3850106192","0.809310282","0.7134031715","","","","","","","","","","","","","","76","L","3","","","162","main_expt",""
"","bandit","242","511797","0.0-204.0-0.0","64644388","wem/bandit_party_2","A2S4YDJ9UGAXFQ","either","1","455","","","","","","","0","0","1","0.6215635068","","0.6","0.2","0.8","0.4","","","","","0.245991677","0.3498723973","0.7492875705","0.6215635068","","","","","","","","","","76","L","3","","","163","main_expt",""
"","bandit","243","513558","0.0-205.0-0.0","64644388","wem/bandit_party_2","A2S4YDJ9UGAXFQ","either","1","248","","","","","","","1","0","0","0.7561394707","","0.6","0.2","0.8","0.4","","","","","0.270385563","0.4287417444","0.7561394707","0.5219240024","","","","","","","","","","75","K","2","","","164","main_expt",""
"","bandit","244","515237","0.0-206.0-0.0","64644388","wem/bandit_party_2","A2S4YDJ9UGAXFQ","either","1","167","","","","","","","1","0","0","0.8111415702","","0.6","0.2","0.8","0.4","","","","","0.3037855967","0.3150145745","0.8111415702","0.4727302842","","","","","","","","","","75","K","2","","","165","main_expt",""
"","bandit","245","516759","0.0-207.0-0.0","64644388","wem/bandit_party_2","A2S4YDJ9UGAXFQ","either","1","2","","","","","","","1","0","0","0.7759938205","","0.6","0.2","0.8","0.4","","","","","0.3395577104","0.2927018344","0.7759938205","0.5181018645","","","","","","","","","","75","K","2","","","166","main_expt",""
"","bandit","246","518638","0.0-208.0-0.0","64644388","wem/bandit_party_2","A2S4YDJ9UGAXFQ","either","1","359","","","","","","","1","0","0","0.8267633335","","0.6","0.2","0.8","0.4","","","","","0.3443901906","0.3610256338","0.8267633335","0.5280433419","","","","","","","","","","75","K","2","","","167","main_expt",""
"","bandit","247","520341","0.0-209.0-0.0","64644388","wem/bandit_party_2","A2S4YDJ9UGAXFQ","either","1","190","","","","","","","1","0","0","0.8136073627","","0.6","0.2","0.8","0.4","","","","","0.2552323567","0.3137127159","0.8136073627","0.5470010145","","","","","","","","","","75","K","2","","","168","main_expt",""
"","bandit","248","522045","0.0-210.0-0.0","64644388","wem/bandit_party_2","A2S4YDJ9UGAXFQ","either","1","185","","","","","","","1","0","0","0.7308533614","","0.6","0.2","0.8","0.4","","","","","0.289352286","0.2292796242","0.7308533614","0.5558845962","","","","","","","","","","75","K","2","","","169","main_expt",""
"","bandit","249","523935","0.0-211.0-0.0","64644388","wem/bandit_party_2","A2S4YDJ9UGAXFQ","either","1","370","","","","","","","0","1","0","","0.7090730391","0.6","0.2","0.8","0.4","0.2262743404","0.221948569","0.7090730391","0.5799309324","","","","","","","","","","","","","","75","K","2","","","170","main_expt",""
"","bandit","250","525525","0.0-212.0-0.0","64644388","wem/bandit_party_2","A2S4YDJ9UGAXFQ","either","1","71","","","","","","","1","0","0","0.7229684446","","0.6","0.2","0.8","0.4","","","","","0.2644351609","0.159615594","0.7229684446","0.6643953266","","","","","","","","","","75","K","2","","","171","main_expt",""
"","bandit","251","527128","0.0-213.0-0.0","64644388","wem/bandit_party_2","A2S4YDJ9UGAXFQ","either","1","80","","","","","","","1","0","0","0.6612043244","","0.6","0.2","0.8","0.4","","","","","0.4136296373","0.1303854457","0.6612043244","0.7610666705","","","","","","","","","","75","K","2","","","172","main_expt",""
"","bandit","252","529486","0.0-214.0-0.0","64644388","wem/bandit_party_2","A2S4YDJ9UGAXFQ","either","1","836","","","","","","","0","0","1","","0.7669021743","0.6","0.2","0.8","0.4","0.491318492","0.07729024622","0.7669021743","0.8006149786","","","","","","","","","","","","","","75","K","2","","","173","main_expt",""
"","bandit","253","531094","0.0-215.0-0.0","64644388","wem/bandit_party_2","A2S4YDJ9UGAXFQ","either","1","87","","","","","","","1","0","0","0.8111867287","","0.6","0.2","0.8","0.4","","","","","0.4966763124","0.1227026474","0.8111867287","0.791095403","","","","","","","","","","75","K","2","","","174","main_expt",""
"","bandit","254","532685","0.0-216.0-0.0","64644388","wem/bandit_party_2","A2S4YDJ9UGAXFQ","either","1","71","","","","","","","1","0","0","0.8192498968","","0.6","0.2","0.8","0.4","","","","","0.5109350621","0.09483306355","0.8192498968","0.8572088762","","","","","","","","","","75","K","2","","","175","main_expt",""
"","bandit","255","534957","0.0-217.0-0.0","64644388","wem/bandit_party_2","A2S4YDJ9UGAXFQ","either","1","751","","","","","","","1","0","0","0.8371283275","","0.6","0.2","0.8","0.4","","","","","0.6321295754","0.143069758","0.8371283275","0.8576080684","","","","","","","","","","75","K","2","","","176","main_expt",""
"","bandit","256","536901","0.0-218.0-0.0","64644388","wem/bandit_party_2","A2S4YDJ9UGAXFQ","either","1","423","","","","","","","1","0","0","0.8545140947","","0.6","0.2","0.8","0.4","","","","","0.5515755996","0.1741656422","0.8545140947","0.8678158231","","","","","","","","","","75","K","2","","","177","main_expt",""
"","bandit","257","538510","0.0-219.0-0.0","64644388","wem/bandit_party_2","A2S4YDJ9UGAXFQ","either","1","87","","","","","","","1","0","0","0.8794893657","","0.6","0.2","0.8","0.4","","","","","0.5086275016","0.1904086474","0.8794893657","0.8820542777","","","","","","","","","","75","K","2","","","178","main_expt",""
"","bandit","258","541204","0.0-220.0-0.0","64644388","wem/bandit_party_2","A2S4YDJ9UGAXFQ","either","1","1174","","","","","","","1","0","0","0.8939587296","","0.6","0.2","0.8","0.4","","","","","0.5215192908","0.1778905233","0.8939587296","0.8907334788","","","","","","","","","","75","K","2","","","179","main_expt",""
"","bandit","259","542998","0.0-221.0-0.0","64644388","wem/bandit_party_2","A2S4YDJ9UGAXFQ","either","1","274","","","","","","","0","1","0","","0.868077767","0.6","0.2","0.8","0.4","0.5193414217","0.2112817454","0.868077767","0.9161653667","","","","","","","","","","","","","","75","K","2","","","180","main_expt",""
"","bandit","260","545677","0.0-222.0-0.0","64644388","wem/bandit_party_2","A2S4YDJ9UGAXFQ","either","1","1159","","","","","","","1","0","0","0.9295405476","","0.6","0.2","0.8","0.4","","","","","0.4613460131","0.2236312472","0.9295405476","0.9327112184","","","","","","","","","","75","K","2","","","181","main_expt",""
"","bandit","261","547878","0.0-223.0-0.0","64644388","wem/bandit_party_2","A2S4YDJ9UGAXFQ","either","1","689","","","","","","","1","0","0","0.9213574857","","0.6","0.2","0.8","0.4","","","","","0.4468633868","0.264467441","0.9213574857","0.9284398706","","","","","","","","","","75","K","2","","","182","main_expt",""
"","bandit","262","549469","0.0-224.0-0.0","64644388","wem/bandit_party_2","A2S4YDJ9UGAXFQ","either","1","69","","","","","","","1","0","0","0.9374560388","","0.6","0.2","0.8","0.4","","","","","0.4985091709","0.2240632979","0.9374560388","0.89591471","","","","","","","","","","75","K","2","","","183","main_expt",""
"","bandit","263","551583","0.0-225.0-0.0","64644388","wem/bandit_party_2","A2S4YDJ9UGAXFQ","either","1","592","","","","","","","1","0","0","0.9120054929","","0.6","0.2","0.8","0.4","","","","","0.6057575335","0.1671404848","0.9120054929","0.9146434193","","","","","","","","","","75","K","2","","","184","main_expt",""
"","bandit","264","553303","0.0-226.0-0.0","64644388","wem/bandit_party_2","A2S4YDJ9UGAXFQ","either","1","199","","","","","","","1","0","0","0.8428471033","","0.6","0.2","0.8","0.4","","","","","0.4915456485","0.1932257563","0.8428471033","0.8575823977","","","","","","","","","","75","K","2","","","185","main_expt",""
"","bandit","265","555182","0.0-227.0-0.0","64644388","wem/bandit_party_2","A2S4YDJ9UGAXFQ","either","1","358","","","","","","","1","0","0","0.7734335662","","0.6","0.2","0.8","0.4","","","","","0.5976273718","0.155472597","0.7734335662","0.8487952361","","","","","","","","","","75","K","2","","","186","main_expt",""
"","bandit","266","556725","0.0-228.0-0.0","64644388","wem/bandit_party_2","A2S4YDJ9UGAXFQ","either","1","23","","","","","","","1","0","0","0.7667319261","","0.6","0.2","0.8","0.4","","","","","0.5743595779","0.1895871356","0.7667319261","0.8603972339","","","","","","","","","","75","K","2","","","187","main_expt",""
"","bandit","267","558806","0.0-229.0-0.0","64644388","wem/bandit_party_2","A2S4YDJ9UGAXFQ","either","1","560","","","","","","","0","0","1","0.5945875292","","0.6","0.2","0.8","0.4","","","","","0.6833173747","0.2119556673","0.5945875292","0.8834510925","","","","","","","","","","75","K","2","","","188","main_expt",""
"","bandit","268","560661","0.0-230.0-0.0","64644388","wem/bandit_party_2","A2S4YDJ9UGAXFQ","either","1","335","","","","","","","1","0","0","0.7406569186","","0.6","0.2","0.8","0.4","","","","","0.651089354","0.2255007403","0.7406569186","0.8973947779","","","","","","","","","","75","K","2","","","189","main_expt",""
"","bandit","269","563446","0.0-231.0-0.0","64644388","wem/bandit_party_2","A2S4YDJ9UGAXFQ","either","1","1264","","","","","","","0","0","1","0.7371931777","","0.6","0.2","0.8","0.4","","","","","0.6599652607","0.1754842532","0.7371931777","0.8824587855","","","","","","","","","","75","K","2","","","190","main_expt",""
"","bandit","270","565430","0.0-232.0-0.0","64644388","wem/bandit_party_2","A2S4YDJ9UGAXFQ","either","1","461","","","","","","","1","0","0","0.7019705866","","0.6","0.2","0.8","0.4","","","","","0.6960236584","0.1936311571","0.7019705866","0.9076431997","","","","","","","","","","75","K","2","","","191","main_expt",""
"","bandit","271","567175","0.0-233.0-0.0","64644388","wem/bandit_party_2","A2S4YDJ9UGAXFQ","either","1","222","","","","","","","1","0","0","0.6198122665","","0.6","0.2","0.8","0.4","","","","","0.6713911156","0.215612591","0.6198122665","0.8673165995","","","","","","","","","","75","K","2","","","192","main_expt",""
"","bandit","272","569141","0.0-234.0-0.0","64644388","wem/bandit_party_2","A2S4YDJ9UGAXFQ","either","1","445","","","","","","","0","0","1","0.6100930929","","0.6","0.2","0.8","0.4","","","","","0.7244072205","0.2818734505","0.6100930929","0.8264401474","","","","","","","","","","75","K","2","","","193","main_expt",""
"","bandit","273","570774","0.0-235.0-0.0","64644388","wem/bandit_party_2","A2S4YDJ9UGAXFQ","either","1","112","","","","","","","1","0","0","0.6332739585","","0.6","0.2","0.8","0.4","","","","","0.7397798508","0.3616108755","0.6332739585","0.8546086414","","","","","","","","","","75","K","2","","","194","main_expt",""
"","bandit","274","572299","0.0-236.0-0.0","64644388","wem/bandit_party_2","A2S4YDJ9UGAXFQ","either","1","2","","","","","","","1","0","0","0.609207161","","0.6","0.2","0.8","0.4","","","","","0.7602069811","0.3979961615","0.609207161","0.7914914872","","","","","","","","","","75","K","2","","","195","main_expt",""
"","bandit","275","573998","0.0-237.0-0.0","64644388","wem/bandit_party_2","A2S4YDJ9UGAXFQ","either","1","177","","","","","","","1","0","0","0.6560649547","","0.6","0.2","0.8","0.4","","","","","0.7114092524","0.4366641927","0.6560649547","0.7608346536","","","","","","","","","","75","K","2","","","196","main_expt",""
"","bandit","276","575654","0.0-238.0-0.0","64644388","wem/bandit_party_2","A2S4YDJ9UGAXFQ","either","1","134","","","","","","","1","0","0","0.6656533059","","0.6","0.2","0.8","0.4","","","","","0.6917424169","0.560782874","0.6656533059","0.7003784325","","","","","","","","","","75","K","2","","","197","main_expt",""
"","bandit","277","577285","0.0-239.0-0.0","64644388","wem/bandit_party_2","A2S4YDJ9UGAXFQ","either","1","113","","","","","","","0","0","1","0.6841747727","","0.6","0.2","0.8","0.4","","","","","0.6561069913","0.5649388288","0.6841747727","0.6036075577","","","","","","","","","","75","K","2","","","198","main_expt",""
"","bandit","278","578893","0.0-240.0-0.0","64644388","wem/bandit_party_2","A2S4YDJ9UGAXFQ","either","1","87","","","","","","","1","0","0","0.7105065455","","0.6","0.2","0.8","0.4","","","","","0.6948346643","0.5375892324","0.7105065455","0.5843314555","","","","","","","","","","75","K","2","","","199","main_expt",""
"","bandit","279","580454","0.0-241.0-0.0","64644388","wem/bandit_party_2","A2S4YDJ9UGAXFQ","either","1","44","","","","","","","0","0","1","0.7380433654","","0.6","0.2","0.8","0.4","","","","","0.7369743936","0.5625167851","0.7380433654","0.539414212","","","","","","","","","","75","K","2","","","200","main_expt",""
"","bandit","280","582102","0.0-242.0-0.0","64644388","wem/bandit_party_2","A2S4YDJ9UGAXFQ","either","1","126","","","","","","","0","0","1","0.6432951689","","0.6","0.2","0.8","0.4","","","","","0.8347268415","0.6266810217","0.6432951689","0.3774065742","","","","","","","","","","75","K","2","","","201","main_expt",""
"","bandit","281","583789","0.0-243.0-0.0","64644388","wem/bandit_party_2","A2S4YDJ9UGAXFQ","either","1","166","","","","","","","0","0","1","","0.6661075828","0.6","0.2","0.8","0.4","0.7612264534","0.6661075828","0.4995879772","0.2824615609","","","","","","","","","","","","","","74","J","1","","","202","main_expt",""
"","bandit","282","585397","0.0-244.0-0.0","64644388","wem/bandit_party_2","A2S4YDJ9UGAXFQ","either","1","89","","","","","","","1","0","0","0.6904596671","","0.6","0.2","0.8","0.4","","","","","0.6904596671","0.7534099026","0.4767352753","0.210170224","","","","","","","","","","72","H","0","img/none_selected.jpg","","203","main_expt",""
"","bandit","283","587077","0.0-245.0-0.0","64644388","wem/bandit_party_2","A2S4YDJ9UGAXFQ","either","1","158","","","","","","","0","1","0","","0.6855485072","0.6","0.2","0.8","0.4","0.6855485072","0.7033522103","0.3680612217","0.2708138581","","","","","","","","","","","","","","72","H","0","img/none_selected.jpg","","204","main_expt",""
"","bandit","284","588637","0.0-246.0-0.0","64644388","wem/bandit_party_2","A2S4YDJ9UGAXFQ","either","1","38","","","","","","","1","0","0","0.7006332368","","0.6","0.2","0.8","0.4","","","","","0.7006332368","0.6105989365","0.3404512965","0.3319820794","","","","","","","","","","72","H","0","img/none_selected.jpg","","205","main_expt",""
"","bandit","285","590188","0.0-247.0-0.0","64644388","wem/bandit_party_2","A2S4YDJ9UGAXFQ","either","1","30","","","","","","","0","0","1","","0.7533130943","0.6","0.2","0.8","0.4","0.7533130943","0.725137222","0.2774568564","0.3517339603","","","","","","","","","","","","","","72","H","0","img/none_selected.jpg","","206","main_expt",""
"","bandit","286","591788","0.0-248.0-0.0","64644388","wem/bandit_party_2","A2S4YDJ9UGAXFQ","either","1","78","","","","","","","1","0","0","0.7191760557","","0.6","0.2","0.8","0.4","","","","","0.7191760557","0.5888984072","0.2228883469","0.2871079035","","","","","","","","","","72","H","0","img/none_selected.jpg","","207","main_expt",""
"","bandit","287","593421","0.0-249.0-0.0","64644388","wem/bandit_party_2","A2S4YDJ9UGAXFQ","either","1","112","","","","","","","0","0","1","","0.6264293856","0.6","0.2","0.8","0.4","0.6264293856","0.4650323514","0.2829247412","0.2642306377","","","","","","","","","","","","","","72","H","0","img/none_selected.jpg","","208","main_expt",""
"","bandit","288","595164","0.0-250.0-0.0","64644388","wem/bandit_party_2","A2S4YDJ9UGAXFQ","either","1","221","","","","","","","0","0","1","","0.3587725811","0.6","0.2","0.8","0.4","0.6500478562","0.4100719568","0.3169104167","0.3587725811","","","","","","","","","","","","","","76","L","3","","","209","main_expt",""
"","bandit","289","596789","0.0-251.0-0.0","64644388","wem/bandit_party_2","A2S4YDJ9UGAXFQ","either","1","101","","","","","","","1","0","0","0.2090062306","","0.6","0.2","0.8","0.4","","","","","0.6498865343","0.5177296744","0.2090062306","0.3103342645","","","","","","","","","","75","K","2","","","210","main_expt",""
"","bandit","290","598469","0.0-252.0-0.0","64644388","wem/bandit_party_2","A2S4YDJ9UGAXFQ","either","1","157","","","","","","","0","0","1","0.1481662818","","0.6","0.2","0.8","0.4","","","","","0.6056301442","0.5950812693","0.1481662818","0.3760595068","","","","","","","","","","75","K","2","","","211","main_expt",""
"","bandit","291","600133","0.0-253.0-0.0","64644388","wem/bandit_party_2","A2S4YDJ9UGAXFQ","either","1","141","","","","","","","1","0","0","0.7169745983","","0.6","0.2","0.8","0.4","","","","","0.5524844402","0.7169745983","0.2114888193","0.447023013","","","","","","","","","","74","J","1","","","212","main_expt",""
"","bandit","292","601831","0.0-254.0-0.0","64644388","wem/bandit_party_2","A2S4YDJ9UGAXFQ","either","1","175","","","","","","","0","0","1","","0.6766124197","0.6","0.2","0.8","0.4","0.6984249358","0.6766124197","0.2234642754","0.4529182837","","","","","","","","","","","","","","74","J","1","","","213","main_expt",""
"","bandit","293","603579","0.0-255.0-0.0","64644388","wem/bandit_party_2","A2S4YDJ9UGAXFQ","either","1","227","","","","","","","1","0","0","0.5996975418","","0.6","0.2","0.8","0.4","","","","","0.5996975418","0.8005648136","0.2315139555","0.4306534983","","","","","","","","","","72","H","0","img/none_selected.jpg","","214","main_expt",""
"","bandit","294","605261","0.0-256.0-0.0","64644388","wem/bandit_party_2","A2S4YDJ9UGAXFQ","either","1","172","","","","","","","1","0","0","0.6067129047","","0.6","0.2","0.8","0.4","","","","","0.6067129047","0.8487964291","0.1949488974","0.4314469479","","","","","","","","","","72","H","0","img/none_selected.jpg","","215","main_expt",""
"","bandit","295","607460","0.0-257.0-0.0","64644388","wem/bandit_party_2","A2S4YDJ9UGAXFQ","either","1","674","","","","","","","0","0","1","0.6297976658","","0.6","0.2","0.8","0.4","","","","","0.6297976658","0.8674123454","0.2333303883","0.45439575","","","","","","","","","","72","H","0","img/none_selected.jpg","","216","main_expt",""
"","bandit","296","608987","0.0-258.0-0.0","64644388","wem/bandit_party_2","A2S4YDJ9UGAXFQ","either","1","2","","","","","","","0","1","0","","0.5228861726","0.6","0.2","0.8","0.4","0.6095272491","0.8774404243","0.2027763819","0.5228861726","","","","","","","","","","","","","","76","L","3","","","217","main_expt",""
"","bandit","297","610845","0.0-259.0-0.0","64644388","wem/bandit_party_2","A2S4YDJ9UGAXFQ","either","1","333","","","","","","","0","0","1","","0.463703458","0.6","0.2","0.8","0.4","0.7058099393","0.8836448068","0.1895874514","0.463703458","","","","","","","","","","","","","","76","L","3","","","218","main_expt",""
"","bandit","298","612494","0.0-260.0-0.0","64644388","wem/bandit_party_2","A2S4YDJ9UGAXFQ","either","1","127","","","","","","","0","0","1","","0.1537120117","0.6","0.2","0.8","0.4","0.7396246451","0.880498508","0.1537120117","0.4522864467","","","","","","","","","","","","","","75","K","2","","","219","main_expt",""
"","bandit","299","614043","0.0-261.0-0.0","64644388","wem/bandit_party_2","A2S4YDJ9UGAXFQ","either","1","28","","","","","","","0","1","0","","0.8740874997","0.6","0.2","0.8","0.4","0.7091968036","0.8740874997","0.2022747423","0.4561576612","","","","","","","","","","","","","","74","J","1","","","220","main_expt",""
"","bandit","300","615718","0.0-262.0-0.0","64644388","wem/bandit_party_2","A2S4YDJ9UGAXFQ","either","1","149","","","","","","","0","1","0","","0.8527830905","0.6","0.2","0.8","0.4","0.7116308873","0.8527830905","0.3174413427","0.4264657168","","","","","","","","","","","","","","74","J","1","","","221","main_expt",""
"","bandit","301","617549","0.0-263.0-0.0","64644388","wem/bandit_party_2","A2S4YDJ9UGAXFQ","either","1","315","","","","","","","0","1","0","","0.7717907476","0.6","0.2","0.8","0.4","0.769465391","0.7717907476","0.2315667073","0.3055141729","","","","","","","","","","","","","","74","J","1","","","222","main_expt",""
"","bandit","302","619325","0.0-264.0-0.0","64644388","wem/bandit_party_2","A2S4YDJ9UGAXFQ","either","1","252","","","","","","","0","1","0","","0.8359700354","0.6","0.2","0.8","0.4","0.7509006974","0.8359700354","0.2261006122","0.2868954791","","","","","","","","","","","","","","74","J","1","","","223","main_expt",""
"","bandit","303","620885","0.0-265.0-0.0","64644388","wem/bandit_party_2","A2S4YDJ9UGAXFQ","either","1","35","","","","","","","1","0","0","0.819670806","","0.6","0.2","0.8","0.4","","","","","0.7007688409","0.819670806","0.2662378096","0.2698185242","","","","","","","","","","74","J","1","","","224","main_expt",""
"","bandit","304","622583","0.0-266.0-0.0","64644388","wem/bandit_party_2","A2S4YDJ9UGAXFQ","either","1","170","","","","","","","0","1","0","","0.8512382749","0.6","0.2","0.8","0.4","0.7409020096","0.8512382749","0.2163280173","0.213842325","","","","","","","","","","","","","","74","J","1","","","225","main_expt",""
"","bandit","305","625019","0.0-267.0-0.0","64644388","wem/bandit_party_2","A2S4YDJ9UGAXFQ","either","1","912","","","","","","","1","0","0","0.8342861847","","0.6","0.2","0.8","0.4","","","","","0.7052945704","0.8342861847","0.2809353625","0.1616408491","","","","","","","","","","74","J","1","","","226","main_expt",""
"","bandit","306","626581","0.0-268.0-0.0","64644388","wem/bandit_party_2","A2S4YDJ9UGAXFQ","either","1","36","","","","","","","1","0","0","0.7736041865","","0.6","0.2","0.8","0.4","","","","","0.606091252","0.7736041865","0.2396571279","0.1777599287","","","","","","","","","","74","J","1","","","227","main_expt",""
"","bandit","307","628124","0.0-269.0-0.0","64644388","wem/bandit_party_2","A2S4YDJ9UGAXFQ","either","1","18","","","","","","","1","0","0","0.8094350608","","0.6","0.2","0.8","0.4","","","","","0.5834203199","0.8094350608","0.3430446928","0.2866543064","","","","","","","","","","74","J","1","","","228","main_expt",""
"","bandit","308","629861","0.0-270.0-0.0","64644388","wem/bandit_party_2","A2S4YDJ9UGAXFQ","either","1","212","","","","","","","0","1","0","","0.8078722129","0.6","0.2","0.8","0.4","0.5466214007","0.8078722129","0.2886233194","0.3948293382","","","","","","","","","","","","","","74","J","1","","","229","main_expt",""
"","bandit","309","631645","0.0-271.0-0.0","64644388","wem/bandit_party_2","A2S4YDJ9UGAXFQ","either","1","259","","","","","","","1","0","0","0.7719043616","","0.6","0.2","0.8","0.4","","","","","0.5519014059","0.7719043616","0.3213731463","0.3291786684","","","","","","","","","","74","J","1","","","230","main_expt",""
"","bandit","310","633165","0.0-272.0-0.0","64644388","wem/bandit_party_2","A2S4YDJ9UGAXFQ","either","1","0","","","","","","","0","1","0","","0.8049264475","0.6","0.2","0.8","0.4","0.4527164215","0.8049264475","0.2771614906","0.2378236032","","","","","","","","","","","","","","74","J","1","","","231","main_expt",""
"","bandit","311","634885","0.0-273.0-0.0","64644388","wem/bandit_party_2","A2S4YDJ9UGAXFQ","either","1","195","","","","","","","0","1","0","","0.8850589997","0.6","0.2","0.8","0.4","0.5135082398","0.8850589997","0.2249105956","0.246393804","","","","","","","","","","","","","","74","J","1","","","232","main_expt",""
"","bandit","312","636533","0.0-274.0-0.0","64644388","wem/bandit_party_2","A2S4YDJ9UGAXFQ","either","1","122","","","","","","","0","1","0","","0.9183615156","0.6","0.2","0.8","0.4","0.5502454751","0.9183615156","0.2447973041","0.2141634692","","","","","","","","","","","","","","74","J","1","","","233","main_expt",""
"","bandit","313","638197","0.0-275.0-0.0","64644388","wem/bandit_party_2","A2S4YDJ9UGAXFQ","either","1","138","","","","","","","0","1","0","","0.9639410842","0.6","0.2","0.8","0.4","0.3783923662","0.9639410842","0.24601643","0.2876436191","","","","","","","","","","","","","","74","J","1","","","234","main_expt",""
"","bandit","314","639926","0.0-276.0-0.0","64644388","wem/bandit_party_2","A2S4YDJ9UGAXFQ","either","1","202","","","","","","","0","1","0","","0.9697187448","0.6","0.2","0.8","0.4","0.2814299379","0.9697187448","0.1629844561","0.2769077257","","","","","","","","","","","","","","74","J","1","","","235","main_expt",""
"","bandit","315","641516","0.0-277.0-0.0","64644388","wem/bandit_party_2","A2S4YDJ9UGAXFQ","either","1","65","","","","","","","0","1","0","","0.9571573523","0.6","0.2","0.8","0.4","0.3106100538","0.9571573523","0.1929455839","0.136865198","","","","","","","","","","","","","","74","J","1","","","236","main_expt",""
"","bandit","316","643276","0.0-278.0-0.0","64644388","wem/bandit_party_2","A2S4YDJ9UGAXFQ","either","1","235","","","","","","","0","1","0","","0.9170696074","0.6","0.2","0.8","0.4","0.3152445528","0.9170696074","0.1497712966","0.1123790732","","","","","","","","","","","","","","74","J","1","","","237","main_expt",""
"","bandit","317","644829","0.0-279.0-0.0","64644388","wem/bandit_party_2","A2S4YDJ9UGAXFQ","either","1","26","","","","","","","0","1","0","","0.9207491077","0.6","0.2","0.8","0.4","0.2637175197","0.9207491077","0.1526491196","0.09027024906","","","","","","","","","","","","","","74","J","1","","","238","main_expt",""
"","bandit","318","646469","0.0-280.0-0.0","64644388","wem/bandit_party_2","A2S4YDJ9UGAXFQ","either","1","113","","","","","","","1","0","0","0.9211301165","","0.6","0.2","0.8","0.4","","","","","0.1889878372","0.9211301165","0.1745924244","0.08323179304","","","","","","","","","","74","J","1","","","239","main_expt",""
