"consent","trial_type","trial_index","time_elapsed","internal_node_id","subjID","study","MID","cond","drift","rt","responses","button_pressed","key_press","like","value","connected","gems","bombs","no_reward","GemPrChosen","BombPrChosen","GainOverPainPr_0","GainOverPainPr_1","GainOverPainPr_2","GainOverPainPr_3","LosePr_0","LosePr_1","LosePr_2","LosePr_3","WinPr_0","WinPr_1","WinPr_2","WinPr_3","Q0","Q1","Q2","gender","age","ethnicity","label","expt_phase","target","respCharCode","respKey","respChoiceNum","respChoice","practice","trial_counter","trial_label","Q0_index","view_history"
"GDM/GDM_behavioral_consent_30min_online.html","consent","0","25969","0.0-0.0","65238417","wem/bandit_party_2","A62RZY5BWOZZM","either","3","","","","","","","","","","","","","","","","","","","","","","","","","","","","","","","","","","","","","","","","","",""
"","survey-text","1","29826","0.0-1.0","65238417","wem/bandit_party_2","A62RZY5BWOZZM","either","3","2838","{""Q0"":""A62RZY5BWOZZM""}","","","","","","","","","","","","","","","","","","","","","","","","","","","","","","","","","","","","","","","",""
"","button-response","2","32578","0.0-2.0","65238417","wem/bandit_party_2","A62RZY5BWOZZM","either","3","1736","","1","","","","","","","","","","","","","","","","","","","","","","","","","","","","","","","","","","","","","","",""
"","text-replacement","3","41602","0.0-3.0","65238417","wem/bandit_party_2","A62RZY5BWOZZM","either","3","8010","","","32","","","","","","","","","","","","","","","","","","","","","","","","","","","","","","","","","","","","","",""
"","text-replacement","4","46550","0.0-4.0","65238417","wem/bandit_party_2","A62RZY5BWOZZM","either","3","4945","","","32","","","","","","","","","","","","","","","","","","","","","","","","","","","","","","","","","","","","","",""
"","identification","5","51882","0.0-6.0-0.0","65238417","wem/bandit_party_2","A62RZY5BWOZZM","either","3","5306","","","","0","0","0","","","","","","","","","","","","","","","","","","","","","","","","pre","identification_pre","the Republican Party","","","","","","","","",""
"","identification","6","57468","0.0-6.0-1.0","65238417","wem/bandit_party_2","A62RZY5BWOZZM","either","3","4561","","","","5","5","5","","","","","","","","","","","","","","","","","","","","","","","","pre","identification_pre","the Democratic Party","","","","","","","","",""
"","text-replacement","7","69669","0.0-7.0","65238417","wem/bandit_party_2","A62RZY5BWOZZM","either","3","11196","","","32","","","","","","","","","","","","","","","","","","","","","","","","","","","","","","","","","","","","","",""
"","text-replacement","8","75456","0.0-8.0","65238417","wem/bandit_party_2","A62RZY5BWOZZM","either","3","5780","","","32","","","","","","","","","","","","","","","","","","","","","","","","","","","","","","","","","","","","","",""
"","text-replacement","9","82201","0.0-9.0","65238417","wem/bandit_party_2","A62RZY5BWOZZM","either","3","6739","","","32","","","","","","","","","","","","","","","","","","","","","","","","","","","","","","","","","","","","","",""
"","text-replacement","10","85035","0.0-10.0","65238417","wem/bandit_party_2","A62RZY5BWOZZM","either","3","2830","","","32","","","","","","","","","","","","","","","","","","","","","","","","","","","","","","","","","","","","","",""
"","text-replacement","11","88249","0.0-11.0","65238417","wem/bandit_party_2","A62RZY5BWOZZM","either","3","3211","","","32","","","","","","","","","","","","","","","","","","","","","","","","","","","","","","","","","","","","","",""
"","bandit","12","93071","0.0-12.0-0.0","65238417","wem/bandit_party_2","A62RZY5BWOZZM","either","3","3303","","","","","","","0","0","1","0","0","","","","","0","","","","0","","","","","","","","","","","","","74","J","0","img/none_selected_demo.jpg","true","0","","",""
"","bandit","13","96523","0.0-13.0-0.0","65238417","wem/bandit_party_2","A62RZY5BWOZZM","either","3","1924","","","","","","","0","0","1","0","0","","","","","0","","","","0","","","","","","","","","","","","","75","K","0","img/none_selected_demo.jpg","true","0","","",""
"","text-replacement","14","100743","0.0-14.0","65238417","wem/bandit_party_2","A62RZY5BWOZZM","either","3","4212","","","32","","","","","","","","","","","","","","","","","","","","","","","","","","","","","","","","","","","","","",""
"","text-replacement","15","104513","0.0-15.0","65238417","wem/bandit_party_2","A62RZY5BWOZZM","either","3","3766","","","32","","","","","","","","","","","","","","","","","","","","","","","","","","","","","","","","","","","","","",""
"","text-replacement","16","108022","0.0-16.0","65238417","wem/bandit_party_2","A62RZY5BWOZZM","either","3","3505","","","32","","","","","","","","","","","","","","","","","","","","","","","","","","","","","","","","","","","","","",""
"","text-replacement","17","109432","0.0-17.0","65238417","wem/bandit_party_2","A62RZY5BWOZZM","either","3","1406","","","32","","","","","","","","","","","","","","","","","","","","","","","","","","","","","","","","","","","","","",""
"","bandit","18","113005","0.0-18.0-0.0","65238417","wem/bandit_party_2","A62RZY5BWOZZM","either","3","2054","","","","","","","1","0","0","0.8","","0.5","0.5","","","","","","","0.8","0.2","","","","","","","","","","","","74","J","0","img/none_selected_demo.jpg","true","0","80_20_practice","",""
"","bandit","19","115914","0.0-18.0-1.0","65238417","wem/bandit_party_2","A62RZY5BWOZZM","either","3","1387","","","","","","","0","0","1","","0.8","0.5","0.5","","","0.8","0.2","","","","","","","","","","","","","","","","74","J","0","img/none_selected_demo.jpg","true","0","80_20_practice","",""
"","bandit","20","118006","0.0-18.0-2.0","65238417","wem/bandit_party_2","A62RZY5BWOZZM","either","3","573","","","","","","","0","0","1","","0.8","0.5","0.5","","","0.8","0.2","","","","","","","","","","","","","","","","74","J","0","img/none_selected_demo.jpg","true","0","80_20_practice","",""
"","bandit","21","119925","0.0-18.0-3.0","65238417","wem/bandit_party_2","A62RZY5BWOZZM","either","3","395","","","","","","","1","0","0","0.2","","0.5","0.5","","","","","","","0.8","0.2","","","","","","","","","","","","75","K","1","","true","0","80_20_practice","",""
"","bandit","22","121805","0.0-18.0-4.0","65238417","wem/bandit_party_2","A62RZY5BWOZZM","either","3","358","","","","","","","0","0","1","0.2","","0.5","0.5","","","","","","","0.8","0.2","","","","","","","","","","","","75","K","1","","true","0","80_20_practice","",""
"","bandit","23","123633","0.0-18.0-5.0","65238417","wem/bandit_party_2","A62RZY5BWOZZM","either","3","317","","","","","","","0","0","1","","0.8","0.5","0.5","","","0.8","0.2","","","","","","","","","","","","","","","","74","J","0","img/none_selected_demo.jpg","true","0","80_20_practice","",""
"","bandit","24","125721","0.0-18.0-6.0","65238417","wem/bandit_party_2","A62RZY5BWOZZM","either","3","571","","","","","","","0","0","1","","0.2","0.5","0.5","","","0.8","0.2","","","","","","","","","","","","","","","","75","K","1","","true","0","80_20_practice","",""
"","bandit","25","127810","0.0-18.0-7.0","65238417","wem/bandit_party_2","A62RZY5BWOZZM","either","3","571","","","","","","","1","0","0","0.8","","0.5","0.5","","","","","","","0.8","0.2","","","","","","","","","","","","74","J","0","img/none_selected_demo.jpg","true","0","80_20_practice","",""
"","bandit","26","130279","0.0-18.0-8.0","65238417","wem/bandit_party_2","A62RZY5BWOZZM","either","3","947","","","","","","","0","0","1","0.2","","0.5","0.5","","","","","","","0.8","0.2","","","","","","","","","","","","75","K","1","","true","0","80_20_practice","",""
"","bandit","27","132237","0.0-18.0-9.0","65238417","wem/bandit_party_2","A62RZY5BWOZZM","either","3","440","","","","","","","1","0","0","0.8","","0.5","0.5","","","","","","","0.8","0.2","","","","","","","","","","","","74","J","0","img/none_selected_demo.jpg","true","0","80_20_practice","",""
"","bandit","28","134278","0.0-18.0-10.0","65238417","wem/bandit_party_2","A62RZY5BWOZZM","either","3","524","","","","","","","1","0","0","0.2","","0.5","0.5","","","","","","","0.8","0.2","","","","","","","","","","","","75","K","1","","true","0","80_20_practice","",""
"","bandit","29","136304","0.0-18.0-11.0","65238417","wem/bandit_party_2","A62RZY5BWOZZM","either","3","511","","","","","","","0","0","1","0.2","","0.5","0.5","","","","","","","0.8","0.2","","","","","","","","","","","","75","K","1","","true","0","80_20_practice","",""
"","bandit","30","138014","0.0-18.0-12.0","65238417","wem/bandit_party_2","A62RZY5BWOZZM","either","3","187","","","","","","","1","0","0","0.8","","0.5","0.5","","","","","","","0.8","0.2","","","","","","","","","","","","74","J","0","img/none_selected_demo.jpg","true","0","80_20_practice","",""
"","bandit","31","139843","0.0-18.0-13.0","65238417","wem/bandit_party_2","A62RZY5BWOZZM","either","3","322","","","","","","","0","0","1","","0.2","0.5","0.5","","","0.8","0.2","","","","","","","","","","","","","","","","75","K","1","","true","0","80_20_practice","",""
"","bandit","32","141398","0.0-18.0-14.0","65238417","wem/bandit_party_2","A62RZY5BWOZZM","either","3","39","","","","","","","1","0","0","0.8","","0.5","0.5","","","","","","","0.8","0.2","","","","","","","","","","","","74","J","0","img/none_selected_demo.jpg","true","0","80_20_practice","",""
"","bandit","33","143196","0.0-18.0-15.0","65238417","wem/bandit_party_2","A62RZY5BWOZZM","either","3","281","","","","","","","1","0","0","0.2","","0.5","0.5","","","","","","","0.8","0.2","","","","","","","","","","","","75","K","1","","true","0","80_20_practice","",""
"","bandit","34","144988","0.0-18.0-16.0","65238417","wem/bandit_party_2","A62RZY5BWOZZM","either","3","272","","","","","","","0","0","1","","0.2","0.5","0.5","","","0.8","0.2","","","","","","","","","","","","","","","","75","K","1","","true","0","80_20_practice","",""
"","bandit","35","146547","0.0-18.0-17.0","65238417","wem/bandit_party_2","A62RZY5BWOZZM","either","3","47","","","","","","","0","1","0","","0.8","0.5","0.5","","","0.8","0.2","","","","","","","","","","","","","","","","74","J","0","img/none_selected_demo.jpg","true","0","80_20_practice","",""
"","bandit","36","148329","0.0-18.0-18.0","65238417","wem/bandit_party_2","A62RZY5BWOZZM","either","3","274","","","","","","","0","0","1","","0.2","0.5","0.5","","","0.8","0.2","","","","","","","","","","","","","","","","75","K","1","","true","0","80_20_practice","",""
"","bandit","37","150091","0.0-18.0-19.0","65238417","wem/bandit_party_2","A62RZY5BWOZZM","either","3","251","","","","","","","1","0","0","0.8","","0.5","0.5","","","","","","","0.8","0.2","","","","","","","","","","","","74","J","0","img/none_selected_demo.jpg","true","0","80_20_practice","",""
"","text-replacement","38","153948","0.0-19.0","65238417","wem/bandit_party_2","A62RZY5BWOZZM","either","3","3853","","","32","","","","","","","","","","","","","","","","","","","","","","","","","","","","","","","","","","","","","",""
"","bandit","39","157032","0.0-20.0-0.0","65238417","wem/bandit_party_2","A62RZY5BWOZZM","either","3","1574","","","","","","","1","0","0","1","0","","","","","0","1","","","1","0","","","","","","","","","","","","74","J","0","img/none_selected_demo.jpg","true","0","","",""
"","text-replacement","40","161125","0.0-21.0","65238417","wem/bandit_party_2","A62RZY5BWOZZM","either","3","4084","","","32","","","","","","","","","","","","","","","","","","","","","","","","","","","","","","","","","","","","","",""
"","text-replacement","41","163601","0.0-22.0","65238417","wem/bandit_party_2","A62RZY5BWOZZM","either","3","2473","","","32","","","","","","","","","","","","","","","","","","","","","","","","","","","","","","","","","","","","","",""
"","text-replacement","42","165119","0.0-23.0","65238417","wem/bandit_party_2","A62RZY5BWOZZM","either","3","1515","","","32","","","","","","","","","","","","","","","","","","","","","","","","","","","","","","","","","","","","","",""
"","text-replacement","43","167226","0.0-24.0","65238417","wem/bandit_party_2","A62RZY5BWOZZM","either","3","2103","","","32","","","","","","","","","","","","","","","","","","","","","","","","","","","","","","","","","","","","","",""
"","text-replacement","44","169121","0.0-25.0","65238417","wem/bandit_party_2","A62RZY5BWOZZM","either","3","1892","","","32","","","","","","","","","","","","","","","","","","","","","","","","","","","","","","","","","","","","","",""
"","text-replacement","45","170525","0.0-26.0","65238417","wem/bandit_party_2","A62RZY5BWOZZM","either","3","1401","","","32","","","","","","","","","","","","","","","","","","","","","","","","","","","","","","","","","","","","","",""
"","text-replacement","46","172082","0.0-27.0","65238417","wem/bandit_party_2","A62RZY5BWOZZM","either","3","1553","","","32","","","","","","","","","","","","","","","","","","","","","","","","","","","","","","","","","","","","","",""
"","text-replacement","47","173686","0.0-28.0","65238417","wem/bandit_party_2","A62RZY5BWOZZM","either","3","1599","","","32","","","","","","","","","","","","","","","","","","","","","","","","","","","","","","","","","","","","","",""
"","text-replacement","48","175820","0.0-29.0","65238417","wem/bandit_party_2","A62RZY5BWOZZM","either","3","2130","","","32","","","","","","","","","","","","","","","","","","","","","","","","","","","","","","","","","","","","","",""
"","text-replacement","49","177204","0.0-30.0","65238417","wem/bandit_party_2","A62RZY5BWOZZM","either","3","1379","","","32","","","","","","","","","","","","","","","","","","","","","","","","","","","","","","","","","","","","","",""
"","text-replacement","50","178769","0.0-31.0","65238417","wem/bandit_party_2","A62RZY5BWOZZM","either","3","1559","","","32","","","","","","","","","","","","","","","","","","","","","","","","","","","","","","","","","","","","","",""
"","bandit","51","182279","0.0-32.0-0.0","65238417","wem/bandit_party_2","A62RZY5BWOZZM","either","3","1992","","","","","","","0","0","1","","0.2","0.5","0.5","0.5","0.5","0.8","0.2","0.6","0.2","","","","","","","","","","","","","","74","J","1","","true","0","full_practice","",""
"","bandit","52","185286","0.0-32.0-1.0","65238417","wem/bandit_party_2","A62RZY5BWOZZM","either","3","1491","","","","","","","1","0","0","0.6","","0.5","0.5","0.5","0.5","","","","","0.8","0.2","0.6","0.2","","","","","","","","","","75","K","2","","true","0","full_practice","",""
"","bandit","53","187165","0.0-32.0-2.0","65238417","wem/bandit_party_2","A62RZY5BWOZZM","either","3","371","","","","","","","0","1","0","","0.6","0.5","0.5","0.5","0.5","0.8","0.2","0.6","0.2","","","","","","","","","","","","","","75","K","2","","true","0","full_practice","",""
"","bandit","54","189195","0.0-32.0-3.0","65238417","wem/bandit_party_2","A62RZY5BWOZZM","either","3","523","","","","","","","0","0","1","0.2","","0.5","0.5","0.5","0.5","","","","","0.8","0.2","0.6","0.2","","","","","","","","","","76","L","3","","true","0","full_practice","",""
"","bandit","55","191486","0.0-32.0-4.0","65238417","wem/bandit_party_2","A62RZY5BWOZZM","either","3","780","","","","","","","0","1","0","","0.8","0.5","0.5","0.5","0.5","0.8","0.2","0.6","0.2","","","","","","","","","","","","","","72","H","0","img/none_selected.jpg","true","0","full_practice","",""
"","bandit","56","193394","0.0-32.0-5.0","65238417","wem/bandit_party_2","A62RZY5BWOZZM","either","3","397","","","","","","","0","0","1","","0.2","0.5","0.5","0.5","0.5","0.8","0.2","0.6","0.2","","","","","","","","","","","","","","74","J","1","","true","0","full_practice","",""
"","bandit","57","195003","0.0-32.0-6.0","65238417","wem/bandit_party_2","A62RZY5BWOZZM","either","3","100","","","","","","","0","1","0","","0.6","0.5","0.5","0.5","0.5","0.8","0.2","0.6","0.2","","","","","","","","","","","","","","75","K","2","","true","0","full_practice","",""
"","bandit","58","196924","0.0-32.0-7.0","65238417","wem/bandit_party_2","A62RZY5BWOZZM","either","3","406","","","","","","","0","0","1","0.2","","0.5","0.5","0.5","0.5","","","","","0.8","0.2","0.6","0.2","","","","","","","","","","76","L","3","","true","0","full_practice","",""
"","bandit","59","198629","0.0-32.0-8.0","65238417","wem/bandit_party_2","A62RZY5BWOZZM","either","3","197","","","","","","","0","1","0","","0.8","0.5","0.5","0.5","0.5","0.8","0.2","0.6","0.2","","","","","","","","","","","","","","72","H","0","img/none_selected.jpg","true","0","full_practice","",""
"","bandit","60","201319","0.0-32.0-9.0","65238417","wem/bandit_party_2","A62RZY5BWOZZM","either","3","1182","","","","","","","0","0","1","0.2","","0.5","0.5","0.5","0.5","","","","","0.8","0.2","0.6","0.2","","","","","","","","","","74","J","1","","true","0","full_practice","",""
"","bandit","61","203094","0.0-32.0-10.0","65238417","wem/bandit_party_2","A62RZY5BWOZZM","either","3","254","","","","","","","0","0","1","0.2","","0.5","0.5","0.5","0.5","","","","","0.8","0.2","0.6","0.2","","","","","","","","","","74","J","1","","true","0","full_practice","",""
"","bandit","62","204671","0.0-32.0-11.0","65238417","wem/bandit_party_2","A62RZY5BWOZZM","either","3","67","","","","","","","1","0","0","0.6","","0.5","0.5","0.5","0.5","","","","","0.8","0.2","0.6","0.2","","","","","","","","","","75","K","2","","true","0","full_practice","",""
"","bandit","63","206668","0.0-32.0-12.0","65238417","wem/bandit_party_2","A62RZY5BWOZZM","either","3","482","","","","","","","0","0","1","0.6","","0.5","0.5","0.5","0.5","","","","","0.8","0.2","0.6","0.2","","","","","","","","","","75","K","2","","true","0","full_practice","",""
"","bandit","64","208622","0.0-32.0-13.0","65238417","wem/bandit_party_2","A62RZY5BWOZZM","either","3","440","","","","","","","0","0","1","0.6","","0.5","0.5","0.5","0.5","","","","","0.8","0.2","0.6","0.2","","","","","","","","","","75","K","2","","true","0","full_practice","",""
"","bandit","65","210190","0.0-32.0-14.0","65238417","wem/bandit_party_2","A62RZY5BWOZZM","either","3","61","","","","","","","0","0","1","","0.2","0.5","0.5","0.5","0.5","0.8","0.2","0.6","0.2","","","","","","","","","","","","","","76","L","3","","true","0","full_practice","",""
"","bandit","66","212511","0.0-32.0-15.0","65238417","wem/bandit_party_2","A62RZY5BWOZZM","either","3","810","","","","","","","0","0","1","0.2","","0.5","0.5","0.5","0.5","","","","","0.8","0.2","0.6","0.2","","","","","","","","","","74","J","1","","true","0","full_practice","",""
"","bandit","67","214210","0.0-32.0-16.0","65238417","wem/bandit_party_2","A62RZY5BWOZZM","either","3","185","","","","","","","0","0","1","0.8","","0.5","0.5","0.5","0.5","","","","","0.8","0.2","0.6","0.2","","","","","","","","","","72","H","0","img/none_selected.jpg","true","0","full_practice","",""
"","bandit","68","215790","0.0-32.0-17.0","65238417","wem/bandit_party_2","A62RZY5BWOZZM","either","3","62","","","","","","","0","0","1","0.8","","0.5","0.5","0.5","0.5","","","","","0.8","0.2","0.6","0.2","","","","","","","","","","72","H","0","img/none_selected.jpg","true","0","full_practice","",""
"","bandit","69","217311","0.0-32.0-18.0","65238417","wem/bandit_party_2","A62RZY5BWOZZM","either","3","12","","","","","","","0","0","1","0.2","","0.5","0.5","0.5","0.5","","","","","0.8","0.2","0.6","0.2","","","","","","","","","","74","J","1","","true","0","full_practice","",""
"","bandit","70","218870","0.0-32.0-19.0","65238417","wem/bandit_party_2","A62RZY5BWOZZM","either","3","36","","","","","","","0","0","1","","0.6","0.5","0.5","0.5","0.5","0.8","0.2","0.6","0.2","","","","","","","","","","","","","","75","K","2","","true","0","full_practice","",""
"","text","71","221366","0.0-33.0","65238417","wem/bandit_party_2","A62RZY5BWOZZM","either","3","2478","","","32","","","","","","","","","","","","","","","","","","","","","","","","","","","","","","","","","","","","","",""
"","text-replacement","72","230283","0.0-34.0","65238417","wem/bandit_party_2","A62RZY5BWOZZM","either","3","7909","","","32","","","","","","","","","","","","","","","","","","","","","","","","","","","","","","","","","","","","","",""
"","text-replacement","73","233150","0.0-35.0","65238417","wem/bandit_party_2","A62RZY5BWOZZM","either","3","2860","","","32","","","","","","","","","","","","","","","","","","","","","","","","","","","","","","","","","","","","","",""
"","text-replacement","74","234601","0.0-36.0","65238417","wem/bandit_party_2","A62RZY5BWOZZM","either","3","1446","","","32","","","","","","","","","","","","","","","","","","","","","","","","","","","","","","","","","","","","","",""
"","text-replacement","75","235574","0.0-37.0","65238417","wem/bandit_party_2","A62RZY5BWOZZM","either","3","969","","","32","","","","","","","","","","","","","","","","","","","","","","","","","","","","","","","","","","","","","",""
"","text-replacement","76","236728","0.0-38.0","65238417","wem/bandit_party_2","A62RZY5BWOZZM","either","3","1150","","","32","","","","","","","","","","","","","","","","","","","","","","","","","","","","","","","","","","","","","",""
"","survey-multi-choice-replacement","77","242738","0.0-39.0-0.0","65238417","wem/bandit_party_2","A62RZY5BWOZZM","either","3","5996","","","","","","","","","","","","","","","","","","","","","","","","Money will be added to the pool for <span style='color:blue;'>DEMOCRATS</span>","","","","","","","attn_check","","","","","","","","","0",""
"","survey-multi-choice-replacement","78","247572","0.0-40.0-0.0","65238417","wem/bandit_party_2","A62RZY5BWOZZM","either","3","3819","","","","","","","","","","","","","","","","","","","","","","","","Money will be subtracted from the pool for <span style='color:red;'>REPUBLICANS</span>","","","","","","","attn_check","","","","","","","","","1",""
"","instructions","79","251008","0.0-40.0-1.0-0.0","65238417","wem/bandit_party_2","A62RZY5BWOZZM","either","3","2428","","","","","","","","","","","","","","","","","","","","","","","","","","","","","","","","","","","","","","","","","[{""page_index"":0,""viewing_time"":2427}]"
"","survey-multi-choice-replacement","80","258679","0.0-40.1-0.1","65238417","wem/bandit_party_2","A62RZY5BWOZZM","either","3","6654","","","","","","","","","","","","","","","","","","","","","","","","Equal amounts of money will be added to the pool for <span style='color:blue;'>DEMOCRATS</span> and subtracted from the pool for <span style='color:red;'>REPUBLICANS</span>","","","","","","","attn_check","","","","","","","","","2",""
"","survey-multi-choice-replacement","81","264083","0.0-41.0-0.0","65238417","wem/bandit_party_2","A62RZY5BWOZZM","either","3","4376","","","","","","","","","","","","","","","","","","","","","","","","No money will be added to either pool","","","","","","","attn_check","","","","","","","","","3",""
"","bandit","82","270795","0.0-42.0-0.0","65238417","wem/bandit_party_2","A62RZY5BWOZZM","either","3","4184","","","","","","","0","0","1","0.1387034319","","0.2","0.8","0.4","0.6","","","","","0.6494041588","0.1387034319","0.4261870849","0.6473934842","","","","","","","","","","74","J","1","","","1","main_expt","",""
"","bandit","83","273482","0.0-43.0-0.0","65238417","wem/bandit_party_2","A62RZY5BWOZZM","either","3","1164","","","","","","","0","0","1","","0.3223101542","0.2","0.8","0.4","0.6","0.7608835745","0.2166337036","0.3223101542","0.5221866694","","","","","","","","","","","","","","75","K","2","","","2","main_expt","",""
"","bandit","84","275206","0.0-44.0-0.0","65238417","wem/bandit_party_2","A62RZY5BWOZZM","either","3","194","","","","","","","1","0","0","0.5356292978","","0.2","0.8","0.4","0.6","","","","","0.7745567172","0.3253899216","0.2541217019","0.5356292978","","","","","","","","","","76","L","3","","","3","main_expt","",""
"","bandit","85","277146","0.0-45.0-0.0","65238417","wem/bandit_party_2","A62RZY5BWOZZM","either","3","416","","","","","","","1","0","0","0.5154592071","","0.2","0.8","0.4","0.6","","","","","0.8315703218","0.3003293127","0.2272043942","0.5154592071","","","","","","","","","","76","L","3","","","4","main_expt","",""
"","bandit","86","279017","0.0-46.0-0.0","65238417","wem/bandit_party_2","A62RZY5BWOZZM","either","3","350","","","","","","","1","0","0","0.4578896037","","0.2","0.8","0.4","0.6","","","","","0.8380789219","0.3839660868","0.2967729676","0.4578896037","","","","","","","","","","76","L","3","","","5","main_expt","",""
"","bandit","87","280898","0.0-47.0-0.0","65238417","wem/bandit_party_2","A62RZY5BWOZZM","either","3","361","","","","","","","0","1","0","","0.4825789634","0.2","0.8","0.4","0.6","0.8233568153","0.3833463511","0.3211998527","0.4825789634","","","","","","","","","","","","","","76","L","3","","","6","main_expt","",""
"","bandit","88","282928","0.0-48.0-0.0","65238417","wem/bandit_party_2","A62RZY5BWOZZM","either","3","498","","","","","","","0","1","0","","0.8672840292","0.2","0.8","0.4","0.6","0.8672840292","0.3173395401","0.4190649117","0.4013658759","","","","","","","","","","","","","","72","H","0","img/none_selected.jpg","","7","main_expt","",""
"","bandit","89","285152","0.0-49.0-0.0","65238417","wem/bandit_party_2","A62RZY5BWOZZM","either","3","701","","","","","","","1","0","0","0.3265190876","","0.2","0.8","0.4","0.6","","","","","0.7921451217","0.3265190876","0.5253498774","0.3721769634","","","","","","","","","","74","J","1","","","8","main_expt","",""
"","bandit","90","286734","0.0-50.0-0.0","65238417","wem/bandit_party_2","A62RZY5BWOZZM","either","3","57","","","","","","","1","0","0","0.4229840653","","0.2","0.8","0.4","0.6","","","","","0.7826569337","0.4229840653","0.5552176016","0.3934089605","","","","","","","","","","74","J","1","","","9","main_expt","",""
"","bandit","91","288625","0.0-51.0-0.0","65238417","wem/bandit_party_2","A62RZY5BWOZZM","either","3","367","","","","","","","0","0","1","0.5107168356","","0.2","0.8","0.4","0.6","","","","","0.7150392401","0.5107168356","0.654745146","0.3360942297","","","","","","","","","","74","J","1","","","10","main_expt","",""
"","bandit","92","290721","0.0-52.0-0.0","65238417","wem/bandit_party_2","A62RZY5BWOZZM","either","3","571","","","","","","","0","0","1","0.4383577931","","0.2","0.8","0.4","0.6","","","","","0.6906605055","0.4383577931","0.6089063278","0.4969537907","","","","","","","","","","74","J","1","","","11","main_expt","",""
"","bandit","93","292288","0.0-53.0-0.0","65238417","wem/bandit_party_2","A62RZY5BWOZZM","either","3","46","","","","","","","0","1","0","","0.559155858","0.2","0.8","0.4","0.6","0.6725575113","0.5487148549","0.559155858","0.4760264401","","","","","","","","","","","","","","75","K","2","","","12","main_expt","",""
"","bandit","94","294065","0.0-54.0-0.0","65238417","wem/bandit_party_2","A62RZY5BWOZZM","either","3","247","","","","","","","0","1","0","","0.4008761295","0.2","0.8","0.4","0.6","0.7404599176","0.7407599438","0.6464491645","0.4008761295","","","","","","","","","","","","","","76","L","3","","","13","main_expt","",""
"","bandit","95","296362","0.0-55.0-0.0","65238417","wem/bandit_party_2","A62RZY5BWOZZM","either","3","773","","","","","","","0","1","0","","0.6751607758","0.2","0.8","0.4","0.6","0.6751607758","0.8307131687","0.6936958995","0.358486362","","","","","","","","","","","","","","72","H","0","img/none_selected.jpg","","14","main_expt","",""
"","bandit","96","298170","0.0-56.0-0.0","65238417","wem/bandit_party_2","A62RZY5BWOZZM","either","3","288","","","","","","","1","0","0","0.8114394421","","0.2","0.8","0.4","0.6","","","","","0.6115440925","0.8114394421","0.731471075","0.395258373","","","","","","","","","","74","J","1","","","15","main_expt","",""
"","bandit","97","299905","0.0-57.0-0.0","65238417","wem/bandit_party_2","A62RZY5BWOZZM","either","3","212","","","","","","","1","0","0","0.8242397169","","0.2","0.8","0.4","0.6","","","","","0.7019001419","0.8242397169","0.6487541525","0.4197334966","","","","","","","","","","74","J","1","","","16","main_expt","",""
"","bandit","98","301732","0.0-58.0-0.0","65238417","wem/bandit_party_2","A62RZY5BWOZZM","either","3","305","","","","","","","1","0","0","0.8317633157","","0.2","0.8","0.4","0.6","","","","","0.7017998","0.8317633157","0.7654634758","0.2160816064","","","","","","","","","","74","J","1","","","17","main_expt","",""
"","bandit","99","303576","0.0-59.0-0.0","65238417","wem/bandit_party_2","A62RZY5BWOZZM","either","3","323","","","","","","","1","0","0","0.8158638682","","0.2","0.8","0.4","0.6","","","","","0.7672473748","0.8158638682","0.7160830043","0.2058632209","","","","","","","","","","74","J","1","","","18","main_expt","",""
"","bandit","100","305367","0.0-60.0-0.0","65238417","wem/bandit_party_2","A62RZY5BWOZZM","either","3","270","","","","","","","1","0","0","0.8291878069","","0.2","0.8","0.4","0.6","","","","","0.7950219121","0.8291878069","0.6856656502","0.2314559036","","","","","","","","","","74","J","1","","","19","main_expt","",""
"","bandit","101","307018","0.0-61.0-0.0","65238417","wem/bandit_party_2","A62RZY5BWOZZM","either","3","123","","","","","","","1","0","0","0.8665153398","","0.2","0.8","0.4","0.6","","","","","0.8460513568","0.8665153398","0.6829400921","0.1762066147","","","","","","","","","","74","J","1","","","20","main_expt","",""
"","bandit","102","308808","0.0-62.0-0.0","65238417","wem/bandit_party_2","A62RZY5BWOZZM","either","3","266","","","","","","","1","0","0","0.8181415858","","0.2","0.8","0.4","0.6","","","","","0.8571228725","0.8181415858","0.6849203215","0.150477598","","","","","","","","","","74","J","1","","","21","main_expt","",""
"","bandit","103","310481","0.0-63.0-0.0","65238417","wem/bandit_party_2","A62RZY5BWOZZM","either","3","150","","","","","","","1","0","0","0.7731960963","","0.2","0.8","0.4","0.6","","","","","0.8498483749","0.7731960963","0.6832197831","0.1957635407","","","","","","","","","","74","J","1","","","22","main_expt","",""
"","bandit","104","312033","0.0-64.0-0.0","65238417","wem/bandit_party_2","A62RZY5BWOZZM","either","3","31","","","","","","","0","1","0","","0.8004626553","0.2","0.8","0.4","0.6","0.887495535","0.8004626553","0.6103957523","0.2193187944","","","","","","","","","","","","","","74","J","1","","","23","main_expt","",""
"","bandit","105","313795","0.0-65.0-0.0","65238417","wem/bandit_party_2","A62RZY5BWOZZM","either","3","239","","","","","","","1","0","0","0.5485819736","","0.2","0.8","0.4","0.6","","","","","0.918231735","0.7941911222","0.5485819736","0.1836328706","","","","","","","","","","75","K","2","","","24","main_expt","",""
"","bandit","106","315414","0.0-66.0-0.0","65238417","wem/bandit_party_2","A62RZY5BWOZZM","either","3","99","","","","","","","0","0","1","","0.5852935809","0.2","0.8","0.4","0.6","0.9111146318","0.7100633829","0.5852935809","0.1410441375","","","","","","","","","","","","","","75","K","2","","","25","main_expt","",""
"","bandit","107","317621","0.0-67.0-0.0","65238417","wem/bandit_party_2","A62RZY5BWOZZM","either","3","679","","","","","","","1","0","0","0.6097892937","","0.2","0.8","0.4","0.6","","","","","0.9190640316","0.6872129375","0.6097892937","0.1082593399","","","","","","","","","","75","K","2","","","26","main_expt","",""
"","bandit","108","319451","0.0-68.0-0.0","65238417","wem/bandit_party_2","A62RZY5BWOZZM","either","3","302","","","","","","","0","1","0","","0.6653335402","0.2","0.8","0.4","0.6","0.9372614837","0.6798864795","0.6653335402","0.1042047793","","","","","","","","","","","","","","75","K","2","","","27","main_expt","",""
"","bandit","109","321010","0.0-69.0-0.0","65238417","wem/bandit_party_2","A62RZY5BWOZZM","either","3","37","","","","","","","0","0","1","","0.6850825106","0.2","0.8","0.4","0.6","0.9269484959","0.6812343762","0.6850825106","0.1153509117","","","","","","","","","","","","","","75","K","2","","","28","main_expt","",""
"","bandit","110","323070","0.0-70.0-0.0","65238417","wem/bandit_party_2","A62RZY5BWOZZM","either","3","535","","","","","","","1","0","0","0.7309016742","","0.2","0.8","0.4","0.6","","","","","0.9376772981","0.5305157647","0.7309016742","0.1601566248","","","","","","","","","","75","K","2","","","29","main_expt","",""
"","bandit","111","324958","0.0-71.0-0.0","65238417","wem/bandit_party_2","A62RZY5BWOZZM","either","3","365","","","","","","","1","0","0","0.8141980113","","0.2","0.8","0.4","0.6","","","","","0.8795505253","0.4713174284","0.8141980113","0.09548927903","","","","","","","","","","75","K","2","","","30","main_expt","",""
"","bandit","112","326770","0.0-72.0-0.0","65238417","wem/bandit_party_2","A62RZY5BWOZZM","either","3","287","","","","","","","0","1","0","","0.8926711601","0.2","0.8","0.4","0.6","0.8605863748","0.2938490869","0.8926711601","0.09272353297","","","","","","","","","","","","","","75","K","2","","","31","main_expt","",""
"","bandit","113","328392","0.0-73.0-0.0","65238417","wem/bandit_party_2","A62RZY5BWOZZM","either","3","101","","","","","","","1","0","0","0.8397563013","","0.2","0.8","0.4","0.6","","","","","0.757600507","0.3005160425","0.8397563013","0.09547929832","","","","","","","","","","75","K","2","","","32","main_expt","",""
"","bandit","114","330411","0.0-74.0-0.0","65238417","wem/bandit_party_2","A62RZY5BWOZZM","either","3","495","","","","","","","1","0","0","0.8251988787","","0.2","0.8","0.4","0.6","","","","","0.7257103923","0.3661211491","0.8251988787","0.08683876107","","","","","","","","","","75","K","2","","","33","main_expt","",""
"","bandit","115","332425","0.0-75.0-0.0","65238417","wem/bandit_party_2","A62RZY5BWOZZM","either","3","489","","","","","","","1","0","0","0.7303528712","","0.2","0.8","0.4","0.6","","","","","0.5786815464","0.4614725573","0.7303528712","0.08117088791","","","","","","","","","","75","K","2","","","34","main_expt","",""
"","bandit","116","334272","0.0-76.0-0.0","65238417","wem/bandit_party_2","A62RZY5BWOZZM","either","3","314","","","","","","","0","0","1","0.8093673003","","0.2","0.8","0.4","0.6","","","","","0.4812266686","0.4597324626","0.8093673003","0.09593582107","","","","","","","","","","75","K","2","","","35","main_expt","",""
"","bandit","117","336136","0.0-77.0-0.0","65238417","wem/bandit_party_2","A62RZY5BWOZZM","either","3","337","","","","","","","1","0","0","0.79718131","","0.2","0.8","0.4","0.6","","","","","0.4459447539","0.4294742096","0.79718131","0.1392988708","","","","","","","","","","75","K","2","","","36","main_expt","",""
"","bandit","118","338072","0.0-78.0-0.0","65238417","wem/bandit_party_2","A62RZY5BWOZZM","either","3","403","","","","","","","0","0","1","0.8157762275","","0.2","0.8","0.4","0.6","","","","","0.5737218407","0.5301274199","0.8157762275","0.07673209605","","","","","","","","","","75","K","2","","","37","main_expt","",""
"","bandit","119","339660","0.0-79.0-0.0","65238417","wem/bandit_party_2","A62RZY5BWOZZM","either","3","64","","","","","","","0","0","1","","0.7941499978","0.2","0.8","0.4","0.6","0.6008421093","0.5746889943","0.7941499978","0.1078843958","","","","","","","","","","","","","","75","K","2","","","38","main_expt","",""
"","bandit","120","341529","0.0-80.0-0.0","65238417","wem/bandit_party_2","A62RZY5BWOZZM","either","3","344","","","","","","","0","0","1","0.7352357368","","0.2","0.8","0.4","0.6","","","","","0.6076920036","0.6621100331","0.7352357368","0.09731722171","","","","","","","","","","75","K","2","","","39","main_expt","",""
"","bandit","121","343370","0.0-81.0-0.0","65238417","wem/bandit_party_2","A62RZY5BWOZZM","either","3","317","","","","","","","0","0","1","","0.2123509389","0.2","0.8","0.4","0.6","0.6616622706","0.6794361822","0.7920886563","0.2123509389","","","","","","","","","","","","","","76","L","3","","","40","main_expt","",""
"","bandit","122","345167","0.0-82.0-0.0","65238417","wem/bandit_party_2","A62RZY5BWOZZM","either","3","259","","","","","","","0","0","1","","0.1265365425","0.2","0.8","0.4","0.6","0.6945341382","0.7140523024","0.8780543775","0.1265365425","","","","","","","","","","","","","","76","L","3","","","41","main_expt","",""
"","bandit","123","347001","0.0-83.0-0.0","65238417","wem/bandit_party_2","A62RZY5BWOZZM","either","3","304","","","","","","","0","1","0","","0.6833149102","0.2","0.8","0.4","0.6","0.6833149102","0.6669732994","0.9167256642","0.166138795","","","","","","","","","","","","","","72","H","0","img/none_selected.jpg","","42","main_expt","",""
"","bandit","124","348749","0.0-84.0-0.0","65238417","wem/bandit_party_2","A62RZY5BWOZZM","either","3","221","","","","","","","0","1","0","","0.7094953576","0.2","0.8","0.4","0.6","0.7094953576","0.5435093165","0.9407985187","0.1782339186","","","","","","","","","","","","","","72","H","0","img/none_selected.jpg","","43","main_expt","",""
"","bandit","125","350548","0.0-85.0-0.0","65238417","wem/bandit_party_2","A62RZY5BWOZZM","either","3","264","","","","","","","1","0","0","0.7519468023","","0.2","0.8","0.4","0.6","","","","","0.7519468023","0.6002661395","0.9000978766","0.1342945815","","","","","","","","","","72","H","0","img/none_selected.jpg","","44","main_expt","",""
"","bandit","126","352073","0.0-86.0-0.0","65238417","wem/bandit_party_2","A62RZY5BWOZZM","either","3","1","","","","","","","0","1","0","","0.7673203249","0.2","0.8","0.4","0.6","0.7673203249","0.5948203474","0.9190036262","0.09086288848","","","","","","","","","","","","","","72","H","0","img/none_selected.jpg","","45","main_expt","",""
"","bandit","127","354003","0.0-87.0-0.0","65238417","wem/bandit_party_2","A62RZY5BWOZZM","either","3","404","","","","","","","0","1","0","","0.722836051","0.2","0.8","0.4","0.6","0.722836051","0.6230250108","0.8865788656","0.06420934006","","","","","","","","","","","","","","72","H","0","img/none_selected.jpg","","46","main_expt","",""
"","bandit","128","355781","0.0-88.0-0.0","65238417","wem/bandit_party_2","A62RZY5BWOZZM","either","3","254","","","","","","","0","1","0","","0.7392487755","0.2","0.8","0.4","0.6","0.7392487755","0.7239235909","0.8207935484","0.02332738683","","","","","","","","","","","","","","72","H","0","img/none_selected.jpg","","47","main_expt","",""
"","bandit","129","357520","0.0-89.0-0.0","65238417","wem/bandit_party_2","A62RZY5BWOZZM","either","3","212","","","","","","","0","0","1","","0.7715310514","0.2","0.8","0.4","0.6","0.7551111279","0.7715310514","0.8170742187","0.03517565614","","","","","","","","","","","","","","74","J","1","","","48","main_expt","",""
"","bandit","130","359400","0.0-90.0-0.0","65238417","wem/bandit_party_2","A62RZY5BWOZZM","either","3","344","","","","","","","0","1","0","","0.822179592","0.2","0.8","0.4","0.6","0.6917772817","0.822179592","0.7874830355","0.04466115719","","","","","","","","","","","","","","74","J","1","","","49","main_expt","",""
"","bandit","131","361073","0.0-91.0-0.0","65238417","wem/bandit_party_2","A62RZY5BWOZZM","either","3","147","","","","","","","0","0","1","0.8108951243","","0.2","0.8","0.4","0.6","","","","","0.6689959301","0.8108951243","0.8279472521","0.05053383529","","","","","","","","","","74","J","1","","","50","main_expt","",""
"","bandit","132","363093","0.0-92.0-0.0","65238417","wem/bandit_party_2","A62RZY5BWOZZM","either","3","494","","","","","","","0","1","0","","0.7649170446","0.2","0.8","0.4","0.6","0.6020608281","0.7649170446","0.8426817256","0.04681033125","","","","","","","","","","","","","","74","J","1","","","51","main_expt","",""
"","bandit","133","364955","0.0-93.0-0.0","65238417","wem/bandit_party_2","A62RZY5BWOZZM","either","3","316","","","","","","","1","0","0","0.8169848275","","0.2","0.8","0.4","0.6","","","","","0.6583182673","0.8169848275","0.8377647656","0.09308222201","","","","","","","","","","74","J","1","","","52","main_expt","",""
"","bandit","134","366914","0.0-94.0-0.0","65238417","wem/bandit_party_2","A62RZY5BWOZZM","either","3","434","","","","","","","1","0","0","0.8843577791","","0.2","0.8","0.4","0.6","","","","","0.5419436754","0.8843577791","0.8241398149","0.1397702629","","","","","","","","","","74","J","1","","","53","main_expt","",""
"","bandit","135","368775","0.0-95.0-0.0","65238417","wem/bandit_party_2","A62RZY5BWOZZM","either","3","326","","","","","","","1","0","0","0.8854515068","","0.2","0.8","0.4","0.6","","","","","0.5717614462","0.8854515068","0.7289352116","0.110287685","","","","","","","","","","74","J","1","","","54","main_expt","",""
"","bandit","136","370385","0.0-96.0-0.0","65238417","wem/bandit_party_2","A62RZY5BWOZZM","either","3","85","","","","","","","1","0","0","0.8884574585","","0.2","0.8","0.4","0.6","","","","","0.5497935615","0.8884574585","0.5895019519","0.1843384007","","","","","","","","","","74","J","1","","","55","main_expt","",""
"","bandit","137","372384","0.0-97.0-0.0","65238417","wem/bandit_party_2","A62RZY5BWOZZM","either","3","484","","","","","","","0","0","1","0.8840911236","","0.2","0.8","0.4","0.6","","","","","0.4902645195","0.8840911236","0.4622464331","0.2056752237","","","","","","","","","","74","J","1","","","56","main_expt","",""
"","bandit","138","374443","0.0-98.0-0.0","65238417","wem/bandit_party_2","A62RZY5BWOZZM","either","3","532","","","","","","","0","0","1","0.490024734","","0.2","0.8","0.4","0.6","","","","","0.5258365243","0.864283103","0.490024734","0.3410726922","","","","","","","","","","75","K","2","","","57","main_expt","",""
"","bandit","139","376062","0.0-99.0-0.0","65238417","wem/bandit_party_2","A62RZY5BWOZZM","either","3","94","","","","","","","0","1","0","","0.6182628796","0.2","0.8","0.4","0.6","0.6097664349","0.7377821737","0.6182628796","0.3873695161","","","","","","","","","","","","","","75","K","2","","","58","main_expt","",""
"","bandit","140","377900","0.0-100.0-0.0","65238417","wem/bandit_party_2","A62RZY5BWOZZM","either","3","309","","","","","","","0","1","0","","0.6976829826","0.2","0.8","0.4","0.6","0.6016711108","0.7469541206","0.6976829826","0.3281321534","","","","","","","","","","","","","","75","K","2","","","59","main_expt","",""
"","bandit","141","379537","0.0-101.0-0.0","65238417","wem/bandit_party_2","A62RZY5BWOZZM","either","3","109","","","","","","","1","0","0","0.675433977","","0.2","0.8","0.4","0.6","","","","","0.5544917648","0.8019510571","0.675433977","0.2380439254","","","","","","","","","","75","K","2","","","60","main_expt","",""
"","bandit","142","381224","0.0-102.0-0.0","65238417","wem/bandit_party_2","A62RZY5BWOZZM","either","3","162","","","","","","","1","0","0","0.7206550838","","0.2","0.8","0.4","0.6","","","","","0.6842720067","0.8943887388","0.7206550838","0.2228222105","","","","","","","","","","75","K","2","","","61","main_expt","",""
"","bandit","143","383127","0.0-103.0-0.0","65238417","wem/bandit_party_2","A62RZY5BWOZZM","either","3","372","","","","","","","0","1","0","","0.7184677658","0.2","0.8","0.4","0.6","0.6824345281","0.8942973556","0.7184677658","0.2489253665","","","","","","","","","","","","","","75","K","2","","","62","main_expt","",""
"","bandit","144","384914","0.0-104.0-0.0","65238417","wem/bandit_party_2","A62RZY5BWOZZM","either","3","251","","","","","","","0","0","1","","0.6785259816","0.2","0.8","0.4","0.6","0.7321168219","0.8829609874","0.6785259816","0.2298237489","","","","","","","","","","","","","","75","K","2","","","63","main_expt","",""
"","bandit","145","386609","0.0-105.0-0.0","65238417","wem/bandit_party_2","A62RZY5BWOZZM","either","3","167","","","","","","","0","0","1","","0.6349383059","0.2","0.8","0.4","0.6","0.8123013145","0.8175344892","0.6349383059","0.1849055857","","","","","","","","","","","","","","75","K","2","","","64","main_expt","",""
"","bandit","146","388743","0.0-106.0-0.0","65238417","wem/bandit_party_2","A62RZY5BWOZZM","either","3","609","","","","","","","0","1","0","","0.629769122","0.2","0.8","0.4","0.6","0.8236121316","0.7812905168","0.629769122","0.2285715909","","","","","","","","","","","","","","75","K","2","","","65","main_expt","",""
"","bandit","147","390653","0.0-107.0-0.0","65238417","wem/bandit_party_2","A62RZY5BWOZZM","either","3","378","","","","","","","0","0","1","","0.2477643906","0.2","0.8","0.4","0.6","0.8270077233","0.7848445355","0.7158950816","0.2477643906","","","","","","","","","","","","","","76","L","3","","","66","main_expt","",""
"","bandit","148","392685","0.0-108.0-0.0","65238417","wem/bandit_party_2","A62RZY5BWOZZM","either","3","503","","","","","","","0","0","1","0.1801078726","","0.2","0.8","0.4","0.6","","","","","0.7601471472","0.763143195","0.6309271871","0.1801078726","","","","","","","","","","76","L","3","","","67","main_expt","",""
"","bandit","149","394509","0.0-109.0-0.0","65238417","wem/bandit_party_2","A62RZY5BWOZZM","either","3","288","","","","","","","0","0","1","","0.08479184886","0.2","0.8","0.4","0.6","0.7567750057","0.7966751536","0.617221228","0.08479184886","","","","","","","","","","","","","","76","L","3","","","68","main_expt","",""
"","bandit","150","396105","0.0-110.0-0.0","65238417","wem/bandit_party_2","A62RZY5BWOZZM","either","3","65","","","","","","","1","0","0","0.6871277649","","0.2","0.8","0.4","0.6","","","","","0.6871277649","0.8534335227","0.6235929763","0.06982522498","","","","","","","","","","72","H","0","img/none_selected.jpg","","69","main_expt","",""
"","bandit","151","398457","0.0-111.0-0.0","65238417","wem/bandit_party_2","A62RZY5BWOZZM","either","3","836","","","","","","","0","1","0","","0.773099018","0.2","0.8","0.4","0.6","0.773099018","0.8915498471","0.5543620559","0.05029268469","","","","","","","","","","","","","","72","H","0","img/none_selected.jpg","","70","main_expt","",""
"","bandit","152","400509","0.0-112.0-0.0","65238417","wem/bandit_party_2","A62RZY5BWOZZM","either","3","524","","","","","","","0","0","1","0.7412476729","","0.2","0.8","0.4","0.6","","","","","0.7412476729","0.8736989015","0.5333999135","0.06413839938","","","","","","","","","","72","H","0","img/none_selected.jpg","","71","main_expt","",""
"","bandit","153","402398","0.0-113.0-0.0","65238417","wem/bandit_party_2","A62RZY5BWOZZM","either","3","346","","","","","","","0","1","0","","0.8080704968","0.2","0.8","0.4","0.6","0.8080704968","0.8837551658","0.5905126671","0.05155778705","","","","","","","","","","","","","","72","H","0","img/none_selected.jpg","","72","main_expt","",""
"","bandit","154","404355","0.0-114.0-0.0","65238417","wem/bandit_party_2","A62RZY5BWOZZM","either","3","421","","","","","","","1","0","0","0.8270016227","","0.2","0.8","0.4","0.6","","","","","0.8270016227","0.8495494246","0.6925119087","0.0232747386","","","","","","","","","","72","H","0","img/none_selected.jpg","","73","main_expt","",""
"","bandit","155","406291","0.0-115.0-0.0","65238417","wem/bandit_party_2","A62RZY5BWOZZM","either","3","407","","","","","","","1","0","0","0.7872017979","","0.2","0.8","0.4","0.6","","","","","0.7872017979","0.9127472651","0.7134745341","0.04751547773","","","","","","","","","","72","H","0","img/none_selected.jpg","","74","main_expt","",""
"","bandit","156","408387","0.0-116.0-0.0","65238417","wem/bandit_party_2","A62RZY5BWOZZM","either","3","567","","","","","","","0","1","0","","0.6167225576","0.2","0.8","0.4","0.6","0.6167225576","0.9199060817","0.8065440948","0.05282531612","","","","","","","","","","","","","","72","H","0","img/none_selected.jpg","","75","main_expt","",""
"","bandit","157","410317","0.0-117.0-0.0","65238417","wem/bandit_party_2","A62RZY5BWOZZM","either","3","392","","","","","","","1","0","0","0.637182095","","0.2","0.8","0.4","0.6","","","","","0.637182095","0.8691294168","0.7849172319","0.08738729654","","","","","","","","","","72","H","0","img/none_selected.jpg","","76","main_expt","",""
"","bandit","158","412219","0.0-118.0-0.0","65238417","wem/bandit_party_2","A62RZY5BWOZZM","either","3","372","","","","","","","0","0","1","","0.7169911294","0.2","0.8","0.4","0.6","0.7169911294","0.9111329321","0.7818962729","0.08851312664","","","","","","","","","","","","","","72","H","0","img/none_selected.jpg","","77","main_expt","",""
"","bandit","159","413926","0.0-119.0-0.0","65238417","wem/bandit_party_2","A62RZY5BWOZZM","either","3","180","","","","","","","0","1","0","","0.7446448061","0.2","0.8","0.4","0.6","0.7446448061","0.9286966754","0.7002933386","0.145228539","","","","","","","","","","","","","","72","H","0","img/none_selected.jpg","","78","main_expt","",""
"","bandit","160","415855","0.0-120.0-0.0","65238417","wem/bandit_party_2","A62RZY5BWOZZM","either","3","401","","","","","","","1","0","0","0.9616021792","","0.2","0.8","0.4","0.6","","","","","0.8152221547","0.9616021792","0.6510109529","0.1669860915","","","","","","","","","","74","J","1","","","79","main_expt","",""
"","bandit","161","417918","0.0-121.0-0.0","65238417","wem/bandit_party_2","A62RZY5BWOZZM","either","3","534","","","","","","","1","0","0","0.950571795","","0.2","0.8","0.4","0.6","","","","","0.810351938","0.950571795","0.6765614865","0.1922913003","","","","","","","","","","74","J","1","","","80","main_expt","",""
"","bandit","162","420157","0.0-122.0-0.0","65238417","wem/bandit_party_2","A62RZY5BWOZZM","either","3","712","","","","","","","1","0","0","0.9331160128","","0.2","0.8","0.4","0.6","","","","","0.8895110989","0.9331160128","0.5908869344","0.2407870914","","","","","","","","","","74","J","1","","","81","main_expt","",""
"","bandit","163","423009","0.0-123.0-0.0","65238417","wem/bandit_party_2","A62RZY5BWOZZM","either","3","1318","","","","","","","1","0","0","0.9465986336","","0.2","0.8","0.4","0.6","","","","","0.9046816681","0.9465986336","0.5267531711","0.3077898034","","","","","","","","","","74","J","1","","","82","main_expt","",""
"","bandit","164","425879","0.0-124.0-0.0","65238417","wem/bandit_party_2","A62RZY5BWOZZM","either","3","1336","","","","","","","0","0","1","","0.9371159138","0.2","0.8","0.4","0.6","0.8465278631","0.9371159138","0.6168373964","0.2337579628","","","","","","","","","","","","","","74","J","1","","","83","main_expt","",""
"","bandit","165","427424","0.0-125.0-0.0","65238417","wem/bandit_party_2","A62RZY5BWOZZM","either","3","13","","","","","","","1","0","0","0.8998840018","","0.2","0.8","0.4","0.6","","","","","0.7584930438","0.8998840018","0.5733990252","0.2781329454","","","","","","","","","","74","J","1","","","84","main_expt","",""
"","bandit","166","432266","0.0-126.0-0.0","65238417","wem/bandit_party_2","A62RZY5BWOZZM","either","3","3316","","","","","","","0","1","0","","0.9102188985","0.2","0.8","0.4","0.6","0.7727946294","0.9102188985","0.4719695616","0.3013149798","","","","","","","","","","","","","","74","J","1","","","85","main_expt","",""
"","bandit","167","434280","0.0-127.0-0.0","65238417","wem/bandit_party_2","A62RZY5BWOZZM","either","3","483","","","","","","","1","0","0","0.9000055418","","0.2","0.8","0.4","0.6","","","","","0.8216594778","0.9000055418","0.6941651786","0.3231836659","","","","","","","","","","74","J","1","","","86","main_expt","",""
"","bandit","168","436315","0.0-128.0-0.0","65238417","wem/bandit_party_2","A62RZY5BWOZZM","either","3","495","","","","","","","1","0","0","0.8563468124","","0.2","0.8","0.4","0.6","","","","","0.7833884788","0.8563468124","0.5408952125","0.3986379136","","","","","","","","","","74","J","1","","","87","main_expt","",""
"","bandit","169","438299","0.0-129.0-0.0","65238417","wem/bandit_party_2","A62RZY5BWOZZM","either","3","456","","","","","","","1","0","0","0.7349543302","","0.2","0.8","0.4","0.6","","","","","0.7804426693","0.7349543302","0.5438891422","0.4230151841","","","","","","","","","","74","J","1","","","88","main_expt","",""
"","bandit","170","440215","0.0-130.0-0.0","65238417","wem/bandit_party_2","A62RZY5BWOZZM","either","3","384","","","","","","","1","0","0","0.7907967515","","0.2","0.8","0.4","0.6","","","","","0.7930928848","0.7907967515","0.4294971294","0.3761858397","","","","","","","","","","74","J","1","","","89","main_expt","",""
"","bandit","171","442202","0.0-131.0-0.0","65238417","wem/bandit_party_2","A62RZY5BWOZZM","either","3","459","","","","","","","1","0","0","0.7883246469","","0.2","0.8","0.4","0.6","","","","","0.7683039237","0.7883246469","0.4928337868","0.4799086841","","","","","","","","","","74","J","1","","","90","main_expt","",""
"","bandit","172","444018","0.0-132.0-0.0","65238417","wem/bandit_party_2","A62RZY5BWOZZM","either","3","267","","","","","","","1","0","0","0.8389096604","","0.2","0.8","0.4","0.6","","","","","0.8072091422","0.8389096604","0.5655090935","0.4558425901","","","","","","","","","","74","J","1","","","91","main_expt","",""
"","bandit","173","445909","0.0-133.0-0.0","65238417","wem/bandit_party_2","A62RZY5BWOZZM","either","3","358","","","","","","","1","0","0","0.8064187158","","0.2","0.8","0.4","0.6","","","","","0.7791444337","0.8064187158","0.6154818033","0.3781515597","","","","","","","","","","74","J","1","","","92","main_expt","",""
"","bandit","174","447748","0.0-134.0-0.0","65238417","wem/bandit_party_2","A62RZY5BWOZZM","either","3","297","","","","","","","0","1","0","","0.7542368763","0.2","0.8","0.4","0.6","0.8498372391","0.7542368763","0.7381217307","0.2858753042","","","","","","","","","","","","","","74","J","1","","","93","main_expt","",""
"","bandit","175","449554","0.0-135.0-0.0","65238417","wem/bandit_party_2","A62RZY5BWOZZM","either","3","285","","","","","","","1","0","0","0.6932487021","","0.2","0.8","0.4","0.6","","","","","0.8440610374","0.6932487021","0.7776388333","0.3914428564","","","","","","","","","","74","J","1","","","94","main_expt","",""
"","bandit","176","451457","0.0-136.0-0.0","65238417","wem/bandit_party_2","A62RZY5BWOZZM","either","3","373","","","","","","","0","0","1","0.6706070003","","0.2","0.8","0.4","0.6","","","","","0.8092418145","0.6706070003","0.8299152283","0.3800018616","","","","","","","","","","74","J","1","","","95","main_expt","",""
"","bandit","177","453395","0.0-137.0-0.0","65238417","wem/bandit_party_2","A62RZY5BWOZZM","either","3","410","","","","","","","0","0","1","0.6670251336","","0.2","0.8","0.4","0.6","","","","","0.8655172998","0.6670251336","0.7697811485","0.3078584031","","","","","","","","","","74","J","1","","","96","main_expt","",""
"","bandit","178","455628","0.0-138.0-0.0","65238417","wem/bandit_party_2","A62RZY5BWOZZM","either","3","697","","","","","","","0","1","0","","0.7487724405","0.2","0.8","0.4","0.6","0.8735151232","0.7023758817","0.7487724405","0.218486712","","","","","","","","","","","","","","75","K","2","","","97","main_expt","",""
"","bandit","179","457522","0.0-139.0-0.0","65238417","wem/bandit_party_2","A62RZY5BWOZZM","either","3","367","","","","","","","1","0","0","0.7450583294","","0.2","0.8","0.4","0.6","","","","","0.84409386","0.7036518389","0.7450583294","0.2037628256","","","","","","","","","","75","K","2","","","98","main_expt","",""
"","bandit","180","459459","0.0-140.0-0.0","65238417","wem/bandit_party_2","A62RZY5BWOZZM","either","3","405","","","","","","","0","0","1","0.7227120129","","0.2","0.8","0.4","0.6","","","","","0.8089648913","0.8401346726","0.7227120129","0.2400196326","","","","","","","","","","75","K","2","","","99","main_expt","",""
"","bandit","181","461365","0.0-141.0-0.0","65238417","wem/bandit_party_2","A62RZY5BWOZZM","either","3","370","","","","","","","0","1","0","","0.5872141049","0.2","0.8","0.4","0.6","0.7259557377","0.8640782416","0.5872141049","0.3298222115","","","","","","","","","","","","","","75","K","2","","","100","main_expt","",""
"","bandit","182","463188","0.0-142.0-0.0","65238417","wem/bandit_party_2","A62RZY5BWOZZM","either","3","284","","","","","","","0","0","1","","0.6432213136","0.2","0.8","0.4","0.6","0.6332869741","0.8232172207","0.6432213136","0.3108047587","","","","","","","","","","","","","","75","K","2","","","101","main_expt","",""
"","bandit","183","464959","0.0-143.0-0.0","65238417","wem/bandit_party_2","A62RZY5BWOZZM","either","3","232","","","","","","","0","0","1","0.2869381514","","0.2","0.8","0.4","0.6","","","","","0.659443461","0.8451901448","0.6009476408","0.2869381514","","","","","","","","","","76","L","3","","","102","main_expt","",""
"","bandit","184","466637","0.0-144.0-0.0","65238417","wem/bandit_party_2","A62RZY5BWOZZM","either","3","150","","","","","","","0","0","1","","0.246485708","0.2","0.8","0.4","0.6","0.5959971703","0.8792283932","0.6120105745","0.246485708","","","","","","","","","","","","","","76","L","3","","","103","main_expt","",""
"","bandit","185","468272","0.0-145.0-0.0","65238417","wem/bandit_party_2","A62RZY5BWOZZM","either","3","108","","","","","","","0","1","0","","0.2175667678","0.2","0.8","0.4","0.6","0.5643630141","0.8887181638","0.6821098495","0.2175667678","","","","","","","","","","","","","","76","L","3","","","104","main_expt","",""
"","bandit","186","470212","0.0-146.0-0.0","65238417","wem/bandit_party_2","A62RZY5BWOZZM","either","3","411","","","","","","","0","1","0","","0.5489079514","0.2","0.8","0.4","0.6","0.5489079514","0.8013578166","0.7228510016","0.2645808036","","","","","","","","","","","","","","72","H","0","img/none_selected.jpg","","105","main_expt","",""
"","bandit","187","472074","0.0-147.0-0.0","65238417","wem/bandit_party_2","A62RZY5BWOZZM","either","3","330","","","","","","","0","0","1","","0.4336033326","0.2","0.8","0.4","0.6","0.4336033326","0.7307006529","0.6639212405","0.2652424516","","","","","","","","","","","","","","72","H","0","img/none_selected.jpg","","106","main_expt","",""
"","bandit","188","474149","0.0-148.0-0.0","65238417","wem/bandit_party_2","A62RZY5BWOZZM","either","3","544","","","","","","","0","0","1","0.4779201531","","0.2","0.8","0.4","0.6","","","","","0.4779201531","0.7519500851","0.6237034742","0.2481661544","","","","","","","","","","72","H","0","img/none_selected.jpg","","107","main_expt","",""
"","bandit","189","475707","0.0-149.0-0.0","65238417","wem/bandit_party_2","A62RZY5BWOZZM","either","3","29","","","","","","","0","1","0","","0.5075294874","0.2","0.8","0.4","0.6","0.5075294874","0.7457577851","0.5847293191","0.2361720859","","","","","","","","","","","","","","72","H","0","img/none_selected.jpg","","108","main_expt","",""
"","bandit","190","477629","0.0-150.0-0.0","65238417","wem/bandit_party_2","A62RZY5BWOZZM","either","3","389","","","","","","","1","0","0","0.77583868","","0.2","0.8","0.4","0.6","","","","","0.522842385","0.77583868","0.6260859175","0.2799679389","","","","","","","","","","74","J","1","","","109","main_expt","",""
"","bandit","191","479276","0.0-151.0-0.0","65238417","wem/bandit_party_2","A62RZY5BWOZZM","either","3","117","","","","","","","1","0","0","0.7520827962","","0.2","0.8","0.4","0.6","","","","","0.419893696","0.7520827962","0.4788227383","0.3333098602","","","","","","","","","","74","J","1","","","110","main_expt","",""
"","bandit","192","480867","0.0-152.0-0.0","65238417","wem/bandit_party_2","A62RZY5BWOZZM","either","3","75","","","","","","","0","0","1","0.6512809768","","0.2","0.8","0.4","0.6","","","","","0.431092028","0.6512809768","0.6019778282","0.3669732535","","","","","","","","","","74","J","1","","","111","main_expt","",""
"","bandit","193","482701","0.0-153.0-0.0","65238417","wem/bandit_party_2","A62RZY5BWOZZM","either","3","316","","","","","","","0","1","0","","0.5891937939","0.2","0.8","0.4","0.6","0.3590071368","0.5891937939","0.546445977","0.389765336","","","","","","","","","","","","","","74","J","1","","","112","main_expt","",""
"","bandit","194","484284","0.0-154.0-0.0","65238417","wem/bandit_party_2","A62RZY5BWOZZM","either","3","55","","","","","","","1","0","0","0.6490525038","","0.2","0.8","0.4","0.6","","","","","0.4498419114","0.6490525038","0.6256092846","0.3191506652","","","","","","","","","","74","J","1","","","113","main_expt","",""
"","bandit","195","486229","0.0-155.0-0.0","65238417","wem/bandit_party_2","A62RZY5BWOZZM","either","3","398","","","","","","","0","0","1","0.6283680234","","0.2","0.8","0.4","0.6","","","","","0.4829831469","0.6283680234","0.6577617598","0.2090321438","","","","","","","","","","74","J","1","","","114","main_expt","",""
"","bandit","196","489145","0.0-156.0-0.0","65238417","wem/bandit_party_2","A62RZY5BWOZZM","either","3","1386","","","","","","","0","0","1","","0.6064224059","0.2","0.8","0.4","0.6","0.4846695964","0.6064224059","0.7140476354","0.2094439124","","","","","","","","","","","","","","74","J","1","","","115","main_expt","",""
"","bandit","197","491968","0.0-157.0-0.0","65238417","wem/bandit_party_2","A62RZY5BWOZZM","either","3","1291","","","","","","","1","0","0","0.545813367","","0.2","0.8","0.4","0.6","","","","","0.5396909338","0.545813367","0.6589976567","0.2695181069","","","","","","","","","","74","J","1","","","116","main_expt","",""
"","bandit","198","493766","0.0-158.0-0.0","65238417","wem/bandit_party_2","A62RZY5BWOZZM","either","3","258","","","","","","","0","1","0","","0.5179373022","0.2","0.8","0.4","0.6","0.5378282835","0.5179373022","0.6937703341","0.3402036285","","","","","","","","","","","","","","74","J","1","","","117","main_expt","",""
"","bandit","199","495889","0.0-159.0-0.0","65238417","wem/bandit_party_2","A62RZY5BWOZZM","either","3","581","","","","","","","1","0","0","0.4014157923","","0.2","0.8","0.4","0.6","","","","","0.5729988564","0.4014157923","0.77114399","0.3101634078","","","","","","","","","","74","J","1","","","118","main_expt","",""
"","bandit","200","497969","0.0-160.0-0.0","65238417","wem/bandit_party_2","A62RZY5BWOZZM","either","3","554","","","","","","","0","0","1","0.4360264599","","0.2","0.8","0.4","0.6","","","","","0.5630251564","0.4360264599","0.710000291","0.3242193616","","","","","","","","","","74","J","1","","","119","main_expt","",""
"","bandit","201","500738","0.0-161.0-0.0","65238417","wem/bandit_party_2","A62RZY5BWOZZM","either","3","1226","","","","","","","0","0","1","","0.3297853269","0.2","0.8","0.4","0.6","0.6482115929","0.3297853269","0.6767982245","0.3334277272","","","","","","","","","","","","","","74","J","1","","","120","main_expt","",""
"","bandit","202","503971","0.0-162.0-0.0","65238417","wem/bandit_party_2","A62RZY5BWOZZM","either","3","1705","","","","","","","1","0","0","0.3767442019","","0.2","0.8","0.4","0.6","","","","","0.5688505083","0.3767442019","0.7360115258","0.4066521311","","","","","","","","","","74","J","1","","","121","main_expt","",""
"","bandit","203","506250","0.0-163.0-0.0","65238417","wem/bandit_party_2","A62RZY5BWOZZM","either","3","733","","","","","","","0","0","1","0.3589515546","","0.2","0.8","0.4","0.6","","","","","0.5349597204","0.3589515546","0.7258716992","0.5193034213","","","","","","","","","","74","J","1","","","122","main_expt","",""
"","bandit","204","508381","0.0-164.0-0.0","65238417","wem/bandit_party_2","A62RZY5BWOZZM","either","3","600","","","","","","","0","0","1","0.3461890545","","0.2","0.8","0.4","0.6","","","","","0.412887176","0.3461890545","0.7848203729","0.5594962391","","","","","","","","","","74","J","1","","","123","main_expt","",""
"","bandit","205","511137","0.0-165.0-0.0","65238417","wem/bandit_party_2","A62RZY5BWOZZM","either","3","1230","","","","","","","1","0","0","0.2287340519","","0.2","0.8","0.4","0.6","","","","","0.4137060999","0.2287340519","0.7673004895","0.6876014299","","","","","","","","","","74","J","1","","","124","main_expt","",""
"","bandit","206","512717","0.0-166.0-0.0","65238417","wem/bandit_party_2","A62RZY5BWOZZM","either","3","47","","","","","","","0","0","1","0.2900718705","","0.2","0.8","0.4","0.6","","","","","0.3226696341","0.2900718705","0.8020703208","0.7354493796","","","","","","","","","","74","J","1","","","125","main_expt","",""
"","bandit","207","514852","0.0-167.0-0.0","65238417","wem/bandit_party_2","A62RZY5BWOZZM","either","3","603","","","","","","","0","0","1","0.2880997441","","0.2","0.8","0.4","0.6","","","","","0.3904211026","0.2880997441","0.8196031782","0.76840964","","","","","","","","","","74","J","1","","","126","main_expt","",""
"","bandit","208","517479","0.0-168.0-0.0","65238417","wem/bandit_party_2","A62RZY5BWOZZM","either","3","1083","","","","","","","0","0","1","","0.3451069126","0.2","0.8","0.4","0.6","0.4227014292","0.3451069126","0.7095492128","0.7310750685","","","","","","","","","","","","","","74","J","1","","","127","main_expt","",""
"","bandit","209","519684","0.0-169.0-0.0","65238417","wem/bandit_party_2","A62RZY5BWOZZM","either","3","672","","","","","","","0","0","1","0.3129298861","","0.2","0.8","0.4","0.6","","","","","0.543317668","0.3129298861","0.711577854","0.6582635175","","","","","","","","","","74","J","1","","","128","main_expt","",""
"","bandit","210","521220","0.0-170.0-0.0","65238417","wem/bandit_party_2","A62RZY5BWOZZM","either","3","2","","","","","","","0","0","1","0.3507055597","","0.2","0.8","0.4","0.6","","","","","0.5906282681","0.3507055597","0.7022761705","0.7529887683","","","","","","","","","","74","J","1","","","129","main_expt","",""
"","bandit","211","522928","0.0-171.0-0.0","65238417","wem/bandit_party_2","A62RZY5BWOZZM","either","3","174","","","","","","","0","0","1","0.3753424236","","0.2","0.8","0.4","0.6","","","","","0.6636268631","0.3753424236","0.7309419319","0.7929301986","","","","","","","","","","74","J","1","","","130","main_expt","",""
"","bandit","212","526152","0.0-172.0-0.0","65238417","wem/bandit_party_2","A62RZY5BWOZZM","either","3","1690","","","","","","","0","0","1","","0.3473486375","0.2","0.8","0.4","0.6","0.5686699027","0.3473486375","0.6904825683","0.8149544693","","","","","","","","","","","","","","74","J","1","","","131","main_expt","",""
"","bandit","213","528107","0.0-173.0-0.0","65238417","wem/bandit_party_2","A62RZY5BWOZZM","either","3","418","","","","","","","1","0","0","0.303679922","","0.2","0.8","0.4","0.6","","","","","0.6564012045","0.303679922","0.7153166113","0.7626544417","","","","","","","","","","74","J","1","","","132","main_expt","",""
"","bandit","214","530079","0.0-174.0-0.0","65238417","wem/bandit_party_2","A62RZY5BWOZZM","either","3","443","","","","","","","0","0","1","0.3385565331","","0.2","0.8","0.4","0.6","","","","","0.5876654864","0.3385565331","0.8135501627","0.7584501248","","","","","","","","","","74","J","1","","","133","main_expt","",""
"","bandit","215","532283","0.0-175.0-0.0","65238417","wem/bandit_party_2","A62RZY5BWOZZM","either","3","661","","","","","","","1","0","0","0.3686406913","","0.2","0.8","0.4","0.6","","","","","0.5299368298","0.3686406913","0.7707892239","0.7905015291","","","","","","","","","","74","J","1","","","134","main_expt","",""
"","bandit","216","534199","0.0-176.0-0.0","65238417","wem/bandit_party_2","A62RZY5BWOZZM","either","3","380","","","","","","","0","0","1","0.3672202126","","0.2","0.8","0.4","0.6","","","","","0.4547966061","0.3672202126","0.7689088841","0.7515189777","","","","","","","","","","74","J","1","","","135","main_expt","",""
"","bandit","217","538953","0.0-177.0-0.0","65238417","wem/bandit_party_2","A62RZY5BWOZZM","either","3","3211","","","","","","","1","0","0","0.4064769993","","0.2","0.8","0.4","0.6","","","","","0.5290841583","0.4064769993","0.6641324257","0.7293518859","","","","","","","","","","74","J","1","","","136","main_expt","",""
"","bandit","218","541320","0.0-178.0-0.0","65238417","wem/bandit_party_2","A62RZY5BWOZZM","either","3","837","","","","","","","0","0","1","0.3492503667","","0.2","0.8","0.4","0.6","","","","","0.419904672","0.3492503667","0.635388201","0.7286216209","","","","","","","","","","74","J","1","","","137","main_expt","",""
"","bandit","219","543762","0.0-179.0-0.0","65238417","wem/bandit_party_2","A62RZY5BWOZZM","either","3","920","","","","","","","0","0","1","0.3315752647","","0.2","0.8","0.4","0.6","","","","","0.4532768315","0.3315752647","0.6889508363","0.7425921641","","","","","","","","","","74","J","1","","","138","main_expt","",""
"","bandit","220","545908","0.0-180.0-0.0","65238417","wem/bandit_party_2","A62RZY5BWOZZM","either","3","615","","","","","","","0","0","1","0.3080831972","","0.2","0.8","0.4","0.6","","","","","0.4194835996","0.3080831972","0.6481427694","0.7356638012","","","","","","","","","","74","J","1","","","139","main_expt","",""
"","bandit","221","547902","0.0-181.0-0.0","65238417","wem/bandit_party_2","A62RZY5BWOZZM","either","3","461","","","","","","","0","0","1","","0.3254670704","0.2","0.8","0.4","0.6","0.420008375","0.3254670704","0.6497449761","0.7334346803","","","","","","","","","","","","","","74","J","1","","","140","main_expt","",""
"","bandit","222","550306","0.0-182.0-0.0","65238417","wem/bandit_party_2","A62RZY5BWOZZM","either","3","872","","","","","","","0","1","0","","0.7328205829","0.2","0.8","0.4","0.6","0.3908595681","0.3452870884","0.7328205829","0.7737071977","","","","","","","","","","","","","","75","K","2","","","141","main_expt","",""
"","bandit","223","551910","0.0-183.0-0.0","65238417","wem/bandit_party_2","A62RZY5BWOZZM","either","3","74","","","","","","","1","0","0","0.6396752577","","0.2","0.8","0.4","0.6","","","","","0.3994278682","0.2659846132","0.6396752577","0.7912630164","","","","","","","","","","75","K","2","","","142","main_expt","",""
"","bandit","224","554389","0.0-184.0-0.0","65238417","wem/bandit_party_2","A62RZY5BWOZZM","either","3","936","","","","","","","0","1","0","","0.5974809775","0.2","0.8","0.4","0.6","0.3137486051","0.2549781044","0.5974809775","0.7709923268","","","","","","","","","","","","","","75","K","2","","","143","main_expt","",""
"","bandit","225","556504","0.0-185.0-0.0","65238417","wem/bandit_party_2","A62RZY5BWOZZM","either","3","590","","","","","","","0","1","0","","0.5953980303","0.2","0.8","0.4","0.6","0.3961992406","0.3603981418","0.5953980303","0.7492848764","","","","","","","","","","","","","","75","K","2","","","144","main_expt","",""
"","bandit","226","558560","0.0-186.0-0.0","65238417","wem/bandit_party_2","A62RZY5BWOZZM","either","3","524","","","","","","","0","1","0","","0.7343485297","0.2","0.8","0.4","0.6","0.3186856111","0.3682949958","0.6215671736","0.7343485297","","","","","","","","","","","","","","76","L","3","","","145","main_expt","",""
"","bandit","227","560560","0.0-187.0-0.0","65238417","wem/bandit_party_2","A62RZY5BWOZZM","either","3","469","","","","","","","1","0","0","0.7701032705","","0.2","0.8","0.4","0.6","","","","","0.2724247948","0.5028772858","0.5766937592","0.7701032705","","","","","","","","","","76","L","3","","","146","main_expt","",""
"","bandit","228","562594","0.0-188.0-0.0","65238417","wem/bandit_party_2","A62RZY5BWOZZM","either","3","502","","","","","","","0","1","0","","0.7521601774","0.2","0.8","0.4","0.6","0.2844288079","0.4186890645","0.4600492943","0.7521601774","","","","","","","","","","","","","","76","L","3","","","147","main_expt","",""
"","bandit","229","564634","0.0-189.0-0.0","65238417","wem/bandit_party_2","A62RZY5BWOZZM","either","3","513","","","","","","","0","0","1","","0.7762143641","0.2","0.8","0.4","0.6","0.3095389551","0.3928328601","0.4575448178","0.7762143641","","","","","","","","","","","","","","76","L","3","","","148","main_expt","",""
"","bandit","230","566579","0.0-190.0-0.0","65238417","wem/bandit_party_2","A62RZY5BWOZZM","either","3","402","","","","","","","1","0","0","0.716016993","","0.2","0.8","0.4","0.6","","","","","0.2464654743","0.4220063763","0.3840278576","0.716016993","","","","","","","","","","76","L","3","","","149","main_expt","",""
"","bandit","231","568582","0.0-191.0-0.0","65238417","wem/bandit_party_2","A62RZY5BWOZZM","either","3","461","","","","","","","0","1","0","","0.7182774931","0.2","0.8","0.4","0.6","0.2088091358","0.3206822378","0.3004406684","0.7182774931","","","","","","","","","","","","","","76","L","3","","","150","main_expt","",""
"","bandit","232","570490","0.0-192.0-0.0","65238417","wem/bandit_party_2","A62RZY5BWOZZM","either","3","375","","","","","","","0","1","0","","0.8028216805","0.2","0.8","0.4","0.6","0.2670014618","0.3380172956","0.2769981479","0.8028216805","","","","","","","","","","","","","","76","L","3","","","151","main_expt","",""
"","bandit","233","572386","0.0-193.0-0.0","65238417","wem/bandit_party_2","A62RZY5BWOZZM","either","3","357","","","","","","","1","0","0","0.8634692279","","0.2","0.8","0.4","0.6","","","","","0.3100930243","0.2461440624","0.40565407","0.8634692279","","","","","","","","","","76","L","3","","","152","main_expt","",""
"","bandit","234","574287","0.0-194.0-0.0","65238417","wem/bandit_party_2","A62RZY5BWOZZM","either","3","368","","","","","","","1","0","0","0.7719190238","","0.2","0.8","0.4","0.6","","","","","0.3796096158","0.1852716423","0.3829351634","0.7719190238","","","","","","","","","","76","L","3","","","153","main_expt","",""
"","bandit","235","576454","0.0-195.0-0.0","65238417","wem/bandit_party_2","A62RZY5BWOZZM","either","3","631","","","","","","","1","0","0","0.8343429945","","0.2","0.8","0.4","0.6","","","","","0.2265028128","0.1660439368","0.4912137185","0.8343429945","","","","","","","","","","76","L","3","","","154","main_expt","",""
"","bandit","236","578582","0.0-196.0-0.0","65238417","wem/bandit_party_2","A62RZY5BWOZZM","either","3","597","","","","","","","1","0","0","0.7908731232","","0.2","0.8","0.4","0.6","","","","","0.2135741777","0.2241607793","0.5312535156","0.7908731232","","","","","","","","","","76","L","3","","","155","main_expt","",""
"","bandit","237","581278","0.0-197.0-0.0","65238417","wem/bandit_party_2","A62RZY5BWOZZM","either","3","1162","","","","","","","0","0","1","0.7848911391","","0.2","0.8","0.4","0.6","","","","","0.1338357519","0.1566338899","0.5747898199","0.7848911391","","","","","","","","","","76","L","3","","","156","main_expt","",""
"","bandit","238","583060","0.0-198.0-0.0","65238417","wem/bandit_party_2","A62RZY5BWOZZM","either","3","247","","","","","","","0","1","0","","0.7467155263","0.2","0.8","0.4","0.6","0.1344370697","0.1839373886","0.5948125822","0.7467155263","","","","","","","","","","","","","","76","L","3","","","157","main_expt","",""
"","bandit","239","584631","0.0-199.0-0.0","65238417","wem/bandit_party_2","A62RZY5BWOZZM","either","3","40","","","","","","","0","0","1","","0.7413618202","0.2","0.8","0.4","0.6","0.1217930933","0.155802242","0.6533804049","0.7413618202","","","","","","","","","","","","","","76","L","3","","","158","main_expt","",""
"","bandit","240","586465","0.0-200.0-0.0","65238417","wem/bandit_party_2","A62RZY5BWOZZM","either","3","298","","","","","","","0","0","1","","0.6882043704","0.2","0.8","0.4","0.6","0.08524485746","0.2304237345","0.5777198579","0.6882043704","","","","","","","","","","","","","","76","L","3","","","159","main_expt","",""
"","bandit","241","588332","0.0-201.0-0.0","65238417","wem/bandit_party_2","A62RZY5BWOZZM","either","3","333","","","","","","","1","0","0","0.7253096401","","0.2","0.8","0.4","0.6","","","","","0.07332219892","0.2242026456","0.6777741118","0.7253096401","","","","","","","","","","76","L","3","","","160","main_expt","",""
"","bandit","242","590948","0.0-202.0-0.0","65238417","wem/bandit_party_2","A62RZY5BWOZZM","either","3","1079","","","","","","","1","0","0","0.6989182833","","0.2","0.8","0.4","0.6","","","","","0.1063489691","0.2708915048","0.6249074267","0.6989182833","","","","","","","","","","76","L","3","","","161","main_expt","",""
"","bandit","243","592762","0.0-203.0-0.0","65238417","wem/bandit_party_2","A62RZY5BWOZZM","either","3","273","","","","","","","1","0","0","0.7679575172","","0.2","0.8","0.4","0.6","","","","","0.09670310095","0.2921592604","0.6755041601","0.7679575172","","","","","","","","","","76","L","3","","","162","main_expt","",""
"","bandit","244","594661","0.0-204.0-0.0","65238417","wem/bandit_party_2","A62RZY5BWOZZM","either","3","366","","","","","","","1","0","0","0.6877390752","","0.2","0.8","0.4","0.6","","","","","0.1266359811","0.2050535257","0.6461818487","0.6877390752","","","","","","","","","","76","L","3","","","163","main_expt","",""
"","bandit","245","596743","0.0-205.0-0.0","65238417","wem/bandit_party_2","A62RZY5BWOZZM","either","3","552","","","","","","","0","0","1","0.6957575266","","0.2","0.8","0.4","0.6","","","","","0.1212611996","0.1998759094","0.76368027","0.6957575266","","","","","","","","","","76","L","3","","","164","main_expt","",""
"","bandit","246","600269","0.0-206.0-0.0","65238417","wem/bandit_party_2","A62RZY5BWOZZM","either","3","2002","","","","","","","1","0","0","0.6760148625","","0.2","0.8","0.4","0.6","","","","","0.1917887173","0.1821974317","0.8400099296","0.6760148625","","","","","","","","","","76","L","3","","","165","main_expt","",""
"","bandit","247","601878","0.0-207.0-0.0","65238417","wem/bandit_party_2","A62RZY5BWOZZM","either","3","67","","","","","","","1","0","0","0.6463317238","","0.2","0.8","0.4","0.6","","","","","0.1560613016","0.2916844583","0.8573275969","0.6463317238","","","","","","","","","","76","L","3","","","166","main_expt","",""
"","bandit","248","603881","0.0-208.0-0.0","65238417","wem/bandit_party_2","A62RZY5BWOZZM","either","3","470","","","","","","","0","1","0","","0.5613055562","0.2","0.8","0.4","0.6","0.2214887095","0.3087465624","0.7735369509","0.5613055562","","","","","","","","","","","","","","76","L","3","","","167","main_expt","",""
"","bandit","249","606072","0.0-209.0-0.0","65238417","wem/bandit_party_2","A62RZY5BWOZZM","either","3","657","","","","","","","0","0","1","0.5586162784","","0.2","0.8","0.4","0.6","","","","","0.3463453368","0.3896626528","0.8091314607","0.5586162784","","","","","","","","","","76","L","3","","","168","main_expt","",""
"","bandit","250","608468","0.0-210.0-0.0","65238417","wem/bandit_party_2","A62RZY5BWOZZM","either","3","856","","","","","","","0","1","0","","0.597448185","0.2","0.8","0.4","0.6","0.3222551453","0.4458805252","0.8364166478","0.597448185","","","","","","","","","","","","","","76","L","3","","","169","main_expt","",""
"","bandit","251","610903","0.0-211.0-0.0","65238417","wem/bandit_party_2","A62RZY5BWOZZM","either","3","899","","","","","","","0","1","0","","0.5351242352","0.2","0.8","0.4","0.6","0.2556410415","0.4844269655","0.7867883415","0.5351242352","","","","","","","","","","","","","","76","L","3","","","170","main_expt","",""
"","bandit","252","613248","0.0-212.0-0.0","65238417","wem/bandit_party_2","A62RZY5BWOZZM","either","3","811","","","","","","","0","0","1","","0.4819966971","0.2","0.8","0.4","0.6","0.2248109201","0.4858642724","0.8728822524","0.4819966971","","","","","","","","","","","","","","76","L","3","","","171","main_expt","",""
"","bandit","253","615729","0.0-213.0-0.0","65238417","wem/bandit_party_2","A62RZY5BWOZZM","either","3","939","","","","","","","0","1","0","","0.3468742366","0.2","0.8","0.4","0.6","0.3468742366","0.5060245996","0.7804912391","0.4038669266","","","","","","","","","","","","","","72","H","0","img/none_selected.jpg","","172","main_expt","",""
"","bandit","254","618317","0.0-214.0-0.0","65238417","wem/bandit_party_2","A62RZY5BWOZZM","either","3","1054","","","","","","","0","0","1","0.234408543","","0.2","0.8","0.4","0.6","","","","","0.234408543","0.5413528159","0.7728490534","0.3102533384","","","","","","","","","","72","H","0","img/none_selected.jpg","","173","main_expt","",""
"","bandit","255","620014","0.0-215.0-0.0","65238417","wem/bandit_party_2","A62RZY5BWOZZM","either","3","157","","","","","","","0","0","1","","0.1404050277","0.2","0.8","0.4","0.6","0.1404050277","0.6505326818","0.814185781","0.3818943333","","","","","","","","","","","","","","72","H","0","img/none_selected.jpg","","174","main_expt","",""
"","bandit","256","621662","0.0-216.0-0.0","65238417","wem/bandit_party_2","A62RZY5BWOZZM","either","3","111","","","","","","","0","0","1","","0.1081611795","0.2","0.8","0.4","0.6","0.1081611795","0.6470977149","0.8010682597","0.2893198216","","","","","","","","","","","","","","72","H","0","img/none_selected.jpg","","175","main_expt","",""
"","bandit","257","624206","0.0-217.0-0.0","65238417","wem/bandit_party_2","A62RZY5BWOZZM","either","3","1009","","","","","","","1","0","0","0.6844229635","","0.2","0.8","0.4","0.6","","","","","0.0730283124","0.6844229635","0.7083228223","0.226416223","","","","","","","","","","74","J","1","","","176","main_expt","",""
"","bandit","258","626267","0.0-218.0-0.0","65238417","wem/bandit_party_2","A62RZY5BWOZZM","either","3","519","","","","","","","1","0","0","0.6883244284","","0.2","0.8","0.4","0.6","","","","","0.07044941978","0.6883244284","0.7408938443","0.2786676386","","","","","","","","","","74","J","1","","","177","main_expt","",""
"","bandit","259","629476","0.0-219.0-0.0","65238417","wem/bandit_party_2","A62RZY5BWOZZM","either","3","1678","","","","","","","1","0","0","0.6098590842","","0.2","0.8","0.4","0.6","","","","","0.06886985111","0.6098590842","0.6621187214","0.2279078815","","","","","","","","","","74","J","1","","","178","main_expt","",""
"","bandit","260","631816","0.0-220.0-0.0","65238417","wem/bandit_party_2","A62RZY5BWOZZM","either","3","809","","","","","","","0","0","1","0.5924449164","","0.2","0.8","0.4","0.6","","","","","0.07254371148","0.5924449164","0.6765487854","0.1690126781","","","","","","","","","","74","J","1","","","179","main_expt","",""
"","bandit","261","633788","0.0-221.0-0.0","65238417","wem/bandit_party_2","A62RZY5BWOZZM","either","3","442","","","","","","","1","0","0","0.4915111467","","0.2","0.8","0.4","0.6","","","","","0.055057054","0.4915111467","0.7276027883","0.1356066944","","","","","","","","","","74","J","1","","","180","main_expt","",""
"","bandit","262","635325","0.0-222.0-0.0","65238417","wem/bandit_party_2","A62RZY5BWOZZM","either","3","0","","","","","","","1","0","0","0.4713933083","","0.2","0.8","0.4","0.6","","","","","0.1187845962","0.4713933083","0.7083410305","0.1889441784","","","","","","","","","","74","J","1","","","181","main_expt","",""
"","bandit","263","637639","0.0-223.0-0.0","65238417","wem/bandit_party_2","A62RZY5BWOZZM","either","3","757","","","","","","","1","0","0","0.500114893","","0.2","0.8","0.4","0.6","","","","","0.1304227184","0.500114893","0.6489729838","0.2163976064","","","","","","","","","","74","J","1","","","182","main_expt","",""
"","bandit","264","640780","0.0-224.0-0.0","65238417","wem/bandit_party_2","A62RZY5BWOZZM","either","3","1600","","","","","","","1","0","0","0.4949273894","","0.2","0.8","0.4","0.6","","","","","0.1374638341","0.4949273894","0.6956751073","0.1902524086","","","","","","","","","","74","J","1","","","183","main_expt","",""
"","bandit","265","642727","0.0-225.0-0.0","65238417","wem/bandit_party_2","A62RZY5BWOZZM","either","3","397","","","","","","","1","0","0","0.4271361476","","0.2","0.8","0.4","0.6","","","","","0.1914365344","0.4271361476","0.6066537109","0.2265805791","","","","","","","","","","74","J","1","","","184","main_expt","",""
"","bandit","266","646133","0.0-226.0-0.0","65238417","wem/bandit_party_2","A62RZY5BWOZZM","either","3","1853","","","","","","","1","0","0","0.4558255176","","0.2","0.8","0.4","0.6","","","","","0.1939872458","0.4558255176","0.6337362372","0.1843452782","","","","","","","","","","74","J","1","","","185","main_expt","",""
"","bandit","267","647783","0.0-227.0-0.0","65238417","wem/bandit_party_2","A62RZY5BWOZZM","either","3","122","","","","","","","1","0","0","0.4031301461","","0.2","0.8","0.4","0.6","","","","","0.2219937035","0.4031301461","0.5908962551","0.1898387663","","","","","","","","","","74","J","1","","","186","main_expt","",""
"","bandit","268","650779","0.0-228.0-0.0","65238417","wem/bandit_party_2","A62RZY5BWOZZM","either","3","1425","","","","","","","1","0","0","0.3993697366","","0.2","0.8","0.4","0.6","","","","","0.2024523472","0.3993697366","0.7651761031","0.210498268","","","","","","","","","","74","J","1","","","187","main_expt","",""
"","bandit","269","655235","0.0-229.0-0.0","65238417","wem/bandit_party_2","A62RZY5BWOZZM","either","3","2915","","","","","","","1","0","0","0.4478687375","","0.2","0.8","0.4","0.6","","","","","0.1930401344","0.4478687375","0.7928336054","0.2368649008","","","","","","","","","","74","J","1","","","188","main_expt","",""
"","bandit","270","657838","0.0-230.0-0.0","65238417","wem/bandit_party_2","A62RZY5BWOZZM","either","3","1065","","","","","","","0","0","1","0.3699601256","","0.2","0.8","0.4","0.6","","","","","0.3255404916","0.3699601256","0.8917358491","0.291591963","","","","","","","","","","74","J","1","","","189","main_expt","",""
"","bandit","271","660049","0.0-231.0-0.0","65238417","wem/bandit_party_2","A62RZY5BWOZZM","either","3","672","","","","","","","0","0","1","","0.3723251068","0.2","0.8","0.4","0.6","0.2364063212","0.3723251068","0.898448025","0.4411779124","","","","","","","","","","","","","","74","J","1","","","190","main_expt","",""
"","bandit","272","661878","0.0-232.0-0.0","65238417","wem/bandit_party_2","A62RZY5BWOZZM","either","3","293","","","","","","","0","1","0","","0.9186708851","0.2","0.8","0.4","0.6","0.2662767285","0.3309849287","0.9186708851","0.3968704403","","","","","","","","","","","","","","75","K","2","","","191","main_expt","",""
"","bandit","273","663804","0.0-233.0-0.0","65238417","wem/bandit_party_2","A62RZY5BWOZZM","either","3","389","","","","","","","1","0","0","0.9314477517","","0.2","0.8","0.4","0.6","","","","","0.2815174114","0.2865625263","0.9314477517","0.4512817608","","","","","","","","","","75","K","2","","","192","main_expt","",""
"","bandit","274","665724","0.0-234.0-0.0","65238417","wem/bandit_party_2","A62RZY5BWOZZM","either","3","387","","","","","","","1","0","0","0.9090465067","","0.2","0.8","0.4","0.6","","","","","0.3461293965","0.2862811746","0.9090465067","0.4788006455","","","","","","","","","","75","K","2","","","193","main_expt","",""
"","bandit","275","667604","0.0-235.0-0.0","65238417","wem/bandit_party_2","A62RZY5BWOZZM","either","3","350","","","","","","","0","1","0","","0.8762249788","0.2","0.8","0.4","0.6","0.3303735913","0.2785288642","0.8762249788","0.4651889587","","","","","","","","","","","","","","75","K","2","","","194","main_expt","",""
"","bandit","276","669168","0.0-236.0-0.0","65238417","wem/bandit_party_2","A62RZY5BWOZZM","either","3","30","","","","","","","1","0","0","0.8623185747","","0.2","0.8","0.4","0.6","","","","","0.3194565039","0.2283941808","0.8623185747","0.4718629942","","","","","","","","","","75","K","2","","","195","main_expt","",""
"","bandit","277","671130","0.0-237.0-0.0","65238417","wem/bandit_party_2","A62RZY5BWOZZM","either","3","421","","","","","","","0","0","1","","0.7745977574","0.2","0.8","0.4","0.6","0.4103944464","0.214282227","0.7745977574","0.3825708332","","","","","","","","","","","","","","75","K","2","","","196","main_expt","",""
"","bandit","278","672670","0.0-238.0-0.0","65238417","wem/bandit_party_2","A62RZY5BWOZZM","either","3","5","","","","","","","0","1","0","","0.4530864699","0.2","0.8","0.4","0.6","0.4445726534","0.1422959513","0.7723069829","0.4530864699","","","","","","","","","","","","","","76","L","3","","","197","main_expt","",""
"","bandit","279","678727","0.0-239.0-0.0","65238417","wem/bandit_party_2","A62RZY5BWOZZM","either","3","4516","","","","","","","1","0","0","0.7084082875","","0.2","0.8","0.4","0.6","","","","","0.4351718099","0.1126324943","0.7084082875","0.4337652667","","","","","","","","","","75","K","2","","","198","main_expt","",""
"","bandit","280","682515","0.0-240.0-0.0","65238417","wem/bandit_party_2","A62RZY5BWOZZM","either","3","2244","","","","","","","0","1","0","","0.7016883558","0.2","0.8","0.4","0.6","0.4641294157","0.1144166609","0.7016883558","0.4138332966","","","","","","","","","","","","","","75","K","2","","","199","main_expt","",""
"","bandit","281","684337","0.0-241.0-0.0","65238417","wem/bandit_party_2","A62RZY5BWOZZM","either","3","279","","","","","","","0","0","1","0.6504384346","","0.2","0.8","0.4","0.6","","","","","0.4468687069","0.1518003708","0.6504384346","0.5005175686","","","","","","","","","","75","K","2","","","200","main_expt","",""
"","bandit","282","689687","0.0-242.0-0.0","65238417","wem/bandit_party_2","A62RZY5BWOZZM","either","3","3809","","","","","","","0","0","1","0.1974433607","","0.2","0.8","0.4","0.6","","","","","0.5087435212","0.1974433607","0.7904945102","0.5122642399","","","","","","","","","","74","J","1","","","201","main_expt","",""
"","bandit","283","691271","0.0-243.0-0.0","65238417","wem/bandit_party_2","A62RZY5BWOZZM","either","3","45","","","","","","","0","0","1","0.2000842809","","0.2","0.8","0.4","0.6","","","","","0.4992132835","0.2000842809","0.7039472437","0.5414597976","","","","","","","","","","74","J","1","","","202","main_expt","",""
"","bandit","284","693166","0.0-244.0-0.0","65238417","wem/bandit_party_2","A62RZY5BWOZZM","either","3","357","","","","","","","0","0","1","0.1715580826","","0.2","0.8","0.4","0.6","","","","","0.4859842053","0.1715580826","0.7478807213","0.4993649945","","","","","","","","","","74","J","1","","","203","main_expt","",""
"","bandit","285","695143","0.0-245.0-0.0","65238417","wem/bandit_party_2","A62RZY5BWOZZM","either","3","426","","","","","","","0","0","1","","0.7346150791","0.2","0.8","0.4","0.6","0.6162755314","0.3028604286","0.7346150791","0.4056752737","","","","","","","","","","","","","","75","K","2","","","204","main_expt","",""
"","bandit","286","697049","0.0-246.0-0.0","65238417","wem/bandit_party_2","A62RZY5BWOZZM","either","3","367","","","","","","","0","1","0","","0.7240623961","0.2","0.8","0.4","0.6","0.6204906845","0.3714949669","0.7240623961","0.4174768156","","","","","","","","","","","","","","75","K","2","","","205","main_expt","",""
"","bandit","287","698785","0.0-247.0-0.0","65238417","wem/bandit_party_2","A62RZY5BWOZZM","either","3","191","","","","","","","1","0","0","0.733657826","","0.2","0.8","0.4","0.6","","","","","0.6390595606","0.3034865557","0.733657826","0.4364097613","","","","","","","","","","75","K","2","","","206","main_expt","",""
"","bandit","288","700776","0.0-248.0-0.0","65238417","wem/bandit_party_2","A62RZY5BWOZZM","either","3","444","","","","","","","0","1","0","","0.6797091947","0.2","0.8","0.4","0.6","0.6022157482","0.2688105372","0.6797091947","0.4666062126","","","","","","","","","","","","","","75","K","2","","","207","main_expt","",""
"","bandit","289","702701","0.0-249.0-0.0","65238417","wem/bandit_party_2","A62RZY5BWOZZM","either","3","389","","","","","","","0","0","1","0.472157919","","0.2","0.8","0.4","0.6","","","","","0.6598502583","0.2240001326","0.472157919","0.4594719295","","","","","","","","","","75","K","2","","","208","main_expt","",""
"","bandit","290","704556","0.0-250.0-0.0","65238417","wem/bandit_party_2","A62RZY5BWOZZM","either","3","322","","","","","","","0","0","1","","0.4993955773","0.2","0.8","0.4","0.6","0.6329069529","0.3284172364","0.4993955773","0.5415101973","","","","","","","","","","","","","","75","K","2","","","209","main_expt","",""
"","bandit","291","706271","0.0-251.0-0.0","65238417","wem/bandit_party_2","A62RZY5BWOZZM","either","3","167","","","","","","","0","0","1","0.3923888982","","0.2","0.8","0.4","0.6","","","","","0.5418549626","0.3178667136","0.3923888982","0.5627952802","","","","","","","","","","75","K","2","","","210","main_expt","",""
"","bandit","292","707809","0.0-252.0-0.0","65238417","wem/bandit_party_2","A62RZY5BWOZZM","either","3","1","","","","","","","0","0","1","","0.4183885941","0.2","0.8","0.4","0.6","0.7265410197","0.278360526","0.4183885941","0.5779033475","","","","","","","","","","","","","","75","K","2","","","211","main_expt","",""
"","bandit","293","709512","0.0-253.0-0.0","65238417","wem/bandit_party_2","A62RZY5BWOZZM","either","3","160","","","","","","","1","0","0","0.6169713091","","0.2","0.8","0.4","0.6","","","","","0.6550819281","0.2720231684","0.5367383083","0.6169713091","","","","","","","","","","76","L","3","","","212","main_expt","",""
"","bandit","294","711395","0.0-254.0-0.0","65238417","wem/bandit_party_2","A62RZY5BWOZZM","either","3","347","","","","","","","0","1","0","","0.5688165975","0.2","0.8","0.4","0.6","0.5812500281","0.3445332441","0.5779451767","0.5688165975","","","","","","","","","","","","","","76","L","3","","","213","main_expt","",""
"","bandit","295","713313","0.0-255.0-0.0","65238417","wem/bandit_party_2","A62RZY5BWOZZM","either","3","377","","","","","","","0","1","0","","0.5354690829","0.2","0.8","0.4","0.6","0.6912727382","0.331154659","0.5615700258","0.5354690829","","","","","","","","","","","","","","76","L","3","","","214","main_expt","",""
"","bandit","296","715193","0.0-256.0-0.0","65238417","wem/bandit_party_2","A62RZY5BWOZZM","either","3","341","","","","","","","1","0","0","0.4395706401","","0.2","0.8","0.4","0.6","","","","","0.695573978","0.3168016653","0.5361399643","0.4395706401","","","","","","","","","","76","L","3","","","215","main_expt","",""
"","bandit","297","717585","0.0-257.0-0.0","65238417","wem/bandit_party_2","A62RZY5BWOZZM","either","3","844","","","","","","","1","0","0","0.4522294324","","0.2","0.8","0.4","0.6","","","","","0.6531454011","0.2870858596","0.620750855","0.4522294324","","","","","","","","","","76","L","3","","","216","main_expt","",""
"","bandit","298","720389","0.0-258.0-0.0","65238417","wem/bandit_party_2","A62RZY5BWOZZM","either","3","1269","","","","","","","0","0","1","","0.4812239037","0.2","0.8","0.4","0.6","0.6459690495","0.2877345098","0.4812239037","0.4141575353","","","","","","","","","","","","","","75","K","2","","","217","main_expt","",""
"","bandit","299","723439","0.0-259.0-0.0","65238417","wem/bandit_party_2","A62RZY5BWOZZM","either","3","1511","","","","","","","0","0","1","","0.4028497994","0.2","0.8","0.4","0.6","0.6679944541","0.3608492067","0.4028497994","0.3009722504","","","","","","","","","","","","","","75","K","2","","","218","main_expt","",""
"","bandit","300","725605","0.0-260.0-0.0","65238417","wem/bandit_party_2","A62RZY5BWOZZM","either","3","631","","","","","","","1","0","0","0.4380407461","","0.2","0.8","0.4","0.6","","","","","0.7159195147","0.4380407461","0.4441021312","0.2706893249","","","","","","","","","","74","J","1","","","219","main_expt","",""
"","bandit","301","727148","0.0-261.0-0.0","65238417","wem/bandit_party_2","A62RZY5BWOZZM","either","3","2","","","","","","","0","0","1","","0.4769938592","0.2","0.8","0.4","0.6","0.6874484601","0.4769938592","0.4867825248","0.3821277721","","","","","","","","","","","","","","74","J","1","","","220","main_expt","",""
"","bandit","302","730289","0.0-262.0-0.0","65238417","wem/bandit_party_2","A62RZY5BWOZZM","either","3","1595","","","","","","","1","0","0","0.4612627877","","0.2","0.8","0.4","0.6","","","","","0.6528128226","0.4612627877","0.5428062785","0.4534214389","","","","","","","","","","74","J","1","","","221","main_expt","",""
"","bandit","303","731826","0.0-263.0-0.0","65238417","wem/bandit_party_2","A62RZY5BWOZZM","either","3","0","","","","","","","0","0","1","0.4192901336","","0.2","0.8","0.4","0.6","","","","","0.6836467719","0.4192901336","0.5993321864","0.6049712458","","","","","","","","","","74","J","1","","","222","main_expt","",""
"","bandit","304","734618","0.0-264.0-0.0","65238417","wem/bandit_party_2","A62RZY5BWOZZM","either","3","1256","","","","","","","1","0","0","0.5559965486","","0.2","0.8","0.4","0.6","","","","","0.7820879334","0.5559965486","0.4920604154","0.6389506418","","","","","","","","","","74","J","1","","","223","main_expt","",""
"","bandit","305","736436","0.0-265.0-0.0","65238417","wem/bandit_party_2","A62RZY5BWOZZM","either","3","285","","","","","","","0","0","1","0.6687933923","","0.2","0.8","0.4","0.6","","","","","0.763226653","0.6687933923","0.5344282052","0.6677375732","","","","","","","","","","74","J","1","","","224","main_expt","",""
"","bandit","306","738789","0.0-266.0-0.0","65238417","wem/bandit_party_2","A62RZY5BWOZZM","either","3","801","","","","","","","1","0","0","0.5954484576","","0.2","0.8","0.4","0.6","","","","","0.6931961842","0.5954484576","0.5583452501","0.7706853934","","","","","","","","","","74","J","1","","","225","main_expt","",""
"","bandit","307","741939","0.0-267.0-0.0","65238417","wem/bandit_party_2","A62RZY5BWOZZM","either","3","1612","","","","","","","1","0","0","0.6152447968","","0.2","0.8","0.4","0.6","","","","","0.6633974694","0.6152447968","0.5126042404","0.7624197083","","","","","","","","","","74","J","1","","","226","main_expt","",""
"","bandit","308","744809","0.0-268.0-0.0","65238417","wem/bandit_party_2","A62RZY5BWOZZM","either","3","1332","","","","","","","0","0","1","0.6597553912","","0.2","0.8","0.4","0.6","","","","","0.6567175756","0.6597553912","0.5720595628","0.7287840805","","","","","","","","","","74","J","1","","","227","main_expt","",""
"","bandit","309","746852","0.0-269.0-0.0","65238417","wem/bandit_party_2","A62RZY5BWOZZM","either","3","504","","","","","","","1","0","0","0.594895186","","0.2","0.8","0.4","0.6","","","","","0.6052730858","0.594895186","0.6134710885","0.7993891034","","","","","","","","","","74","J","1","","","228","main_expt","",""
"","bandit","310","749568","0.0-270.0-0.0","65238417","wem/bandit_party_2","A62RZY5BWOZZM","either","3","1174","","","","","","","0","1","0","","0.5722559027","0.2","0.8","0.4","0.6","0.5548990383","0.5722559027","0.5669106804","0.8374027748","","","","","","","","","","","","","","74","J","1","","","229","main_expt","",""
"","bandit","311","751508","0.0-271.0-0.0","65238417","wem/bandit_party_2","A62RZY5BWOZZM","either","3","398","","","","","","","1","0","0","0.5409090622","","0.2","0.8","0.4","0.6","","","","","0.6017114108","0.5409090622","0.6286782819","0.8414873787","","","","","","","","","","74","J","1","","","230","main_expt","",""
"","bandit","312","755254","0.0-272.0-0.0","65238417","wem/bandit_party_2","A62RZY5BWOZZM","either","3","2201","","","","","","","0","0","1","","0.518727512","0.2","0.8","0.4","0.6","0.5525336349","0.518727512","0.5594948871","0.8531648874","","","","","","","","","","","","","","74","J","1","","","231","main_expt","",""
"","bandit","313","756791","0.0-273.0-0.0","65238417","wem/bandit_party_2","A62RZY5BWOZZM","either","3","1","","","","","","","0","0","1","0.5200298571","","0.2","0.8","0.4","0.6","","","","","0.4493361955","0.5200298571","0.5817998964","0.8813812612","","","","","","","","","","74","J","1","","","232","main_expt","",""
"","bandit","314","759226","0.0-274.0-0.0","65238417","wem/bandit_party_2","A62RZY5BWOZZM","either","3","891","","","","","","","1","0","0","0.4564343731","","0.2","0.8","0.4","0.6","","","","","0.5280832246","0.4564343731","0.5971875981","0.8916766345","","","","","","","","","","74","J","1","","","233","main_expt","",""
"","bandit","315","761210","0.0-275.0-0.0","65238417","wem/bandit_party_2","A62RZY5BWOZZM","either","3","451","","","","","","","0","0","1","0.4168065644","","0.2","0.8","0.4","0.6","","","","","0.6814540918","0.4168065644","0.5227237997","0.842820862","","","","","","","","","","74","J","1","","","234","main_expt","",""
"","bandit","316","763301","0.0-276.0-0.0","65238417","wem/bandit_party_2","A62RZY5BWOZZM","either","3","560","","","","","","","0","0","1","0.4340770274","","0.2","0.8","0.4","0.6","","","","","0.5518959403","0.4340770274","0.6231997156","0.7856269381","","","","","","","","","","74","J","1","","","235","main_expt","",""
"","bandit","317","766652","0.0-277.0-0.0","65238417","wem/bandit_party_2","A62RZY5BWOZZM","either","3","1803","","","","","","","0","0","1","","0.4489205242","0.2","0.8","0.4","0.6","0.4965619817","0.4489205242","0.558272317","0.8092971262","","","","","","","","","","","","","","74","J","1","","","236","main_expt","",""
