"consent","trial_type","trial_index","time_elapsed","internal_node_id","subjID","study","MID","cond","drift","rt","responses","button_pressed","key_press","like","value","connected","gems","bombs","no_reward","GemPrChosen","BombPrChosen","GainOverPainPr_0","GainOverPainPr_1","GainOverPainPr_2","GainOverPainPr_3","LosePr_0","LosePr_1","LosePr_2","LosePr_3","WinPr_0","WinPr_1","WinPr_2","WinPr_3","Q0","Q1","Q2","gender","age","ethnicity","label","expt_phase","target","respCharCode","respKey","respChoiceNum","respChoice","practice","trial_counter","trial_label","Q0_index"
"GDM/GDM_behavioral_consent_30min_online.html","consent","0","8800","0.0-0.0","65390465","wem/bandit_party_2","A3QL8ZAD9BKWUF","either","3","","","","","","","","","","","","","","","","","","","","","","","","","","","","","","","","","","","","","","","","",""
"","survey-text","1","18224","0.0-1.0","65390465","wem/bandit_party_2","A3QL8ZAD9BKWUF","either","3","8418","{""Q0"":""A3QL8ZAD9BKWUF""}","","","","","","","","","","","","","","","","","","","","","","","","","","","","","","","","","","","","","","",""
"","button-response","2","21199","0.0-2.0","65390465","wem/bandit_party_2","A3QL8ZAD9BKWUF","either","3","1970","","0","","","","","","","","","","","","","","","","","","","","","","","","","","","","","","","","","","","","","",""
"","text-replacement","3","34699","0.0-3.0","65390465","wem/bandit_party_2","A3QL8ZAD9BKWUF","either","3","12495","","","32","","","","","","","","","","","","","","","","","","","","","","","","","","","","","","","","","","","","",""
"","text-replacement","4","42327","0.0-4.0","65390465","wem/bandit_party_2","A3QL8ZAD9BKWUF","either","3","7625","","","32","","","","","","","","","","","","","","","","","","","","","","","","","","","","","","","","","","","","",""
"","identification","5","46894","0.0-6.0-0.0","65390465","wem/bandit_party_2","A3QL8ZAD9BKWUF","either","3","4547","","","","5","4","5","","","","","","","","","","","","","","","","","","","","","","","","pre","identification_pre","the Republican Party","","","","","","","",""
"","identification","6","51759","0.0-6.0-1.0","65390465","wem/bandit_party_2","A3QL8ZAD9BKWUF","either","3","3842","","","","3","2","1","","","","","","","","","","","","","","","","","","","","","","","","pre","identification_pre","the Democratic Party","","","","","","","",""
"","text-replacement","7","63255","0.0-7.0","65390465","wem/bandit_party_2","A3QL8ZAD9BKWUF","either","3","10492","","","32","","","","","","","","","","","","","","","","","","","","","","","","","","","","","","","","","","","","",""
"","text-replacement","8","68479","0.0-8.0","65390465","wem/bandit_party_2","A3QL8ZAD9BKWUF","either","3","5221","","","32","","","","","","","","","","","","","","","","","","","","","","","","","","","","","","","","","","","","",""
"","text-replacement","9","80465","0.0-9.0","65390465","wem/bandit_party_2","A3QL8ZAD9BKWUF","either","3","11983","","","32","","","","","","","","","","","","","","","","","","","","","","","","","","","","","","","","","","","","",""
"","text-replacement","10","83845","0.0-10.0","65390465","wem/bandit_party_2","A3QL8ZAD9BKWUF","either","3","3378","","","32","","","","","","","","","","","","","","","","","","","","","","","","","","","","","","","","","","","","",""
"","text-replacement","11","93799","0.0-11.0","65390465","wem/bandit_party_2","A3QL8ZAD9BKWUF","either","3","9953","","","32","","","","","","","","","","","","","","","","","","","","","","","","","","","","","","","","","","","","",""
"","bandit","12","99771","0.0-12.0-0.0","65390465","wem/bandit_party_2","A3QL8ZAD9BKWUF","either","3","4459","","","","","","","0","0","1","0","0","","","","","0","","","","0","","","","","","","","","","","","","74","J","0","img/none_selected_demo.jpg","true","0","",""
"","bandit","13","102129","0.0-13.0-0.0","65390465","wem/bandit_party_2","A3QL8ZAD9BKWUF","either","3","846","","","","","","","0","0","1","0","0","","","","","0","","","","0","","","","","","","","","","","","","75","K","0","img/none_selected_demo.jpg","true","0","",""
"","text-replacement","14","107614","0.0-14.0","65390465","wem/bandit_party_2","A3QL8ZAD9BKWUF","either","3","5482","","","32","","","","","","","","","","","","","","","","","","","","","","","","","","","","","","","","","","","","",""
"","text-replacement","15","112249","0.0-15.0","65390465","wem/bandit_party_2","A3QL8ZAD9BKWUF","either","3","4634","","","32","","","","","","","","","","","","","","","","","","","","","","","","","","","","","","","","","","","","",""
"","text-replacement","16","117999","0.0-16.0","65390465","wem/bandit_party_2","A3QL8ZAD9BKWUF","either","3","5748","","","32","","","","","","","","","","","","","","","","","","","","","","","","","","","","","","","","","","","","",""
"","text-replacement","17","122258","0.0-17.0","65390465","wem/bandit_party_2","A3QL8ZAD9BKWUF","either","3","4256","","","32","","","","","","","","","","","","","","","","","","","","","","","","","","","","","","","","","","","","",""
"","bandit","18","124415","0.0-18.0-0.0","65390465","wem/bandit_party_2","A3QL8ZAD9BKWUF","either","3","650","","","","","","","0","0","1","0.2","","0.5","0.5","","","","","","","0.8","0.2","","","","","","","","","","","","75","K","1","","true","0","80_20_practice",""
"","bandit","19","126394","0.0-18.0-1.0","65390465","wem/bandit_party_2","A3QL8ZAD9BKWUF","either","3","468","","","","","","","0","0","1","","0.8","0.5","0.5","","","0.8","0.2","","","","","","","","","","","","","","","","74","J","0","img/none_selected_demo.jpg","true","0","80_20_practice",""
"","bandit","20","128432","0.0-18.0-2.0","65390465","wem/bandit_party_2","A3QL8ZAD9BKWUF","either","3","528","","","","","","","0","1","0","","0.2","0.5","0.5","","","0.8","0.2","","","","","","","","","","","","","","","","75","K","1","","true","0","80_20_practice",""
"","bandit","21","130616","0.0-18.0-3.0","65390465","wem/bandit_party_2","A3QL8ZAD9BKWUF","either","3","674","","","","","","","0","0","1","","0.8","0.5","0.5","","","0.8","0.2","","","","","","","","","","","","","","","","74","J","0","img/none_selected_demo.jpg","true","0","80_20_practice",""
"","bandit","22","132447","0.0-18.0-4.0","65390465","wem/bandit_party_2","A3QL8ZAD9BKWUF","either","3","323","","","","","","","0","0","1","0.2","","0.5","0.5","","","","","","","0.8","0.2","","","","","","","","","","","","75","K","1","","true","0","80_20_practice",""
"","bandit","23","134561","0.0-18.0-5.0","65390465","wem/bandit_party_2","A3QL8ZAD9BKWUF","either","3","605","","","","","","","0","0","1","","0.2","0.5","0.5","","","0.8","0.2","","","","","","","","","","","","","","","","75","K","1","","true","0","80_20_practice",""
"","bandit","24","136640","0.0-18.0-6.0","65390465","wem/bandit_party_2","A3QL8ZAD9BKWUF","either","3","572","","","","","","","0","0","1","0.2","","0.5","0.5","","","","","","","0.8","0.2","","","","","","","","","","","","75","K","1","","true","0","80_20_practice",""
"","bandit","25","138710","0.0-18.0-7.0","65390465","wem/bandit_party_2","A3QL8ZAD9BKWUF","either","3","562","","","","","","","1","0","0","0.8","","0.5","0.5","","","","","","","0.8","0.2","","","","","","","","","","","","74","J","0","img/none_selected_demo.jpg","true","0","80_20_practice",""
"","bandit","26","140744","0.0-18.0-8.0","65390465","wem/bandit_party_2","A3QL8ZAD9BKWUF","either","3","528","","","","","","","0","0","1","0.8","","0.5","0.5","","","","","","","0.8","0.2","","","","","","","","","","","","74","J","0","img/none_selected_demo.jpg","true","0","80_20_practice",""
"","bandit","27","142751","0.0-18.0-9.0","65390465","wem/bandit_party_2","A3QL8ZAD9BKWUF","either","3","498","","","","","","","1","0","0","0.8","","0.5","0.5","","","","","","","0.8","0.2","","","","","","","","","","","","74","J","0","img/none_selected_demo.jpg","true","0","80_20_practice",""
"","bandit","28","144771","0.0-18.0-10.0","65390465","wem/bandit_party_2","A3QL8ZAD9BKWUF","either","3","510","","","","","","","1","0","0","0.8","","0.5","0.5","","","","","","","0.8","0.2","","","","","","","","","","","","74","J","0","img/none_selected_demo.jpg","true","0","80_20_practice",""
"","bandit","29","146767","0.0-18.0-11.0","65390465","wem/bandit_party_2","A3QL8ZAD9BKWUF","either","3","487","","","","","","","0","1","0","","0.8","0.5","0.5","","","0.8","0.2","","","","","","","","","","","","","","","","74","J","0","img/none_selected_demo.jpg","true","0","80_20_practice",""
"","bandit","30","148790","0.0-18.0-12.0","65390465","wem/bandit_party_2","A3QL8ZAD9BKWUF","either","3","515","","","","","","","0","0","1","","0.8","0.5","0.5","","","0.8","0.2","","","","","","","","","","","","","","","","74","J","0","img/none_selected_demo.jpg","true","0","80_20_practice",""
"","bandit","31","150711","0.0-18.0-13.0","65390465","wem/bandit_party_2","A3QL8ZAD9BKWUF","either","3","410","","","","","","","0","1","0","","0.8","0.5","0.5","","","0.8","0.2","","","","","","","","","","","","","","","","74","J","0","img/none_selected_demo.jpg","true","0","80_20_practice",""
"","bandit","32","152865","0.0-18.0-14.0","65390465","wem/bandit_party_2","A3QL8ZAD9BKWUF","either","3","644","","","","","","","1","0","0","0.8","","0.5","0.5","","","","","","","0.8","0.2","","","","","","","","","","","","74","J","0","img/none_selected_demo.jpg","true","0","80_20_practice",""
"","bandit","33","154890","0.0-18.0-15.0","65390465","wem/bandit_party_2","A3QL8ZAD9BKWUF","either","3","516","","","","","","","1","0","0","0.8","","0.5","0.5","","","","","","","0.8","0.2","","","","","","","","","","","","74","J","0","img/none_selected_demo.jpg","true","0","80_20_practice",""
"","bandit","34","156951","0.0-18.0-16.0","65390465","wem/bandit_party_2","A3QL8ZAD9BKWUF","either","3","552","","","","","","","1","0","0","0.8","","0.5","0.5","","","","","","","0.8","0.2","","","","","","","","","","","","74","J","0","img/none_selected_demo.jpg","true","0","80_20_practice",""
"","bandit","35","159022","0.0-18.0-17.0","65390465","wem/bandit_party_2","A3QL8ZAD9BKWUF","either","3","566","","","","","","","0","1","0","","0.8","0.5","0.5","","","0.8","0.2","","","","","","","","","","","","","","","","74","J","0","img/none_selected_demo.jpg","true","0","80_20_practice",""
"","bandit","36","161074","0.0-18.0-18.0","65390465","wem/bandit_party_2","A3QL8ZAD9BKWUF","either","3","541","","","","","","","0","0","1","","0.8","0.5","0.5","","","0.8","0.2","","","","","","","","","","","","","","","","74","J","0","img/none_selected_demo.jpg","true","0","80_20_practice",""
"","bandit","37","163144","0.0-18.0-19.0","65390465","wem/bandit_party_2","A3QL8ZAD9BKWUF","either","3","559","","","","","","","1","0","0","0.8","","0.5","0.5","","","","","","","0.8","0.2","","","","","","","","","","","","74","J","0","img/none_selected_demo.jpg","true","0","80_20_practice",""
"","text-replacement","38","165731","0.0-19.0","65390465","wem/bandit_party_2","A3QL8ZAD9BKWUF","either","3","2584","","","32","","","","","","","","","","","","","","","","","","","","","","","","","","","","","","","","","","","","",""
"","bandit","39","167881","0.0-20.0-0.0","65390465","wem/bandit_party_2","A3QL8ZAD9BKWUF","either","3","640","","","","","","","1","0","0","1","0","","","","","0","1","","","1","0","","","","","","","","","","","","74","J","0","img/none_selected_demo.jpg","true","0","",""
"","text-replacement","40","172376","0.0-21.0","65390465","wem/bandit_party_2","A3QL8ZAD9BKWUF","either","3","4491","","","32","","","","","","","","","","","","","","","","","","","","","","","","","","","","","","","","","","","","",""
"","text-replacement","41","178106","0.0-22.0","65390465","wem/bandit_party_2","A3QL8ZAD9BKWUF","either","3","5727","","","32","","","","","","","","","","","","","","","","","","","","","","","","","","","","","","","","","","","","",""
"","text-replacement","42","180648","0.0-23.0","65390465","wem/bandit_party_2","A3QL8ZAD9BKWUF","either","3","2538","","","32","","","","","","","","","","","","","","","","","","","","","","","","","","","","","","","","","","","","",""
"","text-replacement","43","182325","0.0-24.0","65390465","wem/bandit_party_2","A3QL8ZAD9BKWUF","either","3","1674","","","32","","","","","","","","","","","","","","","","","","","","","","","","","","","","","","","","","","","","",""
"","text-replacement","44","184630","0.0-25.0","65390465","wem/bandit_party_2","A3QL8ZAD9BKWUF","either","3","2303","","","32","","","","","","","","","","","","","","","","","","","","","","","","","","","","","","","","","","","","",""
"","text-replacement","45","186566","0.0-26.0","65390465","wem/bandit_party_2","A3QL8ZAD9BKWUF","either","3","1932","","","32","","","","","","","","","","","","","","","","","","","","","","","","","","","","","","","","","","","","",""
"","text-replacement","46","188897","0.0-27.0","65390465","wem/bandit_party_2","A3QL8ZAD9BKWUF","either","3","2327","","","32","","","","","","","","","","","","","","","","","","","","","","","","","","","","","","","","","","","","",""
"","text-replacement","47","196485","0.0-28.0","65390465","wem/bandit_party_2","A3QL8ZAD9BKWUF","either","3","7586","","","32","","","","","","","","","","","","","","","","","","","","","","","","","","","","","","","","","","","","",""
"","text-replacement","48","200984","0.0-29.0","65390465","wem/bandit_party_2","A3QL8ZAD9BKWUF","either","3","4496","","","32","","","","","","","","","","","","","","","","","","","","","","","","","","","","","","","","","","","","",""
"","text-replacement","49","202280","0.0-30.0","65390465","wem/bandit_party_2","A3QL8ZAD9BKWUF","either","3","1292","","","32","","","","","","","","","","","","","","","","","","","","","","","","","","","","","","","","","","","","",""
"","text-replacement","50","205285","0.0-31.0","65390465","wem/bandit_party_2","A3QL8ZAD9BKWUF","either","3","3003","","","32","","","","","","","","","","","","","","","","","","","","","","","","","","","","","","","","","","","","",""
"","bandit","51","207070","0.0-32.0-0.0","65390465","wem/bandit_party_2","A3QL8ZAD9BKWUF","either","3","274","","","","","","","0","1","0","","0.8","0.5","0.5","0.5","0.5","0.8","0.2","0.6","0.2","","","","","","","","","","","","","","72","H","0","img/none_selected.jpg","true","0","full_practice",""
"","bandit","52","208942","0.0-32.0-1.0","65390465","wem/bandit_party_2","A3QL8ZAD9BKWUF","either","3","362","","","","","","","0","1","0","","0.8","0.5","0.5","0.5","0.5","0.8","0.2","0.6","0.2","","","","","","","","","","","","","","72","H","0","img/none_selected.jpg","true","0","full_practice",""
"","bandit","53","211133","0.0-32.0-2.0","65390465","wem/bandit_party_2","A3QL8ZAD9BKWUF","either","3","682","","","","","","","0","1","0","","0.8","0.5","0.5","0.5","0.5","0.8","0.2","0.6","0.2","","","","","","","","","","","","","","72","H","0","img/none_selected.jpg","true","0","full_practice",""
"","bandit","54","213225","0.0-32.0-3.0","65390465","wem/bandit_party_2","A3QL8ZAD9BKWUF","either","3","583","","","","","","","1","0","0","0.8","","0.5","0.5","0.5","0.5","","","","","0.8","0.2","0.6","0.2","","","","","","","","","","72","H","0","img/none_selected.jpg","true","0","full_practice",""
"","bandit","55","215246","0.0-32.0-4.0","65390465","wem/bandit_party_2","A3QL8ZAD9BKWUF","either","3","510","","","","","","","1","0","0","0.8","","0.5","0.5","0.5","0.5","","","","","0.8","0.2","0.6","0.2","","","","","","","","","","72","H","0","img/none_selected.jpg","true","0","full_practice",""
"","bandit","56","217327","0.0-32.0-5.0","65390465","wem/bandit_party_2","A3QL8ZAD9BKWUF","either","3","572","","","","","","","1","0","0","0.8","","0.5","0.5","0.5","0.5","","","","","0.8","0.2","0.6","0.2","","","","","","","","","","72","H","0","img/none_selected.jpg","true","0","full_practice",""
"","bandit","57","219343","0.0-32.0-6.0","65390465","wem/bandit_party_2","A3QL8ZAD9BKWUF","either","3","506","","","","","","","0","0","1","0.8","","0.5","0.5","0.5","0.5","","","","","0.8","0.2","0.6","0.2","","","","","","","","","","72","H","0","img/none_selected.jpg","true","0","full_practice",""
"","bandit","58","224207","0.0-32.0-7.0","65390465","wem/bandit_party_2","A3QL8ZAD9BKWUF","either","3","3354","","","","","","","0","0","1","0.8","","0.5","0.5","0.5","0.5","","","","","0.8","0.2","0.6","0.2","","","","","","","","","","72","H","0","img/none_selected.jpg","true","0","full_practice",""
"","bandit","59","226247","0.0-32.0-8.0","65390465","wem/bandit_party_2","A3QL8ZAD9BKWUF","either","3","529","","","","","","","0","0","1","","0.2","0.5","0.5","0.5","0.5","0.8","0.2","0.6","0.2","","","","","","","","","","","","","","74","J","1","","true","0","full_practice",""
"","bandit","60","228327","0.0-32.0-9.0","65390465","wem/bandit_party_2","A3QL8ZAD9BKWUF","either","3","571","","","","","","","0","0","1","0.6","","0.5","0.5","0.5","0.5","","","","","0.8","0.2","0.6","0.2","","","","","","","","","","75","K","2","","true","0","full_practice",""
"","bandit","61","230497","0.0-32.0-10.0","65390465","wem/bandit_party_2","A3QL8ZAD9BKWUF","either","3","660","","","","","","","1","0","0","0.2","","0.5","0.5","0.5","0.5","","","","","0.8","0.2","0.6","0.2","","","","","","","","","","76","L","3","","true","0","full_practice",""
"","bandit","62","232623","0.0-32.0-11.0","65390465","wem/bandit_party_2","A3QL8ZAD9BKWUF","either","3","616","","","","","","","0","0","1","0.2","","0.5","0.5","0.5","0.5","","","","","0.8","0.2","0.6","0.2","","","","","","","","","","76","L","3","","true","0","full_practice",""
"","bandit","63","234759","0.0-32.0-12.0","65390465","wem/bandit_party_2","A3QL8ZAD9BKWUF","either","3","624","","","","","","","0","0","1","","0.2","0.5","0.5","0.5","0.5","0.8","0.2","0.6","0.2","","","","","","","","","","","","","","76","L","3","","true","0","full_practice",""
"","bandit","64","237303","0.0-32.0-13.0","65390465","wem/bandit_party_2","A3QL8ZAD9BKWUF","either","3","1034","","","","","","","1","0","0","0.8","","0.5","0.5","0.5","0.5","","","","","0.8","0.2","0.6","0.2","","","","","","","","","","72","H","0","img/none_selected.jpg","true","0","full_practice",""
"","bandit","65","239407","0.0-32.0-14.0","65390465","wem/bandit_party_2","A3QL8ZAD9BKWUF","either","3","594","","","","","","","0","0","1","","0.8","0.5","0.5","0.5","0.5","0.8","0.2","0.6","0.2","","","","","","","","","","","","","","72","H","0","img/none_selected.jpg","true","0","full_practice",""
"","bandit","66","241470","0.0-32.0-15.0","65390465","wem/bandit_party_2","A3QL8ZAD9BKWUF","either","3","554","","","","","","","1","0","0","0.6","","0.5","0.5","0.5","0.5","","","","","0.8","0.2","0.6","0.2","","","","","","","","","","75","K","2","","true","0","full_practice",""
"","bandit","67","243550","0.0-32.0-16.0","65390465","wem/bandit_party_2","A3QL8ZAD9BKWUF","either","3","569","","","","","","","0","1","0","","0.6","0.5","0.5","0.5","0.5","0.8","0.2","0.6","0.2","","","","","","","","","","","","","","75","K","2","","true","0","full_practice",""
"","bandit","68","245638","0.0-32.0-17.0","65390465","wem/bandit_party_2","A3QL8ZAD9BKWUF","either","3","583","","","","","","","0","0","1","","0.6","0.5","0.5","0.5","0.5","0.8","0.2","0.6","0.2","","","","","","","","","","","","","","75","K","2","","true","0","full_practice",""
"","bandit","69","247711","0.0-32.0-18.0","65390465","wem/bandit_party_2","A3QL8ZAD9BKWUF","either","3","562","","","","","","","0","1","0","","0.6","0.5","0.5","0.5","0.5","0.8","0.2","0.6","0.2","","","","","","","","","","","","","","75","K","2","","true","0","full_practice",""
"","bandit","70","249751","0.0-32.0-19.0","65390465","wem/bandit_party_2","A3QL8ZAD9BKWUF","either","3","527","","","","","","","0","0","1","","0.6","0.5","0.5","0.5","0.5","0.8","0.2","0.6","0.2","","","","","","","","","","","","","","75","K","2","","true","0","full_practice",""
"","text","71","251590","0.0-33.0","65390465","wem/bandit_party_2","A3QL8ZAD9BKWUF","either","3","1823","","","32","","","","","","","","","","","","","","","","","","","","","","","","","","","","","","","","","","","","",""
"","text-replacement","72","272538","0.0-34.0","65390465","wem/bandit_party_2","A3QL8ZAD9BKWUF","either","3","19944","","","32","","","","","","","","","","","","","","","","","","","","","","","","","","","","","","","","","","","","",""
"","text-replacement","73","281271","0.0-35.0","65390465","wem/bandit_party_2","A3QL8ZAD9BKWUF","either","3","8728","","","32","","","","","","","","","","","","","","","","","","","","","","","","","","","","","","","","","","","","",""
"","text-replacement","74","285970","0.0-36.0","65390465","wem/bandit_party_2","A3QL8ZAD9BKWUF","either","3","4693","","","32","","","","","","","","","","","","","","","","","","","","","","","","","","","","","","","","","","","","",""
"","text-replacement","75","292687","0.0-37.0","65390465","wem/bandit_party_2","A3QL8ZAD9BKWUF","either","3","6711","","","32","","","","","","","","","","","","","","","","","","","","","","","","","","","","","","","","","","","","",""
"","text-replacement","76","294119","0.0-38.0","65390465","wem/bandit_party_2","A3QL8ZAD9BKWUF","either","3","1428","","","32","","","","","","","","","","","","","","","","","","","","","","","","","","","","","","","","","","","","",""
"","survey-multi-choice-replacement","77","306311","0.0-39.0-0.0","65390465","wem/bandit_party_2","A3QL8ZAD9BKWUF","either","3","12178","","","","","","","","","","","","","","","","","","","","","","","","Money will be added to the pool for <span style='color:red;'>REPUBLICANS</span>","","","","","","","attn_check","","","","","","","","","0"
"","survey-multi-choice-replacement","78","311262","0.0-40.0-0.0","65390465","wem/bandit_party_2","A3QL8ZAD9BKWUF","either","3","3937","","","","","","","","","","","","","","","","","","","","","","","","Equal amounts of money will be added to the pool for <span style='color:red;'>REPUBLICANS</span> and subtracted from the pool for <span style='color:blue;'>DEMOCRATS</span>","","","","","","","attn_check","","","","","","","","","2"
"","survey-multi-choice-replacement","79","315174","0.0-41.0-0.0","65390465","wem/bandit_party_2","A3QL8ZAD9BKWUF","either","3","2894","","","","","","","","","","","","","","","","","","","","","","","","No money will be added to either pool","","","","","","","attn_check","","","","","","","","","3"
"","bandit","80","319318","0.0-42.0-0.0","65390465","wem/bandit_party_2","A3QL8ZAD9BKWUF","either","3","1633","","","","","","","0","1","0","","0.6473934842","0.6","0.4","0.2","0.8","0.6473934842","0.4261870849","0.1387034319","0.6494041588","","","","","","","","","","","","","","72","H","0","img/none_selected.jpg","","1","main_expt",""
"","bandit","81","321018","0.0-43.0-0.0","65390465","wem/bandit_party_2","A3QL8ZAD9BKWUF","either","3","188","","","","","","","0","1","0","","0.5221866694","0.6","0.4","0.2","0.8","0.5221866694","0.3223101542","0.2166337036","0.7608835745","","","","","","","","","","","","","","72","H","0","img/none_selected.jpg","","2","main_expt",""
"","bandit","82","322751","0.0-44.0-0.0","65390465","wem/bandit_party_2","A3QL8ZAD9BKWUF","either","3","222","","","","","","","0","1","0","","0.5356292978","0.6","0.4","0.2","0.8","0.5356292978","0.2541217019","0.3253899216","0.7745567172","","","","","","","","","","","","","","72","H","0","img/none_selected.jpg","","3","main_expt",""
"","bandit","83","324480","0.0-45.0-0.0","65390465","wem/bandit_party_2","A3QL8ZAD9BKWUF","either","3","218","","","","","","","1","0","0","0.5154592071","","0.6","0.4","0.2","0.8","","","","","0.5154592071","0.2272043942","0.3003293127","0.8315703218","","","","","","","","","","72","H","0","img/none_selected.jpg","","4","main_expt",""
"","bandit","84","326237","0.0-46.0-0.0","65390465","wem/bandit_party_2","A3QL8ZAD9BKWUF","either","3","245","","","","","","","1","0","0","0.4578896037","","0.6","0.4","0.2","0.8","","","","","0.4578896037","0.2967729676","0.3839660868","0.8380789219","","","","","","","","","","72","H","0","img/none_selected.jpg","","5","main_expt",""
"","bandit","85","327965","0.0-47.0-0.0","65390465","wem/bandit_party_2","A3QL8ZAD9BKWUF","either","3","220","","","","","","","1","0","0","0.4825789634","","0.6","0.4","0.2","0.8","","","","","0.4825789634","0.3211998527","0.3833463511","0.8233568153","","","","","","","","","","72","H","0","img/none_selected.jpg","","6","main_expt",""
"","bandit","86","329694","0.0-48.0-0.0","65390465","wem/bandit_party_2","A3QL8ZAD9BKWUF","either","3","217","","","","","","","0","1","0","","0.4013658759","0.6","0.4","0.2","0.8","0.4013658759","0.4190649117","0.3173395401","0.8672840292","","","","","","","","","","","","","","72","H","0","img/none_selected.jpg","","7","main_expt",""
"","bandit","87","331497","0.0-49.0-0.0","65390465","wem/bandit_party_2","A3QL8ZAD9BKWUF","either","3","293","","","","","","","0","0","1","0.3721769634","","0.6","0.4","0.2","0.8","","","","","0.3721769634","0.5253498774","0.3265190876","0.7921451217","","","","","","","","","","72","H","0","img/none_selected.jpg","","8","main_expt",""
"","bandit","88","333143","0.0-50.0-0.0","65390465","wem/bandit_party_2","A3QL8ZAD9BKWUF","either","3","136","","","","","","","0","0","1","0.3934089605","","0.6","0.4","0.2","0.8","","","","","0.3934089605","0.5552176016","0.4229840653","0.7826569337","","","","","","","","","","72","H","0","img/none_selected.jpg","","9","main_expt",""
"","bandit","89","334878","0.0-51.0-0.0","65390465","wem/bandit_party_2","A3QL8ZAD9BKWUF","either","3","217","","","","","","","0","1","0","","0.654745146","0.6","0.4","0.2","0.8","0.3360942297","0.654745146","0.5107168356","0.7150392401","","","","","","","","","","","","","","74","J","1","","","10","main_expt",""
"","bandit","90","336663","0.0-52.0-0.0","65390465","wem/bandit_party_2","A3QL8ZAD9BKWUF","either","3","275","","","","","","","0","1","0","","0.6089063278","0.6","0.4","0.2","0.8","0.4969537907","0.6089063278","0.4383577931","0.6906605055","","","","","","","","","","","","","","74","J","1","","","11","main_expt",""
"","bandit","91","338471","0.0-53.0-0.0","65390465","wem/bandit_party_2","A3QL8ZAD9BKWUF","either","3","298","","","","","","","0","1","0","","0.559155858","0.6","0.4","0.2","0.8","0.4760264401","0.559155858","0.5487148549","0.6725575113","","","","","","","","","","","","","","74","J","1","","","12","main_expt",""
"","bandit","92","340238","0.0-54.0-0.0","65390465","wem/bandit_party_2","A3QL8ZAD9BKWUF","either","3","254","","","","","","","1","0","0","0.6464491645","","0.6","0.4","0.2","0.8","","","","","0.4008761295","0.6464491645","0.7407599438","0.7404599176","","","","","","","","","","74","J","1","","","13","main_expt",""
"","bandit","93","341984","0.0-55.0-0.0","65390465","wem/bandit_party_2","A3QL8ZAD9BKWUF","either","3","236","","","","","","","0","1","0","","0.6936958995","0.6","0.4","0.2","0.8","0.358486362","0.6936958995","0.8307131687","0.6751607758","","","","","","","","","","","","","","74","J","1","","","14","main_expt",""
"","bandit","94","343798","0.0-56.0-0.0","65390465","wem/bandit_party_2","A3QL8ZAD9BKWUF","either","3","308","","","","","","","1","0","0","0.731471075","","0.6","0.4","0.2","0.8","","","","","0.395258373","0.731471075","0.8114394421","0.6115440925","","","","","","","","","","74","J","1","","","15","main_expt",""
"","bandit","95","345550","0.0-57.0-0.0","65390465","wem/bandit_party_2","A3QL8ZAD9BKWUF","either","3","240","","","","","","","1","0","0","0.6487541525","","0.6","0.4","0.2","0.8","","","","","0.4197334966","0.6487541525","0.8242397169","0.7019001419","","","","","","","","","","74","J","1","","","16","main_expt",""
"","bandit","96","347317","0.0-58.0-0.0","65390465","wem/bandit_party_2","A3QL8ZAD9BKWUF","either","3","257","","","","","","","0","1","0","","0.7654634758","0.6","0.4","0.2","0.8","0.2160816064","0.7654634758","0.8317633157","0.7017998","","","","","","","","","","","","","","74","J","1","","","17","main_expt",""
"","bandit","97","349080","0.0-59.0-0.0","65390465","wem/bandit_party_2","A3QL8ZAD9BKWUF","either","3","251","","","","","","","0","1","0","","0.7160830043","0.6","0.4","0.2","0.8","0.2058632209","0.7160830043","0.8158638682","0.7672473748","","","","","","","","","","","","","","74","J","1","","","18","main_expt",""
"","bandit","98","350774","0.0-60.0-0.0","65390465","wem/bandit_party_2","A3QL8ZAD9BKWUF","either","3","183","","","","","","","1","0","0","0.6856656502","","0.6","0.4","0.2","0.8","","","","","0.2314559036","0.6856656502","0.8291878069","0.7950219121","","","","","","","","","","74","J","1","","","19","main_expt",""
"","bandit","99","352544","0.0-61.0-0.0","65390465","wem/bandit_party_2","A3QL8ZAD9BKWUF","either","3","260","","","","","","","0","0","1","0.6829400921","","0.6","0.4","0.2","0.8","","","","","0.1762066147","0.6829400921","0.8665153398","0.8460513568","","","","","","","","","","74","J","1","","","20","main_expt",""
"","bandit","100","354285","0.0-62.0-0.0","65390465","wem/bandit_party_2","A3QL8ZAD9BKWUF","either","3","235","","","","","","","0","1","0","","0.6849203215","0.6","0.4","0.2","0.8","0.150477598","0.6849203215","0.8181415858","0.8571228725","","","","","","","","","","","","","","74","J","1","","","21","main_expt",""
"","bandit","101","356104","0.0-63.0-0.0","65390465","wem/bandit_party_2","A3QL8ZAD9BKWUF","either","3","307","","","","","","","0","1","0","","0.6832197831","0.6","0.4","0.2","0.8","0.1957635407","0.6832197831","0.7731960963","0.8498483749","","","","","","","","","","","","","","74","J","1","","","22","main_expt",""
"","bandit","102","357870","0.0-64.0-0.0","65390465","wem/bandit_party_2","A3QL8ZAD9BKWUF","either","3","256","","","","","","","0","1","0","","0.6103957523","0.6","0.4","0.2","0.8","0.2193187944","0.6103957523","0.8004626553","0.887495535","","","","","","","","","","","","","","74","J","1","","","23","main_expt",""
"","bandit","103","359542","0.0-65.0-0.0","65390465","wem/bandit_party_2","A3QL8ZAD9BKWUF","either","3","160","","","","","","","0","1","0","","0.5485819736","0.6","0.4","0.2","0.8","0.1836328706","0.5485819736","0.7941911222","0.918231735","","","","","","","","","","","","","","74","J","1","","","24","main_expt",""
"","bandit","104","361213","0.0-66.0-0.0","65390465","wem/bandit_party_2","A3QL8ZAD9BKWUF","either","3","161","","","","","","","0","0","1","0.5852935809","","0.6","0.4","0.2","0.8","","","","","0.1410441375","0.5852935809","0.7100633829","0.9111146318","","","","","","","","","","74","J","1","","","25","main_expt",""
"","bandit","105","362955","0.0-67.0-0.0","65390465","wem/bandit_party_2","A3QL8ZAD9BKWUF","either","3","229","","","","","","","0","0","1","","0.6097892937","0.6","0.4","0.2","0.8","0.1082593399","0.6097892937","0.6872129375","0.9190640316","","","","","","","","","","","","","","74","J","1","","","26","main_expt",""
"","bandit","106","364719","0.0-68.0-0.0","65390465","wem/bandit_party_2","A3QL8ZAD9BKWUF","either","3","253","","","","","","","1","0","0","0.9372614837","","0.6","0.4","0.2","0.8","","","","","0.1042047793","0.6653335402","0.6798864795","0.9372614837","","","","","","","","","","76","L","3","","","27","main_expt",""
"","bandit","107","366437","0.0-69.0-0.0","65390465","wem/bandit_party_2","A3QL8ZAD9BKWUF","either","3","210","","","","","","","1","0","0","0.9269484959","","0.6","0.4","0.2","0.8","","","","","0.1153509117","0.6850825106","0.6812343762","0.9269484959","","","","","","","","","","76","L","3","","","28","main_expt",""
"","bandit","108","368246","0.0-70.0-0.0","65390465","wem/bandit_party_2","A3QL8ZAD9BKWUF","either","3","297","","","","","","","1","0","0","0.9376772981","","0.6","0.4","0.2","0.8","","","","","0.1601566248","0.7309016742","0.5305157647","0.9376772981","","","","","","","","","","76","L","3","","","29","main_expt",""
"","bandit","109","369974","0.0-71.0-0.0","65390465","wem/bandit_party_2","A3QL8ZAD9BKWUF","either","3","217","","","","","","","1","0","0","0.8795505253","","0.6","0.4","0.2","0.8","","","","","0.09548927903","0.8141980113","0.4713174284","0.8795505253","","","","","","","","","","76","L","3","","","30","main_expt",""
"","bandit","110","371654","0.0-72.0-0.0","65390465","wem/bandit_party_2","A3QL8ZAD9BKWUF","either","3","173","","","","","","","1","0","0","0.8605863748","","0.6","0.4","0.2","0.8","","","","","0.09272353297","0.8926711601","0.2938490869","0.8605863748","","","","","","","","","","76","L","3","","","31","main_expt",""
"","bandit","111","373376","0.0-73.0-0.0","65390465","wem/bandit_party_2","A3QL8ZAD9BKWUF","either","3","210","","","","","","","0","1","0","","0.757600507","0.6","0.4","0.2","0.8","0.09547929832","0.8397563013","0.3005160425","0.757600507","","","","","","","","","","","","","","76","L","3","","","32","main_expt",""
"","bandit","112","374894","0.0-74.0-0.0","65390465","wem/bandit_party_2","A3QL8ZAD9BKWUF","either","3","7","","","","","","","1","0","0","0.7257103923","","0.6","0.4","0.2","0.8","","","","","0.08683876107","0.8251988787","0.3661211491","0.7257103923","","","","","","","","","","76","L","3","","","33","main_expt",""
"","bandit","113","376437","0.0-75.0-0.0","65390465","wem/bandit_party_2","A3QL8ZAD9BKWUF","either","3","33","","","","","","","0","0","1","","0.5786815464","0.6","0.4","0.2","0.8","0.08117088791","0.7303528712","0.4614725573","0.5786815464","","","","","","","","","","","","","","76","L","3","","","34","main_expt",""
"","bandit","114","378142","0.0-76.0-0.0","65390465","wem/bandit_party_2","A3QL8ZAD9BKWUF","either","3","196","","","","","","","0","0","1","0.4812266686","","0.6","0.4","0.2","0.8","","","","","0.09593582107","0.8093673003","0.4597324626","0.4812266686","","","","","","","","","","76","L","3","","","35","main_expt",""
"","bandit","115","380241","0.0-77.0-0.0","65390465","wem/bandit_party_2","A3QL8ZAD9BKWUF","either","3","584","","","","","","","0","0","1","","0.4294742096","0.6","0.4","0.2","0.8","0.1392988708","0.79718131","0.4294742096","0.4459447539","","","","","","","","","","","","","","75","K","2","","","36","main_expt",""
"","bandit","116","382000","0.0-78.0-0.0","65390465","wem/bandit_party_2","A3QL8ZAD9BKWUF","either","3","246","","","","","","","0","0","1","","0.5301274199","0.6","0.4","0.2","0.8","0.07673209605","0.8157762275","0.5301274199","0.5737218407","","","","","","","","","","","","","","75","K","2","","","37","main_expt",""
"","bandit","117","384266","0.0-79.0-0.0","65390465","wem/bandit_party_2","A3QL8ZAD9BKWUF","either","3","303","","","","","","","0","0","1","","0.1078843958","0.6","0.4","0.2","0.8","0.1078843958","0.7941499978","0.5746889943","0.6008421093","","","","","","","","","","","","","","72","H","0","img/none_selected.jpg","","38","main_expt",""
"","bandit","118","387565","0.0-80.0-0.0","65390465","wem/bandit_party_2","A3QL8ZAD9BKWUF","either","3","1788","","","","","","","0","0","1","","0.09731722171","0.6","0.4","0.2","0.8","0.09731722171","0.7352357368","0.6621100331","0.6076920036","","","","","","","","","","","","","","72","H","0","img/none_selected.jpg","","39","main_expt",""
"","bandit","119","389350","0.0-81.0-0.0","65390465","wem/bandit_party_2","A3QL8ZAD9BKWUF","either","3","272","","","","","","","0","0","1","","0.7920886563","0.6","0.4","0.2","0.8","0.2123509389","0.7920886563","0.6794361822","0.6616622706","","","","","","","","","","","","","","74","J","1","","","40","main_expt",""
"","bandit","120","391126","0.0-82.0-0.0","65390465","wem/bandit_party_2","A3QL8ZAD9BKWUF","either","3","265","","","","","","","0","0","1","0.8780543775","","0.6","0.4","0.2","0.8","","","","","0.1265365425","0.8780543775","0.7140523024","0.6945341382","","","","","","","","","","74","J","1","","","41","main_expt",""
"","bandit","121","392926","0.0-83.0-0.0","65390465","wem/bandit_party_2","A3QL8ZAD9BKWUF","either","3","287","","","","","","","0","0","1","","0.6669732994","0.6","0.4","0.2","0.8","0.166138795","0.9167256642","0.6669732994","0.6833149102","","","","","","","","","","","","","","75","K","2","","","42","main_expt",""
"","bandit","122","394712","0.0-84.0-0.0","65390465","wem/bandit_party_2","A3QL8ZAD9BKWUF","either","3","272","","","","","","","0","1","0","","0.5435093165","0.6","0.4","0.2","0.8","0.1782339186","0.9407985187","0.5435093165","0.7094953576","","","","","","","","","","","","","","75","K","2","","","43","main_expt",""
"","bandit","123","396565","0.0-85.0-0.0","65390465","wem/bandit_party_2","A3QL8ZAD9BKWUF","either","3","343","","","","","","","0","0","1","","0.6002661395","0.6","0.4","0.2","0.8","0.1342945815","0.9000978766","0.6002661395","0.7519468023","","","","","","","","","","","","","","75","K","2","","","44","main_expt",""
"","bandit","124","398366","0.0-86.0-0.0","65390465","wem/bandit_party_2","A3QL8ZAD9BKWUF","either","3","294","","","","","","","0","1","0","","0.5948203474","0.6","0.4","0.2","0.8","0.09086288848","0.9190036262","0.5948203474","0.7673203249","","","","","","","","","","","","","","75","K","2","","","45","main_expt",""
"","bandit","125","400183","0.0-87.0-0.0","65390465","wem/bandit_party_2","A3QL8ZAD9BKWUF","either","3","304","","","","","","","0","0","1","0.6230250108","","0.6","0.4","0.2","0.8","","","","","0.06420934006","0.8865788656","0.6230250108","0.722836051","","","","","","","","","","75","K","2","","","46","main_expt",""
"","bandit","126","401966","0.0-88.0-0.0","65390465","wem/bandit_party_2","A3QL8ZAD9BKWUF","either","3","272","","","","","","","0","1","0","","0.7239235909","0.6","0.4","0.2","0.8","0.02332738683","0.8207935484","0.7239235909","0.7392487755","","","","","","","","","","","","","","75","K","2","","","47","main_expt",""
"","bandit","127","403858","0.0-89.0-0.0","65390465","wem/bandit_party_2","A3QL8ZAD9BKWUF","either","3","377","","","","","","","0","0","1","0.7551111279","","0.6","0.4","0.2","0.8","","","","","0.03517565614","0.8170742187","0.7715310514","0.7551111279","","","","","","","","","","76","L","3","","","48","main_expt",""
"","bandit","128","406062","0.0-90.0-0.0","65390465","wem/bandit_party_2","A3QL8ZAD9BKWUF","either","3","692","","","","","","","0","0","1","","0.04466115719","0.6","0.4","0.2","0.8","0.04466115719","0.7874830355","0.822179592","0.6917772817","","","","","","","","","","","","","","72","H","0","img/none_selected.jpg","","49","main_expt",""
"","bandit","129","407983","0.0-91.0-0.0","65390465","wem/bandit_party_2","A3QL8ZAD9BKWUF","either","3","408","","","","","","","0","0","1","","0.8108951243","0.6","0.4","0.2","0.8","0.05053383529","0.8279472521","0.8108951243","0.6689959301","","","","","","","","","","","","","","75","K","2","","","50","main_expt",""
"","bandit","130","409758","0.0-92.0-0.0","65390465","wem/bandit_party_2","A3QL8ZAD9BKWUF","either","3","264","","","","","","","0","1","0","","0.8426817256","0.6","0.4","0.2","0.8","0.04681033125","0.8426817256","0.7649170446","0.6020608281","","","","","","","","","","","","","","74","J","1","","","51","main_expt",""
"","bandit","131","411477","0.0-93.0-0.0","65390465","wem/bandit_party_2","A3QL8ZAD9BKWUF","either","3","211","","","","","","","0","0","1","0.8377647656","","0.6","0.4","0.2","0.8","","","","","0.09308222201","0.8377647656","0.8169848275","0.6583182673","","","","","","","","","","74","J","1","","","52","main_expt",""
"","bandit","132","413359","0.0-94.0-0.0","65390465","wem/bandit_party_2","A3QL8ZAD9BKWUF","either","3","368","","","","","","","0","1","0","","0.8241398149","0.6","0.4","0.2","0.8","0.1397702629","0.8241398149","0.8843577791","0.5419436754","","","","","","","","","","","","","","74","J","1","","","53","main_expt",""
"","bandit","133","415185","0.0-95.0-0.0","65390465","wem/bandit_party_2","A3QL8ZAD9BKWUF","either","3","313","","","","","","","0","1","0","","0.7289352116","0.6","0.4","0.2","0.8","0.110287685","0.7289352116","0.8854515068","0.5717614462","","","","","","","","","","","","","","74","J","1","","","54","main_expt",""
"","bandit","134","416982","0.0-96.0-0.0","65390465","wem/bandit_party_2","A3QL8ZAD9BKWUF","either","3","291","","","","","","","0","0","1","","0.5895019519","0.6","0.4","0.2","0.8","0.1843384007","0.5895019519","0.8884574585","0.5497935615","","","","","","","","","","","","","","74","J","1","","","55","main_expt",""
"","bandit","135","418672","0.0-97.0-0.0","65390465","wem/bandit_party_2","A3QL8ZAD9BKWUF","either","3","176","","","","","","","0","1","0","","0.4622464331","0.6","0.4","0.2","0.8","0.2056752237","0.4622464331","0.8840911236","0.4902645195","","","","","","","","","","","","","","74","J","1","","","56","main_expt",""
"","bandit","136","420462","0.0-98.0-0.0","65390465","wem/bandit_party_2","A3QL8ZAD9BKWUF","either","3","279","","","","","","","0","0","1","0.490024734","","0.6","0.4","0.2","0.8","","","","","0.3410726922","0.490024734","0.864283103","0.5258365243","","","","","","","","","","74","J","1","","","57","main_expt",""
"","bandit","137","422225","0.0-99.0-0.0","65390465","wem/bandit_party_2","A3QL8ZAD9BKWUF","either","3","246","","","","","","","0","1","0","","0.3873695161","0.6","0.4","0.2","0.8","0.3873695161","0.6182628796","0.7377821737","0.6097664349","","","","","","","","","","","","","","72","H","0","img/none_selected.jpg","","58","main_expt",""
"","bandit","138","423942","0.0-100.0-0.0","65390465","wem/bandit_party_2","A3QL8ZAD9BKWUF","either","3","205","","","","","","","0","0","1","0.3281321534","","0.6","0.4","0.2","0.8","","","","","0.3281321534","0.6976829826","0.7469541206","0.6016711108","","","","","","","","","","72","H","0","img/none_selected.jpg","","59","main_expt",""
"","bandit","139","425705","0.0-101.0-0.0","65390465","wem/bandit_party_2","A3QL8ZAD9BKWUF","either","3","251","","","","","","","1","0","0","0.5544917648","","0.6","0.4","0.2","0.8","","","","","0.2380439254","0.675433977","0.8019510571","0.5544917648","","","","","","","","","","76","L","3","","","60","main_expt",""
"","bandit","140","427423","0.0-102.0-0.0","65390465","wem/bandit_party_2","A3QL8ZAD9BKWUF","either","3","203","","","","","","","0","1","0","","0.6842720067","0.6","0.4","0.2","0.8","0.2228222105","0.7206550838","0.8943887388","0.6842720067","","","","","","","","","","","","","","76","L","3","","","61","main_expt",""
"","bandit","141","428958","0.0-103.0-0.0","65390465","wem/bandit_party_2","A3QL8ZAD9BKWUF","either","3","23","","","","","","","0","0","1","0.6824345281","","0.6","0.4","0.2","0.8","","","","","0.2489253665","0.7184677658","0.8942973556","0.6824345281","","","","","","","","","","76","L","3","","","62","main_expt",""
"","bandit","142","430511","0.0-104.0-0.0","65390465","wem/bandit_party_2","A3QL8ZAD9BKWUF","either","3","36","","","","","","","1","0","0","0.7321168219","","0.6","0.4","0.2","0.8","","","","","0.2298237489","0.6785259816","0.8829609874","0.7321168219","","","","","","","","","","76","L","3","","","63","main_expt",""
"","bandit","143","432068","0.0-105.0-0.0","65390465","wem/bandit_party_2","A3QL8ZAD9BKWUF","either","3","52","","","","","","","0","1","0","","0.8123013145","0.6","0.4","0.2","0.8","0.1849055857","0.6349383059","0.8175344892","0.8123013145","","","","","","","","","","","","","","76","L","3","","","64","main_expt",""
"","bandit","144","433584","0.0-106.0-0.0","65390465","wem/bandit_party_2","A3QL8ZAD9BKWUF","either","3","2","","","","","","","1","0","0","0.8236121316","","0.6","0.4","0.2","0.8","","","","","0.2285715909","0.629769122","0.7812905168","0.8236121316","","","","","","","","","","76","L","3","","","65","main_expt",""
"","bandit","145","435311","0.0-107.0-0.0","65390465","wem/bandit_party_2","A3QL8ZAD9BKWUF","either","3","215","","","","","","","1","0","0","0.8270077233","","0.6","0.4","0.2","0.8","","","","","0.2477643906","0.7158950816","0.7848445355","0.8270077233","","","","","","","","","","76","L","3","","","66","main_expt",""
"","bandit","146","437294","0.0-108.0-0.0","65390465","wem/bandit_party_2","A3QL8ZAD9BKWUF","either","3","471","","","","","","","1","0","0","0.7601471472","","0.6","0.4","0.2","0.8","","","","","0.1801078726","0.6309271871","0.763143195","0.7601471472","","","","","","","","","","76","L","3","","","67","main_expt",""
"","bandit","147","438976","0.0-109.0-0.0","65390465","wem/bandit_party_2","A3QL8ZAD9BKWUF","either","3","166","","","","","","","1","0","0","0.7567750057","","0.6","0.4","0.2","0.8","","","","","0.08479184886","0.617221228","0.7966751536","0.7567750057","","","","","","","","","","76","L","3","","","68","main_expt",""
"","bandit","148","440639","0.0-110.0-0.0","65390465","wem/bandit_party_2","A3QL8ZAD9BKWUF","either","3","151","","","","","","","0","0","1","0.6871277649","","0.6","0.4","0.2","0.8","","","","","0.06982522498","0.6235929763","0.8534335227","0.6871277649","","","","","","","","","","76","L","3","","","69","main_expt",""
"","bandit","149","442326","0.0-111.0-0.0","65390465","wem/bandit_party_2","A3QL8ZAD9BKWUF","either","3","175","","","","","","","0","0","1","0.773099018","","0.6","0.4","0.2","0.8","","","","","0.05029268469","0.5543620559","0.8915498471","0.773099018","","","","","","","","","","76","L","3","","","70","main_expt",""
"","bandit","150","443999","0.0-112.0-0.0","65390465","wem/bandit_party_2","A3QL8ZAD9BKWUF","either","3","158","","","","","","","0","1","0","","0.8736989015","0.6","0.4","0.2","0.8","0.06413839938","0.5333999135","0.8736989015","0.7412476729","","","","","","","","","","","","","","75","K","2","","","71","main_expt",""
"","bandit","151","445693","0.0-113.0-0.0","65390465","wem/bandit_party_2","A3QL8ZAD9BKWUF","either","3","182","","","","","","","0","1","0","","0.8837551658","0.6","0.4","0.2","0.8","0.05155778705","0.5905126671","0.8837551658","0.8080704968","","","","","","","","","","","","","","75","K","2","","","72","main_expt",""
"","bandit","152","447459","0.0-114.0-0.0","65390465","wem/bandit_party_2","A3QL8ZAD9BKWUF","either","3","250","","","","","","","0","1","0","","0.8495494246","0.6","0.4","0.2","0.8","0.0232747386","0.6925119087","0.8495494246","0.8270016227","","","","","","","","","","","","","","75","K","2","","","73","main_expt",""
"","bandit","153","449190","0.0-115.0-0.0","65390465","wem/bandit_party_2","A3QL8ZAD9BKWUF","either","3","219","","","","","","","0","1","0","","0.9127472651","0.6","0.4","0.2","0.8","0.04751547773","0.7134745341","0.9127472651","0.7872017979","","","","","","","","","","","","","","75","K","2","","","74","main_expt",""
"","bandit","154","450824","0.0-116.0-0.0","65390465","wem/bandit_party_2","A3QL8ZAD9BKWUF","either","3","119","","","","","","","0","1","0","","0.9199060817","0.6","0.4","0.2","0.8","0.05282531612","0.8065440948","0.9199060817","0.6167225576","","","","","","","","","","","","","","75","K","2","","","75","main_expt",""
"","bandit","155","452486","0.0-117.0-0.0","65390465","wem/bandit_party_2","A3QL8ZAD9BKWUF","either","3","149","","","","","","","0","1","0","","0.8691294168","0.6","0.4","0.2","0.8","0.08738729654","0.7849172319","0.8691294168","0.637182095","","","","","","","","","","","","","","75","K","2","","","76","main_expt",""
"","bandit","156","454254","0.0-118.0-0.0","65390465","wem/bandit_party_2","A3QL8ZAD9BKWUF","either","3","249","","","","","","","0","1","0","","0.9111329321","0.6","0.4","0.2","0.8","0.08851312664","0.7818962729","0.9111329321","0.7169911294","","","","","","","","","","","","","","75","K","2","","","77","main_expt",""
"","bandit","157","455846","0.0-119.0-0.0","65390465","wem/bandit_party_2","A3QL8ZAD9BKWUF","either","3","81","","","","","","","1","0","0","0.9286966754","","0.6","0.4","0.2","0.8","","","","","0.145228539","0.7002933386","0.9286966754","0.7446448061","","","","","","","","","","75","K","2","","","78","main_expt",""
"","bandit","158","457462","0.0-120.0-0.0","65390465","wem/bandit_party_2","A3QL8ZAD9BKWUF","either","3","101","","","","","","","0","1","0","","0.9616021792","0.6","0.4","0.2","0.8","0.1669860915","0.6510109529","0.9616021792","0.8152221547","","","","","","","","","","","","","","75","K","2","","","79","main_expt",""
"","bandit","159","459118","0.0-121.0-0.0","65390465","wem/bandit_party_2","A3QL8ZAD9BKWUF","either","3","143","","","","","","","0","1","0","","0.950571795","0.6","0.4","0.2","0.8","0.1922913003","0.6765614865","0.950571795","0.810351938","","","","","","","","","","","","","","75","K","2","","","80","main_expt",""
"","bandit","160","460895","0.0-122.0-0.0","65390465","wem/bandit_party_2","A3QL8ZAD9BKWUF","either","3","259","","","","","","","0","1","0","","0.9331160128","0.6","0.4","0.2","0.8","0.2407870914","0.5908869344","0.9331160128","0.8895110989","","","","","","","","","","","","","","75","K","2","","","81","main_expt",""
"","bandit","161","462686","0.0-123.0-0.0","65390465","wem/bandit_party_2","A3QL8ZAD9BKWUF","either","3","278","","","","","","","0","1","0","","0.9465986336","0.6","0.4","0.2","0.8","0.3077898034","0.5267531711","0.9465986336","0.9046816681","","","","","","","","","","","","","","75","K","2","","","82","main_expt",""
"","bandit","162","464358","0.0-124.0-0.0","65390465","wem/bandit_party_2","A3QL8ZAD9BKWUF","either","3","158","","","","","","","0","1","0","","0.9371159138","0.6","0.4","0.2","0.8","0.2337579628","0.6168373964","0.9371159138","0.8465278631","","","","","","","","","","","","","","75","K","2","","","83","main_expt",""
"","bandit","163","466071","0.0-125.0-0.0","65390465","wem/bandit_party_2","A3QL8ZAD9BKWUF","either","3","198","","","","","","","0","1","0","","0.8998840018","0.6","0.4","0.2","0.8","0.2781329454","0.5733990252","0.8998840018","0.7584930438","","","","","","","","","","","","","","75","K","2","","","84","main_expt",""
"","bandit","164","468267","0.0-126.0-0.0","65390465","wem/bandit_party_2","A3QL8ZAD9BKWUF","either","3","190","","","","","","","0","1","0","","0.9102188985","0.6","0.4","0.2","0.8","0.3013149798","0.4719695616","0.9102188985","0.7727946294","","","","","","","","","","","","","","75","K","2","","","85","main_expt",""
"","bandit","165","470680","0.0-127.0-0.0","65390465","wem/bandit_party_2","A3QL8ZAD9BKWUF","either","3","897","","","","","","","0","1","0","","0.9000055418","0.6","0.4","0.2","0.8","0.3231836659","0.6941651786","0.9000055418","0.8216594778","","","","","","","","","","","","","","75","K","2","","","86","main_expt",""
"","bandit","166","472414","0.0-128.0-0.0","65390465","wem/bandit_party_2","A3QL8ZAD9BKWUF","either","3","220","","","","","","","0","1","0","","0.8563468124","0.6","0.4","0.2","0.8","0.3986379136","0.5408952125","0.8563468124","0.7833884788","","","","","","","","","","","","","","75","K","2","","","87","main_expt",""
"","bandit","167","474143","0.0-129.0-0.0","65390465","wem/bandit_party_2","A3QL8ZAD9BKWUF","either","3","213","","","","","","","1","0","0","0.7349543302","","0.6","0.4","0.2","0.8","","","","","0.4230151841","0.5438891422","0.7349543302","0.7804426693","","","","","","","","","","75","K","2","","","88","main_expt",""
"","bandit","168","475920","0.0-130.0-0.0","65390465","wem/bandit_party_2","A3QL8ZAD9BKWUF","either","3","265","","","","","","","0","1","0","","0.7907967515","0.6","0.4","0.2","0.8","0.3761858397","0.4294971294","0.7907967515","0.7930928848","","","","","","","","","","","","","","75","K","2","","","89","main_expt",""
"","bandit","169","477735","0.0-131.0-0.0","65390465","wem/bandit_party_2","A3QL8ZAD9BKWUF","either","3","300","","","","","","","0","1","0","","0.7883246469","0.6","0.4","0.2","0.8","0.4799086841","0.4928337868","0.7883246469","0.7683039237","","","","","","","","","","","","","","75","K","2","","","90","main_expt",""
"","bandit","170","479511","0.0-132.0-0.0","65390465","wem/bandit_party_2","A3QL8ZAD9BKWUF","either","3","263","","","","","","","0","1","0","","0.8389096604","0.6","0.4","0.2","0.8","0.4558425901","0.5655090935","0.8389096604","0.8072091422","","","","","","","","","","","","","","75","K","2","","","91","main_expt",""
"","bandit","171","481192","0.0-133.0-0.0","65390465","wem/bandit_party_2","A3QL8ZAD9BKWUF","either","3","165","","","","","","","0","1","0","","0.8064187158","0.6","0.4","0.2","0.8","0.3781515597","0.6154818033","0.8064187158","0.7791444337","","","","","","","","","","","","","","75","K","2","","","92","main_expt",""
"","bandit","172","482943","0.0-134.0-0.0","65390465","wem/bandit_party_2","A3QL8ZAD9BKWUF","either","3","236","","","","","","","0","0","1","0.7542368763","","0.6","0.4","0.2","0.8","","","","","0.2858753042","0.7381217307","0.7542368763","0.8498372391","","","","","","","","","","75","K","2","","","93","main_expt",""
"","bandit","173","484720","0.0-135.0-0.0","65390465","wem/bandit_party_2","A3QL8ZAD9BKWUF","either","3","258","","","","","","","0","0","1","","0.6932487021","0.6","0.4","0.2","0.8","0.3914428564","0.7776388333","0.6932487021","0.8440610374","","","","","","","","","","","","","","75","K","2","","","94","main_expt",""
"","bandit","174","486489","0.0-136.0-0.0","65390465","wem/bandit_party_2","A3QL8ZAD9BKWUF","either","3","254","","","","","","","1","0","0","0.8299152283","","0.6","0.4","0.2","0.8","","","","","0.3800018616","0.8299152283","0.6706070003","0.8092418145","","","","","","","","","","74","J","1","","","95","main_expt",""
"","bandit","175","488103","0.0-137.0-0.0","65390465","wem/bandit_party_2","A3QL8ZAD9BKWUF","either","3","99","","","","","","","1","0","0","0.7697811485","","0.6","0.4","0.2","0.8","","","","","0.3078584031","0.7697811485","0.6670251336","0.8655172998","","","","","","","","","","74","J","1","","","96","main_expt",""
"","bandit","176","489672","0.0-138.0-0.0","65390465","wem/bandit_party_2","A3QL8ZAD9BKWUF","either","3","53","","","","","","","0","1","0","","0.7487724405","0.6","0.4","0.2","0.8","0.218486712","0.7487724405","0.7023758817","0.8735151232","","","","","","","","","","","","","","74","J","1","","","97","main_expt",""
"","bandit","177","491392","0.0-139.0-0.0","65390465","wem/bandit_party_2","A3QL8ZAD9BKWUF","either","3","204","","","","","","","0","1","0","","0.7450583294","0.6","0.4","0.2","0.8","0.2037628256","0.7450583294","0.7036518389","0.84409386","","","","","","","","","","","","","","74","J","1","","","98","main_expt",""
"","bandit","178","493095","0.0-140.0-0.0","65390465","wem/bandit_party_2","A3QL8ZAD9BKWUF","either","3","187","","","","","","","1","0","0","0.7227120129","","0.6","0.4","0.2","0.8","","","","","0.2400196326","0.7227120129","0.8401346726","0.8089648913","","","","","","","","","","74","J","1","","","99","main_expt",""
"","bandit","179","494791","0.0-141.0-0.0","65390465","wem/bandit_party_2","A3QL8ZAD9BKWUF","either","3","183","","","","","","","0","1","0","","0.5872141049","0.6","0.4","0.2","0.8","0.3298222115","0.5872141049","0.8640782416","0.7259557377","","","","","","","","","","","","","","74","J","1","","","100","main_expt",""
"","bandit","180","496610","0.0-142.0-0.0","65390465","wem/bandit_party_2","A3QL8ZAD9BKWUF","either","3","309","","","","","","","1","0","0","0.6432213136","","0.6","0.4","0.2","0.8","","","","","0.3108047587","0.6432213136","0.8232172207","0.6332869741","","","","","","","","","","74","J","1","","","101","main_expt",""
"","bandit","181","534016","0.0-143.0-0.0","65390465","wem/bandit_party_2","A3QL8ZAD9BKWUF","either","3","35890","","","","","","","0","1","0","","0.8451901448","0.6","0.4","0.2","0.8","0.2869381514","0.6009476408","0.8451901448","0.659443461","","","","","","","","","","","","","","75","K","2","","","102","main_expt",""
"","bandit","182","535532","0.0-144.0-0.0","65390465","wem/bandit_party_2","A3QL8ZAD9BKWUF","either","3","4","","","","","","","0","1","0","","0.8792283932","0.6","0.4","0.2","0.8","0.246485708","0.6120105745","0.8792283932","0.5959971703","","","","","","","","","","","","","","75","K","2","","","103","main_expt",""
"","bandit","183","537235","0.0-145.0-0.0","65390465","wem/bandit_party_2","A3QL8ZAD9BKWUF","either","3","191","","","","","","","0","1","0","","0.8887181638","0.6","0.4","0.2","0.8","0.2175667678","0.6821098495","0.8887181638","0.5643630141","","","","","","","","","","","","","","75","K","2","","","104","main_expt",""
"","bandit","184","539062","0.0-146.0-0.0","65390465","wem/bandit_party_2","A3QL8ZAD9BKWUF","either","3","315","","","","","","","0","1","0","","0.8013578166","0.6","0.4","0.2","0.8","0.2645808036","0.7228510016","0.8013578166","0.5489079514","","","","","","","","","","","","","","75","K","2","","","105","main_expt",""
"","bandit","185","540813","0.0-147.0-0.0","65390465","wem/bandit_party_2","A3QL8ZAD9BKWUF","either","3","238","","","","","","","0","1","0","","0.7307006529","0.6","0.4","0.2","0.8","0.2652424516","0.6639212405","0.7307006529","0.4336033326","","","","","","","","","","","","","","75","K","2","","","106","main_expt",""
"","bandit","186","543265","0.0-148.0-0.0","65390465","wem/bandit_party_2","A3QL8ZAD9BKWUF","either","3","249","","","","","","","1","0","0","0.7519500851","","0.6","0.4","0.2","0.8","","","","","0.2481661544","0.6237034742","0.7519500851","0.4779201531","","","","","","","","","","75","K","2","","","107","main_expt",""
"","bandit","187","566350","0.0-149.0-0.0","65390465","wem/bandit_party_2","A3QL8ZAD9BKWUF","either","3","21577","","","","","","","0","0","1","","0.7457577851","0.6","0.4","0.2","0.8","0.2361720859","0.5847293191","0.7457577851","0.5075294874","","","","","","","","","","","","","","75","K","2","","","108","main_expt",""
"","bandit","188","571360","0.0-150.0-0.0","65390465","wem/bandit_party_2","A3QL8ZAD9BKWUF","either","3","3492","","","","","","","0","0","1","","0.522842385","0.6","0.4","0.2","0.8","0.2799679389","0.6260859175","0.77583868","0.522842385","","","","","","","","","","","","","","76","L","3","","","109","main_expt",""
"","bandit","189","573159","0.0-151.0-0.0","65390465","wem/bandit_party_2","A3QL8ZAD9BKWUF","either","3","283","","","","","","","0","1","0","","0.419893696","0.6","0.4","0.2","0.8","0.3333098602","0.4788227383","0.7520827962","0.419893696","","","","","","","","","","","","","","76","L","3","","","110","main_expt",""
"","bandit","190","575217","0.0-152.0-0.0","65390465","wem/bandit_party_2","A3QL8ZAD9BKWUF","either","3","542","","","","","","","0","0","1","0.6019778282","","0.6","0.4","0.2","0.8","","","","","0.3669732535","0.6019778282","0.6512809768","0.431092028","","","","","","","","","","74","J","1","","","111","main_expt",""
"","bandit","191","576982","0.0-153.0-0.0","65390465","wem/bandit_party_2","A3QL8ZAD9BKWUF","either","3","250","","","","","","","1","0","0","0.546445977","","0.6","0.4","0.2","0.8","","","","","0.389765336","0.546445977","0.5891937939","0.3590071368","","","","","","","","","","74","J","1","","","112","main_expt",""
"","bandit","192","578789","0.0-154.0-0.0","65390465","wem/bandit_party_2","A3QL8ZAD9BKWUF","either","3","292","","","","","","","0","1","0","","0.6256092846","0.6","0.4","0.2","0.8","0.3191506652","0.6256092846","0.6490525038","0.4498419114","","","","","","","","","","","","","","74","J","1","","","113","main_expt",""
"","bandit","193","580710","0.0-155.0-0.0","65390465","wem/bandit_party_2","A3QL8ZAD9BKWUF","either","3","408","","","","","","","0","1","0","","0.6577617598","0.6","0.4","0.2","0.8","0.2090321438","0.6577617598","0.6283680234","0.4829831469","","","","","","","","","","","","","","74","J","1","","","114","main_expt",""
"","bandit","194","582590","0.0-156.0-0.0","65390465","wem/bandit_party_2","A3QL8ZAD9BKWUF","either","3","373","","","","","","","0","1","0","","0.7140476354","0.6","0.4","0.2","0.8","0.2094439124","0.7140476354","0.6064224059","0.4846695964","","","","","","","","","","","","","","74","J","1","","","115","main_expt",""
"","bandit","195","584423","0.0-157.0-0.0","65390465","wem/bandit_party_2","A3QL8ZAD9BKWUF","either","3","319","","","","","","","0","1","0","","0.6589976567","0.6","0.4","0.2","0.8","0.2695181069","0.6589976567","0.545813367","0.5396909338","","","","","","","","","","","","","","74","J","1","","","116","main_expt",""
"","bandit","196","592648","0.0-158.0-0.0","65390465","wem/bandit_party_2","A3QL8ZAD9BKWUF","either","3","6709","","","","","","","0","1","0","","0.6937703341","0.6","0.4","0.2","0.8","0.3402036285","0.6937703341","0.5179373022","0.5378282835","","","","","","","","","","","","","","74","J","1","","","117","main_expt",""
"","bandit","197","594383","0.0-159.0-0.0","65390465","wem/bandit_party_2","A3QL8ZAD9BKWUF","either","3","219","","","","","","","0","1","0","","0.77114399","0.6","0.4","0.2","0.8","0.3101634078","0.77114399","0.4014157923","0.5729988564","","","","","","","","","","","","","","74","J","1","","","118","main_expt",""
"","bandit","198","596215","0.0-160.0-0.0","65390465","wem/bandit_party_2","A3QL8ZAD9BKWUF","either","3","316","","","","","","","0","0","1","","0.710000291","0.6","0.4","0.2","0.8","0.3242193616","0.710000291","0.4360264599","0.5630251564","","","","","","","","","","","","","","74","J","1","","","119","main_expt",""
"","bandit","199","597819","0.0-161.0-0.0","65390465","wem/bandit_party_2","A3QL8ZAD9BKWUF","either","3","86","","","","","","","0","0","1","0.3334277272","","0.6","0.4","0.2","0.8","","","","","0.3334277272","0.6767982245","0.3297853269","0.6482115929","","","","","","","","","","72","H","0","img/none_selected.jpg","","120","main_expt",""
"","bandit","200","599655","0.0-162.0-0.0","65390465","wem/bandit_party_2","A3QL8ZAD9BKWUF","either","3","327","","","","","","","1","0","0","0.4066521311","","0.6","0.4","0.2","0.8","","","","","0.4066521311","0.7360115258","0.3767442019","0.5688505083","","","","","","","","","","72","H","0","img/none_selected.jpg","","121","main_expt",""
"","bandit","201","601249","0.0-163.0-0.0","65390465","wem/bandit_party_2","A3QL8ZAD9BKWUF","either","3","76","","","","","","","0","0","1","","0.5193034213","0.6","0.4","0.2","0.8","0.5193034213","0.7258716992","0.3589515546","0.5349597204","","","","","","","","","","","","","","72","H","0","img/none_selected.jpg","","122","main_expt",""
"","bandit","202","602992","0.0-164.0-0.0","65390465","wem/bandit_party_2","A3QL8ZAD9BKWUF","either","3","226","","","","","","","0","0","1","0.5594962391","","0.6","0.4","0.2","0.8","","","","","0.5594962391","0.7848203729","0.3461890545","0.412887176","","","","","","","","","","72","H","0","img/none_selected.jpg","","123","main_expt",""
"","bandit","203","622440","0.0-165.0-0.0","65390465","wem/bandit_party_2","A3QL8ZAD9BKWUF","either","3","17933","","","","","","","0","0","1","","0.2287340519","0.6","0.4","0.2","0.8","0.6876014299","0.7673004895","0.2287340519","0.4137060999","","","","","","","","","","","","","","75","K","2","","","124","main_expt",""
"","bandit","204","624903","0.0-166.0-0.0","65390465","wem/bandit_party_2","A3QL8ZAD9BKWUF","either","3","946","","","","","","","0","0","1","","0.2900718705","0.6","0.4","0.2","0.8","0.7354493796","0.8020703208","0.2900718705","0.3226696341","","","","","","","","","","","","","","75","K","2","","","125","main_expt",""
"","bandit","205","627819","0.0-167.0-0.0","65390465","wem/bandit_party_2","A3QL8ZAD9BKWUF","either","3","1393","","","","","","","0","0","1","0.3904211026","","0.6","0.4","0.2","0.8","","","","","0.76840964","0.8196031782","0.2880997441","0.3904211026","","","","","","","","","","76","L","3","","","126","main_expt",""
"","bandit","206","630071","0.0-168.0-0.0","65390465","wem/bandit_party_2","A3QL8ZAD9BKWUF","either","3","735","","","","","","","1","0","0","0.7310750685","","0.6","0.4","0.2","0.8","","","","","0.7310750685","0.7095492128","0.3451069126","0.4227014292","","","","","","","","","","72","H","0","img/none_selected.jpg","","127","main_expt",""
"","bandit","207","631850","0.0-169.0-0.0","65390465","wem/bandit_party_2","A3QL8ZAD9BKWUF","either","3","260","","","","","","","0","0","1","0.6582635175","","0.6","0.4","0.2","0.8","","","","","0.6582635175","0.711577854","0.3129298861","0.543317668","","","","","","","","","","72","H","0","img/none_selected.jpg","","128","main_expt",""
"","bandit","208","634462","0.0-170.0-0.0","65390465","wem/bandit_party_2","A3QL8ZAD9BKWUF","either","3","1098","","","","","","","0","1","0","","0.7529887683","0.6","0.4","0.2","0.8","0.7529887683","0.7022761705","0.3507055597","0.5906282681","","","","","","","","","","","","","","72","H","0","img/none_selected.jpg","","129","main_expt",""
"","bandit","209","636214","0.0-171.0-0.0","65390465","wem/bandit_party_2","A3QL8ZAD9BKWUF","either","3","234","","","","","","","1","0","0","0.7929301986","","0.6","0.4","0.2","0.8","","","","","0.7929301986","0.7309419319","0.3753424236","0.6636268631","","","","","","","","","","72","H","0","img/none_selected.jpg","","130","main_expt",""
"","bandit","210","638094","0.0-172.0-0.0","65390465","wem/bandit_party_2","A3QL8ZAD9BKWUF","either","3","365","","","","","","","0","0","1","0.8149544693","","0.6","0.4","0.2","0.8","","","","","0.8149544693","0.6904825683","0.3473486375","0.5686699027","","","","","","","","","","72","H","0","img/none_selected.jpg","","131","main_expt",""
"","bandit","211","639821","0.0-173.0-0.0","65390465","wem/bandit_party_2","A3QL8ZAD9BKWUF","either","3","220","","","","","","","1","0","0","0.7626544417","","0.6","0.4","0.2","0.8","","","","","0.7626544417","0.7153166113","0.303679922","0.6564012045","","","","","","","","","","72","H","0","img/none_selected.jpg","","132","main_expt",""
"","bandit","212","643159","0.0-174.0-0.0","65390465","wem/bandit_party_2","A3QL8ZAD9BKWUF","either","3","1830","","","","","","","0","1","0","","0.7584501248","0.6","0.4","0.2","0.8","0.7584501248","0.8135501627","0.3385565331","0.5876654864","","","","","","","","","","","","","","72","H","0","img/none_selected.jpg","","133","main_expt",""
"","bandit","213","648458","0.0-175.0-0.0","65390465","wem/bandit_party_2","A3QL8ZAD9BKWUF","either","3","3784","","","","","","","1","0","0","0.7905015291","","0.6","0.4","0.2","0.8","","","","","0.7905015291","0.7707892239","0.3686406913","0.5299368298","","","","","","","","","","72","H","0","img/none_selected.jpg","","134","main_expt",""
"","bandit","214","655192","0.0-176.0-0.0","65390465","wem/bandit_party_2","A3QL8ZAD9BKWUF","either","3","5222","","","","","","","1","0","0","0.7515189777","","0.6","0.4","0.2","0.8","","","","","0.7515189777","0.7689088841","0.3672202126","0.4547966061","","","","","","","","","","72","H","0","img/none_selected.jpg","","135","main_expt",""
"","bandit","215","656854","0.0-177.0-0.0","65390465","wem/bandit_party_2","A3QL8ZAD9BKWUF","either","3","149","","","","","","","0","0","1","0.7293518859","","0.6","0.4","0.2","0.8","","","","","0.7293518859","0.6641324257","0.4064769993","0.5290841583","","","","","","","","","","72","H","0","img/none_selected.jpg","","136","main_expt",""
"","bandit","216","658462","0.0-178.0-0.0","65390465","wem/bandit_party_2","A3QL8ZAD9BKWUF","either","3","92","","","","","","","0","1","0","","0.7286216209","0.6","0.4","0.2","0.8","0.7286216209","0.635388201","0.3492503667","0.419904672","","","","","","","","","","","","","","72","H","0","img/none_selected.jpg","","137","main_expt",""
"","bandit","217","660026","0.0-179.0-0.0","65390465","wem/bandit_party_2","A3QL8ZAD9BKWUF","either","3","48","","","","","","","0","1","0","","0.7425921641","0.6","0.4","0.2","0.8","0.7425921641","0.6889508363","0.3315752647","0.4532768315","","","","","","","","","","","","","","72","H","0","img/none_selected.jpg","","138","main_expt",""
"","bandit","218","661832","0.0-180.0-0.0","65390465","wem/bandit_party_2","A3QL8ZAD9BKWUF","either","3","289","","","","","","","0","0","1","","0.7356638012","0.6","0.4","0.2","0.8","0.7356638012","0.6481427694","0.3080831972","0.4194835996","","","","","","","","","","","","","","72","H","0","img/none_selected.jpg","","139","main_expt",""
"","bandit","219","663824","0.0-181.0-0.0","65390465","wem/bandit_party_2","A3QL8ZAD9BKWUF","either","3","476","","","","","","","1","0","0","0.7334346803","","0.6","0.4","0.2","0.8","","","","","0.7334346803","0.6497449761","0.3254670704","0.420008375","","","","","","","","","","72","H","0","img/none_selected.jpg","","140","main_expt",""
"","bandit","220","665631","0.0-182.0-0.0","65390465","wem/bandit_party_2","A3QL8ZAD9BKWUF","either","3","292","","","","","","","1","0","0","0.7737071977","","0.6","0.4","0.2","0.8","","","","","0.7737071977","0.7328205829","0.3452870884","0.3908595681","","","","","","","","","","72","H","0","img/none_selected.jpg","","141","main_expt",""
"","bandit","221","667535","0.0-183.0-0.0","65390465","wem/bandit_party_2","A3QL8ZAD9BKWUF","either","3","392","","","","","","","0","1","0","","0.7912630164","0.6","0.4","0.2","0.8","0.7912630164","0.6396752577","0.2659846132","0.3994278682","","","","","","","","","","","","","","72","H","0","img/none_selected.jpg","","142","main_expt",""
"","bandit","222","669263","0.0-184.0-0.0","65390465","wem/bandit_party_2","A3QL8ZAD9BKWUF","either","3","217","","","","","","","0","1","0","","0.7709923268","0.6","0.4","0.2","0.8","0.7709923268","0.5974809775","0.2549781044","0.3137486051","","","","","","","","","","","","","","72","H","0","img/none_selected.jpg","","143","main_expt",""
"","bandit","223","671023","0.0-185.0-0.0","65390465","wem/bandit_party_2","A3QL8ZAD9BKWUF","either","3","243","","","","","","","0","0","1","","0.7492848764","0.6","0.4","0.2","0.8","0.7492848764","0.5953980303","0.3603981418","0.3961992406","","","","","","","","","","","","","","72","H","0","img/none_selected.jpg","","144","main_expt",""
"","bandit","224","672688","0.0-186.0-0.0","65390465","wem/bandit_party_2","A3QL8ZAD9BKWUF","either","3","148","","","","","","","1","0","0","0.7343485297","","0.6","0.4","0.2","0.8","","","","","0.7343485297","0.6215671736","0.3682949958","0.3186856111","","","","","","","","","","72","H","0","img/none_selected.jpg","","145","main_expt",""
"","bandit","225","674454","0.0-187.0-0.0","65390465","wem/bandit_party_2","A3QL8ZAD9BKWUF","either","3","253","","","","","","","0","1","0","","0.7701032705","0.6","0.4","0.2","0.8","0.7701032705","0.5766937592","0.5028772858","0.2724247948","","","","","","","","","","","","","","72","H","0","img/none_selected.jpg","","146","main_expt",""
"","bandit","226","676431","0.0-188.0-0.0","65390465","wem/bandit_party_2","A3QL8ZAD9BKWUF","either","3","461","","","","","","","0","0","1","","0.7521601774","0.6","0.4","0.2","0.8","0.7521601774","0.4600492943","0.4186890645","0.2844288079","","","","","","","","","","","","","","72","H","0","img/none_selected.jpg","","147","main_expt",""
"","bandit","227","678174","0.0-189.0-0.0","65390465","wem/bandit_party_2","A3QL8ZAD9BKWUF","either","3","228","","","","","","","1","0","0","0.7762143641","","0.6","0.4","0.2","0.8","","","","","0.7762143641","0.4575448178","0.3928328601","0.3095389551","","","","","","","","","","72","H","0","img/none_selected.jpg","","148","main_expt",""
"","bandit","228","680111","0.0-190.0-0.0","65390465","wem/bandit_party_2","A3QL8ZAD9BKWUF","either","3","420","","","","","","","0","0","1","0.716016993","","0.6","0.4","0.2","0.8","","","","","0.716016993","0.3840278576","0.4220063763","0.2464654743","","","","","","","","","","72","H","0","img/none_selected.jpg","","149","main_expt",""
"","bandit","229","681770","0.0-191.0-0.0","65390465","wem/bandit_party_2","A3QL8ZAD9BKWUF","either","3","142","","","","","","","0","1","0","","0.7182774931","0.6","0.4","0.2","0.8","0.7182774931","0.3004406684","0.3206822378","0.2088091358","","","","","","","","","","","","","","72","H","0","img/none_selected.jpg","","150","main_expt",""
"","bandit","230","683671","0.0-192.0-0.0","65390465","wem/bandit_party_2","A3QL8ZAD9BKWUF","either","3","384","","","","","","","0","1","0","","0.8028216805","0.6","0.4","0.2","0.8","0.8028216805","0.2769981479","0.3380172956","0.2670014618","","","","","","","","","","","","","","72","H","0","img/none_selected.jpg","","151","main_expt",""
"","bandit","231","685544","0.0-193.0-0.0","65390465","wem/bandit_party_2","A3QL8ZAD9BKWUF","either","3","356","","","","","","","0","1","0","","0.8634692279","0.6","0.4","0.2","0.8","0.8634692279","0.40565407","0.2461440624","0.3100930243","","","","","","","","","","","","","","72","H","0","img/none_selected.jpg","","152","main_expt",""
"","bandit","232","687288","0.0-194.0-0.0","65390465","wem/bandit_party_2","A3QL8ZAD9BKWUF","either","3","234","","","","","","","0","1","0","","0.7719190238","0.6","0.4","0.2","0.8","0.7719190238","0.3829351634","0.1852716423","0.3796096158","","","","","","","","","","","","","","72","H","0","img/none_selected.jpg","","153","main_expt",""
"","bandit","233","689062","0.0-195.0-0.0","65390465","wem/bandit_party_2","A3QL8ZAD9BKWUF","either","3","258","","","","","","","0","1","0","","0.8343429945","0.6","0.4","0.2","0.8","0.8343429945","0.4912137185","0.1660439368","0.2265028128","","","","","","","","","","","","","","72","H","0","img/none_selected.jpg","","154","main_expt",""
"","bandit","234","690814","0.0-196.0-0.0","65390465","wem/bandit_party_2","A3QL8ZAD9BKWUF","either","3","237","","","","","","","1","0","0","0.7908731232","","0.6","0.4","0.2","0.8","","","","","0.7908731232","0.5312535156","0.2241607793","0.2135741777","","","","","","","","","","72","H","0","img/none_selected.jpg","","155","main_expt",""
"","bandit","235","692577","0.0-197.0-0.0","65390465","wem/bandit_party_2","A3QL8ZAD9BKWUF","either","3","252","","","","","","","1","0","0","0.7848911391","","0.6","0.4","0.2","0.8","","","","","0.7848911391","0.5747898199","0.1566338899","0.1338357519","","","","","","","","","","72","H","0","img/none_selected.jpg","","156","main_expt",""
"","bandit","236","694376","0.0-198.0-0.0","65390465","wem/bandit_party_2","A3QL8ZAD9BKWUF","either","3","282","","","","","","","0","0","1","0.7467155263","","0.6","0.4","0.2","0.8","","","","","0.7467155263","0.5948125822","0.1839373886","0.1344370697","","","","","","","","","","72","H","0","img/none_selected.jpg","","157","main_expt",""
"","bandit","237","699287","0.0-199.0-0.0","65390465","wem/bandit_party_2","A3QL8ZAD9BKWUF","either","3","3395","","","","","","","0","0","1","","0.7413618202","0.6","0.4","0.2","0.8","0.7413618202","0.6533804049","0.155802242","0.1217930933","","","","","","","","","","","","","","72","H","0","img/none_selected.jpg","","158","main_expt",""
"","bandit","238","700966","0.0-200.0-0.0","65390465","wem/bandit_party_2","A3QL8ZAD9BKWUF","either","3","162","","","","","","","1","0","0","0.6882043704","","0.6","0.4","0.2","0.8","","","","","0.6882043704","0.5777198579","0.2304237345","0.08524485746","","","","","","","","","","72","H","0","img/none_selected.jpg","","159","main_expt",""
"","bandit","239","702641","0.0-201.0-0.0","65390465","wem/bandit_party_2","A3QL8ZAD9BKWUF","either","3","159","","","","","","","1","0","0","0.7253096401","","0.6","0.4","0.2","0.8","","","","","0.7253096401","0.6777741118","0.2242026456","0.07332219892","","","","","","","","","","72","H","0","img/none_selected.jpg","","160","main_expt",""
"","bandit","240","704343","0.0-202.0-0.0","65390465","wem/bandit_party_2","A3QL8ZAD9BKWUF","either","3","183","","","","","","","0","0","1","0.6989182833","","0.6","0.4","0.2","0.8","","","","","0.6989182833","0.6249074267","0.2708915048","0.1063489691","","","","","","","","","","72","H","0","img/none_selected.jpg","","161","main_expt",""
"","bandit","241","707648","0.0-203.0-0.0","65390465","wem/bandit_party_2","A3QL8ZAD9BKWUF","either","3","1788","","","","","","","1","0","0","0.7679575172","","0.6","0.4","0.2","0.8","","","","","0.7679575172","0.6755041601","0.2921592604","0.09670310095","","","","","","","","","","72","H","0","img/none_selected.jpg","","162","main_expt",""
"","bandit","242","709727","0.0-204.0-0.0","65390465","wem/bandit_party_2","A3QL8ZAD9BKWUF","either","3","570","","","","","","","0","0","1","0.6877390752","","0.6","0.4","0.2","0.8","","","","","0.6877390752","0.6461818487","0.2050535257","0.1266359811","","","","","","","","","","72","H","0","img/none_selected.jpg","","163","main_expt",""
"","bandit","243","711870","0.0-205.0-0.0","65390465","wem/bandit_party_2","A3QL8ZAD9BKWUF","either","3","627","","","","","","","1","0","0","0.6957575266","","0.6","0.4","0.2","0.8","","","","","0.6957575266","0.76368027","0.1998759094","0.1212611996","","","","","","","","","","72","H","0","img/none_selected.jpg","","164","main_expt",""
"","bandit","244","714211","0.0-206.0-0.0","65390465","wem/bandit_party_2","A3QL8ZAD9BKWUF","either","3","821","","","","","","","0","0","1","0.6760148625","","0.6","0.4","0.2","0.8","","","","","0.6760148625","0.8400099296","0.1821974317","0.1917887173","","","","","","","","","","72","H","0","img/none_selected.jpg","","165","main_expt",""
"","bandit","245","716006","0.0-207.0-0.0","65390465","wem/bandit_party_2","A3QL8ZAD9BKWUF","either","3","280","","","","","","","0","0","1","0.6463317238","","0.6","0.4","0.2","0.8","","","","","0.6463317238","0.8573275969","0.2916844583","0.1560613016","","","","","","","","","","72","H","0","img/none_selected.jpg","","166","main_expt",""
"","bandit","246","736386","0.0-208.0-0.0","65390465","wem/bandit_party_2","A3QL8ZAD9BKWUF","either","3","18869","","","","","","","1","0","0","0.5613055562","","0.6","0.4","0.2","0.8","","","","","0.5613055562","0.7735369509","0.3087465624","0.2214887095","","","","","","","","","","72","H","0","img/none_selected.jpg","","167","main_expt",""
"","bandit","247","739679","0.0-209.0-0.0","65390465","wem/bandit_party_2","A3QL8ZAD9BKWUF","either","3","1785","","","","","","","1","0","0","0.5586162784","","0.6","0.4","0.2","0.8","","","","","0.5586162784","0.8091314607","0.3896626528","0.3463453368","","","","","","","","","","72","H","0","img/none_selected.jpg","","168","main_expt",""
"","bandit","248","741623","0.0-210.0-0.0","65390465","wem/bandit_party_2","A3QL8ZAD9BKWUF","either","3","427","","","","","","","0","0","1","0.597448185","","0.6","0.4","0.2","0.8","","","","","0.597448185","0.8364166478","0.4458805252","0.3222551453","","","","","","","","","","72","H","0","img/none_selected.jpg","","169","main_expt",""
"","bandit","249","743367","0.0-211.0-0.0","65390465","wem/bandit_party_2","A3QL8ZAD9BKWUF","either","3","231","","","","","","","0","1","0","","0.5351242352","0.6","0.4","0.2","0.8","0.5351242352","0.7867883415","0.4844269655","0.2556410415","","","","","","","","","","","","","","72","H","0","img/none_selected.jpg","","170","main_expt",""
"","bandit","250","745209","0.0-212.0-0.0","65390465","wem/bandit_party_2","A3QL8ZAD9BKWUF","either","3","323","","","","","","","0","0","1","0.4819966971","","0.6","0.4","0.2","0.8","","","","","0.4819966971","0.8728822524","0.4858642724","0.2248109201","","","","","","","","","","72","H","0","img/none_selected.jpg","","171","main_expt",""
"","bandit","251","747319","0.0-213.0-0.0","65390465","wem/bandit_party_2","A3QL8ZAD9BKWUF","either","3","593","","","","","","","0","0","1","","0.4038669266","0.6","0.4","0.2","0.8","0.4038669266","0.7804912391","0.5060245996","0.3468742366","","","","","","","","","","","","","","72","H","0","img/none_selected.jpg","","172","main_expt",""
"","bandit","252","749310","0.0-214.0-0.0","65390465","wem/bandit_party_2","A3QL8ZAD9BKWUF","either","3","475","","","","","","","1","0","0","0.3102533384","","0.6","0.4","0.2","0.8","","","","","0.3102533384","0.7728490534","0.5413528159","0.234408543","","","","","","","","","","72","H","0","img/none_selected.jpg","","173","main_expt",""
"","bandit","253","751006","0.0-215.0-0.0","65390465","wem/bandit_party_2","A3QL8ZAD9BKWUF","either","3","185","","","","","","","1","0","0","0.3818943333","","0.6","0.4","0.2","0.8","","","","","0.3818943333","0.814185781","0.6505326818","0.1404050277","","","","","","","","","","72","H","0","img/none_selected.jpg","","174","main_expt",""
"","bandit","254","762110","0.0-216.0-0.0","65390465","wem/bandit_party_2","A3QL8ZAD9BKWUF","either","3","9587","","","","","","","1","0","0","0.2893198216","","0.6","0.4","0.2","0.8","","","","","0.2893198216","0.8010682597","0.6470977149","0.1081611795","","","","","","","","","","72","H","0","img/none_selected.jpg","","175","main_expt",""
"","bandit","255","763998","0.0-217.0-0.0","65390465","wem/bandit_party_2","A3QL8ZAD9BKWUF","either","3","379","","","","","","","0","0","1","0.226416223","","0.6","0.4","0.2","0.8","","","","","0.226416223","0.7083228223","0.6844229635","0.0730283124","","","","","","","","","","72","H","0","img/none_selected.jpg","","176","main_expt",""
"","bandit","256","765510","0.0-218.0-0.0","65390465","wem/bandit_party_2","A3QL8ZAD9BKWUF","either","3","3","","","","","","","0","0","1","0.2786676386","","0.6","0.4","0.2","0.8","","","","","0.2786676386","0.7408938443","0.6883244284","0.07044941978","","","","","","","","","","72","H","0","img/none_selected.jpg","","177","main_expt",""
"","bandit","257","767128","0.0-219.0-0.0","65390465","wem/bandit_party_2","A3QL8ZAD9BKWUF","either","3","100","","","","","","","1","0","0","0.6621187214","","0.6","0.4","0.2","0.8","","","","","0.2279078815","0.6621187214","0.6098590842","0.06886985111","","","","","","","","","","74","J","1","","","178","main_expt",""
"","bandit","258","769038","0.0-220.0-0.0","65390465","wem/bandit_party_2","A3QL8ZAD9BKWUF","either","3","391","","","","","","","0","1","0","","0.6765487854","0.6","0.4","0.2","0.8","0.1690126781","0.6765487854","0.5924449164","0.07254371148","","","","","","","","","","","","","","74","J","1","","","179","main_expt",""
"","bandit","259","770814","0.0-221.0-0.0","65390465","wem/bandit_party_2","A3QL8ZAD9BKWUF","either","3","265","","","","","","","0","1","0","","0.7276027883","0.6","0.4","0.2","0.8","0.1356066944","0.7276027883","0.4915111467","0.055057054","","","","","","","","","","","","","","74","J","1","","","180","main_expt",""
"","bandit","260","772532","0.0-222.0-0.0","65390465","wem/bandit_party_2","A3QL8ZAD9BKWUF","either","3","212","","","","","","","0","0","1","0.7083410305","","0.6","0.4","0.2","0.8","","","","","0.1889441784","0.7083410305","0.4713933083","0.1187845962","","","","","","","","","","74","J","1","","","181","main_expt",""
"","bandit","261","774295","0.0-223.0-0.0","65390465","wem/bandit_party_2","A3QL8ZAD9BKWUF","either","3","243","","","","","","","0","0","1","0.6489729838","","0.6","0.4","0.2","0.8","","","","","0.2163976064","0.6489729838","0.500114893","0.1304227184","","","","","","","","","","74","J","1","","","182","main_expt",""
"","bandit","262","776342","0.0-224.0-0.0","65390465","wem/bandit_party_2","A3QL8ZAD9BKWUF","either","3","528","","","","","","","1","0","0","0.6956751073","","0.6","0.4","0.2","0.8","","","","","0.1902524086","0.6956751073","0.4949273894","0.1374638341","","","","","","","","","","74","J","1","","","183","main_expt",""
"","bandit","263","778383","0.0-225.0-0.0","65390465","wem/bandit_party_2","A3QL8ZAD9BKWUF","either","3","523","","","","","","","1","0","0","0.6066537109","","0.6","0.4","0.2","0.8","","","","","0.2265805791","0.6066537109","0.4271361476","0.1914365344","","","","","","","","","","74","J","1","","","184","main_expt",""
"","bandit","264","780193","0.0-226.0-0.0","65390465","wem/bandit_party_2","A3QL8ZAD9BKWUF","either","3","299","","","","","","","1","0","0","0.6337362372","","0.6","0.4","0.2","0.8","","","","","0.1843452782","0.6337362372","0.4558255176","0.1939872458","","","","","","","","","","74","J","1","","","185","main_expt",""
"","bandit","265","782023","0.0-227.0-0.0","65390465","wem/bandit_party_2","A3QL8ZAD9BKWUF","either","3","312","","","","","","","0","0","1","","0.5908962551","0.6","0.4","0.2","0.8","0.1898387663","0.5908962551","0.4031301461","0.2219937035","","","","","","","","","","","","","","74","J","1","","","186","main_expt",""
"","bandit","266","784138","0.0-228.0-0.0","65390465","wem/bandit_party_2","A3QL8ZAD9BKWUF","either","3","596","","","","","","","0","1","0","","0.7651761031","0.6","0.4","0.2","0.8","0.210498268","0.7651761031","0.3993697366","0.2024523472","","","","","","","","","","","","","","74","J","1","","","187","main_expt",""
"","bandit","267","785951","0.0-229.0-0.0","65390465","wem/bandit_party_2","A3QL8ZAD9BKWUF","either","3","295","","","","","","","0","1","0","","0.7928336054","0.6","0.4","0.2","0.8","0.2368649008","0.7928336054","0.4478687375","0.1930401344","","","","","","","","","","","","","","74","J","1","","","188","main_expt",""
"","bandit","268","788447","0.0-230.0-0.0","65390465","wem/bandit_party_2","A3QL8ZAD9BKWUF","either","3","977","","","","","","","1","0","0","0.8917358491","","0.6","0.4","0.2","0.8","","","","","0.291591963","0.8917358491","0.3699601256","0.3255404916","","","","","","","","","","74","J","1","","","189","main_expt",""
"","bandit","269","790711","0.0-231.0-0.0","65390465","wem/bandit_party_2","A3QL8ZAD9BKWUF","either","3","746","","","","","","","0","1","0","","0.898448025","0.6","0.4","0.2","0.8","0.4411779124","0.898448025","0.3723251068","0.2364063212","","","","","","","","","","","","","","74","J","1","","","190","main_expt",""
"","bandit","270","792774","0.0-232.0-0.0","65390465","wem/bandit_party_2","A3QL8ZAD9BKWUF","either","3","545","","","","","","","0","0","1","0.9186708851","","0.6","0.4","0.2","0.8","","","","","0.3968704403","0.9186708851","0.3309849287","0.2662767285","","","","","","","","","","74","J","1","","","191","main_expt",""
"","bandit","271","794401","0.0-233.0-0.0","65390465","wem/bandit_party_2","A3QL8ZAD9BKWUF","either","3","106","","","","","","","0","1","0","","0.2865625263","0.6","0.4","0.2","0.8","0.4512817608","0.9314477517","0.2865625263","0.2815174114","","","","","","","","","","","","","","75","K","2","","","192","main_expt",""
"","bandit","272","796721","0.0-234.0-0.0","65390465","wem/bandit_party_2","A3QL8ZAD9BKWUF","either","3","806","","","","","","","0","0","1","","0.2862811746","0.6","0.4","0.2","0.8","0.4788006455","0.9090465067","0.2862811746","0.3461293965","","","","","","","","","","","","","","75","K","2","","","193","main_expt",""
"","bandit","273","798550","0.0-235.0-0.0","65390465","wem/bandit_party_2","A3QL8ZAD9BKWUF","either","3","316","","","","","","","0","0","1","0.2785288642","","0.6","0.4","0.2","0.8","","","","","0.4651889587","0.8762249788","0.2785288642","0.3303735913","","","","","","","","","","75","K","2","","","194","main_expt",""
"","bandit","274","800679","0.0-236.0-0.0","65390465","wem/bandit_party_2","A3QL8ZAD9BKWUF","either","3","610","","","","","","","0","0","1","0.3194565039","","0.6","0.4","0.2","0.8","","","","","0.4718629942","0.8623185747","0.2283941808","0.3194565039","","","","","","","","","","76","L","3","","","195","main_expt",""
"","bandit","275","802503","0.0-237.0-0.0","65390465","wem/bandit_party_2","A3QL8ZAD9BKWUF","either","3","305","","","","","","","1","0","0","0.4103944464","","0.6","0.4","0.2","0.8","","","","","0.3825708332","0.7745977574","0.214282227","0.4103944464","","","","","","","","","","76","L","3","","","196","main_expt",""
"","bandit","276","804238","0.0-238.0-0.0","65390465","wem/bandit_party_2","A3QL8ZAD9BKWUF","either","3","216","","","","","","","1","0","0","0.4445726534","","0.6","0.4","0.2","0.8","","","","","0.4530864699","0.7723069829","0.1422959513","0.4445726534","","","","","","","","","","76","L","3","","","197","main_expt",""
"","bandit","277","806122","0.0-239.0-0.0","65390465","wem/bandit_party_2","A3QL8ZAD9BKWUF","either","3","370","","","","","","","1","0","0","0.4351718099","","0.6","0.4","0.2","0.8","","","","","0.4337652667","0.7084082875","0.1126324943","0.4351718099","","","","","","","","","","76","L","3","","","198","main_expt",""
"","bandit","278","808087","0.0-240.0-0.0","65390465","wem/bandit_party_2","A3QL8ZAD9BKWUF","either","3","441","","","","","","","0","0","1","","0.4641294157","0.6","0.4","0.2","0.8","0.4138332966","0.7016883558","0.1144166609","0.4641294157","","","","","","","","","","","","","","76","L","3","","","199","main_expt",""
"","bandit","279","809847","0.0-241.0-0.0","65390465","wem/bandit_party_2","A3QL8ZAD9BKWUF","either","3","246","","","","","","","1","0","0","0.6504384346","","0.6","0.4","0.2","0.8","","","","","0.5005175686","0.6504384346","0.1518003708","0.4468687069","","","","","","","","","","74","J","1","","","200","main_expt",""
"","bandit","280","811662","0.0-242.0-0.0","65390465","wem/bandit_party_2","A3QL8ZAD9BKWUF","either","3","303","","","","","","","1","0","0","0.7904945102","","0.6","0.4","0.2","0.8","","","","","0.5122642399","0.7904945102","0.1974433607","0.5087435212","","","","","","","","","","74","J","1","","","201","main_expt",""
"","bandit","281","813454","0.0-243.0-0.0","65390465","wem/bandit_party_2","A3QL8ZAD9BKWUF","either","3","277","","","","","","","0","0","1","","0.7039472437","0.6","0.4","0.2","0.8","0.5414597976","0.7039472437","0.2000842809","0.4992132835","","","","","","","","","","","","","","74","J","1","","","202","main_expt",""
"","bandit","282","815543","0.0-244.0-0.0","65390465","wem/bandit_party_2","A3QL8ZAD9BKWUF","either","3","568","","","","","","","0","1","0","","0.7478807213","0.6","0.4","0.2","0.8","0.4993649945","0.7478807213","0.1715580826","0.4859842053","","","","","","","","","","","","","","74","J","1","","","203","main_expt",""
"","bandit","283","817409","0.0-245.0-0.0","65390465","wem/bandit_party_2","A3QL8ZAD9BKWUF","either","3","346","","","","","","","0","0","1","0.7346150791","","0.6","0.4","0.2","0.8","","","","","0.4056752737","0.7346150791","0.3028604286","0.6162755314","","","","","","","","","","74","J","1","","","204","main_expt",""
"","bandit","284","819166","0.0-246.0-0.0","65390465","wem/bandit_party_2","A3QL8ZAD9BKWUF","either","3","237","","","","","","","0","0","1","0.7240623961","","0.6","0.4","0.2","0.8","","","","","0.4174768156","0.7240623961","0.3714949669","0.6204906845","","","","","","","","","","74","J","1","","","205","main_expt",""
"","bandit","285","820853","0.0-247.0-0.0","65390465","wem/bandit_party_2","A3QL8ZAD9BKWUF","either","3","169","","","","","","","0","1","0","","0.4364097613","0.6","0.4","0.2","0.8","0.4364097613","0.733657826","0.3034865557","0.6390595606","","","","","","","","","","","","","","72","H","0","img/none_selected.jpg","","206","main_expt",""
"","bandit","286","822469","0.0-248.0-0.0","65390465","wem/bandit_party_2","A3QL8ZAD9BKWUF","either","3","98","","","","","","","1","0","0","0.4666062126","","0.6","0.4","0.2","0.8","","","","","0.4666062126","0.6797091947","0.2688105372","0.6022157482","","","","","","","","","","72","H","0","img/none_selected.jpg","","207","main_expt",""
"","bandit","287","824326","0.0-249.0-0.0","65390465","wem/bandit_party_2","A3QL8ZAD9BKWUF","either","3","338","","","","","","","0","0","1","0.4594719295","","0.6","0.4","0.2","0.8","","","","","0.4594719295","0.472157919","0.2240001326","0.6598502583","","","","","","","","","","72","H","0","img/none_selected.jpg","","208","main_expt",""
"","bandit","288","825967","0.0-250.0-0.0","65390465","wem/bandit_party_2","A3QL8ZAD9BKWUF","either","3","120","","","","","","","1","0","0","0.5415101973","","0.6","0.4","0.2","0.8","","","","","0.5415101973","0.4993955773","0.3284172364","0.6329069529","","","","","","","","","","72","H","0","img/none_selected.jpg","","209","main_expt",""
"","bandit","289","827625","0.0-251.0-0.0","65390465","wem/bandit_party_2","A3QL8ZAD9BKWUF","either","3","138","","","","","","","0","1","0","","0.5627952802","0.6","0.4","0.2","0.8","0.5627952802","0.3923888982","0.3178667136","0.5418549626","","","","","","","","","","","","","","72","H","0","img/none_selected.jpg","","210","main_expt",""
"","bandit","290","829391","0.0-252.0-0.0","65390465","wem/bandit_party_2","A3QL8ZAD9BKWUF","either","3","257","","","","","","","0","0","1","0.5779033475","","0.6","0.4","0.2","0.8","","","","","0.5779033475","0.4183885941","0.278360526","0.7265410197","","","","","","","","","","72","H","0","img/none_selected.jpg","","211","main_expt",""
"","bandit","291","831119","0.0-253.0-0.0","65390465","wem/bandit_party_2","A3QL8ZAD9BKWUF","either","3","208","","","","","","","1","0","0","0.6169713091","","0.6","0.4","0.2","0.8","","","","","0.6169713091","0.5367383083","0.2720231684","0.6550819281","","","","","","","","","","72","H","0","img/none_selected.jpg","","212","main_expt",""
"","bandit","292","832997","0.0-254.0-0.0","65390465","wem/bandit_party_2","A3QL8ZAD9BKWUF","either","3","358","","","","","","","1","0","0","0.5688165975","","0.6","0.4","0.2","0.8","","","","","0.5688165975","0.5779451767","0.3445332441","0.5812500281","","","","","","","","","","72","H","0","img/none_selected.jpg","","213","main_expt",""
"","bandit","293","834646","0.0-255.0-0.0","65390465","wem/bandit_party_2","A3QL8ZAD9BKWUF","either","3","130","","","","","","","0","0","1","","0.5354690829","0.6","0.4","0.2","0.8","0.5354690829","0.5615700258","0.331154659","0.6912727382","","","","","","","","","","","","","","72","H","0","img/none_selected.jpg","","214","main_expt",""
"","bandit","294","836479","0.0-256.0-0.0","65390465","wem/bandit_party_2","A3QL8ZAD9BKWUF","either","3","313","","","","","","","1","0","0","0.4395706401","","0.6","0.4","0.2","0.8","","","","","0.4395706401","0.5361399643","0.3168016653","0.695573978","","","","","","","","","","72","H","0","img/none_selected.jpg","","215","main_expt",""
"","bandit","295","838281","0.0-257.0-0.0","65390465","wem/bandit_party_2","A3QL8ZAD9BKWUF","either","3","291","","","","","","","0","0","1","0.4522294324","","0.6","0.4","0.2","0.8","","","","","0.4522294324","0.620750855","0.2870858596","0.6531454011","","","","","","","","","","72","H","0","img/none_selected.jpg","","216","main_expt",""
"","bandit","296","840070","0.0-258.0-0.0","65390465","wem/bandit_party_2","A3QL8ZAD9BKWUF","either","3","270","","","","","","","0","0","1","0.2877345098","","0.6","0.4","0.2","0.8","","","","","0.4141575353","0.4812239037","0.2877345098","0.6459690495","","","","","","","","","","75","K","2","","","217","main_expt",""
"","bandit","297","841767","0.0-259.0-0.0","65390465","wem/bandit_party_2","A3QL8ZAD9BKWUF","either","3","177","","","","","","","0","0","1","","0.3608492067","0.6","0.4","0.2","0.8","0.3009722504","0.4028497994","0.3608492067","0.6679944541","","","","","","","","","","","","","","75","K","2","","","218","main_expt",""
"","bandit","298","843512","0.0-260.0-0.0","65390465","wem/bandit_party_2","A3QL8ZAD9BKWUF","either","3","224","","","","","","","1","0","0","0.7159195147","","0.6","0.4","0.2","0.8","","","","","0.2706893249","0.4441021312","0.4380407461","0.7159195147","","","","","","","","","","76","L","3","","","219","main_expt",""
"","bandit","299","845213","0.0-261.0-0.0","65390465","wem/bandit_party_2","A3QL8ZAD9BKWUF","either","3","186","","","","","","","0","0","1","0.6874484601","","0.6","0.4","0.2","0.8","","","","","0.3821277721","0.4867825248","0.4769938592","0.6874484601","","","","","","","","","","76","L","3","","","220","main_expt",""
"","bandit","300","846863","0.0-262.0-0.0","65390465","wem/bandit_party_2","A3QL8ZAD9BKWUF","either","3","134","","","","","","","1","0","0","0.6528128226","","0.6","0.4","0.2","0.8","","","","","0.4534214389","0.5428062785","0.4612627877","0.6528128226","","","","","","","","","","76","L","3","","","221","main_expt",""
"","bandit","301","850695","0.0-263.0-0.0","65390465","wem/bandit_party_2","A3QL8ZAD9BKWUF","either","3","2317","","","","","","","1","0","0","0.6836467719","","0.6","0.4","0.2","0.8","","","","","0.6049712458","0.5993321864","0.4192901336","0.6836467719","","","","","","","","","","76","L","3","","","222","main_expt",""
"","bandit","302","858239","0.0-264.0-0.0","65390465","wem/bandit_party_2","A3QL8ZAD9BKWUF","either","3","6024","","","","","","","1","0","0","0.7820879334","","0.6","0.4","0.2","0.8","","","","","0.6389506418","0.4920604154","0.5559965486","0.7820879334","","","","","","","","","","76","L","3","","","223","main_expt",""
"","bandit","303","860721","0.0-265.0-0.0","65390465","wem/bandit_party_2","A3QL8ZAD9BKWUF","either","3","973","","","","","","","1","0","0","0.763226653","","0.6","0.4","0.2","0.8","","","","","0.6677375732","0.5344282052","0.6687933923","0.763226653","","","","","","","","","","76","L","3","","","224","main_expt",""
"","bandit","304","863528","0.0-266.0-0.0","65390465","wem/bandit_party_2","A3QL8ZAD9BKWUF","either","3","1295","","","","","","","1","0","0","0.6931961842","","0.6","0.4","0.2","0.8","","","","","0.7706853934","0.5583452501","0.5954484576","0.6931961842","","","","","","","","","","76","L","3","","","225","main_expt",""
"","bandit","305","865400","0.0-267.0-0.0","65390465","wem/bandit_party_2","A3QL8ZAD9BKWUF","either","3","350","","","","","","","0","0","1","","0.6633974694","0.6","0.4","0.2","0.8","0.7624197083","0.5126042404","0.6152447968","0.6633974694","","","","","","","","","","","","","","76","L","3","","","226","main_expt",""
"","bandit","306","867127","0.0-268.0-0.0","65390465","wem/bandit_party_2","A3QL8ZAD9BKWUF","either","3","207","","","","","","","0","0","1","0.6567175756","","0.6","0.4","0.2","0.8","","","","","0.7287840805","0.5720595628","0.6597553912","0.6567175756","","","","","","","","","","76","L","3","","","227","main_expt",""
"","bandit","307","868909","0.0-269.0-0.0","65390465","wem/bandit_party_2","A3QL8ZAD9BKWUF","either","3","257","","","","","","","0","0","1","","0.6052730858","0.6","0.4","0.2","0.8","0.7993891034","0.6134710885","0.594895186","0.6052730858","","","","","","","","","","","","","","76","L","3","","","228","main_expt",""
"","bandit","308","871089","0.0-270.0-0.0","65390465","wem/bandit_party_2","A3QL8ZAD9BKWUF","either","3","668","","","","","","","0","0","1","0.5548990383","","0.6","0.4","0.2","0.8","","","","","0.8374027748","0.5669106804","0.5722559027","0.5548990383","","","","","","","","","","76","L","3","","","229","main_expt",""
"","bandit","309","873742","0.0-271.0-0.0","65390465","wem/bandit_party_2","A3QL8ZAD9BKWUF","either","3","1134","","","","","","","0","1","0","","0.6017114108","0.6","0.4","0.2","0.8","0.8414873787","0.6286782819","0.5409090622","0.6017114108","","","","","","","","","","","","","","76","L","3","","","230","main_expt",""
"","bandit","310","876024","0.0-272.0-0.0","65390465","wem/bandit_party_2","A3QL8ZAD9BKWUF","either","3","760","","","","","","","1","0","0","0.5525336349","","0.6","0.4","0.2","0.8","","","","","0.8531648874","0.5594948871","0.518727512","0.5525336349","","","","","","","","","","76","L","3","","","231","main_expt",""
"","bandit","311","879527","0.0-273.0-0.0","65390465","wem/bandit_party_2","A3QL8ZAD9BKWUF","either","3","1979","","","","","","","0","0","1","0.4493361955","","0.6","0.4","0.2","0.8","","","","","0.8813812612","0.5817998964","0.5200298571","0.4493361955","","","","","","","","","","76","L","3","","","232","main_expt",""
"","bandit","312","882346","0.0-274.0-0.0","65390465","wem/bandit_party_2","A3QL8ZAD9BKWUF","either","3","1299","","","","","","","1","0","0","0.5280832246","","0.6","0.4","0.2","0.8","","","","","0.8916766345","0.5971875981","0.4564343731","0.5280832246","","","","","","","","","","76","L","3","","","233","main_expt",""
"","bandit","313","884416","0.0-275.0-0.0","65390465","wem/bandit_party_2","A3QL8ZAD9BKWUF","either","3","548","","","","","","","0","1","0","","0.6814540918","0.6","0.4","0.2","0.8","0.842820862","0.5227237997","0.4168065644","0.6814540918","","","","","","","","","","","","","","76","L","3","","","234","main_expt",""
"","bandit","314","886128","0.0-276.0-0.0","65390465","wem/bandit_party_2","A3QL8ZAD9BKWUF","either","3","190","","","","","","","1","0","0","0.5518959403","","0.6","0.4","0.2","0.8","","","","","0.7856269381","0.6231997156","0.4340770274","0.5518959403","","","","","","","","","","76","L","3","","","235","main_expt",""
