"consent","trial_type","trial_index","time_elapsed","internal_node_id","subjID","study","MID","cond","drift","rt","responses","button_pressed","key_press","like","value","connected","gems","bombs","no_reward","GemPrChosen","BombPrChosen","GainOverPainPr_0","GainOverPainPr_1","GainOverPainPr_2","GainOverPainPr_3","LosePr_0","LosePr_1","LosePr_2","LosePr_3","WinPr_0","WinPr_1","WinPr_2","WinPr_3","Q0","Q1","Q2","gender","age","ethnicity","label","expt_phase","target","respCharCode","respKey","respChoiceNum","respChoice","practice","trial_counter","trial_label","Q0_index"
"GDM/GDM_behavioral_consent_30min_online.html","consent","0","19525","0.0-0.0","65493372","wem/bandit_party_2","A2A6FH0F7LD9ND","either","4","","","","","","","","","","","","","","","","","","","","","","","","","","","","","","","","","","","","","","","","",""
"","survey-text","1","27123","0.0-1.0","65493372","wem/bandit_party_2","A2A6FH0F7LD9ND","either","4","6563","{""Q0"":""A2A6FH0F7LD9ND""}","","","","","","","","","","","","","","","","","","","","","","","","","","","","","","","","","","","","","","",""
"","button-response","2","29688","0.0-2.0","65493372","wem/bandit_party_2","A2A6FH0F7LD9ND","either","4","1530","","1","","","","","","","","","","","","","","","","","","","","","","","","","","","","","","","","","","","","","",""
"","text-replacement","3","43694","0.0-3.0","65493372","wem/bandit_party_2","A2A6FH0F7LD9ND","either","4","12983","","","32","","","","","","","","","","","","","","","","","","","","","","","","","","","","","","","","","","","","",""
"","text-replacement","4","71032","0.0-4.0","65493372","wem/bandit_party_2","A2A6FH0F7LD9ND","either","4","27329","","","32","","","","","","","","","","","","","","","","","","","","","","","","","","","","","","","","","","","","",""
"","identification","5","78746","0.0-6.0-0.0","65493372","wem/bandit_party_2","A2A6FH0F7LD9ND","either","4","7636","","","","3","3","3","","","","","","","","","","","","","","","","","","","","","","","","pre","identification_pre","the Democratic Party","","","","","","","",""
"","identification","6","87488","0.0-6.0-1.0","65493372","wem/bandit_party_2","A2A6FH0F7LD9ND","either","4","7675","","","","4","3","4","","","","","","","","","","","","","","","","","","","","","","","","pre","identification_pre","the Republican Party","","","","","","","",""
"","text-replacement","7","94826","0.0-7.0","65493372","wem/bandit_party_2","A2A6FH0F7LD9ND","either","4","6319","","","32","","","","","","","","","","","","","","","","","","","","","","","","","","","","","","","","","","","","",""
"","text-replacement","8","108756","0.0-8.0","65493372","wem/bandit_party_2","A2A6FH0F7LD9ND","either","4","13918","","","32","","","","","","","","","","","","","","","","","","","","","","","","","","","","","","","","","","","","",""
"","text-replacement","9","117016","0.0-9.0","65493372","wem/bandit_party_2","A2A6FH0F7LD9ND","either","4","8250","","","32","","","","","","","","","","","","","","","","","","","","","","","","","","","","","","","","","","","","",""
"","text-replacement","10","120464","0.0-10.0","65493372","wem/bandit_party_2","A2A6FH0F7LD9ND","either","4","3442","","","32","","","","","","","","","","","","","","","","","","","","","","","","","","","","","","","","","","","","",""
"","text-replacement","11","126206","0.0-11.0","65493372","wem/bandit_party_2","A2A6FH0F7LD9ND","either","4","5738","","","32","","","","","","","","","","","","","","","","","","","","","","","","","","","","","","","","","","","","",""
"","bandit","12","131517","0.0-12.0-0.0","65493372","wem/bandit_party_2","A2A6FH0F7LD9ND","either","4","3762","","","","","","","0","0","1","0","0","","","","","0","","","","0","","","","","","","","","","","","","74","J","0","img/none_selected_demo.jpg","true","0","",""
"","bandit","13","134843","0.0-13.0-0.0","65493372","wem/bandit_party_2","A2A6FH0F7LD9ND","either","4","1794","","","","","","","0","0","1","0","0","","","","","0","","","","0","","","","","","","","","","","","","75","K","0","img/none_selected_demo.jpg","true","0","",""
"","text-replacement","14","140319","0.0-14.0","65493372","wem/bandit_party_2","A2A6FH0F7LD9ND","either","4","5472","","","32","","","","","","","","","","","","","","","","","","","","","","","","","","","","","","","","","","","","",""
"","text-replacement","15","143016","0.0-15.0","65493372","wem/bandit_party_2","A2A6FH0F7LD9ND","either","4","2691","","","32","","","","","","","","","","","","","","","","","","","","","","","","","","","","","","","","","","","","",""
"","text-replacement","16","148968","0.0-16.0","65493372","wem/bandit_party_2","A2A6FH0F7LD9ND","either","4","5946","","","32","","","","","","","","","","","","","","","","","","","","","","","","","","","","","","","","","","","","",""
"","text-replacement","17","151504","0.0-17.0","65493372","wem/bandit_party_2","A2A6FH0F7LD9ND","either","4","2532","","","32","","","","","","","","","","","","","","","","","","","","","","","","","","","","","","","","","","","","",""
"","bandit","18","156139","0.0-18.0-0.0","65493372","wem/bandit_party_2","A2A6FH0F7LD9ND","either","4","3094","","","","","","","0","0","1","","0.2","0.5","0.5","","","0.8","0.2","","","","","","","","","","","","","","","","75","K","1","","true","0","80_20_practice",""
"","bandit","19","159003","0.0-18.0-1.0","65493372","wem/bandit_party_2","A2A6FH0F7LD9ND","either","4","1324","","","","","","","1","0","0","0.8","","0.5","0.5","","","","","","","0.8","0.2","","","","","","","","","","","","74","J","0","img/none_selected_demo.jpg","true","0","80_20_practice",""
"","bandit","20","161248","0.0-18.0-2.0","65493372","wem/bandit_party_2","A2A6FH0F7LD9ND","either","4","725","","","","","","","1","0","0","0.8","","0.5","0.5","","","","","","","0.8","0.2","","","","","","","","","","","","74","J","0","img/none_selected_demo.jpg","true","0","80_20_practice",""
"","bandit","21","163104","0.0-18.0-3.0","65493372","wem/bandit_party_2","A2A6FH0F7LD9ND","either","4","310","","","","","","","0","1","0","","0.8","0.5","0.5","","","0.8","0.2","","","","","","","","","","","","","","","","74","J","0","img/none_selected_demo.jpg","true","0","80_20_practice",""
"","bandit","22","165677","0.0-18.0-4.0","65493372","wem/bandit_party_2","A2A6FH0F7LD9ND","either","4","1031","","","","","","","1","0","0","0.8","","0.5","0.5","","","","","","","0.8","0.2","","","","","","","","","","","","74","J","0","img/none_selected_demo.jpg","true","0","80_20_practice",""
"","bandit","23","168245","0.0-18.0-5.0","65493372","wem/bandit_party_2","A2A6FH0F7LD9ND","either","4","1032","","","","","","","0","0","1","0.2","","0.5","0.5","","","","","","","0.8","0.2","","","","","","","","","","","","75","K","1","","true","0","80_20_practice",""
"","bandit","24","170426","0.0-18.0-6.0","65493372","wem/bandit_party_2","A2A6FH0F7LD9ND","either","4","634","","","","","","","0","0","1","","0.2","0.5","0.5","","","0.8","0.2","","","","","","","","","","","","","","","","75","K","1","","true","0","80_20_practice",""
"","bandit","25","172655","0.0-18.0-7.0","65493372","wem/bandit_party_2","A2A6FH0F7LD9ND","either","4","693","","","","","","","0","1","0","","0.8","0.5","0.5","","","0.8","0.2","","","","","","","","","","","","","","","","74","J","0","img/none_selected_demo.jpg","true","0","80_20_practice",""
"","bandit","26","174966","0.0-18.0-8.0","65493372","wem/bandit_party_2","A2A6FH0F7LD9ND","either","4","783","","","","","","","1","0","0","0.8","","0.5","0.5","","","","","","","0.8","0.2","","","","","","","","","","","","74","J","0","img/none_selected_demo.jpg","true","0","80_20_practice",""
"","bandit","27","176964","0.0-18.0-9.0","65493372","wem/bandit_party_2","A2A6FH0F7LD9ND","either","4","465","","","","","","","0","0","1","0.2","","0.5","0.5","","","","","","","0.8","0.2","","","","","","","","","","","","75","K","1","","true","0","80_20_practice",""
"","bandit","28","178561","0.0-18.0-10.0","65493372","wem/bandit_party_2","A2A6FH0F7LD9ND","either","4","66","","","","","","","1","0","0","0.8","","0.5","0.5","","","","","","","0.8","0.2","","","","","","","","","","","","74","J","0","img/none_selected_demo.jpg","true","0","80_20_practice",""
"","bandit","29","180527","0.0-18.0-11.0","65493372","wem/bandit_party_2","A2A6FH0F7LD9ND","either","4","433","","","","","","","1","0","0","0.8","","0.5","0.5","","","","","","","0.8","0.2","","","","","","","","","","","","74","J","0","img/none_selected_demo.jpg","true","0","80_20_practice",""
"","bandit","30","182560","0.0-18.0-12.0","65493372","wem/bandit_party_2","A2A6FH0F7LD9ND","either","4","503","","","","","","","0","0","1","0.8","","0.5","0.5","","","","","","","0.8","0.2","","","","","","","","","","","","74","J","0","img/none_selected_demo.jpg","true","0","80_20_practice",""
"","bandit","31","184249","0.0-18.0-13.0","65493372","wem/bandit_party_2","A2A6FH0F7LD9ND","either","4","158","","","","","","","0","1","0","","0.2","0.5","0.5","","","0.8","0.2","","","","","","","","","","","","","","","","75","K","1","","true","0","80_20_practice",""
"","bandit","32","185936","0.0-18.0-14.0","65493372","wem/bandit_party_2","A2A6FH0F7LD9ND","either","4","168","","","","","","","1","0","0","0.8","","0.5","0.5","","","","","","","0.8","0.2","","","","","","","","","","","","74","J","0","img/none_selected_demo.jpg","true","0","80_20_practice",""
"","bandit","33","187992","0.0-18.0-15.0","65493372","wem/bandit_party_2","A2A6FH0F7LD9ND","either","4","512","","","","","","","1","0","0","0.8","","0.5","0.5","","","","","","","0.8","0.2","","","","","","","","","","","","74","J","0","img/none_selected_demo.jpg","true","0","80_20_practice",""
"","bandit","34","189897","0.0-18.0-16.0","65493372","wem/bandit_party_2","A2A6FH0F7LD9ND","either","4","336","","","","","","","0","0","1","","0.8","0.5","0.5","","","0.8","0.2","","","","","","","","","","","","","","","","74","J","0","img/none_selected_demo.jpg","true","0","80_20_practice",""
"","bandit","35","191985","0.0-18.0-17.0","65493372","wem/bandit_party_2","A2A6FH0F7LD9ND","either","4","557","","","","","","","0","0","1","","0.2","0.5","0.5","","","0.8","0.2","","","","","","","","","","","","","","","","75","K","1","","true","0","80_20_practice",""
"","bandit","36","194576","0.0-18.0-18.0","65493372","wem/bandit_party_2","A2A6FH0F7LD9ND","either","4","1063","","","","","","","1","0","0","0.8","","0.5","0.5","","","","","","","0.8","0.2","","","","","","","","","","","","74","J","0","img/none_selected_demo.jpg","true","0","80_20_practice",""
"","bandit","37","197167","0.0-18.0-19.0","65493372","wem/bandit_party_2","A2A6FH0F7LD9ND","either","4","1064","","","","","","","0","1","0","","0.8","0.5","0.5","","","0.8","0.2","","","","","","","","","","","","","","","","74","J","0","img/none_selected_demo.jpg","true","0","80_20_practice",""
"","text-replacement","38","200632","0.0-19.0","65493372","wem/bandit_party_2","A2A6FH0F7LD9ND","either","4","3461","","","32","","","","","","","","","","","","","","","","","","","","","","","","","","","","","","","","","","","","",""
"","bandit","39","204325","0.0-20.0-0.0","65493372","wem/bandit_party_2","A2A6FH0F7LD9ND","either","4","2159","","","","","","","1","0","0","1","0","","","","","0","1","","","1","0","","","","","","","","","","","","74","J","0","img/none_selected_demo.jpg","true","0","",""
"","text-replacement","40","210978","0.0-21.0","65493372","wem/bandit_party_2","A2A6FH0F7LD9ND","either","4","6649","","","32","","","","","","","","","","","","","","","","","","","","","","","","","","","","","","","","","","","","",""
"","text-replacement","41","215178","0.0-22.0","65493372","wem/bandit_party_2","A2A6FH0F7LD9ND","either","4","4196","","","32","","","","","","","","","","","","","","","","","","","","","","","","","","","","","","","","","","","","",""
"","text-replacement","42","217641","0.0-23.0","65493372","wem/bandit_party_2","A2A6FH0F7LD9ND","either","4","2459","","","32","","","","","","","","","","","","","","","","","","","","","","","","","","","","","","","","","","","","",""
"","text-replacement","43","224481","0.0-24.0","65493372","wem/bandit_party_2","A2A6FH0F7LD9ND","either","4","6836","","","32","","","","","","","","","","","","","","","","","","","","","","","","","","","","","","","","","","","","",""
"","text-replacement","44","238889","0.0-25.0","65493372","wem/bandit_party_2","A2A6FH0F7LD9ND","either","4","14405","","","32","","","","","","","","","","","","","","","","","","","","","","","","","","","","","","","","","","","","",""
"","text-replacement","45","241569","0.0-26.0","65493372","wem/bandit_party_2","A2A6FH0F7LD9ND","either","4","2676","","","32","","","","","","","","","","","","","","","","","","","","","","","","","","","","","","","","","","","","",""
"","text-replacement","46","244466","0.0-27.0","65493372","wem/bandit_party_2","A2A6FH0F7LD9ND","either","4","2893","","","32","","","","","","","","","","","","","","","","","","","","","","","","","","","","","","","","","","","","",""
"","text-replacement","47","246833","0.0-28.0","65493372","wem/bandit_party_2","A2A6FH0F7LD9ND","either","4","2364","","","32","","","","","","","","","","","","","","","","","","","","","","","","","","","","","","","","","","","","",""
"","text-replacement","48","250489","0.0-29.0","65493372","wem/bandit_party_2","A2A6FH0F7LD9ND","either","4","3652","","","32","","","","","","","","","","","","","","","","","","","","","","","","","","","","","","","","","","","","",""
"","text-replacement","49","252146","0.0-30.0","65493372","wem/bandit_party_2","A2A6FH0F7LD9ND","either","4","1653","","","32","","","","","","","","","","","","","","","","","","","","","","","","","","","","","","","","","","","","",""
"","text-replacement","50","254890","0.0-31.0","65493372","wem/bandit_party_2","A2A6FH0F7LD9ND","either","4","2740","","","32","","","","","","","","","","","","","","","","","","","","","","","","","","","","","","","","","","","","",""
"","bandit","51","257603","0.0-32.0-0.0","65493372","wem/bandit_party_2","A2A6FH0F7LD9ND","either","4","1164","","","","","","","0","1","0","","0.6","0.5","0.5","0.5","0.5","0.8","0.2","0.6","0.2","","","","","","","","","","","","","","75","K","2","","true","0","full_practice",""
"","bandit","52","261162","0.0-32.0-1.0","65493372","wem/bandit_party_2","A2A6FH0F7LD9ND","either","4","2023","","","","","","","0","0","1","","0.2","0.5","0.5","0.5","0.5","0.8","0.2","0.6","0.2","","","","","","","","","","","","","","74","J","1","","true","0","full_practice",""
"","bandit","53","264879","0.0-32.0-2.0","65493372","wem/bandit_party_2","A2A6FH0F7LD9ND","either","4","2190","","","","","","","0","1","0","","0.8","0.5","0.5","0.5","0.5","0.8","0.2","0.6","0.2","","","","","","","","","","","","","","72","H","0","img/none_selected.jpg","true","0","full_practice",""
"","bandit","54","267310","0.0-32.0-3.0","65493372","wem/bandit_party_2","A2A6FH0F7LD9ND","either","4","906","","","","","","","0","0","1","","0.2","0.5","0.5","0.5","0.5","0.8","0.2","0.6","0.2","","","","","","","","","","","","","","76","L","3","","true","0","full_practice",""
"","bandit","55","269478","0.0-32.0-4.0","65493372","wem/bandit_party_2","A2A6FH0F7LD9ND","either","4","634","","","","","","","0","0","1","0.6","","0.5","0.5","0.5","0.5","","","","","0.8","0.2","0.6","0.2","","","","","","","","","","75","K","2","","true","0","full_practice",""
"","bandit","56","273627","0.0-32.0-5.0","65493372","wem/bandit_party_2","A2A6FH0F7LD9ND","either","4","2602","","","","","","","0","0","1","0.2","","0.5","0.5","0.5","0.5","","","","","0.8","0.2","0.6","0.2","","","","","","","","","","74","J","1","","true","0","full_practice",""
"","bandit","57","276868","0.0-32.0-6.0","65493372","wem/bandit_party_2","A2A6FH0F7LD9ND","either","4","1711","","","","","","","1","0","0","0.8","","0.5","0.5","0.5","0.5","","","","","0.8","0.2","0.6","0.2","","","","","","","","","","72","H","0","img/none_selected.jpg","true","0","full_practice",""
"","bandit","58","279159","0.0-32.0-7.0","65493372","wem/bandit_party_2","A2A6FH0F7LD9ND","either","4","760","","","","","","","1","0","0","0.8","","0.5","0.5","0.5","0.5","","","","","0.8","0.2","0.6","0.2","","","","","","","","","","72","H","0","img/none_selected.jpg","true","0","full_practice",""
"","bandit","59","281299","0.0-32.0-8.0","65493372","wem/bandit_party_2","A2A6FH0F7LD9ND","either","4","609","","","","","","","1","0","0","0.8","","0.5","0.5","0.5","0.5","","","","","0.8","0.2","0.6","0.2","","","","","","","","","","72","H","0","img/none_selected.jpg","true","0","full_practice",""
"","bandit","60","283356","0.0-32.0-9.0","65493372","wem/bandit_party_2","A2A6FH0F7LD9ND","either","4","519","","","","","","","0","0","1","","0.8","0.5","0.5","0.5","0.5","0.8","0.2","0.6","0.2","","","","","","","","","","","","","","72","H","0","img/none_selected.jpg","true","0","full_practice",""
"","bandit","61","285571","0.0-32.0-10.0","65493372","wem/bandit_party_2","A2A6FH0F7LD9ND","either","4","674","","","","","","","0","0","1","","0.2","0.5","0.5","0.5","0.5","0.8","0.2","0.6","0.2","","","","","","","","","","","","","","76","L","3","","true","0","full_practice",""
"","bandit","62","287861","0.0-32.0-11.0","65493372","wem/bandit_party_2","A2A6FH0F7LD9ND","either","4","751","","","","","","","0","0","1","0.6","","0.5","0.5","0.5","0.5","","","","","0.8","0.2","0.6","0.2","","","","","","","","","","75","K","2","","true","0","full_practice",""
"","bandit","63","289903","0.0-32.0-12.0","65493372","wem/bandit_party_2","A2A6FH0F7LD9ND","either","4","504","","","","","","","0","1","0","","0.8","0.5","0.5","0.5","0.5","0.8","0.2","0.6","0.2","","","","","","","","","","","","","","72","H","0","img/none_selected.jpg","true","0","full_practice",""
"","bandit","64","292071","0.0-32.0-13.0","65493372","wem/bandit_party_2","A2A6FH0F7LD9ND","either","4","627","","","","","","","0","0","1","0.2","","0.5","0.5","0.5","0.5","","","","","0.8","0.2","0.6","0.2","","","","","","","","","","74","J","1","","true","0","full_practice",""
"","bandit","65","293989","0.0-32.0-14.0","65493372","wem/bandit_party_2","A2A6FH0F7LD9ND","either","4","370","","","","","","","0","1","0","","0.8","0.5","0.5","0.5","0.5","0.8","0.2","0.6","0.2","","","","","","","","","","","","","","72","H","0","img/none_selected.jpg","true","0","full_practice",""
"","bandit","66","296115","0.0-32.0-15.0","65493372","wem/bandit_party_2","A2A6FH0F7LD9ND","either","4","597","","","","","","","0","1","0","","0.8","0.5","0.5","0.5","0.5","0.8","0.2","0.6","0.2","","","","","","","","","","","","","","72","H","0","img/none_selected.jpg","true","0","full_practice",""
"","bandit","67","298081","0.0-32.0-16.0","65493372","wem/bandit_party_2","A2A6FH0F7LD9ND","either","4","431","","","","","","","0","1","0","","0.8","0.5","0.5","0.5","0.5","0.8","0.2","0.6","0.2","","","","","","","","","","","","","","72","H","0","img/none_selected.jpg","true","0","full_practice",""
"","bandit","68","300159","0.0-32.0-17.0","65493372","wem/bandit_party_2","A2A6FH0F7LD9ND","either","4","545","","","","","","","0","1","0","","0.8","0.5","0.5","0.5","0.5","0.8","0.2","0.6","0.2","","","","","","","","","","","","","","72","H","0","img/none_selected.jpg","true","0","full_practice",""
"","bandit","69","302144","0.0-32.0-18.0","65493372","wem/bandit_party_2","A2A6FH0F7LD9ND","either","4","433","","","","","","","1","0","0","0.8","","0.5","0.5","0.5","0.5","","","","","0.8","0.2","0.6","0.2","","","","","","","","","","72","H","0","img/none_selected.jpg","true","0","full_practice",""
"","bandit","70","304143","0.0-32.0-19.0","65493372","wem/bandit_party_2","A2A6FH0F7LD9ND","either","4","464","","","","","","","1","0","0","0.8","","0.5","0.5","0.5","0.5","","","","","0.8","0.2","0.6","0.2","","","","","","","","","","72","H","0","img/none_selected.jpg","true","0","full_practice",""
"","text","71","307604","0.0-33.0","65493372","wem/bandit_party_2","A2A6FH0F7LD9ND","either","4","3446","","","32","","","","","","","","","","","","","","","","","","","","","","","","","","","","","","","","","","","","",""
"","text-replacement","72","318332","0.0-34.0","65493372","wem/bandit_party_2","A2A6FH0F7LD9ND","either","4","9717","","","32","","","","","","","","","","","","","","","","","","","","","","","","","","","","","","","","","","","","",""
"","text-replacement","73","327341","0.0-35.0","65493372","wem/bandit_party_2","A2A6FH0F7LD9ND","either","4","9003","","","32","","","","","","","","","","","","","","","","","","","","","","","","","","","","","","","","","","","","",""
"","text-replacement","74","329732","0.0-36.0","65493372","wem/bandit_party_2","A2A6FH0F7LD9ND","either","4","2385","","","32","","","","","","","","","","","","","","","","","","","","","","","","","","","","","","","","","","","","",""
"","text-replacement","75","333172","0.0-37.0","65493372","wem/bandit_party_2","A2A6FH0F7LD9ND","either","4","3435","","","32","","","","","","","","","","","","","","","","","","","","","","","","","","","","","","","","","","","","",""
"","text-replacement","76","336014","0.0-38.0","65493372","wem/bandit_party_2","A2A6FH0F7LD9ND","either","4","2836","","","32","","","","","","","","","","","","","","","","","","","","","","","","","","","","","","","","","","","","",""
"","survey-multi-choice-replacement","77","342173","0.0-39.0-0.0","65493372","wem/bandit_party_2","A2A6FH0F7LD9ND","either","4","6132","","","","","","","","","","","","","","","","","","","","","","","","Money will be added to the pool for <span style='color:blue;'>DEMOCRATS</span>","","","","","","","attn_check","","","","","","","","","0"
"","survey-multi-choice-replacement","78","348066","0.0-40.0-0.0","65493372","wem/bandit_party_2","A2A6FH0F7LD9ND","either","4","4852","","","","","","","","","","","","","","","","","","","","","","","","Equal amounts of money will be added to the pool for <span style='color:blue;'>DEMOCRATS</span> and subtracted from the pool for <span style='color:red;'>REPUBLICANS</span>","","","","","","","attn_check","","","","","","","","","2"
"","survey-multi-choice-replacement","79","352377","0.0-41.0-0.0","65493372","wem/bandit_party_2","A2A6FH0F7LD9ND","either","4","3272","","","","","","","","","","","","","","","","","","","","","","","","No money will be added to either pool","","","","","","","attn_check","","","","","","","","","3"
"","bandit","80","357362","0.0-42.0-0.0","65493372","wem/bandit_party_2","A2A6FH0F7LD9ND","either","4","2426","","","","","","","1","0","0","0.7267404998","","0.8","0.4","0.6","0.2","","","","","0.2887693562","0.7267404998","0.9858900825","0.8209843215","","","","","","","","","","74","J","1","","","1","main_expt",""
"","bandit","81","359747","0.0-43.0-0.0","65493372","wem/bandit_party_2","A2A6FH0F7LD9ND","either","4","829","","","","","","","1","0","0","0.7034907646","","0.8","0.4","0.6","0.2","","","","","0.2986217167","0.7034907646","0.9854924354","0.8179122382","","","","","","","","","","74","J","1","","","2","main_expt",""
"","bandit","82","361948","0.0-44.0-0.0","65493372","wem/bandit_party_2","A2A6FH0F7LD9ND","either","4","671","","","","","","","1","0","0","0.6574847675","","0.8","0.4","0.6","0.2","","","","","0.261346942","0.6574847675","0.9789624529","0.8301291561","","","","","","","","","","74","J","1","","","3","main_expt",""
"","bandit","83","364019","0.0-45.0-0.0","65493372","wem/bandit_party_2","A2A6FH0F7LD9ND","either","4","528","","","","","","","0","0","1","","0.5092805277","0.8","0.4","0.6","0.2","0.2757740293","0.5092805277","0.9565345184","0.8219157537","","","","","","","","","","","","","","74","J","1","","","4","main_expt",""
"","bandit","84","366189","0.0-46.0-0.0","65493372","wem/bandit_party_2","A2A6FH0F7LD9ND","either","4","631","","","","","","","1","0","0","0.941194936","","0.8","0.4","0.6","0.2","","","","","0.3329857669","0.5952926025","0.941194936","0.7759220463","","","","","","","","","","75","K","2","","","5","main_expt",""
"","bandit","85","368247","0.0-47.0-0.0","65493372","wem/bandit_party_2","A2A6FH0F7LD9ND","either","4","525","","","","","","","1","0","0","0.6160758637","","0.8","0.4","0.6","0.2","","","","","0.331878758","0.6160758637","0.9305219143","0.7495930044","","","","","","","","","","74","J","1","","","6","main_expt",""
"","bandit","86","370476","0.0-48.0-0.0","65493372","wem/bandit_party_2","A2A6FH0F7LD9ND","either","4","690","","","","","","","1","0","0","0.937738562","","0.8","0.4","0.6","0.2","","","","","0.3863389794","0.6381806331","0.937738562","0.7078030286","","","","","","","","","","75","K","2","","","7","main_expt",""
"","bandit","87","372486","0.0-49.0-0.0","65493372","wem/bandit_party_2","A2A6FH0F7LD9ND","either","4","486","","","","","","","1","0","0","0.8269671957","","0.8","0.4","0.6","0.2","","","","","0.4242016385","0.7047831713","0.8269671957","0.689407674","","","","","","","","","","75","K","2","","","8","main_expt",""
"","bandit","88","374534","0.0-50.0-0.0","65493372","wem/bandit_party_2","A2A6FH0F7LD9ND","either","4","508","","","","","","","0","0","1","","0.6222923336","0.8","0.4","0.6","0.2","0.379169242","0.6222923336","0.7696709776","0.7848236408","","","","","","","","","","","","","","74","J","1","","","9","main_expt",""
"","bandit","89","376566","0.0-51.0-0.0","65493372","wem/bandit_party_2","A2A6FH0F7LD9ND","either","4","493","","","","","","","0","0","1","","0.7313552403","0.8","0.4","0.6","0.2","0.40569916","0.5629201009","0.7313552403","0.791363481","","","","","","","","","","","","","","75","K","2","","","10","main_expt",""
"","bandit","90","379446","0.0-52.0-0.0","65493372","wem/bandit_party_2","A2A6FH0F7LD9ND","either","4","1349","","","","","","","1","0","0","0.4188021694","","0.8","0.4","0.6","0.2","","","","","0.4188021694","0.644159789","0.8129169819","0.7800632456","","","","","","","","","","72","H","0","img/none_selected.jpg","","11","main_expt",""
"","bandit","91","381487","0.0-53.0-0.0","65493372","wem/bandit_party_2","A2A6FH0F7LD9ND","either","4","511","","","","","","","1","0","0","0.7611571711","","0.8","0.4","0.6","0.2","","","","","0.3689559917","0.6840372722","0.7611571711","0.7559884596","","","","","","","","","","75","K","2","","","12","main_expt",""
"","bandit","92","384103","0.0-54.0-0.0","65493372","wem/bandit_party_2","A2A6FH0F7LD9ND","either","4","1092","","","","","","","0","0","1","","0.6236151953","0.8","0.4","0.6","0.2","0.4584943612","0.6236151953","0.7628417147","0.7695577991","","","","","","","","","","","","","","74","J","1","","","13","main_expt",""
"","bandit","93","386068","0.0-55.0-0.0","65493372","wem/bandit_party_2","A2A6FH0F7LD9ND","either","4","429","","","","","","","1","0","0","0.7436451733","","0.8","0.4","0.6","0.2","","","","","0.455083938","0.5388331182","0.7436451733","0.8509931145","","","","","","","","","","75","K","2","","","14","main_expt",""
"","bandit","94","387985","0.0-56.0-0.0","65493372","wem/bandit_party_2","A2A6FH0F7LD9ND","either","4","383","","","","","","","0","0","1","","0.8256008488","0.8","0.4","0.6","0.2","0.5360112786","0.4802769188","0.8256008488","0.7745856811","","","","","","","","","","","","","","75","K","2","","","15","main_expt",""
"","bandit","95","390331","0.0-57.0-0.0","65493372","wem/bandit_party_2","A2A6FH0F7LD9ND","either","4","818","","","","","","","1","0","0","0.4791571541","","0.8","0.4","0.6","0.2","","","","","0.4791571541","0.4688000192","0.7683027423","0.7576521113","","","","","","","","","","72","H","0","img/none_selected.jpg","","16","main_expt",""
"","bandit","96","393025","0.0-58.0-0.0","65493372","wem/bandit_party_2","A2A6FH0F7LD9ND","either","4","1161","","","","","","","0","0","1","0.5263630166","","0.8","0.4","0.6","0.2","","","","","0.5263630166","0.6000602573","0.7857675768","0.8099558365","","","","","","","","","","72","H","0","img/none_selected.jpg","","17","main_expt",""
"","bandit","97","395116","0.0-59.0-0.0","65493372","wem/bandit_party_2","A2A6FH0F7LD9ND","either","4","553","","","","","","","1","0","0","0.7303419725","","0.8","0.4","0.6","0.2","","","","","0.543945959","0.6046592687","0.7303419725","0.7535280451","","","","","","","","","","75","K","2","","","18","main_expt",""
"","bandit","98","397812","0.0-60.0-0.0","65493372","wem/bandit_party_2","A2A6FH0F7LD9ND","either","4","1162","","","","","","","0","1","0","","0.7206444799","0.8","0.4","0.6","0.2","0.4579801682","0.6177236116","0.7243255268","0.7206444799","","","","","","","","","","","","","","76","L","3","","","19","main_expt",""
"","bandit","99","400163","0.0-61.0-0.0","65493372","wem/bandit_party_2","A2A6FH0F7LD9ND","either","4","823","","","","","","","0","0","1","","0.6388551968","0.8","0.4","0.6","0.2","0.5439896582","0.5484637992","0.7691283854","0.6388551968","","","","","","","","","","","","","","76","L","3","","","20","main_expt",""
"","bandit","100","402702","0.0-62.0-0.0","65493372","wem/bandit_party_2","A2A6FH0F7LD9ND","either","4","1016","","","","","","","0","1","0","","0.7068464658","0.8","0.4","0.6","0.2","0.5796019833","0.6646151354","0.7068464658","0.4956822649","","","","","","","","","","","","","","75","K","2","","","21","main_expt",""
"","bandit","101","405106","0.0-63.0-0.0","65493372","wem/bandit_party_2","A2A6FH0F7LD9ND","either","4","863","","","","","","","1","0","0","0.7223938077","","0.8","0.4","0.6","0.2","","","","","0.5885929095","0.7223938077","0.7407239748","0.4316307404","","","","","","","","","","74","J","1","","","22","main_expt",""
"","bandit","102","407154","0.0-64.0-0.0","65493372","wem/bandit_party_2","A2A6FH0F7LD9ND","either","4","507","","","","","","","1","0","0","0.7548690184","","0.8","0.4","0.6","0.2","","","","","0.4899642796","0.7548690184","0.7300920021","0.4158022912","","","","","","","","","","74","J","1","","","23","main_expt",""
"","bandit","103","409584","0.0-65.0-0.0","65493372","wem/bandit_party_2","A2A6FH0F7LD9ND","either","4","888","","","","","","","0","0","1","0.7794954679","","0.8","0.4","0.6","0.2","","","","","0.4984159311","0.7794954679","0.7074307303","0.4099928258","","","","","","","","","","74","J","1","","","24","main_expt",""
"","bandit","104","411611","0.0-66.0-0.0","65493372","wem/bandit_party_2","A2A6FH0F7LD9ND","either","4","503","","","","","","","1","0","0","0.5885503773","","0.8","0.4","0.6","0.2","","","","","0.5885503773","0.8029664172","0.6228099684","0.4303724308","","","","","","","","","","72","H","0","img/none_selected.jpg","","25","main_expt",""
"","bandit","105","414152","0.0-67.0-0.0","65493372","wem/bandit_party_2","A2A6FH0F7LD9ND","either","4","995","","","","","","","0","1","0","","0.6978100054","0.8","0.4","0.6","0.2","0.6978100054","0.6980766755","0.5588879168","0.3291624114","","","","","","","","","","","","","","72","H","0","img/none_selected.jpg","","26","main_expt",""
"","bandit","106","416316","0.0-68.0-0.0","65493372","wem/bandit_party_2","A2A6FH0F7LD9ND","either","4","620","","","","","","","1","0","0","0.7021498626","","0.8","0.4","0.6","0.2","","","","","0.6442468271","0.7021498626","0.5033257713","0.3795789415","","","","","","","","","","74","J","1","","","27","main_expt",""
"","bandit","107","418345","0.0-69.0-0.0","65493372","wem/bandit_party_2","A2A6FH0F7LD9ND","either","4","480","","","","","","","0","1","0","","0.4915102133","0.8","0.4","0.6","0.2","0.7399213538","0.7802436781","0.4915102133","0.3208573938","","","","","","","","","","","","","","75","K","2","","","28","main_expt",""
"","bandit","108","420580","0.0-70.0-0.0","65493372","wem/bandit_party_2","A2A6FH0F7LD9ND","either","4","699","","","","","","","0","1","0","","0.3352919619","0.8","0.4","0.6","0.2","0.7520253205","0.6907923131","0.4291187576","0.3352919619","","","","","","","","","","","","","","76","L","3","","","29","main_expt",""
"","bandit","109","422704","0.0-71.0-0.0","65493372","wem/bandit_party_2","A2A6FH0F7LD9ND","either","4","599","","","","","","","0","0","1","0.5379907803","","0.8","0.4","0.6","0.2","","","","","0.7528469829","0.6771306444","0.5379907803","0.3452717309","","","","","","","","","","75","K","2","","","30","main_expt",""
"","bandit","110","425243","0.0-72.0-0.0","65493372","wem/bandit_party_2","A2A6FH0F7LD9ND","either","4","1006","","","","","","","1","0","0","0.7130915948","","0.8","0.4","0.6","0.2","","","","","0.7571908429","0.7130915948","0.646046857","0.2967094522","","","","","","","","","","74","J","1","","","31","main_expt",""
"","bandit","111","427321","0.0-73.0-0.0","65493372","wem/bandit_party_2","A2A6FH0F7LD9ND","either","4","555","","","","","","","0","0","1","0.6849190202","","0.8","0.4","0.6","0.2","","","","","0.7530934884","0.6849190202","0.5608885347","0.255781972","","","","","","","","","","74","J","1","","","32","main_expt",""
"","bandit","112","429645","0.0-74.0-0.0","65493372","wem/bandit_party_2","A2A6FH0F7LD9ND","either","4","796","","","","","","","1","0","0","0.7163673585","","0.8","0.4","0.6","0.2","","","","","0.7163673585","0.7392612035","0.5952322697","0.2703771925","","","","","","","","","","72","H","0","img/none_selected.jpg","","33","main_expt",""
"","bandit","113","431797","0.0-75.0-0.0","65493372","wem/bandit_party_2","A2A6FH0F7LD9ND","either","4","616","","","","","","","1","0","0","0.6817248107","","0.8","0.4","0.6","0.2","","","","","0.6817248107","0.7026009082","0.6206609301","0.3572673824","","","","","","","","","","72","H","0","img/none_selected.jpg","","34","main_expt",""
"","bandit","114","434089","0.0-76.0-0.0","65493372","wem/bandit_party_2","A2A6FH0F7LD9ND","either","4","740","","","","","","","0","0","1","0.6903641832","","0.8","0.4","0.6","0.2","","","","","0.6903641832","0.632003728","0.6223058769","0.3237575066","","","","","","","","","","72","H","0","img/none_selected.jpg","","35","main_expt",""
"","bandit","115","436025","0.0-77.0-0.0","65493372","wem/bandit_party_2","A2A6FH0F7LD9ND","either","4","395","","","","","","","0","0","1","0.7304722347","","0.8","0.4","0.6","0.2","","","","","0.6953747248","0.7266912659","0.7304722347","0.3724209237","","","","","","","","","","75","K","2","","","36","main_expt",""
"","bandit","116","438103","0.0-78.0-0.0","65493372","wem/bandit_party_2","A2A6FH0F7LD9ND","either","4","515","","","","","","","0","0","1","","0.5512211225","0.8","0.4","0.6","0.2","0.7552078918","0.5512211225","0.6789706255","0.3848591071","","","","","","","","","","","","","","74","J","1","","","37","main_expt",""
"","bandit","117","441330","0.0-79.0-0.0","65493372","wem/bandit_party_2","A2A6FH0F7LD9ND","either","4","1693","","","","","","","1","0","0","0.7095976639","","0.8","0.4","0.6","0.2","","","","","0.7095976639","0.5888446875","0.6758320082","0.4026628424","","","","","","","","","","72","H","0","img/none_selected.jpg","","38","main_expt",""
"","bandit","118","443652","0.0-80.0-0.0","65493372","wem/bandit_party_2","A2A6FH0F7LD9ND","either","4","793","","","","","","","1","0","0","0.7813817897","","0.8","0.4","0.6","0.2","","","","","0.7813817897","0.7349010221","0.753286291","0.460229008","","","","","","","","","","72","H","0","img/none_selected.jpg","","39","main_expt",""
"","bandit","119","445848","0.0-81.0-0.0","65493372","wem/bandit_party_2","A2A6FH0F7LD9ND","either","4","647","","","","","","","1","0","0","0.7604460558","","0.8","0.4","0.6","0.2","","","","","0.7604460558","0.6715391024","0.7527041006","0.3392787789","","","","","","","","","","72","H","0","img/none_selected.jpg","","40","main_expt",""
"","bandit","120","448094","0.0-82.0-0.0","65493372","wem/bandit_party_2","A2A6FH0F7LD9ND","either","4","708","","","","","","","1","0","0","0.7588214983","","0.8","0.4","0.6","0.2","","","","","0.7588214983","0.688235262","0.7900808451","0.2983701942","","","","","","","","","","72","H","0","img/none_selected.jpg","","41","main_expt",""
"","bandit","121","450260","0.0-83.0-0.0","65493372","wem/bandit_party_2","A2A6FH0F7LD9ND","either","4","632","","","","","","","1","0","0","0.8204813903","","0.8","0.4","0.6","0.2","","","","","0.8204813903","0.750516412","0.7261157662","0.2390858253","","","","","","","","","","72","H","0","img/none_selected.jpg","","42","main_expt",""
"","bandit","122","452339","0.0-84.0-0.0","65493372","wem/bandit_party_2","A2A6FH0F7LD9ND","either","4","553","","","","","","","1","0","0","0.8310219988","","0.8","0.4","0.6","0.2","","","","","0.8310219988","0.775378891","0.772887471","0.1877526289","","","","","","","","","","72","H","0","img/none_selected.jpg","","43","main_expt",""
"","bandit","123","454368","0.0-85.0-0.0","65493372","wem/bandit_party_2","A2A6FH0F7LD9ND","either","4","498","","","","","","","0","1","0","","0.8165903167","0.8","0.4","0.6","0.2","0.8165903167","0.5983035632","0.7359848823","0.2713877418","","","","","","","","","","","","","","72","H","0","img/none_selected.jpg","","44","main_expt",""
"","bandit","124","456664","0.0-86.0-0.0","65493372","wem/bandit_party_2","A2A6FH0F7LD9ND","either","4","756","","","","","","","0","0","1","0.6765015189","","0.8","0.4","0.6","0.2","","","","","0.6765015189","0.6453890447","0.6223954065","0.2600408605","","","","","","","","","","72","H","0","img/none_selected.jpg","","45","main_expt",""
"","bandit","125","458738","0.0-87.0-0.0","65493372","wem/bandit_party_2","A2A6FH0F7LD9ND","either","4","524","","","","","","","0","0","1","","0.2435580982","0.8","0.4","0.6","0.2","0.6613510417","0.4979639723","0.5963379238","0.2435580982","","","","","","","","","","","","","","76","L","3","","","46","main_expt",""
"","bandit","126","460840","0.0-88.0-0.0","65493372","wem/bandit_party_2","A2A6FH0F7LD9ND","either","4","554","","","","","","","0","0","1","","0.6161308884","0.8","0.4","0.6","0.2","0.7373034573","0.4475739324","0.6161308884","0.3258971046","","","","","","","","","","","","","","75","K","2","","","47","main_expt",""
"","bandit","127","463084","0.0-89.0-0.0","65493372","wem/bandit_party_2","A2A6FH0F7LD9ND","either","4","700","","","","","","","0","1","0","","0.570942939","0.8","0.4","0.6","0.2","0.6580913366","0.570942939","0.6354722558","0.2934977076","","","","","","","","","","","","","","74","J","1","","","48","main_expt",""
"","bandit","128","465080","0.0-90.0-0.0","65493372","wem/bandit_party_2","A2A6FH0F7LD9ND","either","4","457","","","","","","","0","1","0","","0.5943858444","0.8","0.4","0.6","0.2","0.6518545324","0.5943858444","0.5941747261","0.3381222087","","","","","","","","","","","","","","74","J","1","","","49","main_expt",""
"","bandit","129","467047","0.0-91.0-0.0","65493372","wem/bandit_party_2","A2A6FH0F7LD9ND","either","4","444","","","","","","","0","0","1","0.6362385309","","0.8","0.4","0.6","0.2","","","","","0.6362385309","0.72156704","0.5510631732","0.4149653651","","","","","","","","","","72","H","0","img/none_selected.jpg","","50","main_expt",""
"","bandit","130","468999","0.0-92.0-0.0","65493372","wem/bandit_party_2","A2A6FH0F7LD9ND","either","4","414","","","","","","","1","0","0","0.6453884322","","0.8","0.4","0.6","0.2","","","","","0.6673370403","0.6453884322","0.5580995271","0.315936401","","","","","","","","","","74","J","1","","","51","main_expt",""
"","bandit","131","471242","0.0-93.0-0.0","65493372","wem/bandit_party_2","A2A6FH0F7LD9ND","either","4","694","","","","","","","1","0","0","0.635653338","","0.8","0.4","0.6","0.2","","","","","0.6614759556","0.635653338","0.4492126091","0.34776451","","","","","","","","","","74","J","1","","","52","main_expt",""
"","bandit","132","473285","0.0-94.0-0.0","65493372","wem/bandit_party_2","A2A6FH0F7LD9ND","either","4","509","","","","","","","0","1","0","","0.5700640027","0.8","0.4","0.6","0.2","0.5099009019","0.5700640027","0.4600129001","0.2946288454","","","","","","","","","","","","","","74","J","1","","","53","main_expt",""
"","bandit","133","475422","0.0-95.0-0.0","65493372","wem/bandit_party_2","A2A6FH0F7LD9ND","either","4","590","","","","","","","0","0","1","0.4535518587","","0.8","0.4","0.6","0.2","","","","","0.5323874036","0.4535518587","0.4005354829","0.3757560715","","","","","","","","","","74","J","1","","","54","main_expt",""
"","bandit","134","477313","0.0-96.0-0.0","65493372","wem/bandit_party_2","A2A6FH0F7LD9ND","either","4","365","","","","","","","1","0","0","0.3305694417","","0.8","0.4","0.6","0.2","","","","","0.5410243768","0.4271895083","0.3305694417","0.3258455482","","","","","","","","","","75","K","2","","","55","main_expt",""
"","bandit","135","479295","0.0-97.0-0.0","65493372","wem/bandit_party_2","A2A6FH0F7LD9ND","either","4","445","","","","","","","1","0","0","0.3443449075","","0.8","0.4","0.6","0.2","","","","","0.5594159285","0.3506641683","0.3443449075","0.4350401219","","","","","","","","","","75","K","2","","","56","main_expt",""
"","bandit","136","481250","0.0-98.0-0.0","65493372","wem/bandit_party_2","A2A6FH0F7LD9ND","either","4","424","","","","","","","0","0","1","0.3719720486","","0.8","0.4","0.6","0.2","","","","","0.5057935102","0.3266461122","0.3719720486","0.3707313189","","","","","","","","","","75","K","2","","","57","main_expt",""
"","bandit","137","483309","0.0-99.0-0.0","65493372","wem/bandit_party_2","A2A6FH0F7LD9ND","either","4","523","","","","","","","1","0","0","0.4921421838","","0.8","0.4","0.6","0.2","","","","","0.4921421838","0.3024401834","0.2230753252","0.5588799977","","","","","","","","","","72","H","0","img/none_selected.jpg","","58","main_expt",""
"","bandit","138","485320","0.0-100.0-0.0","65493372","wem/bandit_party_2","A2A6FH0F7LD9ND","either","4","480","","","","","","","0","0","1","0.2255195526","","0.8","0.4","0.6","0.2","","","","","0.4740341295","0.4306619987","0.2255195526","0.6863198467","","","","","","","","","","75","K","2","","","59","main_expt",""
"","bandit","139","487239","0.0-101.0-0.0","65493372","wem/bandit_party_2","A2A6FH0F7LD9ND","either","4","373","","","","","","","1","0","0","0.4853159436","","0.8","0.4","0.6","0.2","","","","","0.4853159436","0.4710521126","0.2150487889","0.6998437478","","","","","","","","","","72","H","0","img/none_selected.jpg","","60","main_expt",""
"","bandit","140","489253","0.0-102.0-0.0","65493372","wem/bandit_party_2","A2A6FH0F7LD9ND","either","4","478","","","","","","","0","0","1","0.4843563089","","0.8","0.4","0.6","0.2","","","","","0.4843563089","0.4797168847","0.2670703017","0.7027468204","","","","","","","","","","72","H","0","img/none_selected.jpg","","61","main_expt",""
"","bandit","141","491470","0.0-103.0-0.0","65493372","wem/bandit_party_2","A2A6FH0F7LD9ND","either","4","687","","","","","","","1","0","0","0.1622034337","","0.8","0.4","0.6","0.2","","","","","0.4970562682","0.441351191","0.1622034337","0.7461433662","","","","","","","","","","75","K","2","","","62","main_expt",""
"","bandit","142","493689","0.0-104.0-0.0","65493372","wem/bandit_party_2","A2A6FH0F7LD9ND","either","4","686","","","","","","","0","0","1","0.1872430185","","0.8","0.4","0.6","0.2","","","","","0.4870743105","0.6405696824","0.1872430185","0.7956877632","","","","","","","","","","75","K","2","","","63","main_expt",""
"","bandit","143","496196","0.0-105.0-0.0","65493372","wem/bandit_party_2","A2A6FH0F7LD9ND","either","4","971","","","","","","","0","1","0","","0.5093225209","0.8","0.4","0.6","0.2","0.5297884171","0.5093225209","0.1921602407","0.7533911137","","","","","","","","","","","","","","74","J","1","","","64","main_expt",""
"","bandit","144","498771","0.0-106.0-0.0","65493372","wem/bandit_party_2","A2A6FH0F7LD9ND","either","4","1048","","","","","","","0","0","1","","0.5190422554","0.8","0.4","0.6","0.2","0.5510281753","0.5190422554","0.1747679693","0.8407665504","","","","","","","","","","","","","","74","J","1","","","65","main_expt",""
"","bandit","145","500989","0.0-107.0-0.0","65493372","wem/bandit_party_2","A2A6FH0F7LD9ND","either","4","690","","","","","","","0","1","0","","0.8392190168","0.8","0.4","0.6","0.2","0.6548378986","0.4367989657","0.149475979","0.8392190168","","","","","","","","","","","","","","76","L","3","","","66","main_expt",""
"","bandit","146","503267","0.0-108.0-0.0","65493372","wem/bandit_party_2","A2A6FH0F7LD9ND","either","4","744","","","","","","","0","1","0","","0.7998105719","0.8","0.4","0.6","0.2","0.7873643744","0.4515976155","0.1340316754","0.7998105719","","","","","","","","","","","","","","76","L","3","","","67","main_expt",""
"","bandit","147","505498","0.0-109.0-0.0","65493372","wem/bandit_party_2","A2A6FH0F7LD9ND","either","4","693","","","","","","","0","1","0","","0.8055175736","0.8","0.4","0.6","0.2","0.8374830125","0.4605235732","0.1635100664","0.8055175736","","","","","","","","","","","","","","76","L","3","","","68","main_expt",""
"","bandit","148","507724","0.0-110.0-0.0","65493372","wem/bandit_party_2","A2A6FH0F7LD9ND","either","4","683","","","","","","","0","0","1","","0.1227365859","0.8","0.4","0.6","0.2","0.7948054761","0.3799115548","0.1227365859","0.9157616325","","","","","","","","","","","","","","75","K","2","","","69","main_expt",""
"","bandit","149","509627","0.0-111.0-0.0","65493372","wem/bandit_party_2","A2A6FH0F7LD9ND","either","4","354","","","","","","","1","0","0","0.9575411193","","0.8","0.4","0.6","0.2","","","","","0.8257183208","0.4215965018","0.1248437045","0.9575411193","","","","","","","","","","76","L","3","","","70","main_expt",""
"","bandit","150","511841","0.0-112.0-0.0","65493372","wem/bandit_party_2","A2A6FH0F7LD9ND","either","4","680","","","","","","","0","1","0","","0.9604429572","0.8","0.4","0.6","0.2","0.7378076352","0.4069040491","0.1153860856","0.9604429572","","","","","","","","","","","","","","76","L","3","","","71","main_expt",""
"","bandit","151","514783","0.0-113.0-0.0","65493372","wem/bandit_party_2","A2A6FH0F7LD9ND","either","4","1403","","","","","","","1","0","0","0.7402058239","","0.8","0.4","0.6","0.2","","","","","0.7402058239","0.4396577013","0.1355011504","0.9598545795","","","","","","","","","","72","H","0","img/none_selected.jpg","","72","main_expt",""
"","bandit","152","517213","0.0-114.0-0.0","65493372","wem/bandit_party_2","A2A6FH0F7LD9ND","either","4","902","","","","","","","0","1","0","","0.6976791507","0.8","0.4","0.6","0.2","0.6976791507","0.6562772762","0.05996807606","0.944667289","","","","","","","","","","","","","","72","H","0","img/none_selected.jpg","","73","main_expt",""
"","bandit","153","519689","0.0-115.0-0.0","65493372","wem/bandit_party_2","A2A6FH0F7LD9ND","either","4","953","","","","","","","1","0","0","0.6973429816","","0.8","0.4","0.6","0.2","","","","","0.7918365236","0.6973429816","0.05405538329","0.9226304804","","","","","","","","","","74","J","1","","","74","main_expt",""
"","bandit","154","522217","0.0-116.0-0.0","65493372","wem/bandit_party_2","A2A6FH0F7LD9ND","either","4","988","","","","","","","1","0","0","0.7736122178","","0.8","0.4","0.6","0.2","","","","","0.7822783488","0.7736122178","0.02989929625","0.9398646798","","","","","","","","","","74","J","1","","","75","main_expt",""
"","bandit","155","524264","0.0-117.0-0.0","65493372","wem/bandit_party_2","A2A6FH0F7LD9ND","either","4","517","","","","","","","1","0","0","0.8130420724","","0.8","0.4","0.6","0.2","","","","","0.7290889389","0.8130420724","0.0563551135","0.9344412274","","","","","","","","","","74","J","1","","","76","main_expt",""
"","bandit","156","526399","0.0-118.0-0.0","65493372","wem/bandit_party_2","A2A6FH0F7LD9ND","either","4","596","","","","","","","0","1","0","","0.8182773084","0.8","0.4","0.6","0.2","0.7903383215","0.8182773084","0.0510075381","0.9512527415","","","","","","","","","","","","","","74","J","1","","","77","main_expt",""
"","bandit","157","528584","0.0-119.0-0.0","65493372","wem/bandit_party_2","A2A6FH0F7LD9ND","either","4","654","","","","","","","1","0","0","0.910984946","","0.8","0.4","0.6","0.2","","","","","0.8093770606","0.910984946","0.07280641377","0.945324638","","","","","","","","","","74","J","1","","","78","main_expt",""
"","bandit","158","530847","0.0-120.0-0.0","65493372","wem/bandit_party_2","A2A6FH0F7LD9ND","either","4","734","","","","","","","0","1","0","","0.9303795674","0.8","0.4","0.6","0.2","0.7310189459","0.9303795674","0.06591604593","0.9313693401","","","","","","","","","","","","","","74","J","1","","","79","main_expt",""
"","bandit","159","532997","0.0-121.0-0.0","65493372","wem/bandit_party_2","A2A6FH0F7LD9ND","either","4","606","","","","","","","0","0","1","0.9581515868","","0.8","0.4","0.6","0.2","","","","","0.7915113188","0.9581515868","0.02790121052","0.9272018461","","","","","","","","","","74","J","1","","","80","main_expt",""
"","bandit","160","534961","0.0-122.0-0.0","65493372","wem/bandit_party_2","A2A6FH0F7LD9ND","either","4","415","","","","","","","0","0","1","","0.03997429631","0.8","0.4","0.6","0.2","0.8463201033","0.9107397581","0.03997429631","0.9340165544","","","","","","","","","","","","","","75","K","2","","","81","main_expt",""
"","bandit","161","536666","0.0-123.0-0.0","65493372","wem/bandit_party_2","A2A6FH0F7LD9ND","either","4","171","","","","","","","1","0","0","0.9043915002","","0.8","0.4","0.6","0.2","","","","","0.9043915002","0.9531247327","0.03692483048","0.9778602254","","","","","","","","","","72","H","0","img/none_selected.jpg","","82","main_expt",""
"","bandit","162","538815","0.0-124.0-0.0","65493372","wem/bandit_party_2","A2A6FH0F7LD9ND","either","4","611","","","","","","","1","0","0","0.922294541","","0.8","0.4","0.6","0.2","","","","","0.922294541","0.91574064","0.04167024954","0.9593015187","","","","","","","","","","72","H","0","img/none_selected.jpg","","83","main_expt",""
"","bandit","163","540841","0.0-125.0-0.0","65493372","wem/bandit_party_2","A2A6FH0F7LD9ND","either","4","477","","","","","","","0","1","0","","0.9079954767","0.8","0.4","0.6","0.2","0.9079954767","0.9287460716","0.03449326924","0.9398758864","","","","","","","","","","","","","","72","H","0","img/none_selected.jpg","","84","main_expt",""
"","bandit","164","542712","0.0-126.0-0.0","65493372","wem/bandit_party_2","A2A6FH0F7LD9ND","either","4","325","","","","","","","0","1","0","","0.9817994773","0.8","0.4","0.6","0.2","0.92293493","0.9817994773","0.07382848834","0.9256746213","","","","","","","","","","","","","","74","J","1","","","85","main_expt",""
"","bandit","165","544771","0.0-127.0-0.0","65493372","wem/bandit_party_2","A2A6FH0F7LD9ND","either","4","517","","","","","","","1","0","0","0.8831043051","","0.8","0.4","0.6","0.2","","","","","0.8831043051","0.9651028603","0.08839198485","0.8910640916","","","","","","","","","","72","H","0","img/none_selected.jpg","","86","main_expt",""
"","bandit","166","548940","0.0-128.0-0.0","65493372","wem/bandit_party_2","A2A6FH0F7LD9ND","either","4","2644","","","","","","","1","0","0","0.876749115","","0.8","0.4","0.6","0.2","","","","","0.876749115","0.9364705545","0.08767612821","0.8729480744","","","","","","","","","","72","H","0","img/none_selected.jpg","","87","main_expt",""
"","bandit","167","551171","0.0-129.0-0.0","65493372","wem/bandit_party_2","A2A6FH0F7LD9ND","either","4","705","","","","","","","0","0","1","0.9189432589","","0.8","0.4","0.6","0.2","","","","","0.9189432589","0.9235767634","0.1606359608","0.8780151739","","","","","","","","","","72","H","0","img/none_selected.jpg","","88","main_expt",""
"","bandit","168","553753","0.0-130.0-0.0","65493372","wem/bandit_party_2","A2A6FH0F7LD9ND","either","4","1035","","","","","","","0","0","1","0.2051996915","","0.8","0.4","0.6","0.2","","","","","0.8770582065","0.9375107972","0.2051996915","0.8856980863","","","","","","","","","","75","K","2","","","89","main_expt",""
"","bandit","169","555561","0.0-131.0-0.0","65493372","wem/bandit_party_2","A2A6FH0F7LD9ND","either","4","285","","","","","","","0","1","0","","0.9201099193","0.8","0.4","0.6","0.2","0.9303780437","0.9201099193","0.1757431166","0.8828292745","","","","","","","","","","","","","","74","J","1","","","90","main_expt",""
"","bandit","170","557688","0.0-132.0-0.0","65493372","wem/bandit_party_2","A2A6FH0F7LD9ND","either","4","586","","","","","","","1","0","0","0.8870296602","","0.8","0.4","0.6","0.2","","","","","0.8870296602","0.9416722714","0.3470073597","0.9016480115","","","","","","","","","","72","H","0","img/none_selected.jpg","","91","main_expt",""
"","bandit","171","559963","0.0-133.0-0.0","65493372","wem/bandit_party_2","A2A6FH0F7LD9ND","either","4","742","","","","","","","1","0","0","0.8466670433","","0.8","0.4","0.6","0.2","","","","","0.8466670433","0.943817784","0.4969118024","0.9077272713","","","","","","","","","","72","H","0","img/none_selected.jpg","","92","main_expt",""
"","bandit","172","561633","0.0-134.0-0.0","65493372","wem/bandit_party_2","A2A6FH0F7LD9ND","either","4","122","","","","","","","1","0","0","0.850017275","","0.8","0.4","0.6","0.2","","","","","0.850017275","0.9078517942","0.5773598144","0.875936713","","","","","","","","","","72","H","0","img/none_selected.jpg","","93","main_expt",""
"","bandit","173","563724","0.0-135.0-0.0","65493372","wem/bandit_party_2","A2A6FH0F7LD9ND","either","4","556","","","","","","","1","0","0","0.6893652978","","0.8","0.4","0.6","0.2","","","","","0.6893652978","0.8983200186","0.5513550223","0.8089346838","","","","","","","","","","72","H","0","img/none_selected.jpg","","94","main_expt",""
"","bandit","174","565597","0.0-136.0-0.0","65493372","wem/bandit_party_2","A2A6FH0F7LD9ND","either","4","330","","","","","","","0","1","0","","0.6025630118","0.8","0.4","0.6","0.2","0.6025630118","0.8744309931","0.5461825447","0.7472177953","","","","","","","","","","","","","","72","H","0","img/none_selected.jpg","","95","main_expt",""
"","bandit","175","567599","0.0-137.0-0.0","65493372","wem/bandit_party_2","A2A6FH0F7LD9ND","either","4","464","","","","","","","0","0","1","0.5565182624","","0.8","0.4","0.6","0.2","","","","","0.5565182624","0.8894212924","0.5564841108","0.631257407","","","","","","","","","","72","H","0","img/none_selected.jpg","","96","main_expt",""
"","bandit","176","569690","0.0-138.0-0.0","65493372","wem/bandit_party_2","A2A6FH0F7LD9ND","either","4","537","","","","","","","0","0","1","","0.7474787878","0.8","0.4","0.6","0.2","0.4820287155","0.891162681","0.6513715187","0.7474787878","","","","","","","","","","","","","","76","L","3","","","97","main_expt",""
"","bandit","177","571767","0.0-139.0-0.0","65493372","wem/bandit_party_2","A2A6FH0F7LD9ND","either","4","532","","","","","","","1","0","0","0.7004254565","","0.8","0.4","0.6","0.2","","","","","0.4599621431","0.8495400438","0.7004254565","0.7753317291","","","","","","","","","","75","K","2","","","98","main_expt",""
"","bandit","178","574089","0.0-140.0-0.0","65493372","wem/bandit_party_2","A2A6FH0F7LD9ND","either","4","791","","","","","","","0","0","1","","0.6473310623","0.8","0.4","0.6","0.2","0.4109144258","0.8671572546","0.6473310623","0.7088399779","","","","","","","","","","","","","","75","K","2","","","99","main_expt",""
"","bandit","179","576382","0.0-141.0-0.0","65493372","wem/bandit_party_2","A2A6FH0F7LD9ND","either","4","764","","","","","","","0","0","1","","0.8312294914","0.8","0.4","0.6","0.2","0.3466085394","0.8312294914","0.6160818326","0.7328055719","","","","","","","","","","","","","","74","J","1","","","100","main_expt",""
"","bandit","180","578458","0.0-142.0-0.0","65493372","wem/bandit_party_2","A2A6FH0F7LD9ND","either","4","545","","","","","","","0","0","1","","0.3712289037","0.8","0.4","0.6","0.2","0.3712289037","0.8135240708","0.6963675268","0.8183789849","","","","","","","","","","","","","","72","H","0","img/none_selected.jpg","","101","main_expt",""
"","bandit","181","581214","0.0-143.0-0.0","65493372","wem/bandit_party_2","A2A6FH0F7LD9ND","either","4","1222","","","","","","","0","1","0","","0.6339579424","0.8","0.4","0.6","0.2","0.3626324234","0.8556055773","0.6339579424","0.7854635714","","","","","","","","","","","","","","75","K","2","","","102","main_expt",""
"","bandit","182","583395","0.0-144.0-0.0","65493372","wem/bandit_party_2","A2A6FH0F7LD9ND","either","4","641","","","","","","","0","1","0","","0.6908430899","0.8","0.4","0.6","0.2","0.2748825764","0.7632006143","0.6908430899","0.8481411385","","","","","","","","","","","","","","75","K","2","","","103","main_expt",""
"","bandit","183","585917","0.0-145.0-0.0","65493372","wem/bandit_party_2","A2A6FH0F7LD9ND","either","4","980","","","","","","","0","0","1","","0.6866318891","0.8","0.4","0.6","0.2","0.2381725209","0.8273213265","0.6866318891","0.8129446485","","","","","","","","","","","","","","75","K","2","","","104","main_expt",""
"","bandit","184","588754","0.0-146.0-0.0","65493372","wem/bandit_party_2","A2A6FH0F7LD9ND","either","4","1305","","","","","","","0","1","0","","0.7930501456","0.8","0.4","0.6","0.2","0.1939551764","0.7930501456","0.6749941214","0.7898688037","","","","","","","","","","","","","","74","J","1","","","105","main_expt",""
"","bandit","185","590968","0.0-147.0-0.0","65493372","wem/bandit_party_2","A2A6FH0F7LD9ND","either","4","676","","","","","","","0","1","0","","0.7186603115","0.8","0.4","0.6","0.2","0.1884153881","0.7186603115","0.7300347885","0.7810744832","","","","","","","","","","","","","","74","J","1","","","106","main_expt",""
"","bandit","186","593043","0.0-148.0-0.0","65493372","wem/bandit_party_2","A2A6FH0F7LD9ND","either","4","542","","","","","","","0","0","1","0.1011451677","","0.8","0.4","0.6","0.2","","","","","0.1011451677","0.7155595947","0.8133516847","0.7837395221","","","","","","","","","","72","H","0","img/none_selected.jpg","","107","main_expt",""
"","bandit","187","594930","0.0-149.0-0.0","65493372","wem/bandit_party_2","A2A6FH0F7LD9ND","either","4","356","","","","","","","0","0","1","","0.7654707556","0.8","0.4","0.6","0.2","0.1500242655","0.7654707556","0.8009432675","0.787971135","","","","","","","","","","","","","","74","J","1","","","108","main_expt",""
"","bandit","188","596976","0.0-150.0-0.0","65493372","wem/bandit_party_2","A2A6FH0F7LD9ND","either","4","507","","","","","","","0","0","1","0.1285750889","","0.8","0.4","0.6","0.2","","","","","0.1285750889","0.6288612937","0.7379370491","0.6866525704","","","","","","","","","","72","H","0","img/none_selected.jpg","","109","main_expt",""
"","bandit","189","598956","0.0-151.0-0.0","65493372","wem/bandit_party_2","A2A6FH0F7LD9ND","either","4","456","","","","","","","0","1","0","","0.7379992527","0.8","0.4","0.6","0.2","0.06279291231","0.6309058105","0.7379992527","0.5824748378","","","","","","","","","","","","","","75","K","2","","","110","main_expt",""
"","bandit","190","601204","0.0-152.0-0.0","65493372","wem/bandit_party_2","A2A6FH0F7LD9ND","either","4","715","","","","","","","1","0","0","0.659702805","","0.8","0.4","0.6","0.2","","","","","0.07144278273","0.6218965746","0.7464430213","0.659702805","","","","","","","","","","76","L","3","","","111","main_expt",""
"","bandit","191","603296","0.0-153.0-0.0","65493372","wem/bandit_party_2","A2A6FH0F7LD9ND","either","4","562","","","","","","","0","0","1","0.5111205641","","0.8","0.4","0.6","0.2","","","","","0.06013221683","0.6741482942","0.7736339118","0.5111205641","","","","","","","","","","76","L","3","","","112","main_expt",""
"","bandit","192","605369","0.0-154.0-0.0","65493372","wem/bandit_party_2","A2A6FH0F7LD9ND","either","4","543","","","","","","","0","1","0","","0.8480767854","0.8","0.4","0.6","0.2","0.1442356489","0.7405202534","0.8480767854","0.4852392648","","","","","","","","","","","","","","75","K","2","","","113","main_expt",""
"","bandit","193","607567","0.0-155.0-0.0","65493372","wem/bandit_party_2","A2A6FH0F7LD9ND","either","4","668","","","","","","","0","1","0","","0.743157628","0.8","0.4","0.6","0.2","0.1733870882","0.743157628","0.8016933152","0.3531287621","","","","","","","","","","","","","","74","J","1","","","114","main_expt",""
"","bandit","194","609656","0.0-156.0-0.0","65493372","wem/bandit_party_2","A2A6FH0F7LD9ND","either","4","548","","","","","","","0","1","0","","0.8200260584","0.8","0.4","0.6","0.2","0.2198725907","0.7732583829","0.8200260584","0.4090792957","","","","","","","","","","","","","","75","K","2","","","115","main_expt",""
"","bandit","195","611747","0.0-157.0-0.0","65493372","wem/bandit_party_2","A2A6FH0F7LD9ND","either","4","564","","","","","","","1","0","0","0.6224016225","","0.8","0.4","0.6","0.2","","","","","0.2116870815","0.6224016225","0.7761954976","0.4927933112","","","","","","","","","","74","J","1","","","116","main_expt",""
"","bandit","196","613979","0.0-158.0-0.0","65493372","wem/bandit_party_2","A2A6FH0F7LD9ND","either","4","690","","","","","","","1","0","0","0.6784399158","","0.8","0.4","0.6","0.2","","","","","0.1293815938","0.6784399158","0.7722233998","0.4255499736","","","","","","","","","","74","J","1","","","117","main_expt",""
"","bandit","197","616037","0.0-159.0-0.0","65493372","wem/bandit_party_2","A2A6FH0F7LD9ND","either","4","524","","","","","","","0","1","0","","0.7499631032","0.8","0.4","0.6","0.2","0.1442073762","0.7499631032","0.8049831996","0.4073726931","","","","","","","","","","","","","","74","J","1","","","118","main_expt",""
"","bandit","198","618082","0.0-160.0-0.0","65493372","wem/bandit_party_2","A2A6FH0F7LD9ND","either","4","500","","","","","","","1","0","0","0.6258432538","","0.8","0.4","0.6","0.2","","","","","0.2098334931","0.6258432538","0.8469405197","0.5447318884","","","","","","","","","","74","J","1","","","119","main_expt",""
"","bandit","199","620124","0.0-161.0-0.0","65493372","wem/bandit_party_2","A2A6FH0F7LD9ND","either","4","508","","","","","","","1","0","0","0.5602994123","","0.8","0.4","0.6","0.2","","","","","0.243218138","0.5602994123","0.783925966","0.5336717705","","","","","","","","","","74","J","1","","","120","main_expt",""
"","bandit","200","622199","0.0-162.0-0.0","65493372","wem/bandit_party_2","A2A6FH0F7LD9ND","either","4","545","","","","","","","0","1","0","","0.5850644561","0.8","0.4","0.6","0.2","0.1595445902","0.5850644561","0.8031476983","0.5621279662","","","","","","","","","","","","","","74","J","1","","","121","main_expt",""
"","bandit","201","624276","0.0-163.0-0.0","65493372","wem/bandit_party_2","A2A6FH0F7LD9ND","either","4","543","","","","","","","0","0","1","","0.6205732407","0.8","0.4","0.6","0.2","0.1939767007","0.6205732407","0.776878313","0.5664238538","","","","","","","","","","","","","","74","J","1","","","122","main_expt",""
"","bandit","202","626215","0.0-164.0-0.0","65493372","wem/bandit_party_2","A2A6FH0F7LD9ND","either","4","401","","","","","","","0","0","1","0.2265728871","","0.8","0.4","0.6","0.2","","","","","0.2265728871","0.7954206102","0.7695343448","0.6501842916","","","","","","","","","","72","H","0","img/none_selected.jpg","","123","main_expt",""
"","bandit","203","628104","0.0-165.0-0.0","65493372","wem/bandit_party_2","A2A6FH0F7LD9ND","either","4","352","","","","","","","0","1","0","","0.881213352","0.8","0.4","0.6","0.2","0.2027469411","0.881213352","0.6154230174","0.5413703051","","","","","","","","","","","","","","74","J","1","","","124","main_expt",""
"","bandit","204","630192","0.0-166.0-0.0","65493372","wem/bandit_party_2","A2A6FH0F7LD9ND","either","4","534","","","","","","","0","0","1","0.4710930195","","0.8","0.4","0.6","0.2","","","","","0.1506135949","0.8598562332","0.4710930195","0.5191338098","","","","","","","","","","75","K","2","","","125","main_expt",""
"","bandit","205","631865","0.0-167.0-0.0","65493372","wem/bandit_party_2","A2A6FH0F7LD9ND","either","4","143","","","","","","","0","1","0","","0.867144728","0.8","0.4","0.6","0.2","0.1875851228","0.867144728","0.5258886302","0.6232591378","","","","","","","","","","","","","","74","J","1","","","126","main_expt",""
"","bandit","206","634062","0.0-168.0-0.0","65493372","wem/bandit_party_2","A2A6FH0F7LD9ND","either","4","671","","","","","","","0","0","1","","0.601333273","0.8","0.4","0.6","0.2","0.2106184636","0.8677917819","0.3996486754","0.601333273","","","","","","","","","","","","","","76","L","3","","","127","main_expt",""
"","bandit","207","636140","0.0-169.0-0.0","65493372","wem/bandit_party_2","A2A6FH0F7LD9ND","either","4","543","","","","","","","1","0","0","0.3557241191","","0.8","0.4","0.6","0.2","","","","","0.1276240755","0.8194058857","0.3557241191","0.6312294041","","","","","","","","","","75","K","2","","","128","main_expt",""
"","bandit","208","638460","0.0-170.0-0.0","65493372","wem/bandit_party_2","A2A6FH0F7LD9ND","either","4","779","","","","","","","0","0","1","0.2432070908","","0.8","0.4","0.6","0.2","","","","","0.2163335705","0.813940224","0.2432070908","0.6655034733","","","","","","","","","","75","K","2","","","129","main_expt",""
"","bandit","209","640044","0.0-171.0-0.0","65493372","wem/bandit_party_2","A2A6FH0F7LD9ND","either","4","50","","","","","","","0","1","0","","0.7296764962","0.8","0.4","0.6","0.2","0.2448863899","0.7296764962","0.1722843937","0.6882303755","","","","","","","","","","","","","","74","J","1","","","130","main_expt",""
"","bandit","210","641993","0.0-172.0-0.0","65493372","wem/bandit_party_2","A2A6FH0F7LD9ND","either","4","419","","","","","","","1","0","0","0.3447645787","","0.8","0.4","0.6","0.2","","","","","0.3447645787","0.614258276","0.1336027919","0.6772884453","","","","","","","","","","72","H","0","img/none_selected.jpg","","131","main_expt",""
"","bandit","211","644301","0.0-173.0-0.0","65493372","wem/bandit_party_2","A2A6FH0F7LD9ND","either","4","775","","","","","","","0","1","0","","0.3622527956","0.8","0.4","0.6","0.2","0.3622527956","0.5349540706","0.1351629047","0.6773684555","","","","","","","","","","","","","","72","H","0","img/none_selected.jpg","","132","main_expt",""
"","bandit","212","646406","0.0-174.0-0.0","65493372","wem/bandit_party_2","A2A6FH0F7LD9ND","either","4","568","","","","","","","1","0","0","0.2961885878","","0.8","0.4","0.6","0.2","","","","","0.2961885878","0.5449090787","0.2495029","0.7437755928","","","","","","","","","","72","H","0","img/none_selected.jpg","","133","main_expt",""
"","bandit","213","648495","0.0-175.0-0.0","65493372","wem/bandit_party_2","A2A6FH0F7LD9ND","either","4","553","","","","","","","0","0","1","0.2932126781","","0.8","0.4","0.6","0.2","","","","","0.2932126781","0.5037108559","0.2118512663","0.7423545867","","","","","","","","","","72","H","0","img/none_selected.jpg","","134","main_expt",""
"","bandit","214","650523","0.0-176.0-0.0","65493372","wem/bandit_party_2","A2A6FH0F7LD9ND","either","4","496","","","","","","","0","0","1","0.2836439675","","0.8","0.4","0.6","0.2","","","","","0.2836439675","0.5131336393","0.2474577379","0.7462440124","","","","","","","","","","72","H","0","img/none_selected.jpg","","135","main_expt",""
"","bandit","215","652459","0.0-177.0-0.0","65493372","wem/bandit_party_2","A2A6FH0F7LD9ND","either","4","404","","","","","","","0","0","1","","0.5847952324","0.8","0.4","0.6","0.2","0.1985775905","0.5847952324","0.1496333288","0.6372772774","","","","","","","","","","","","","","74","J","1","","","136","main_expt",""
"","bandit","216","654595","0.0-178.0-0.0","65493372","wem/bandit_party_2","A2A6FH0F7LD9ND","either","4","594","","","","","","","0","0","1","","0.164835495","0.8","0.4","0.6","0.2","0.2655975","0.5191620222","0.164835495","0.6587707878","","","","","","","","","","","","","","75","K","2","","","137","main_expt",""
"","bandit","217","656705","0.0-179.0-0.0","65493372","wem/bandit_party_2","A2A6FH0F7LD9ND","either","4","572","","","","","","","0","1","0","","0.6545472314","0.8","0.4","0.6","0.2","0.4066298912","0.3830682141","0.1629561883","0.6545472314","","","","","","","","","","","","","","76","L","3","","","138","main_expt",""
"","bandit","218","658887","0.0-180.0-0.0","65493372","wem/bandit_party_2","A2A6FH0F7LD9ND","either","4","637","","","","","","","0","0","1","0.5773899651","","0.8","0.4","0.6","0.2","","","","","0.4537429859","0.3036015776","0.1162724323","0.5773899651","","","","","","","","","","76","L","3","","","139","main_expt",""
"","bandit","219","660853","0.0-181.0-0.0","65493372","wem/bandit_party_2","A2A6FH0F7LD9ND","either","4","414","","","","","","","0","0","1","0.1262651596","","0.8","0.4","0.6","0.2","","","","","0.410026376","0.2541790234","0.1262651596","0.5786924042","","","","","","","","","","75","K","2","","","140","main_expt",""
"","bandit","220","662802","0.0-182.0-0.0","65493372","wem/bandit_party_2","A2A6FH0F7LD9ND","either","4","410","","","","","","","0","0","1","","0.1899663758","0.8","0.4","0.6","0.2","0.3978668086","0.1899663758","0.1258799353","0.4589731036","","","","","","","","","","","","","","74","J","1","","","141","main_expt",""
"","bandit","221","664815","0.0-183.0-0.0","65493372","wem/bandit_party_2","A2A6FH0F7LD9ND","either","4","469","","","","","","","0","0","1","","0.214868544","0.8","0.4","0.6","0.2","0.4096738096","0.214868544","0.1220135665","0.3667804619","","","","","","","","","","","","","","74","J","1","","","142","main_expt",""
"","bandit","222","666793","0.0-184.0-0.0","65493372","wem/bandit_party_2","A2A6FH0F7LD9ND","either","4","440","","","","","","","1","0","0","0.5422751762","","0.8","0.4","0.6","0.2","","","","","0.5422751762","0.1549416237","0.1600355681","0.3563831379","","","","","","","","","","72","H","0","img/none_selected.jpg","","143","main_expt",""
"","bandit","223","668848","0.0-185.0-0.0","65493372","wem/bandit_party_2","A2A6FH0F7LD9ND","either","4","527","","","","","","","1","0","0","0.6045197677","","0.8","0.4","0.6","0.2","","","","","0.6045197677","0.2142728447","0.103653669","0.3675361202","","","","","","","","","","72","H","0","img/none_selected.jpg","","144","main_expt",""
"","bandit","224","670999","0.0-186.0-0.0","65493372","wem/bandit_party_2","A2A6FH0F7LD9ND","either","4","615","","","","","","","1","0","0","0.6140727406","","0.8","0.4","0.6","0.2","","","","","0.6140727406","0.2166472609","0.1417267119","0.3266856562","","","","","","","","","","72","H","0","img/none_selected.jpg","","145","main_expt",""
"","bandit","225","672855","0.0-187.0-0.0","65493372","wem/bandit_party_2","A2A6FH0F7LD9ND","either","4","304","","","","","","","1","0","0","0.5553742365","","0.8","0.4","0.6","0.2","","","","","0.5553742365","0.2446047688","0.1508894681","0.2815179259","","","","","","","","","","72","H","0","img/none_selected.jpg","","146","main_expt",""
"","bandit","226","674899","0.0-188.0-0.0","65493372","wem/bandit_party_2","A2A6FH0F7LD9ND","either","4","513","","","","","","","0","1","0","","0.52787167","0.8","0.4","0.6","0.2","0.52787167","0.3011136322","0.1207147728","0.3560244833","","","","","","","","","","","","","","72","H","0","img/none_selected.jpg","","147","main_expt",""
"","bandit","227","677299","0.0-189.0-0.0","65493372","wem/bandit_party_2","A2A6FH0F7LD9ND","either","4","868","","","","","","","0","0","1","0.5053851794","","0.8","0.4","0.6","0.2","","","","","0.5053851794","0.2519777133","0.1362234148","0.3585854149","","","","","","","","","","72","H","0","img/none_selected.jpg","","148","main_expt",""
"","bandit","228","679217","0.0-190.0-0.0","65493372","wem/bandit_party_2","A2A6FH0F7LD9ND","either","4","390","","","","","","","0","0","1","","0.2996109941","0.8","0.4","0.6","0.2","0.5431256022","0.2996109941","0.1244444975","0.284478414","","","","","","","","","","","","","","74","J","1","","","149","main_expt",""
"","bandit","229","680998","0.0-191.0-0.0","65493372","wem/bandit_party_2","A2A6FH0F7LD9ND","either","4","246","","","","","","","0","0","1","0.422574086","","0.8","0.4","0.6","0.2","","","","","0.422574086","0.2963563975","0.1109305632","0.2617238314","","","","","","","","","","72","H","0","img/none_selected.jpg","","150","main_expt",""
"","bandit","230","683023","0.0-192.0-0.0","65493372","wem/bandit_party_2","A2A6FH0F7LD9ND","either","4","481","","","","","","","0","0","1","","0.11412436","0.8","0.4","0.6","0.2","0.3907227364","0.4327396174","0.11412436","0.2709462114","","","","","","","","","","","","","","75","K","2","","","151","main_expt",""
"","bandit","231","685158","0.0-193.0-0.0","65493372","wem/bandit_party_2","A2A6FH0F7LD9ND","either","4","583","","","","","","","0","1","0","","0.1469045903","0.8","0.4","0.6","0.2","0.5580814469","0.4303068123","0.1469045903","0.2993716907","","","","","","","","","","","","","","75","K","2","","","152","main_expt",""
"","bandit","232","687035","0.0-194.0-0.0","65493372","wem/bandit_party_2","A2A6FH0F7LD9ND","either","4","344","","","","","","","0","0","1","0.1633028487","","0.8","0.4","0.6","0.2","","","","","0.51223936","0.455197397","0.1633028487","0.2733354782","","","","","","","","","","75","K","2","","","153","main_expt",""
"","bandit","233","689033","0.0-195.0-0.0","65493372","wem/bandit_party_2","A2A6FH0F7LD9ND","either","4","468","","","","","","","0","0","1","","0.3264007987","0.8","0.4","0.6","0.2","0.4811601507","0.6184454144","0.1340882311","0.3264007987","","","","","","","","","","","","","","76","L","3","","","154","main_expt",""
"","bandit","234","690706","0.0-196.0-0.0","65493372","wem/bandit_party_2","A2A6FH0F7LD9ND","either","4","142","","","","","","","0","0","1","0.575425417","","0.8","0.4","0.6","0.2","","","","","0.575425417","0.5833601464","0.1041462846","0.204433578","","","","","","","","","","72","H","0","img/none_selected.jpg","","155","main_expt",""
"","bandit","235","692255","0.0-197.0-0.0","65493372","wem/bandit_party_2","A2A6FH0F7LD9ND","either","4","5","","","","","","","1","0","0","0.6109018817","","0.8","0.4","0.6","0.2","","","","","0.6109018817","0.646897734","0.08564190031","0.07451572188","","","","","","","","","","72","H","0","img/none_selected.jpg","","156","main_expt",""
"","bandit","236","693833","0.0-198.0-0.0","65493372","wem/bandit_party_2","A2A6FH0F7LD9ND","either","4","33","","","","","","","0","0","1","","0.6812883852","0.8","0.4","0.6","0.2","0.6812883852","0.6912470103","0.06977116317","0.1251686374","","","","","","","","","","","","","","72","H","0","img/none_selected.jpg","","157","main_expt",""
"","bandit","237","695723","0.0-199.0-0.0","65493372","wem/bandit_party_2","A2A6FH0F7LD9ND","either","4","332","","","","","","","1","0","0","0.73777041","","0.8","0.4","0.6","0.2","","","","","0.73777041","0.7865398282","0.1504927074","0.1292052795","","","","","","","","","","72","H","0","img/none_selected.jpg","","158","main_expt",""
"","bandit","238","697907","0.0-200.0-0.0","65493372","wem/bandit_party_2","A2A6FH0F7LD9ND","either","4","642","","","","","","","1","0","0","0.8388849062","","0.8","0.4","0.6","0.2","","","","","0.8388849062","0.7220910122","0.1429264201","0.1200050714","","","","","","","","","","72","H","0","img/none_selected.jpg","","159","main_expt",""
"","bandit","239","700137","0.0-201.0-0.0","65493372","wem/bandit_party_2","A2A6FH0F7LD9ND","either","4","691","","","","","","","1","0","0","0.8006667519","","0.8","0.4","0.6","0.2","","","","","0.8006667519","0.710563805","0.1832893837","0.1156014834","","","","","","","","","","72","H","0","img/none_selected.jpg","","160","main_expt",""
"","bandit","240","702336","0.0-202.0-0.0","65493372","wem/bandit_party_2","A2A6FH0F7LD9ND","either","4","661","","","","","","","1","0","0","0.7406956812","","0.8","0.4","0.6","0.2","","","","","0.7406956812","0.6205281072","0.2337310763","0.1425751263","","","","","","","","","","72","H","0","img/none_selected.jpg","","161","main_expt",""
"","bandit","241","704447","0.0-203.0-0.0","65493372","wem/bandit_party_2","A2A6FH0F7LD9ND","either","4","583","","","","","","","1","0","0","0.775259894","","0.8","0.4","0.6","0.2","","","","","0.775259894","0.5246840185","0.2326198937","0.2108345254","","","","","","","","","","72","H","0","img/none_selected.jpg","","162","main_expt",""
"","bandit","242","706614","0.0-204.0-0.0","65493372","wem/bandit_party_2","A2A6FH0F7LD9ND","either","4","640","","","","","","","0","1","0","","0.6539471222","0.8","0.4","0.6","0.2","0.6539471222","0.569340372","0.1584290897","0.1664621688","","","","","","","","","","","","","","72","H","0","img/none_selected.jpg","","163","main_expt",""
"","bandit","243","708704","0.0-205.0-0.0","65493372","wem/bandit_party_2","A2A6FH0F7LD9ND","either","4","560","","","","","","","1","0","0","0.7914062868","","0.8","0.4","0.6","0.2","","","","","0.7914062868","0.5688323765","0.1417900361","0.1741279052","","","","","","","","","","72","H","0","img/none_selected.jpg","","164","main_expt",""
"","bandit","244","711786","0.0-206.0-0.0","65493372","wem/bandit_party_2","A2A6FH0F7LD9ND","either","4","1550","","","","","","","1","0","0","0.8415061218","","0.8","0.4","0.6","0.2","","","","","0.8415061218","0.5195648955","0.08849486786","0.1891196979","","","","","","","","","","72","H","0","img/none_selected.jpg","","165","main_expt",""
"","bandit","245","713879","0.0-207.0-0.0","65493372","wem/bandit_party_2","A2A6FH0F7LD9ND","either","4","559","","","","","","","1","0","0","0.9084068317","","0.8","0.4","0.6","0.2","","","","","0.9084068317","0.536500984","0.1010416226","0.3016440744","","","","","","","","","","72","H","0","img/none_selected.jpg","","166","main_expt",""
"","bandit","246","715890","0.0-208.0-0.0","65493372","wem/bandit_party_2","A2A6FH0F7LD9ND","either","4","472","","","","","","","1","0","0","0.8857506799","","0.8","0.4","0.6","0.2","","","","","0.8857506799","0.4243381616","0.1506776516","0.3427468607","","","","","","","","","","72","H","0","img/none_selected.jpg","","167","main_expt",""
"","bandit","247","717933","0.0-209.0-0.0","65493372","wem/bandit_party_2","A2A6FH0F7LD9ND","either","4","507","","","","","","","1","0","0","0.9247721234","","0.8","0.4","0.6","0.2","","","","","0.9247721234","0.4877327119","0.2532220847","0.3759001064","","","","","","","","","","72","H","0","img/none_selected.jpg","","168","main_expt",""
"","bandit","248","719946","0.0-210.0-0.0","65493372","wem/bandit_party_2","A2A6FH0F7LD9ND","either","4","474","","","","","","","0","0","1","0.8870410368","","0.8","0.4","0.6","0.2","","","","","0.8870410368","0.5096331713","0.2223654062","0.3824832387","","","","","","","","","","72","H","0","img/none_selected.jpg","","169","main_expt",""
"","bandit","249","721992","0.0-211.0-0.0","65493372","wem/bandit_party_2","A2A6FH0F7LD9ND","either","4","507","","","","","","","0","0","1","0.6111595203","","0.8","0.4","0.6","0.2","","","","","0.8782412079","0.6111595203","0.2161840498","0.3257043992","","","","","","","","","","74","J","1","","","170","main_expt",""
"","bandit","250","723910","0.0-212.0-0.0","65493372","wem/bandit_party_2","A2A6FH0F7LD9ND","either","4","375","","","","","","","1","0","0","0.7978982074","","0.8","0.4","0.6","0.2","","","","","0.7978982074","0.5888321224","0.1996440145","0.2943589708","","","","","","","","","","72","H","0","img/none_selected.jpg","","171","main_expt",""
"","bandit","251","726262","0.0-213.0-0.0","65493372","wem/bandit_party_2","A2A6FH0F7LD9ND","either","4","824","","","","","","","1","0","0","0.7896885826","","0.8","0.4","0.6","0.2","","","","","0.7896885826","0.6295404033","0.275753823","0.4298537702","","","","","","","","","","72","H","0","img/none_selected.jpg","","172","main_expt",""
"","bandit","252","728414","0.0-214.0-0.0","65493372","wem/bandit_party_2","A2A6FH0F7LD9ND","either","4","615","","","","","","","0","0","1","0.7771385218","","0.8","0.4","0.6","0.2","","","","","0.7771385218","0.5976712981","0.2850946521","0.4196262671","","","","","","","","","","72","H","0","img/none_selected.jpg","","173","main_expt",""
"","bandit","253","730705","0.0-215.0-0.0","65493372","wem/bandit_party_2","A2A6FH0F7LD9ND","either","4","760","","","","","","","0","1","0","","0.2836726952","0.8","0.4","0.6","0.2","0.8412209493","0.5936331925","0.2836726952","0.4056978145","","","","","","","","","","","","","","75","K","2","","","174","main_expt",""
"","bandit","254","733029","0.0-216.0-0.0","65493372","wem/bandit_party_2","A2A6FH0F7LD9ND","either","4","776","","","","","","","0","0","1","0.27413619","","0.8","0.4","0.6","0.2","","","","","0.8433491626","0.544145328","0.27413619","0.3323311207","","","","","","","","","","75","K","2","","","175","main_expt",""
"","bandit","255","734702","0.0-217.0-0.0","65493372","wem/bandit_party_2","A2A6FH0F7LD9ND","either","4","129","","","","","","","0","1","0","","0.778586436","0.8","0.4","0.6","0.2","0.778586436","0.3584947592","0.2369491767","0.3087900888","","","","","","","","","","","","","","72","H","0","img/none_selected.jpg","","176","main_expt",""
"","bandit","256","736715","0.0-218.0-0.0","65493372","wem/bandit_party_2","A2A6FH0F7LD9ND","either","4","466","","","","","","","0","0","1","0.7488794252","","0.8","0.4","0.6","0.2","","","","","0.7488794252","0.436171931","0.3440943848","0.3898613412","","","","","","","","","","72","H","0","img/none_selected.jpg","","177","main_expt",""
"","bandit","257","738823","0.0-219.0-0.0","65493372","wem/bandit_party_2","A2A6FH0F7LD9ND","either","4","566","","","","","","","0","1","0","","0.5236321052","0.8","0.4","0.6","0.2","0.7738581751","0.5193680035","0.3529135521","0.5236321052","","","","","","","","","","","","","","76","L","3","","","178","main_expt",""
"","bandit","258","741099","0.0-220.0-0.0","65493372","wem/bandit_party_2","A2A6FH0F7LD9ND","either","4","745","","","","","","","0","0","1","","0.2955080601","0.8","0.4","0.6","0.2","0.7527820287","0.3957798075","0.3787243664","0.2955080601","","","","","","","","","","","","","","76","L","3","","","179","main_expt",""
"","bandit","259","743113","0.0-221.0-0.0","65493372","wem/bandit_party_2","A2A6FH0F7LD9ND","either","4","467","","","","","","","0","1","0","","0.3092677326","0.8","0.4","0.6","0.2","0.8022950929","0.4249873197","0.3092677326","0.3174151272","","","","","","","","","","","","","","75","K","2","","","180","main_expt",""
"","bandit","260","745654","0.0-222.0-0.0","65493372","wem/bandit_party_2","A2A6FH0F7LD9ND","either","4","999","","","","","","","1","0","0","0.7505347306","","0.8","0.4","0.6","0.2","","","","","0.7505347306","0.4260342439","0.3701559146","0.3560995969","","","","","","","","","","72","H","0","img/none_selected.jpg","","181","main_expt",""
"","bandit","261","748427","0.0-223.0-0.0","65493372","wem/bandit_party_2","A2A6FH0F7LD9ND","either","4","1240","","","","","","","0","0","1","","0.4305619521","0.8","0.4","0.6","0.2","0.603349844","0.4305619521","0.2672844749","0.4649908644","","","","","","","","","","","","","","74","J","1","","","182","main_expt",""
"","bandit","262","751931","0.0-224.0-0.0","65493372","wem/bandit_party_2","A2A6FH0F7LD9ND","either","4","1966","","","","","","","0","0","1","0.6464544124","","0.8","0.4","0.6","0.2","","","","","0.6464544124","0.4638513582","0.3046315644","0.4588174784","","","","","","","","","","72","H","0","img/none_selected.jpg","","183","main_expt",""
"","bandit","263","754100","0.0-225.0-0.0","65493372","wem/bandit_party_2","A2A6FH0F7LD9ND","either","4","628","","","","","","","1","0","0","0.6606024443","","0.8","0.4","0.6","0.2","","","","","0.6606024443","0.5084330557","0.3507685813","0.509799977","","","","","","","","","","72","H","0","img/none_selected.jpg","","184","main_expt",""
"","bandit","264","757520","0.0-226.0-0.0","65493372","wem/bandit_party_2","A2A6FH0F7LD9ND","either","4","1883","","","","","","","1","0","0","0.7034535028","","0.8","0.4","0.6","0.2","","","","","0.7034535028","0.5853778332","0.3250269766","0.4557178443","","","","","","","","","","72","H","0","img/none_selected.jpg","","185","main_expt",""
"","bandit","265","760910","0.0-227.0-0.0","65493372","wem/bandit_party_2","A2A6FH0F7LD9ND","either","4","1847","","","","","","","1","0","0","0.7672503758","","0.8","0.4","0.6","0.2","","","","","0.7672503758","0.5009207633","0.3636669497","0.3250172706","","","","","","","","","","72","H","0","img/none_selected.jpg","","186","main_expt",""
"","bandit","266","764267","0.0-228.0-0.0","65493372","wem/bandit_party_2","A2A6FH0F7LD9ND","either","4","1817","","","","","","","0","0","1","0.7505037824","","0.8","0.4","0.6","0.2","","","","","0.7505037824","0.4376492532","0.4095027401","0.2982192525","","","","","","","","","","72","H","0","img/none_selected.jpg","","187","main_expt",""
"","bandit","267","766372","0.0-229.0-0.0","65493372","wem/bandit_party_2","A2A6FH0F7LD9ND","either","4","566","","","","","","","1","0","0","0.7458261356","","0.8","0.4","0.6","0.2","","","","","0.7458261356","0.317868257","0.3356624093","0.2647713636","","","","","","","","","","72","H","0","img/none_selected.jpg","","188","main_expt",""
"","bandit","268","768321","0.0-230.0-0.0","65493372","wem/bandit_party_2","A2A6FH0F7LD9ND","either","4","414","","","","","","","1","0","0","0.747965221","","0.8","0.4","0.6","0.2","","","","","0.747965221","0.3700786551","0.3717951419","0.2798663258","","","","","","","","","","72","H","0","img/none_selected.jpg","","189","main_expt",""
"","bandit","269","770209","0.0-231.0-0.0","65493372","wem/bandit_party_2","A2A6FH0F7LD9ND","either","4","343","","","","","","","0","0","1","","0.7459095382","0.8","0.4","0.6","0.2","0.7459095382","0.3423477616","0.3266606931","0.2146362806","","","","","","","","","","","","","","72","H","0","img/none_selected.jpg","","190","main_expt",""
"","bandit","270","772006","0.0-232.0-0.0","65493372","wem/bandit_party_2","A2A6FH0F7LD9ND","either","4","270","","","","","","","1","0","0","0.6299055833","","0.8","0.4","0.6","0.2","","","","","0.6299055833","0.2488230813","0.4206899072","0.3132783624","","","","","","","","","","72","H","0","img/none_selected.jpg","","191","main_expt",""
"","bandit","271","773940","0.0-233.0-0.0","65493372","wem/bandit_party_2","A2A6FH0F7LD9ND","either","4","394","","","","","","","1","0","0","0.688533977","","0.8","0.4","0.6","0.2","","","","","0.688533977","0.2193108308","0.4982817076","0.2488083766","","","","","","","","","","72","H","0","img/none_selected.jpg","","192","main_expt",""
"","bandit","272","775876","0.0-234.0-0.0","65493372","wem/bandit_party_2","A2A6FH0F7LD9ND","either","4","405","","","","","","","1","0","0","0.7176496952","","0.8","0.4","0.6","0.2","","","","","0.7176496952","0.4057276106","0.4820211017","0.225611763","","","","","","","","","","72","H","0","img/none_selected.jpg","","193","main_expt",""
"","bandit","273","777839","0.0-235.0-0.0","65493372","wem/bandit_party_2","A2A6FH0F7LD9ND","either","4","411","","","","","","","0","0","1","0.746212457","","0.8","0.4","0.6","0.2","","","","","0.746212457","0.3826056333","0.5373891537","0.2159393038","","","","","","","","","","72","H","0","img/none_selected.jpg","","194","main_expt",""
"","bandit","274","780130","0.0-236.0-0.0","65493372","wem/bandit_party_2","A2A6FH0F7LD9ND","either","4","761","","","","","","","1","0","0","0.6800784202","","0.8","0.4","0.6","0.2","","","","","0.6800784202","0.4922935908","0.3890275207","0.3112228701","","","","","","","","","","72","H","0","img/none_selected.jpg","","195","main_expt",""
"","bandit","275","782730","0.0-237.0-0.0","65493372","wem/bandit_party_2","A2A6FH0F7LD9ND","either","4","1062","","","","","","","1","0","0","0.5986295964","","0.8","0.4","0.6","0.2","","","","","0.5986295964","0.5475793877","0.4329462643","0.3249051539","","","","","","","","","","72","H","0","img/none_selected.jpg","","196","main_expt",""
"","bandit","276","784913","0.0-238.0-0.0","65493372","wem/bandit_party_2","A2A6FH0F7LD9ND","either","4","656","","","","","","","1","0","0","0.5323622673","","0.8","0.4","0.6","0.2","","","","","0.5323622673","0.6069385875","0.416825946","0.2985018541","","","","","","","","","","72","H","0","img/none_selected.jpg","","197","main_expt",""
"","bandit","277","786897","0.0-239.0-0.0","65493372","wem/bandit_party_2","A2A6FH0F7LD9ND","either","4","447","","","","","","","1","0","0","0.5348043844","","0.8","0.4","0.6","0.2","","","","","0.5348043844","0.4946816555","0.4063336836","0.3109366799","","","","","","","","","","72","H","0","img/none_selected.jpg","","198","main_expt",""
"","bandit","278","788942","0.0-240.0-0.0","65493372","wem/bandit_party_2","A2A6FH0F7LD9ND","either","4","472","","","","","","","1","0","0","0.4534403339","","0.8","0.4","0.6","0.2","","","","","0.4534403339","0.479635203","0.361264989","0.3143364341","","","","","","","","","","72","H","0","img/none_selected.jpg","","199","main_expt",""
"","bandit","279","790974","0.0-241.0-0.0","65493372","wem/bandit_party_2","A2A6FH0F7LD9ND","either","4","497","","","","","","","0","0","1","0.4185876589","","0.8","0.4","0.6","0.2","","","","","0.4185876589","0.4969837249","0.4700223374","0.3176919365","","","","","","","","","","72","H","0","img/none_selected.jpg","","200","main_expt",""
"","bandit","280","792868","0.0-242.0-0.0","65493372","wem/bandit_party_2","A2A6FH0F7LD9ND","either","4","362","","","","","","","0","0","1","","0.3812211227","0.8","0.4","0.6","0.2","0.3812211227","0.4548125401","0.4751543938","0.2848283651","","","","","","","","","","","","","","72","H","0","img/none_selected.jpg","","201","main_expt",""
"","bandit","281","795083","0.0-243.0-0.0","65493372","wem/bandit_party_2","A2A6FH0F7LD9ND","either","4","672","","","","","","","0","0","1","","0.5767771981","0.8","0.4","0.6","0.2","0.4414728031","0.5767771981","0.4044794657","0.2439676923","","","","","","","","","","","","","","74","J","1","","","202","main_expt",""
"","bandit","282","797048","0.0-244.0-0.0","65493372","wem/bandit_party_2","A2A6FH0F7LD9ND","either","4","428","","","","","","","0","1","0","","0.3321077444","0.8","0.4","0.6","0.2","0.3698030662","0.6118171827","0.3321077444","0.2582922662","","","","","","","","","","","","","","75","K","2","","","203","main_expt",""
"","bandit","283","799137","0.0-245.0-0.0","65493372","wem/bandit_party_2","A2A6FH0F7LD9ND","either","4","560","","","","","","","0","1","0","","0.4899087748","0.8","0.4","0.6","0.2","0.4899087748","0.5373194108","0.3697340749","0.3799793739","","","","","","","","","","","","","","72","H","0","img/none_selected.jpg","","204","main_expt",""
"","bandit","284","801489","0.0-246.0-0.0","65493372","wem/bandit_party_2","A2A6FH0F7LD9ND","either","4","806","","","","","","","0","0","1","","0.4441528059","0.8","0.4","0.6","0.2","0.4310108402","0.5501461309","0.3998168993","0.4441528059","","","","","","","","","","","","","","76","L","3","","","205","main_expt",""
"","bandit","285","803347","0.0-247.0-0.0","65493372","wem/bandit_party_2","A2A6FH0F7LD9ND","either","4","318","","","","","","","1","0","0","0.4929909192","","0.8","0.4","0.6","0.2","","","","","0.3912115078","0.5094027242","0.4929909192","0.4468516792","","","","","","","","","","75","K","2","","","206","main_expt",""
"","bandit","286","805312","0.0-248.0-0.0","65493372","wem/bandit_party_2","A2A6FH0F7LD9ND","either","4","413","","","","","","","1","0","0","0.4960693894","","0.8","0.4","0.6","0.2","","","","","0.3195818707","0.6449696869","0.4960693894","0.399366085","","","","","","","","","","75","K","2","","","207","main_expt",""
"","bandit","287","807507","0.0-249.0-0.0","65493372","wem/bandit_party_2","A2A6FH0F7LD9ND","either","4","641","","","","","","","1","0","0","0.3912862986","","0.8","0.4","0.6","0.2","","","","","0.2378171997","0.549996868","0.3912862986","0.4206610772","","","","","","","","","","75","K","2","","","208","main_expt",""
"","bandit","288","809647","0.0-250.0-0.0","65493372","wem/bandit_party_2","A2A6FH0F7LD9ND","either","4","606","","","","","","","0","0","1","0.4218938049","","0.8","0.4","0.6","0.2","","","","","0.2339104391","0.5258833792","0.4218938049","0.5145499259","","","","","","","","","","75","K","2","","","209","main_expt",""
"","bandit","289","811722","0.0-251.0-0.0","65493372","wem/bandit_party_2","A2A6FH0F7LD9ND","either","4","546","","","","","","","0","0","1","","0.6003160005","0.8","0.4","0.6","0.2","0.2506558306","0.5453980868","0.6003160005","0.3497539355","","","","","","","","","","","","","","75","K","2","","","210","main_expt",""
"","bandit","290","813732","0.0-252.0-0.0","65493372","wem/bandit_party_2","A2A6FH0F7LD9ND","either","4","462","","","","","","","0","0","1","","0.3466578502","0.8","0.4","0.6","0.2","0.3466578502","0.5370950561","0.5481562991","0.3335821388","","","","","","","","","","","","","","72","H","0","img/none_selected.jpg","","211","main_expt",""
"","bandit","291","815888","0.0-253.0-0.0","65493372","wem/bandit_party_2","A2A6FH0F7LD9ND","either","4","605","","","","","","","0","0","1","0.4162959965","","0.8","0.4","0.6","0.2","","","","","0.4162959965","0.5774996514","0.6210595125","0.2778022227","","","","","","","","","","72","H","0","img/none_selected.jpg","","212","main_expt",""
"","bandit","292","817747","0.0-254.0-0.0","65493372","wem/bandit_party_2","A2A6FH0F7LD9ND","either","4","328","","","","","","","0","0","1","0.4826056363","","0.8","0.4","0.6","0.2","","","","","0.545788555","0.4826056363","0.7732161257","0.2949104287","","","","","","","","","","74","J","1","","","213","main_expt",""
"","bandit","293","819311","0.0-255.0-0.0","65493372","wem/bandit_party_2","A2A6FH0F7LD9ND","either","4","17","","","","","","","0","0","1","","0.7689771773","0.8","0.4","0.6","0.2","0.6077749924","0.4913277851","0.7689771773","0.2443343027","","","","","","","","","","","","","","75","K","2","","","214","main_expt",""
"","bandit","294","821230","0.0-256.0-0.0","65493372","wem/bandit_party_2","A2A6FH0F7LD9ND","either","4","388","","","","","","","0","0","1","0.2232989174","","0.8","0.4","0.6","0.2","","","","","0.4883429648","0.5415006571","0.6841712945","0.2232989174","","","","","","","","","","76","L","3","","","215","main_expt",""
"","bandit","295","823320","0.0-257.0-0.0","65493372","wem/bandit_party_2","A2A6FH0F7LD9ND","either","4","546","","","","","","","0","0","1","0.7019934296","","0.8","0.4","0.6","0.2","","","","","0.3309854328","0.5198015267","0.7019934296","0.2918619336","","","","","","","","","","75","K","2","","","216","main_expt",""
"","bandit","296","825303","0.0-258.0-0.0","65493372","wem/bandit_party_2","A2A6FH0F7LD9ND","either","4","439","","","","","","","0","1","0","","0.545097872","0.8","0.4","0.6","0.2","0.3310528633","0.545097872","0.7537099884","0.3571058798","","","","","","","","","","","","","","74","J","1","","","217","main_expt",""
"","bandit","297","827454","0.0-259.0-0.0","65493372","wem/bandit_party_2","A2A6FH0F7LD9ND","either","4","617","","","","","","","0","0","1","","0.5776025334","0.8","0.4","0.6","0.2","0.4147218791","0.5776025334","0.8428980993","0.3738303097","","","","","","","","","","","","","","74","J","1","","","218","main_expt",""
"","bandit","298","829435","0.0-260.0-0.0","65493372","wem/bandit_party_2","A2A6FH0F7LD9ND","either","4","434","","","","","","","0","0","1","0.5616346574","","0.8","0.4","0.6","0.2","","","","","0.3402104323","0.5616346574","0.8007326434","0.4832874948","","","","","","","","","","74","J","1","","","219","main_expt",""
"","bandit","299","831384","0.0-261.0-0.0","65493372","wem/bandit_party_2","A2A6FH0F7LD9ND","either","4","398","","","","","","","0","0","1","","0.3448871422","0.8","0.4","0.6","0.2","0.3448871422","0.6261942659","0.8518850648","0.475455537","","","","","","","","","","","","","","72","H","0","img/none_selected.jpg","","220","main_expt",""
"","bandit","300","833444","0.0-262.0-0.0","65493372","wem/bandit_party_2","A2A6FH0F7LD9ND","either","4","505","","","","","","","0","0","1","0.4438284365","","0.8","0.4","0.6","0.2","","","","","0.4438284365","0.6533416475","0.8488451861","0.3849790123","","","","","","","","","","72","H","0","img/none_selected.jpg","","221","main_expt",""
"","bandit","301","835531","0.0-263.0-0.0","65493372","wem/bandit_party_2","A2A6FH0F7LD9ND","either","4","541","","","","","","","1","0","0","0.8202185963","","0.8","0.4","0.6","0.2","","","","","0.3768672835","0.6780524799","0.8202185963","0.2708628555","","","","","","","","","","75","K","2","","","222","main_expt",""
"","bandit","302","837575","0.0-264.0-0.0","65493372","wem/bandit_party_2","A2A6FH0F7LD9ND","either","4","501","","","","","","","1","0","0","0.839196386","","0.8","0.4","0.6","0.2","","","","","0.4599748191","0.638470603","0.839196386","0.3886191555","","","","","","","","","","75","K","2","","","223","main_expt",""
"","bandit","303","839694","0.0-265.0-0.0","65493372","wem/bandit_party_2","A2A6FH0F7LD9ND","either","4","561","","","","","","","1","0","0","0.8340435664","","0.8","0.4","0.6","0.2","","","","","0.5868274652","0.560582988","0.8340435664","0.3352763987","","","","","","","","","","75","K","2","","","224","main_expt",""
"","bandit","304","841659","0.0-266.0-0.0","65493372","wem/bandit_party_2","A2A6FH0F7LD9ND","either","4","425","","","","","","","1","0","0","0.8229669419","","0.8","0.4","0.6","0.2","","","","","0.510759767","0.5004803289","0.8229669419","0.3948846532","","","","","","","","","","75","K","2","","","225","main_expt",""
"","bandit","305","843580","0.0-267.0-0.0","65493372","wem/bandit_party_2","A2A6FH0F7LD9ND","either","4","373","","","","","","","1","0","0","0.8326575293","","0.8","0.4","0.6","0.2","","","","","0.6026028704","0.5109709899","0.8326575293","0.385279681","","","","","","","","","","75","K","2","","","226","main_expt",""
"","bandit","306","847200","0.0-268.0-0.0","65493372","wem/bandit_party_2","A2A6FH0F7LD9ND","either","4","2069","","","","","","","1","0","0","0.8904476858","","0.8","0.4","0.6","0.2","","","","","0.588132951","0.4271661703","0.8904476858","0.3296530349","","","","","","","","","","75","K","2","","","227","main_expt",""
"","bandit","307","849229","0.0-269.0-0.0","65493372","wem/bandit_party_2","A2A6FH0F7LD9ND","either","4","489","","","","","","","1","0","0","0.8877596604","","0.8","0.4","0.6","0.2","","","","","0.5754590721","0.374673526","0.8877596604","0.4227788413","","","","","","","","","","75","K","2","","","228","main_expt",""
"","bandit","308","851148","0.0-270.0-0.0","65493372","wem/bandit_party_2","A2A6FH0F7LD9ND","either","4","381","","","","","","","1","0","0","0.8647697669","","0.8","0.4","0.6","0.2","","","","","0.6311951266","0.393435759","0.8647697669","0.4470353227","","","","","","","","","","75","K","2","","","229","main_expt",""
"","bandit","309","853392","0.0-271.0-0.0","65493372","wem/bandit_party_2","A2A6FH0F7LD9ND","either","4","709","","","","","","","0","1","0","","0.8704214291","0.8","0.4","0.6","0.2","0.6164228117","0.3299431778","0.8704214291","0.2986819632","","","","","","","","","","","","","","75","K","2","","","230","main_expt",""
"","bandit","310","855544","0.0-272.0-0.0","65493372","wem/bandit_party_2","A2A6FH0F7LD9ND","either","4","607","","","","","","","0","1","0","","0.8598686354","0.8","0.4","0.6","0.2","0.5943568022","0.3477061432","0.8598686354","0.4508866759","","","","","","","","","","","","","","75","K","2","","","231","main_expt",""
"","bandit","311","858872","0.0-273.0-0.0","65493372","wem/bandit_party_2","A2A6FH0F7LD9ND","either","4","1784","","","","","","","0","0","1","0.7939027672","","0.8","0.4","0.6","0.2","","","","","0.6032910051","0.3430234075","0.7939027672","0.5125968159","","","","","","","","","","75","K","2","","","232","main_expt",""
"","bandit","312","860836","0.0-274.0-0.0","65493372","wem/bandit_party_2","A2A6FH0F7LD9ND","either","4","433","","","","","","","1","0","0","0.7930400566","","0.8","0.4","0.6","0.2","","","","","0.7225660168","0.2812772396","0.7930400566","0.6020802482","","","","","","","","","","75","K","2","","","233","main_expt",""
"","bandit","313","864596","0.0-275.0-0.0","65493372","wem/bandit_party_2","A2A6FH0F7LD9ND","either","4","2205","","","","","","","0","0","1","","0.7549101179","0.8","0.4","0.6","0.2","0.6718439238","0.2049555934","0.7549101179","0.5927943616","","","","","","","","","","","","","","75","K","2","","","234","main_expt",""
