"consent","trial_type","trial_index","time_elapsed","internal_node_id","subjID","study","MID","cond","drift","rt","responses","button_pressed","key_press","like","value","connected","gems","bombs","no_reward","GemPrChosen","BombPrChosen","GainOverPainPr_0","GainOverPainPr_1","GainOverPainPr_2","GainOverPainPr_3","LosePr_0","LosePr_1","LosePr_2","LosePr_3","WinPr_0","WinPr_1","WinPr_2","WinPr_3","Q0","Q1","Q2","gender","age","ethnicity","label","expt_phase","target","respCharCode","respKey","respChoiceNum","respChoice","practice","trial_counter","trial_label","Q0_index"
"GDM/GDM_behavioral_consent_30min_online.html","consent","0","11606","0.0-0.0","65962959","wem/bandit_party_2","A1NFBKUYYVUYWF","either","4","","","","","","","","","","","","","","","","","","","","","","","","","","","","","","","","","","","","","","","","",""
"","survey-text","1","18739","0.0-1.0","65962959","wem/bandit_party_2","A1NFBKUYYVUYWF","either","4","6114","{""Q0"":""A1NFBKUYYVUYWF""}","","","","","","","","","","","","","","","","","","","","","","","","","","","","","","","","","","","","","","",""
"","button-response","2","21256","0.0-2.0","65962959","wem/bandit_party_2","A1NFBKUYYVUYWF","either","4","1514","","0","","","","","","","","","","","","","","","","","","","","","","","","","","","","","","","","","","","","","",""
"","text-replacement","3","48423","0.0-3.0","65962959","wem/bandit_party_2","A1NFBKUYYVUYWF","either","4","26165","","","32","","","","","","","","","","","","","","","","","","","","","","","","","","","","","","","","","","","","",""
"","text-replacement","4","61783","0.0-4.0","65962959","wem/bandit_party_2","A1NFBKUYYVUYWF","either","4","13359","","","32","","","","","","","","","","","","","","","","","","","","","","","","","","","","","","","","","","","","",""
"","identification","5","68063","0.0-6.0-0.0","65962959","wem/bandit_party_2","A1NFBKUYYVUYWF","either","4","6266","","","","0","0","0","","","","","","","","","","","","","","","","","","","","","","","","pre","identification_pre","the Democratic Party","","","","","","","",""
"","identification","6","80374","0.0-6.0-1.0","65962959","wem/bandit_party_2","A1NFBKUYYVUYWF","either","4","11299","","","","4","5","4","","","","","","","","","","","","","","","","","","","","","","","","pre","identification_pre","the Republican Party","","","","","","","",""
"","text-replacement","7","88070","0.0-7.0","65962959","wem/bandit_party_2","A1NFBKUYYVUYWF","either","4","6695","","","32","","","","","","","","","","","","","","","","","","","","","","","","","","","","","","","","","","","","",""
"","text-replacement","8","94742","0.0-8.0","65962959","wem/bandit_party_2","A1NFBKUYYVUYWF","either","4","6669","","","32","","","","","","","","","","","","","","","","","","","","","","","","","","","","","","","","","","","","",""
"","text-replacement","9","147830","0.0-9.0","65962959","wem/bandit_party_2","A1NFBKUYYVUYWF","either","4","53087","","","32","","","","","","","","","","","","","","","","","","","","","","","","","","","","","","","","","","","","",""
"","text-replacement","10","164102","0.0-10.0","65962959","wem/bandit_party_2","A1NFBKUYYVUYWF","either","4","16270","","","32","","","","","","","","","","","","","","","","","","","","","","","","","","","","","","","","","","","","",""
"","text-replacement","11","167862","0.0-11.0","65962959","wem/bandit_party_2","A1NFBKUYYVUYWF","either","4","3758","","","32","","","","","","","","","","","","","","","","","","","","","","","","","","","","","","","","","","","","",""
"","bandit","12","171747","0.0-12.0-0.0","65962959","wem/bandit_party_2","A1NFBKUYYVUYWF","either","4","2380","","","","","","","0","0","1","0","0","","","","","0","","","","0","","","","","","","","","","","","","74","J","0","img/none_selected_demo.jpg","true","0","",""
"","bandit","13","175137","0.0-13.0-0.0","65962959","wem/bandit_party_2","A1NFBKUYYVUYWF","either","4","1888","","","","","","","0","0","1","0","0","","","","","0","","","","0","","","","","","","","","","","","","75","K","0","img/none_selected_demo.jpg","true","0","",""
"","text-replacement","14","182486","0.0-14.0","65962959","wem/bandit_party_2","A1NFBKUYYVUYWF","either","4","7347","","","32","","","","","","","","","","","","","","","","","","","","","","","","","","","","","","","","","","","","",""
"","text-replacement","15","199894","0.0-15.0","65962959","wem/bandit_party_2","A1NFBKUYYVUYWF","either","4","17406","","","32","","","","","","","","","","","","","","","","","","","","","","","","","","","","","","","","","","","","",""
"","text-replacement","16","206981","0.0-16.0","65962959","wem/bandit_party_2","A1NFBKUYYVUYWF","either","4","7086","","","32","","","","","","","","","","","","","","","","","","","","","","","","","","","","","","","","","","","","",""
"","text-replacement","17","211222","0.0-17.0","65962959","wem/bandit_party_2","A1NFBKUYYVUYWF","either","4","4239","","","32","","","","","","","","","","","","","","","","","","","","","","","","","","","","","","","","","","","","",""
"","bandit","18","214337","0.0-18.0-0.0","65962959","wem/bandit_party_2","A1NFBKUYYVUYWF","either","4","1612","","","","","","","0","1","0","","0.8","0.5","0.5","","","0.8","0.2","","","","","","","","","","","","","","","","74","J","0","img/none_selected_demo.jpg","true","0","80_20_practice",""
"","bandit","19","216913","0.0-18.0-1.0","65962959","wem/bandit_party_2","A1NFBKUYYVUYWF","either","4","1073","","","","","","","0","0","1","","0.2","0.5","0.5","","","0.8","0.2","","","","","","","","","","","","","","","","75","K","1","","true","0","80_20_practice",""
"","bandit","20","218962","0.0-18.0-2.0","65962959","wem/bandit_party_2","A1NFBKUYYVUYWF","either","4","543","","","","","","","0","1","0","","0.8","0.5","0.5","","","0.8","0.2","","","","","","","","","","","","","","","","74","J","0","img/none_selected_demo.jpg","true","0","80_20_practice",""
"","bandit","21","221058","0.0-18.0-3.0","65962959","wem/bandit_party_2","A1NFBKUYYVUYWF","either","4","593","","","","","","","0","1","0","","0.8","0.5","0.5","","","0.8","0.2","","","","","","","","","","","","","","","","74","J","0","img/none_selected_demo.jpg","true","0","80_20_practice",""
"","bandit","22","223091","0.0-18.0-4.0","65962959","wem/bandit_party_2","A1NFBKUYYVUYWF","either","4","530","","","","","","","1","0","0","0.8","","0.5","0.5","","","","","","","0.8","0.2","","","","","","","","","","","","74","J","0","img/none_selected_demo.jpg","true","0","80_20_practice",""
"","bandit","23","225137","0.0-18.0-5.0","65962959","wem/bandit_party_2","A1NFBKUYYVUYWF","either","4","543","","","","","","","1","0","0","0.8","","0.5","0.5","","","","","","","0.8","0.2","","","","","","","","","","","","74","J","0","img/none_selected_demo.jpg","true","0","80_20_practice",""
"","bandit","24","227569","0.0-18.0-6.0","65962959","wem/bandit_party_2","A1NFBKUYYVUYWF","either","4","930","","","","","","","0","0","1","0.8","","0.5","0.5","","","","","","","0.8","0.2","","","","","","","","","","","","74","J","0","img/none_selected_demo.jpg","true","0","80_20_practice",""
"","bandit","25","229649","0.0-18.0-7.0","65962959","wem/bandit_party_2","A1NFBKUYYVUYWF","either","4","578","","","","","","","0","0","1","0.8","","0.5","0.5","","","","","","","0.8","0.2","","","","","","","","","","","","74","J","0","img/none_selected_demo.jpg","true","0","80_20_practice",""
"","bandit","26","231649","0.0-18.0-8.0","65962959","wem/bandit_party_2","A1NFBKUYYVUYWF","either","4","497","","","","","","","0","0","1","","0.2","0.5","0.5","","","0.8","0.2","","","","","","","","","","","","","","","","75","K","1","","true","0","80_20_practice",""
"","bandit","27","233570","0.0-18.0-9.0","65962959","wem/bandit_party_2","A1NFBKUYYVUYWF","either","4","419","","","","","","","0","1","0","","0.8","0.5","0.5","","","0.8","0.2","","","","","","","","","","","","","","","","74","J","0","img/none_selected_demo.jpg","true","0","80_20_practice",""
"","bandit","28","235714","0.0-18.0-10.0","65962959","wem/bandit_party_2","A1NFBKUYYVUYWF","either","4","640","","","","","","","0","1","0","","0.8","0.5","0.5","","","0.8","0.2","","","","","","","","","","","","","","","","74","J","0","img/none_selected_demo.jpg","true","0","80_20_practice",""
"","bandit","29","237618","0.0-18.0-11.0","65962959","wem/bandit_party_2","A1NFBKUYYVUYWF","either","4","400","","","","","","","0","1","0","","0.8","0.5","0.5","","","0.8","0.2","","","","","","","","","","","","","","","","74","J","0","img/none_selected_demo.jpg","true","0","80_20_practice",""
"","bandit","30","239762","0.0-18.0-12.0","65962959","wem/bandit_party_2","A1NFBKUYYVUYWF","either","4","641","","","","","","","0","1","0","","0.8","0.5","0.5","","","0.8","0.2","","","","","","","","","","","","","","","","74","J","0","img/none_selected_demo.jpg","true","0","80_20_practice",""
"","bandit","31","241745","0.0-18.0-13.0","65962959","wem/bandit_party_2","A1NFBKUYYVUYWF","either","4","481","","","","","","","1","0","0","0.8","","0.5","0.5","","","","","","","0.8","0.2","","","","","","","","","","","","74","J","0","img/none_selected_demo.jpg","true","0","80_20_practice",""
"","bandit","32","243761","0.0-18.0-14.0","65962959","wem/bandit_party_2","A1NFBKUYYVUYWF","either","4","513","","","","","","","0","1","0","","0.8","0.5","0.5","","","0.8","0.2","","","","","","","","","","","","","","","","74","J","0","img/none_selected_demo.jpg","true","0","80_20_practice",""
"","bandit","33","245680","0.0-18.0-15.0","65962959","wem/bandit_party_2","A1NFBKUYYVUYWF","either","4","416","","","","","","","0","0","1","0.8","","0.5","0.5","","","","","","","0.8","0.2","","","","","","","","","","","","74","J","0","img/none_selected_demo.jpg","true","0","80_20_practice",""
"","bandit","34","247600","0.0-18.0-16.0","65962959","wem/bandit_party_2","A1NFBKUYYVUYWF","either","4","417","","","","","","","0","1","0","","0.8","0.5","0.5","","","0.8","0.2","","","","","","","","","","","","","","","","74","J","0","img/none_selected_demo.jpg","true","0","80_20_practice",""
"","bandit","35","249520","0.0-18.0-17.0","65962959","wem/bandit_party_2","A1NFBKUYYVUYWF","either","4","416","","","","","","","1","0","0","0.8","","0.5","0.5","","","","","","","0.8","0.2","","","","","","","","","","","","74","J","0","img/none_selected_demo.jpg","true","0","80_20_practice",""
"","bandit","36","251488","0.0-18.0-18.0","65962959","wem/bandit_party_2","A1NFBKUYYVUYWF","either","4","464","","","","","","","0","0","1","0.8","","0.5","0.5","","","","","","","0.8","0.2","","","","","","","","","","","","74","J","0","img/none_selected_demo.jpg","true","0","80_20_practice",""
"","bandit","37","253328","0.0-18.0-19.0","65962959","wem/bandit_party_2","A1NFBKUYYVUYWF","either","4","337","","","","","","","0","0","1","0.8","","0.5","0.5","","","","","","","0.8","0.2","","","","","","","","","","","","74","J","0","img/none_selected_demo.jpg","true","0","80_20_practice",""
"","text-replacement","38","259668","0.0-19.0","65962959","wem/bandit_party_2","A1NFBKUYYVUYWF","either","4","6338","","","32","","","","","","","","","","","","","","","","","","","","","","","","","","","","","","","","","","","","",""
"","bandit","39","262512","0.0-20.0-0.0","65962959","wem/bandit_party_2","A1NFBKUYYVUYWF","either","4","1342","","","","","","","1","0","0","1","0","","","","","0","1","","","1","0","","","","","","","","","","","","74","J","0","img/none_selected_demo.jpg","true","0","",""
"","text-replacement","40","268245","0.0-21.0","65962959","wem/bandit_party_2","A1NFBKUYYVUYWF","either","4","5730","","","32","","","","","","","","","","","","","","","","","","","","","","","","","","","","","","","","","","","","",""
"","text-replacement","41","270661","0.0-22.0","65962959","wem/bandit_party_2","A1NFBKUYYVUYWF","either","4","2414","","","32","","","","","","","","","","","","","","","","","","","","","","","","","","","","","","","","","","","","",""
"","text-replacement","42","273445","0.0-23.0","65962959","wem/bandit_party_2","A1NFBKUYYVUYWF","either","4","2781","","","32","","","","","","","","","","","","","","","","","","","","","","","","","","","","","","","","","","","","",""
"","text-replacement","43","276212","0.0-24.0","65962959","wem/bandit_party_2","A1NFBKUYYVUYWF","either","4","2766","","","32","","","","","","","","","","","","","","","","","","","","","","","","","","","","","","","","","","","","",""
"","text-replacement","44","282693","0.0-25.0","65962959","wem/bandit_party_2","A1NFBKUYYVUYWF","either","4","6479","","","32","","","","","","","","","","","","","","","","","","","","","","","","","","","","","","","","","","","","",""
"","text-replacement","45","286500","0.0-26.0","65962959","wem/bandit_party_2","A1NFBKUYYVUYWF","either","4","3805","","","32","","","","","","","","","","","","","","","","","","","","","","","","","","","","","","","","","","","","",""
"","text-replacement","46","291429","0.0-27.0","65962959","wem/bandit_party_2","A1NFBKUYYVUYWF","either","4","4927","","","32","","","","","","","","","","","","","","","","","","","","","","","","","","","","","","","","","","","","",""
"","text-replacement","47","294789","0.0-28.0","65962959","wem/bandit_party_2","A1NFBKUYYVUYWF","either","4","3359","","","32","","","","","","","","","","","","","","","","","","","","","","","","","","","","","","","","","","","","",""
"","text-replacement","48","300772","0.0-29.0","65962959","wem/bandit_party_2","A1NFBKUYYVUYWF","either","4","5980","","","32","","","","","","","","","","","","","","","","","","","","","","","","","","","","","","","","","","","","",""
"","text-replacement","49","302884","0.0-30.0","65962959","wem/bandit_party_2","A1NFBKUYYVUYWF","either","4","2110","","","32","","","","","","","","","","","","","","","","","","","","","","","","","","","","","","","","","","","","",""
"","text-replacement","50","306471","0.0-31.0","65962959","wem/bandit_party_2","A1NFBKUYYVUYWF","either","4","3585","","","32","","","","","","","","","","","","","","","","","","","","","","","","","","","","","","","","","","","","",""
"","bandit","51","309875","0.0-32.0-0.0","65962959","wem/bandit_party_2","A1NFBKUYYVUYWF","either","4","1900","","","","","","","0","1","0","","0.8","0.5","0.5","0.5","0.5","0.8","0.2","0.6","0.2","","","","","","","","","","","","","","72","H","0","img/none_selected.jpg","true","0","full_practice",""
"","bandit","52","311890","0.0-32.0-1.0","65962959","wem/bandit_party_2","A1NFBKUYYVUYWF","either","4","510","","","","","","","1","0","0","0.8","","0.5","0.5","0.5","0.5","","","","","0.8","0.2","0.6","0.2","","","","","","","","","","72","H","0","img/none_selected.jpg","true","0","full_practice",""
"","bandit","53","314510","0.0-32.0-2.0","65962959","wem/bandit_party_2","A1NFBKUYYVUYWF","either","4","1104","","","","","","","0","0","1","","0.8","0.5","0.5","0.5","0.5","0.8","0.2","0.6","0.2","","","","","","","","","","","","","","72","H","0","img/none_selected.jpg","true","0","full_practice",""
"","bandit","54","316481","0.0-32.0-3.0","65962959","wem/bandit_party_2","A1NFBKUYYVUYWF","either","4","469","","","","","","","0","0","1","","0.2","0.5","0.5","0.5","0.5","0.8","0.2","0.6","0.2","","","","","","","","","","","","","","74","J","1","","true","0","full_practice",""
"","bandit","55","318402","0.0-32.0-4.0","65962959","wem/bandit_party_2","A1NFBKUYYVUYWF","either","4","418","","","","","","","0","0","1","0.2","","0.5","0.5","0.5","0.5","","","","","0.8","0.2","0.6","0.2","","","","","","","","","","74","J","1","","true","0","full_practice",""
"","bandit","56","320689","0.0-32.0-5.0","65962959","wem/bandit_party_2","A1NFBKUYYVUYWF","either","4","782","","","","","","","0","1","0","","0.6","0.5","0.5","0.5","0.5","0.8","0.2","0.6","0.2","","","","","","","","","","","","","","75","K","2","","true","0","full_practice",""
"","bandit","57","322609","0.0-32.0-6.0","65962959","wem/bandit_party_2","A1NFBKUYYVUYWF","either","4","416","","","","","","","1","0","0","0.6","","0.5","0.5","0.5","0.5","","","","","0.8","0.2","0.6","0.2","","","","","","","","","","75","K","2","","true","0","full_practice",""
"","bandit","58","324594","0.0-32.0-7.0","65962959","wem/bandit_party_2","A1NFBKUYYVUYWF","either","4","480","","","","","","","1","0","0","0.6","","0.5","0.5","0.5","0.5","","","","","0.8","0.2","0.6","0.2","","","","","","","","","","75","K","2","","true","0","full_practice",""
"","bandit","59","326498","0.0-32.0-8.0","65962959","wem/bandit_party_2","A1NFBKUYYVUYWF","either","4","400","","","","","","","0","0","1","","0.6","0.5","0.5","0.5","0.5","0.8","0.2","0.6","0.2","","","","","","","","","","","","","","75","K","2","","true","0","full_practice",""
"","bandit","60","328643","0.0-32.0-9.0","65962959","wem/bandit_party_2","A1NFBKUYYVUYWF","either","4","639","","","","","","","0","0","1","0.2","","0.5","0.5","0.5","0.5","","","","","0.8","0.2","0.6","0.2","","","","","","","","","","76","L","3","","true","0","full_practice",""
"","bandit","61","330433","0.0-32.0-10.0","65962959","wem/bandit_party_2","A1NFBKUYYVUYWF","either","4","287","","","","","","","0","0","1","0.2","","0.5","0.5","0.5","0.5","","","","","0.8","0.2","0.6","0.2","","","","","","","","","","76","L","3","","true","0","full_practice",""
"","bandit","62","332433","0.0-32.0-11.0","65962959","wem/bandit_party_2","A1NFBKUYYVUYWF","either","4","497","","","","","","","0","0","1","","0.2","0.5","0.5","0.5","0.5","0.8","0.2","0.6","0.2","","","","","","","","","","","","","","76","L","3","","true","0","full_practice",""
"","bandit","63","334769","0.0-32.0-12.0","65962959","wem/bandit_party_2","A1NFBKUYYVUYWF","either","4","833","","","","","","","1","0","0","0.6","","0.5","0.5","0.5","0.5","","","","","0.8","0.2","0.6","0.2","","","","","","","","","","75","K","2","","true","0","full_practice",""
"","bandit","64","336673","0.0-32.0-13.0","65962959","wem/bandit_party_2","A1NFBKUYYVUYWF","either","4","400","","","","","","","1","0","0","0.6","","0.5","0.5","0.5","0.5","","","","","0.8","0.2","0.6","0.2","","","","","","","","","","75","K","2","","true","0","full_practice",""
"","bandit","65","338641","0.0-32.0-14.0","65962959","wem/bandit_party_2","A1NFBKUYYVUYWF","either","4","464","","","","","","","0","0","1","","0.6","0.5","0.5","0.5","0.5","0.8","0.2","0.6","0.2","","","","","","","","","","","","","","75","K","2","","true","0","full_practice",""
"","bandit","66","341315","0.0-32.0-15.0","65962959","wem/bandit_party_2","A1NFBKUYYVUYWF","either","4","1169","","","","","","","0","0","1","","0.8","0.5","0.5","0.5","0.5","0.8","0.2","0.6","0.2","","","","","","","","","","","","","","72","H","0","img/none_selected.jpg","true","0","full_practice",""
"","bandit","67","343314","0.0-32.0-16.0","65962959","wem/bandit_party_2","A1NFBKUYYVUYWF","either","4","493","","","","","","","0","1","0","","0.8","0.5","0.5","0.5","0.5","0.8","0.2","0.6","0.2","","","","","","","","","","","","","","72","H","0","img/none_selected.jpg","true","0","full_practice",""
"","bandit","68","345202","0.0-32.0-17.0","65962959","wem/bandit_party_2","A1NFBKUYYVUYWF","either","4","383","","","","","","","0","1","0","","0.8","0.5","0.5","0.5","0.5","0.8","0.2","0.6","0.2","","","","","","","","","","","","","","72","H","0","img/none_selected.jpg","true","0","full_practice",""
"","bandit","69","347137","0.0-32.0-18.0","65962959","wem/bandit_party_2","A1NFBKUYYVUYWF","either","4","432","","","","","","","0","1","0","","0.8","0.5","0.5","0.5","0.5","0.8","0.2","0.6","0.2","","","","","","","","","","","","","","72","H","0","img/none_selected.jpg","true","0","full_practice",""
"","bandit","70","349105","0.0-32.0-19.0","65962959","wem/bandit_party_2","A1NFBKUYYVUYWF","either","4","465","","","","","","","0","1","0","","0.8","0.5","0.5","0.5","0.5","0.8","0.2","0.6","0.2","","","","","","","","","","","","","","72","H","0","img/none_selected.jpg","true","0","full_practice",""
"","text","71","352823","0.0-33.0","65962959","wem/bandit_party_2","A1NFBKUYYVUYWF","either","4","3708","","","32","","","","","","","","","","","","","","","","","","","","","","","","","","","","","","","","","","","","",""
"","text-replacement","72","367781","0.0-34.0","65962959","wem/bandit_party_2","A1NFBKUYYVUYWF","either","4","13956","","","32","","","","","","","","","","","","","","","","","","","","","","","","","","","","","","","","","","","","",""
"","text-replacement","73","378198","0.0-35.0","65962959","wem/bandit_party_2","A1NFBKUYYVUYWF","either","4","10414","","","32","","","","","","","","","","","","","","","","","","","","","","","","","","","","","","","","","","","","",""
"","text-replacement","74","384132","0.0-36.0","65962959","wem/bandit_party_2","A1NFBKUYYVUYWF","either","4","5933","","","32","","","","","","","","","","","","","","","","","","","","","","","","","","","","","","","","","","","","",""
"","text-replacement","75","390629","0.0-37.0","65962959","wem/bandit_party_2","A1NFBKUYYVUYWF","either","4","6494","","","32","","","","","","","","","","","","","","","","","","","","","","","","","","","","","","","","","","","","",""
"","text-replacement","76","396149","0.0-38.0","65962959","wem/bandit_party_2","A1NFBKUYYVUYWF","either","4","5517","","","32","","","","","","","","","","","","","","","","","","","","","","","","","","","","","","","","","","","","",""
"","survey-multi-choice-replacement","77","402838","0.0-39.0-0.0","65962959","wem/bandit_party_2","A1NFBKUYYVUYWF","either","4","6681","","","","","","","","","","","","","","","","","","","","","","","","Money will be added to the pool for <span style='color:red;'>REPUBLICANS</span>","","","","","","","attn_check","","","","","","","","","0"
"","survey-multi-choice-replacement","78","408436","0.0-40.0-0.0","65962959","wem/bandit_party_2","A1NFBKUYYVUYWF","either","4","4588","","","","","","","","","","","","","","","","","","","","","","","","Equal amounts of money will be added to the pool for <span style='color:red;'>REPUBLICANS</span> and subtracted from the pool for <span style='color:blue;'>DEMOCRATS</span>","","","","","","","attn_check","","","","","","","","","2"
"","survey-multi-choice-replacement","79","412116","0.0-41.0-0.0","65962959","wem/bandit_party_2","A1NFBKUYYVUYWF","either","4","2672","","","","","","","","","","","","","","","","","","","","","","","","No money will be added to either pool","","","","","","","attn_check","","","","","","","","","3"
"","bandit","80","417026","0.0-42.0-0.0","65962959","wem/bandit_party_2","A1NFBKUYYVUYWF","either","4","2401","","","","","","","1","0","0","0.7267404998","","0.8","0.2","0.4","0.6","","","","","0.8209843215","0.7267404998","0.9858900825","0.2887693562","","","","","","","","","","74","J","1","","","1","main_expt",""
"","bandit","81","419088","0.0-43.0-0.0","65962959","wem/bandit_party_2","A1NFBKUYYVUYWF","either","4","558","","","","","","","0","1","0","","0.7034907646","0.8","0.2","0.4","0.6","0.8179122382","0.7034907646","0.9854924354","0.2986217167","","","","","","","","","","","","","","74","J","1","","","2","main_expt",""
"","bandit","82","420992","0.0-44.0-0.0","65962959","wem/bandit_party_2","A1NFBKUYYVUYWF","either","4","399","","","","","","","0","0","1","","0.6574847675","0.8","0.2","0.4","0.6","0.8301291561","0.6574847675","0.9789624529","0.261346942","","","","","","","","","","","","","","74","J","1","","","3","main_expt",""
"","bandit","83","423136","0.0-45.0-0.0","65962959","wem/bandit_party_2","A1NFBKUYYVUYWF","either","4","641","","","","","","","0","0","1","","0.5092805277","0.8","0.2","0.4","0.6","0.8219157537","0.5092805277","0.9565345184","0.2757740293","","","","","","","","","","","","","","74","J","1","","","4","main_expt",""
"","bandit","84","426273","0.0-46.0-0.0","65962959","wem/bandit_party_2","A1NFBKUYYVUYWF","either","4","1631","","","","","","","0","1","0","","0.941194936","0.8","0.2","0.4","0.6","0.7759220463","0.5952926025","0.941194936","0.3329857669","","","","","","","","","","","","","","75","K","2","","","5","main_expt",""
"","bandit","85","428274","0.0-47.0-0.0","65962959","wem/bandit_party_2","A1NFBKUYYVUYWF","either","4","496","","","","","","","0","1","0","","0.9305219143","0.8","0.2","0.4","0.6","0.7495930044","0.6160758637","0.9305219143","0.331878758","","","","","","","","","","","","","","75","K","2","","","6","main_expt",""
"","bandit","86","430354","0.0-48.0-0.0","65962959","wem/bandit_party_2","A1NFBKUYYVUYWF","either","4","575","","","","","","","1","0","0","0.937738562","","0.8","0.2","0.4","0.6","","","","","0.7078030286","0.6381806331","0.937738562","0.3863389794","","","","","","","","","","75","K","2","","","7","main_expt",""
"","bandit","87","432322","0.0-49.0-0.0","65962959","wem/bandit_party_2","A1NFBKUYYVUYWF","either","4","463","","","","","","","1","0","0","0.8269671957","","0.8","0.2","0.4","0.6","","","","","0.689407674","0.7047831713","0.8269671957","0.4242016385","","","","","","","","","","75","K","2","","","8","main_expt",""
"","bandit","88","434305","0.0-50.0-0.0","65962959","wem/bandit_party_2","A1NFBKUYYVUYWF","either","4","478","","","","","","","0","0","1","","0.7696709776","0.8","0.2","0.4","0.6","0.7848236408","0.6222923336","0.7696709776","0.379169242","","","","","","","","","","","","","","75","K","2","","","9","main_expt",""
"","bandit","89","436465","0.0-51.0-0.0","65962959","wem/bandit_party_2","A1NFBKUYYVUYWF","either","4","653","","","","","","","0","1","0","","0.40569916","0.8","0.2","0.4","0.6","0.791363481","0.5629201009","0.7313552403","0.40569916","","","","","","","","","","","","","","76","L","3","","","10","main_expt",""
"","bandit","90","438386","0.0-52.0-0.0","65962959","wem/bandit_party_2","A1NFBKUYYVUYWF","either","4","417","","","","","","","0","1","0","","0.4188021694","0.8","0.2","0.4","0.6","0.7800632456","0.644159789","0.8129169819","0.4188021694","","","","","","","","","","","","","","76","L","3","","","11","main_expt",""
"","bandit","91","440353","0.0-53.0-0.0","65962959","wem/bandit_party_2","A1NFBKUYYVUYWF","either","4","463","","","","","","","1","0","0","0.3689559917","","0.8","0.2","0.4","0.6","","","","","0.7559884596","0.6840372722","0.7611571711","0.3689559917","","","","","","","","","","76","L","3","","","12","main_expt",""
"","bandit","92","442449","0.0-54.0-0.0","65962959","wem/bandit_party_2","A1NFBKUYYVUYWF","either","4","591","","","","","","","0","0","1","","0.4584943612","0.8","0.2","0.4","0.6","0.7695577991","0.6236151953","0.7628417147","0.4584943612","","","","","","","","","","","","","","76","L","3","","","13","main_expt",""
"","bandit","93","444305","0.0-55.0-0.0","65962959","wem/bandit_party_2","A1NFBKUYYVUYWF","either","4","350","","","","","","","0","0","1","0.8509931145","","0.8","0.2","0.4","0.6","","","","","0.8509931145","0.5388331182","0.7436451733","0.455083938","","","","","","","","","","72","H","0","img/none_selected.jpg","","14","main_expt",""
"","bandit","94","446210","0.0-56.0-0.0","65962959","wem/bandit_party_2","A1NFBKUYYVUYWF","either","4","399","","","","","","","1","0","0","0.7745856811","","0.8","0.2","0.4","0.6","","","","","0.7745856811","0.4802769188","0.8256008488","0.5360112786","","","","","","","","","","72","H","0","img/none_selected.jpg","","15","main_expt",""
"","bandit","95","448194","0.0-57.0-0.0","65962959","wem/bandit_party_2","A1NFBKUYYVUYWF","either","4","479","","","","","","","1","0","0","0.7576521113","","0.8","0.2","0.4","0.6","","","","","0.7576521113","0.4688000192","0.7683027423","0.4791571541","","","","","","","","","","72","H","0","img/none_selected.jpg","","16","main_expt",""
"","bandit","96","450179","0.0-58.0-0.0","65962959","wem/bandit_party_2","A1NFBKUYYVUYWF","either","4","480","","","","","","","1","0","0","0.8099558365","","0.8","0.2","0.4","0.6","","","","","0.8099558365","0.6000602573","0.7857675768","0.5263630166","","","","","","","","","","72","H","0","img/none_selected.jpg","","17","main_expt",""
"","bandit","97","452161","0.0-59.0-0.0","65962959","wem/bandit_party_2","A1NFBKUYYVUYWF","either","4","478","","","","","","","0","1","0","","0.7535280451","0.8","0.2","0.4","0.6","0.7535280451","0.6046592687","0.7303419725","0.543945959","","","","","","","","","","","","","","72","H","0","img/none_selected.jpg","","18","main_expt",""
"","bandit","98","454081","0.0-60.0-0.0","65962959","wem/bandit_party_2","A1NFBKUYYVUYWF","either","4","415","","","","","","","1","0","0","0.7206444799","","0.8","0.2","0.4","0.6","","","","","0.7206444799","0.6177236116","0.7243255268","0.4579801682","","","","","","","","","","72","H","0","img/none_selected.jpg","","19","main_expt",""
"","bandit","99","456049","0.0-61.0-0.0","65962959","wem/bandit_party_2","A1NFBKUYYVUYWF","either","4","464","","","","","","","0","0","1","0.6388551968","","0.8","0.2","0.4","0.6","","","","","0.6388551968","0.5484637992","0.7691283854","0.5439896582","","","","","","","","","","72","H","0","img/none_selected.jpg","","20","main_expt",""
"","bandit","100","458113","0.0-62.0-0.0","65962959","wem/bandit_party_2","A1NFBKUYYVUYWF","either","4","560","","","","","","","0","1","0","","0.6646151354","0.8","0.2","0.4","0.6","0.4956822649","0.6646151354","0.7068464658","0.5796019833","","","","","","","","","","","","","","74","J","1","","","21","main_expt",""
"","bandit","101","460065","0.0-63.0-0.0","65962959","wem/bandit_party_2","A1NFBKUYYVUYWF","either","4","447","","","","","","","1","0","0","0.7223938077","","0.8","0.2","0.4","0.6","","","","","0.4316307404","0.7223938077","0.7407239748","0.5885929095","","","","","","","","","","74","J","1","","","22","main_expt",""
"","bandit","102","461970","0.0-64.0-0.0","65962959","wem/bandit_party_2","A1NFBKUYYVUYWF","either","4","401","","","","","","","1","0","0","0.7548690184","","0.8","0.2","0.4","0.6","","","","","0.4158022912","0.7548690184","0.7300920021","0.4899642796","","","","","","","","","","74","J","1","","","23","main_expt",""
"","bandit","103","463937","0.0-65.0-0.0","65962959","wem/bandit_party_2","A1NFBKUYYVUYWF","either","4","461","","","","","","","0","1","0","","0.7794954679","0.8","0.2","0.4","0.6","0.4099928258","0.7794954679","0.7074307303","0.4984159311","","","","","","","","","","","","","","74","J","1","","","24","main_expt",""
"","bandit","104","465858","0.0-66.0-0.0","65962959","wem/bandit_party_2","A1NFBKUYYVUYWF","either","4","416","","","","","","","0","1","0","","0.8029664172","0.8","0.2","0.4","0.6","0.4303724308","0.8029664172","0.6228099684","0.5885503773","","","","","","","","","","","","","","74","J","1","","","25","main_expt",""
"","bandit","105","467761","0.0-67.0-0.0","65962959","wem/bandit_party_2","A1NFBKUYYVUYWF","either","4","399","","","","","","","0","0","1","","0.6980766755","0.8","0.2","0.4","0.6","0.3291624114","0.6980766755","0.5588879168","0.6978100054","","","","","","","","","","","","","","74","J","1","","","26","main_expt",""
"","bandit","106","469649","0.0-68.0-0.0","65962959","wem/bandit_party_2","A1NFBKUYYVUYWF","either","4","384","","","","","","","1","0","0","0.5033257713","","0.8","0.2","0.4","0.6","","","","","0.3795789415","0.7021498626","0.5033257713","0.6442468271","","","","","","","","","","75","K","2","","","27","main_expt",""
"","bandit","107","471585","0.0-69.0-0.0","65962959","wem/bandit_party_2","A1NFBKUYYVUYWF","either","4","432","","","","","","","0","1","0","","0.4915102133","0.8","0.2","0.4","0.6","0.3208573938","0.7802436781","0.4915102133","0.7399213538","","","","","","","","","","","","","","75","K","2","","","28","main_expt",""
"","bandit","108","473523","0.0-70.0-0.0","65962959","wem/bandit_party_2","A1NFBKUYYVUYWF","either","4","433","","","","","","","0","0","1","0.4291187576","","0.8","0.2","0.4","0.6","","","","","0.3352919619","0.6907923131","0.4291187576","0.7520253205","","","","","","","","","","75","K","2","","","29","main_expt",""
"","bandit","109","475409","0.0-71.0-0.0","65962959","wem/bandit_party_2","A1NFBKUYYVUYWF","either","4","382","","","","","","","1","0","0","0.7528469829","","0.8","0.2","0.4","0.6","","","","","0.3452717309","0.6771306444","0.5379907803","0.7528469829","","","","","","","","","","76","L","3","","","30","main_expt",""
"","bandit","110","477345","0.0-72.0-0.0","65962959","wem/bandit_party_2","A1NFBKUYYVUYWF","either","4","431","","","","","","","1","0","0","0.7571908429","","0.8","0.2","0.4","0.6","","","","","0.2967094522","0.7130915948","0.646046857","0.7571908429","","","","","","","","","","76","L","3","","","31","main_expt",""
"","bandit","111","479377","0.0-73.0-0.0","65962959","wem/bandit_party_2","A1NFBKUYYVUYWF","either","4","527","","","","","","","0","0","1","","0.7530934884","0.8","0.2","0.4","0.6","0.255781972","0.6849190202","0.5608885347","0.7530934884","","","","","","","","","","","","","","76","L","3","","","32","main_expt",""
"","bandit","112","481185","0.0-74.0-0.0","65962959","wem/bandit_party_2","A1NFBKUYYVUYWF","either","4","302","","","","","","","0","0","1","0.2703771925","","0.8","0.2","0.4","0.6","","","","","0.2703771925","0.7392612035","0.5952322697","0.7163673585","","","","","","","","","","72","H","0","img/none_selected.jpg","","33","main_expt",""
"","bandit","113","483042","0.0-75.0-0.0","65962959","wem/bandit_party_2","A1NFBKUYYVUYWF","either","4","352","","","","","","","0","1","0","","0.7026009082","0.8","0.2","0.4","0.6","0.3572673824","0.7026009082","0.6206609301","0.6817248107","","","","","","","","","","","","","","74","J","1","","","34","main_expt",""
"","bandit","114","484899","0.0-76.0-0.0","65962959","wem/bandit_party_2","A1NFBKUYYVUYWF","either","4","348","","","","","","","0","0","1","","0.632003728","0.8","0.2","0.4","0.6","0.3237575066","0.632003728","0.6223058769","0.6903641832","","","","","","","","","","","","","","74","J","1","","","35","main_expt",""
"","bandit","115","486912","0.0-77.0-0.0","65962959","wem/bandit_party_2","A1NFBKUYYVUYWF","either","4","510","","","","","","","1","0","0","0.7266912659","","0.8","0.2","0.4","0.6","","","","","0.3724209237","0.7266912659","0.7304722347","0.6953747248","","","","","","","","","","74","J","1","","","36","main_expt",""
"","bandit","116","488928","0.0-78.0-0.0","65962959","wem/bandit_party_2","A1NFBKUYYVUYWF","either","4","511","","","","","","","0","0","1","","0.5512211225","0.8","0.2","0.4","0.6","0.3848591071","0.5512211225","0.6789706255","0.7552078918","","","","","","","","","","","","","","74","J","1","","","37","main_expt",""
"","bandit","117","490848","0.0-79.0-0.0","65962959","wem/bandit_party_2","A1NFBKUYYVUYWF","either","4","416","","","","","","","1","0","0","0.6758320082","","0.8","0.2","0.4","0.6","","","","","0.4026628424","0.5888446875","0.6758320082","0.7095976639","","","","","","","","","","75","K","2","","","38","main_expt",""
"","bandit","118","492752","0.0-80.0-0.0","65962959","wem/bandit_party_2","A1NFBKUYYVUYWF","either","4","400","","","","","","","0","1","0","","0.753286291","0.8","0.2","0.4","0.6","0.460229008","0.7349010221","0.753286291","0.7813817897","","","","","","","","","","","","","","75","K","2","","","39","main_expt",""
"","bandit","119","494608","0.0-81.0-0.0","65962959","wem/bandit_party_2","A1NFBKUYYVUYWF","either","4","351","","","","","","","0","0","1","","0.7527041006","0.8","0.2","0.4","0.6","0.3392787789","0.6715391024","0.7527041006","0.7604460558","","","","","","","","","","","","","","75","K","2","","","40","main_expt",""
"","bandit","120","496705","0.0-82.0-0.0","65962959","wem/bandit_party_2","A1NFBKUYYVUYWF","either","4","591","","","","","","","1","0","0","0.7588214983","","0.8","0.2","0.4","0.6","","","","","0.2983701942","0.688235262","0.7900808451","0.7588214983","","","","","","","","","","76","L","3","","","41","main_expt",""
"","bandit","121","498608","0.0-83.0-0.0","65962959","wem/bandit_party_2","A1NFBKUYYVUYWF","either","4","398","","","","","","","1","0","0","0.8204813903","","0.8","0.2","0.4","0.6","","","","","0.2390858253","0.750516412","0.7261157662","0.8204813903","","","","","","","","","","76","L","3","","","42","main_expt",""
"","bandit","122","500513","0.0-84.0-0.0","65962959","wem/bandit_party_2","A1NFBKUYYVUYWF","either","4","400","","","","","","","0","0","1","","0.8310219988","0.8","0.2","0.4","0.6","0.1877526289","0.775378891","0.772887471","0.8310219988","","","","","","","","","","","","","","76","L","3","","","43","main_expt",""
"","bandit","123","502865","0.0-85.0-0.0","65962959","wem/bandit_party_2","A1NFBKUYYVUYWF","either","4","846","","","","","","","0","1","0","","0.5983035632","0.8","0.2","0.4","0.6","0.2713877418","0.5983035632","0.7359848823","0.8165903167","","","","","","","","","","","","","","74","J","1","","","44","main_expt",""
"","bandit","124","504736","0.0-86.0-0.0","65962959","wem/bandit_party_2","A1NFBKUYYVUYWF","either","4","366","","","","","","","0","1","0","","0.6453890447","0.8","0.2","0.4","0.6","0.2600408605","0.6453890447","0.6223954065","0.6765015189","","","","","","","","","","","","","","74","J","1","","","45","main_expt",""
"","bandit","125","506737","0.0-87.0-0.0","65962959","wem/bandit_party_2","A1NFBKUYYVUYWF","either","4","497","","","","","","","0","1","0","","0.4979639723","0.8","0.2","0.4","0.6","0.2435580982","0.4979639723","0.5963379238","0.6613510417","","","","","","","","","","","","","","74","J","1","","","46","main_expt",""
"","bandit","126","508768","0.0-88.0-0.0","65962959","wem/bandit_party_2","A1NFBKUYYVUYWF","either","4","526","","","","","","","0","1","0","","0.4475739324","0.8","0.2","0.4","0.6","0.3258971046","0.4475739324","0.6161308884","0.7373034573","","","","","","","","","","","","","","74","J","1","","","47","main_expt",""
"","bandit","127","510848","0.0-89.0-0.0","65962959","wem/bandit_party_2","A1NFBKUYYVUYWF","either","4","574","","","","","","","0","1","0","","0.570942939","0.8","0.2","0.4","0.6","0.2934977076","0.570942939","0.6354722558","0.6580913366","","","","","","","","","","","","","","74","J","1","","","48","main_expt",""
"","bandit","128","512896","0.0-90.0-0.0","65962959","wem/bandit_party_2","A1NFBKUYYVUYWF","either","4","541","","","","","","","0","1","0","","0.5943858444","0.8","0.2","0.4","0.6","0.3381222087","0.5943858444","0.5941747261","0.6518545324","","","","","","","","","","","","","","74","J","1","","","49","main_expt",""
"","bandit","129","515057","0.0-91.0-0.0","65962959","wem/bandit_party_2","A1NFBKUYYVUYWF","either","4","654","","","","","","","0","0","1","0.72156704","","0.8","0.2","0.4","0.6","","","","","0.4149653651","0.72156704","0.5510631732","0.6362385309","","","","","","","","","","74","J","1","","","50","main_expt",""
"","bandit","130","517186","0.0-92.0-0.0","65962959","wem/bandit_party_2","A1NFBKUYYVUYWF","either","4","624","","","","","","","0","1","0","","0.5580995271","0.8","0.2","0.4","0.6","0.315936401","0.6453884322","0.5580995271","0.6673370403","","","","","","","","","","","","","","75","K","2","","","51","main_expt",""
"","bandit","131","519233","0.0-93.0-0.0","65962959","wem/bandit_party_2","A1NFBKUYYVUYWF","either","4","540","","","","","","","0","1","0","","0.4492126091","0.8","0.2","0.4","0.6","0.34776451","0.635653338","0.4492126091","0.6614759556","","","","","","","","","","","","","","75","K","2","","","52","main_expt",""
"","bandit","132","521249","0.0-94.0-0.0","65962959","wem/bandit_party_2","A1NFBKUYYVUYWF","either","4","510","","","","","","","1","0","0","0.4600129001","","0.8","0.2","0.4","0.6","","","","","0.2946288454","0.5700640027","0.4600129001","0.5099009019","","","","","","","","","","75","K","2","","","53","main_expt",""
"","bandit","133","523361","0.0-95.0-0.0","65962959","wem/bandit_party_2","A1NFBKUYYVUYWF","either","4","606","","","","","","","0","0","1","","0.4005354829","0.8","0.2","0.4","0.6","0.3757560715","0.4535518587","0.4005354829","0.5323874036","","","","","","","","","","","","","","75","K","2","","","54","main_expt",""
"","bandit","134","525824","0.0-96.0-0.0","65962959","wem/bandit_party_2","A1NFBKUYYVUYWF","either","4","958","","","","","","","0","1","0","","0.3258455482","0.8","0.2","0.4","0.6","0.3258455482","0.4271895083","0.3305694417","0.5410243768","","","","","","","","","","","","","","72","H","0","img/none_selected.jpg","","55","main_expt",""
"","bandit","135","527697","0.0-97.0-0.0","65962959","wem/bandit_party_2","A1NFBKUYYVUYWF","either","4","368","","","","","","","0","0","1","0.4350401219","","0.8","0.2","0.4","0.6","","","","","0.4350401219","0.3506641683","0.3443449075","0.5594159285","","","","","","","","","","72","H","0","img/none_selected.jpg","","56","main_expt",""
"","bandit","136","529792","0.0-98.0-0.0","65962959","wem/bandit_party_2","A1NFBKUYYVUYWF","either","4","590","","","","","","","0","0","1","0.3266461122","","0.8","0.2","0.4","0.6","","","","","0.3707313189","0.3266461122","0.3719720486","0.5057935102","","","","","","","","","","74","J","1","","","57","main_expt",""
"","bandit","137","531696","0.0-99.0-0.0","65962959","wem/bandit_party_2","A1NFBKUYYVUYWF","either","4","398","","","","","","","0","0","1","","0.4921421838","0.8","0.2","0.4","0.6","0.5588799977","0.3024401834","0.2230753252","0.4921421838","","","","","","","","","","","","","","76","L","3","","","58","main_expt",""
"","bandit","138","533600","0.0-100.0-0.0","65962959","wem/bandit_party_2","A1NFBKUYYVUYWF","either","4","397","","","","","","","0","1","0","","0.2255195526","0.8","0.2","0.4","0.6","0.6863198467","0.4306619987","0.2255195526","0.4740341295","","","","","","","","","","","","","","75","K","2","","","59","main_expt",""
"","bandit","139","535489","0.0-101.0-0.0","65962959","wem/bandit_party_2","A1NFBKUYYVUYWF","either","4","383","","","","","","","1","0","0","0.2150487889","","0.8","0.2","0.4","0.6","","","","","0.6998437478","0.4710521126","0.2150487889","0.4853159436","","","","","","","","","","75","K","2","","","60","main_expt",""
"","bandit","140","537457","0.0-102.0-0.0","65962959","wem/bandit_party_2","A1NFBKUYYVUYWF","either","4","462","","","","","","","0","0","1","0.2670703017","","0.8","0.2","0.4","0.6","","","","","0.7027468204","0.4797168847","0.2670703017","0.4843563089","","","","","","","","","","75","K","2","","","61","main_expt",""
"","bandit","141","539282","0.0-103.0-0.0","65962959","wem/bandit_party_2","A1NFBKUYYVUYWF","either","4","318","","","","","","","0","1","0","","0.441351191","0.8","0.2","0.4","0.6","0.7461433662","0.441351191","0.1622034337","0.4970562682","","","","","","","","","","","","","","74","J","1","","","62","main_expt",""
"","bandit","142","541168","0.0-104.0-0.0","65962959","wem/bandit_party_2","A1NFBKUYYVUYWF","either","4","381","","","","","","","0","1","0","","0.6405696824","0.8","0.2","0.4","0.6","0.7956877632","0.6405696824","0.1872430185","0.4870743105","","","","","","","","","","","","","","74","J","1","","","63","main_expt",""
"","bandit","143","543280","0.0-105.0-0.0","65962959","wem/bandit_party_2","A1NFBKUYYVUYWF","either","4","607","","","","","","","1","0","0","0.5093225209","","0.8","0.2","0.4","0.6","","","","","0.7533911137","0.5093225209","0.1921602407","0.5297884171","","","","","","","","","","74","J","1","","","64","main_expt",""
"","bandit","144","545184","0.0-106.0-0.0","65962959","wem/bandit_party_2","A1NFBKUYYVUYWF","either","4","398","","","","","","","0","0","1","","0.5190422554","0.8","0.2","0.4","0.6","0.8407665504","0.5190422554","0.1747679693","0.5510281753","","","","","","","","","","","","","","74","J","1","","","65","main_expt",""
"","bandit","145","546832","0.0-107.0-0.0","65962959","wem/bandit_party_2","A1NFBKUYYVUYWF","either","4","142","","","","","","","1","0","0","0.8392190168","","0.8","0.2","0.4","0.6","","","","","0.8392190168","0.4367989657","0.149475979","0.6548378986","","","","","","","","","","72","H","0","img/none_selected.jpg","","66","main_expt",""
"","bandit","146","548705","0.0-108.0-0.0","65962959","wem/bandit_party_2","A1NFBKUYYVUYWF","either","4","367","","","","","","","1","0","0","0.7998105719","","0.8","0.2","0.4","0.6","","","","","0.7998105719","0.4515976155","0.1340316754","0.7873643744","","","","","","","","","","72","H","0","img/none_selected.jpg","","67","main_expt",""
"","bandit","147","550546","0.0-109.0-0.0","65962959","wem/bandit_party_2","A1NFBKUYYVUYWF","either","4","335","","","","","","","1","0","0","0.8055175736","","0.8","0.2","0.4","0.6","","","","","0.8055175736","0.4605235732","0.1635100664","0.8374830125","","","","","","","","","","72","H","0","img/none_selected.jpg","","68","main_expt",""
"","bandit","148","552578","0.0-110.0-0.0","65962959","wem/bandit_party_2","A1NFBKUYYVUYWF","either","4","525","","","","","","","1","0","0","0.9157616325","","0.8","0.2","0.4","0.6","","","","","0.9157616325","0.3799115548","0.1227365859","0.7948054761","","","","","","","","","","72","H","0","img/none_selected.jpg","","69","main_expt",""
"","bandit","149","554562","0.0-111.0-0.0","65962959","wem/bandit_party_2","A1NFBKUYYVUYWF","either","4","478","","","","","","","1","0","0","0.9575411193","","0.8","0.2","0.4","0.6","","","","","0.9575411193","0.4215965018","0.1248437045","0.8257183208","","","","","","","","","","72","H","0","img/none_selected.jpg","","70","main_expt",""
"","bandit","150","556721","0.0-112.0-0.0","65962959","wem/bandit_party_2","A1NFBKUYYVUYWF","either","4","653","","","","","","","1","0","0","0.9604429572","","0.8","0.2","0.4","0.6","","","","","0.9604429572","0.4069040491","0.1153860856","0.7378076352","","","","","","","","","","72","H","0","img/none_selected.jpg","","71","main_expt",""
"","bandit","151","558721","0.0-113.0-0.0","65962959","wem/bandit_party_2","A1NFBKUYYVUYWF","either","4","493","","","","","","","0","1","0","","0.9598545795","0.8","0.2","0.4","0.6","0.9598545795","0.4396577013","0.1355011504","0.7402058239","","","","","","","","","","","","","","72","H","0","img/none_selected.jpg","","72","main_expt",""
"","bandit","152","560930","0.0-114.0-0.0","65962959","wem/bandit_party_2","A1NFBKUYYVUYWF","either","4","704","","","","","","","1","0","0","0.944667289","","0.8","0.2","0.4","0.6","","","","","0.944667289","0.6562772762","0.05996807606","0.6976791507","","","","","","","","","","72","H","0","img/none_selected.jpg","","73","main_expt",""
"","bandit","153","562897","0.0-115.0-0.0","65962959","wem/bandit_party_2","A1NFBKUYYVUYWF","either","4","462","","","","","","","1","0","0","0.9226304804","","0.8","0.2","0.4","0.6","","","","","0.9226304804","0.6973429816","0.05405538329","0.7918365236","","","","","","","","","","72","H","0","img/none_selected.jpg","","74","main_expt",""
"","bandit","154","564897","0.0-116.0-0.0","65962959","wem/bandit_party_2","A1NFBKUYYVUYWF","either","4","493","","","","","","","1","0","0","0.9398646798","","0.8","0.2","0.4","0.6","","","","","0.9398646798","0.7736122178","0.02989929625","0.7822783488","","","","","","","","","","72","H","0","img/none_selected.jpg","","75","main_expt",""
"","bandit","155","567121","0.0-117.0-0.0","65962959","wem/bandit_party_2","A1NFBKUYYVUYWF","either","4","718","","","","","","","1","0","0","0.9344412274","","0.8","0.2","0.4","0.6","","","","","0.9344412274","0.8130420724","0.0563551135","0.7290889389","","","","","","","","","","72","H","0","img/none_selected.jpg","","76","main_expt",""
"","bandit","156","569219","0.0-118.0-0.0","65962959","wem/bandit_party_2","A1NFBKUYYVUYWF","either","4","590","","","","","","","1","0","0","0.9512527415","","0.8","0.2","0.4","0.6","","","","","0.9512527415","0.8182773084","0.0510075381","0.7903383215","","","","","","","","","","72","H","0","img/none_selected.jpg","","77","main_expt",""
"","bandit","157","571603","0.0-119.0-0.0","65962959","wem/bandit_party_2","A1NFBKUYYVUYWF","either","4","876","","","","","","","1","0","0","0.945324638","","0.8","0.2","0.4","0.6","","","","","0.945324638","0.910984946","0.07280641377","0.8093770606","","","","","","","","","","72","H","0","img/none_selected.jpg","","78","main_expt",""
"","bandit","158","573745","0.0-120.0-0.0","65962959","wem/bandit_party_2","A1NFBKUYYVUYWF","either","4","637","","","","","","","1","0","0","0.9313693401","","0.8","0.2","0.4","0.6","","","","","0.9313693401","0.9303795674","0.06591604593","0.7310189459","","","","","","","","","","72","H","0","img/none_selected.jpg","","79","main_expt",""
"","bandit","159","576129","0.0-121.0-0.0","65962959","wem/bandit_party_2","A1NFBKUYYVUYWF","either","4","879","","","","","","","0","1","0","","0.9272018461","0.8","0.2","0.4","0.6","0.9272018461","0.9581515868","0.02790121052","0.7915113188","","","","","","","","","","","","","","72","H","0","img/none_selected.jpg","","80","main_expt",""
"","bandit","160","578145","0.0-122.0-0.0","65962959","wem/bandit_party_2","A1NFBKUYYVUYWF","either","4","510","","","","","","","1","0","0","0.9340165544","","0.8","0.2","0.4","0.6","","","","","0.9340165544","0.9107397581","0.03997429631","0.8463201033","","","","","","","","","","72","H","0","img/none_selected.jpg","","81","main_expt",""
"","bandit","161","580337","0.0-123.0-0.0","65962959","wem/bandit_party_2","A1NFBKUYYVUYWF","either","4","687","","","","","","","1","0","0","0.9778602254","","0.8","0.2","0.4","0.6","","","","","0.9778602254","0.9531247327","0.03692483048","0.9043915002","","","","","","","","","","72","H","0","img/none_selected.jpg","","82","main_expt",""
"","bandit","162","582530","0.0-124.0-0.0","65962959","wem/bandit_party_2","A1NFBKUYYVUYWF","either","4","687","","","","","","","1","0","0","0.9593015187","","0.8","0.2","0.4","0.6","","","","","0.9593015187","0.91574064","0.04167024954","0.922294541","","","","","","","","","","72","H","0","img/none_selected.jpg","","83","main_expt",""
"","bandit","163","584705","0.0-125.0-0.0","65962959","wem/bandit_party_2","A1NFBKUYYVUYWF","either","4","668","","","","","","","1","0","0","0.9398758864","","0.8","0.2","0.4","0.6","","","","","0.9398758864","0.9287460716","0.03449326924","0.9079954767","","","","","","","","","","72","H","0","img/none_selected.jpg","","84","main_expt",""
"","bandit","164","586882","0.0-126.0-0.0","65962959","wem/bandit_party_2","A1NFBKUYYVUYWF","either","4","670","","","","","","","0","1","0","","0.9256746213","0.8","0.2","0.4","0.6","0.9256746213","0.9817994773","0.07382848834","0.92293493","","","","","","","","","","","","","","72","H","0","img/none_selected.jpg","","85","main_expt",""
"","bandit","165","589330","0.0-127.0-0.0","65962959","wem/bandit_party_2","A1NFBKUYYVUYWF","either","4","942","","","","","","","1","0","0","0.8910640916","","0.8","0.2","0.4","0.6","","","","","0.8910640916","0.9651028603","0.08839198485","0.8831043051","","","","","","","","","","72","H","0","img/none_selected.jpg","","86","main_expt",""
"","bandit","166","592194","0.0-128.0-0.0","65962959","wem/bandit_party_2","A1NFBKUYYVUYWF","either","4","1357","","","","","","","1","0","0","0.8729480744","","0.8","0.2","0.4","0.6","","","","","0.8729480744","0.9364705545","0.08767612821","0.876749115","","","","","","","","","","72","H","0","img/none_selected.jpg","","87","main_expt",""
"","bandit","167","594530","0.0-129.0-0.0","65962959","wem/bandit_party_2","A1NFBKUYYVUYWF","either","4","830","","","","","","","1","0","0","0.8780151739","","0.8","0.2","0.4","0.6","","","","","0.8780151739","0.9235767634","0.1606359608","0.9189432589","","","","","","","","","","72","H","0","img/none_selected.jpg","","88","main_expt",""
"","bandit","168","596833","0.0-130.0-0.0","65962959","wem/bandit_party_2","A1NFBKUYYVUYWF","either","4","796","","","","","","","1","0","0","0.8856980863","","0.8","0.2","0.4","0.6","","","","","0.8856980863","0.9375107972","0.2051996915","0.8770582065","","","","","","","","","","72","H","0","img/none_selected.jpg","","89","main_expt",""
"","bandit","169","598897","0.0-131.0-0.0","65962959","wem/bandit_party_2","A1NFBKUYYVUYWF","either","4","558","","","","","","","1","0","0","0.8828292745","","0.8","0.2","0.4","0.6","","","","","0.8828292745","0.9201099193","0.1757431166","0.9303780437","","","","","","","","","","72","H","0","img/none_selected.jpg","","90","main_expt",""
"","bandit","170","601233","0.0-132.0-0.0","65962959","wem/bandit_party_2","A1NFBKUYYVUYWF","either","4","829","","","","","","","1","0","0","0.9016480115","","0.8","0.2","0.4","0.6","","","","","0.9016480115","0.9416722714","0.3470073597","0.8870296602","","","","","","","","","","72","H","0","img/none_selected.jpg","","91","main_expt",""
"","bandit","171","603249","0.0-133.0-0.0","65962959","wem/bandit_party_2","A1NFBKUYYVUYWF","either","4","509","","","","","","","1","0","0","0.9077272713","","0.8","0.2","0.4","0.6","","","","","0.9077272713","0.943817784","0.4969118024","0.8466670433","","","","","","","","","","72","H","0","img/none_selected.jpg","","92","main_expt",""
"","bandit","172","605380","0.0-134.0-0.0","65962959","wem/bandit_party_2","A1NFBKUYYVUYWF","either","4","624","","","","","","","0","1","0","","0.875936713","0.8","0.2","0.4","0.6","0.875936713","0.9078517942","0.5773598144","0.850017275","","","","","","","","","","","","","","72","H","0","img/none_selected.jpg","","93","main_expt",""
"","bandit","173","607298","0.0-135.0-0.0","65962959","wem/bandit_party_2","A1NFBKUYYVUYWF","either","4","409","","","","","","","0","0","1","0.8089346838","","0.8","0.2","0.4","0.6","","","","","0.8089346838","0.8983200186","0.5513550223","0.6893652978","","","","","","","","","","72","H","0","img/none_selected.jpg","","94","main_expt",""
"","bandit","174","609248","0.0-136.0-0.0","65962959","wem/bandit_party_2","A1NFBKUYYVUYWF","either","4","444","","","","","","","0","1","0","","0.8744309931","0.8","0.2","0.4","0.6","0.7472177953","0.8744309931","0.5461825447","0.6025630118","","","","","","","","","","","","","","74","J","1","","","95","main_expt",""
"","bandit","175","611184","0.0-137.0-0.0","65962959","wem/bandit_party_2","A1NFBKUYYVUYWF","either","4","430","","","","","","","0","1","0","","0.8894212924","0.8","0.2","0.4","0.6","0.631257407","0.8894212924","0.5564841108","0.5565182624","","","","","","","","","","","","","","74","J","1","","","96","main_expt",""
"","bandit","176","613248","0.0-138.0-0.0","65962959","wem/bandit_party_2","A1NFBKUYYVUYWF","either","4","557","","","","","","","0","0","1","","0.891162681","0.8","0.2","0.4","0.6","0.7474787878","0.891162681","0.6513715187","0.4820287155","","","","","","","","","","","","","","74","J","1","","","97","main_expt",""
"","bandit","177","615745","0.0-139.0-0.0","65962959","wem/bandit_party_2","A1NFBKUYYVUYWF","either","4","991","","","","","","","0","1","0","","0.7004254565","0.8","0.2","0.4","0.6","0.7753317291","0.8495400438","0.7004254565","0.4599621431","","","","","","","","","","","","","","75","K","2","","","98","main_expt",""
"","bandit","178","617792","0.0-140.0-0.0","65962959","wem/bandit_party_2","A1NFBKUYYVUYWF","either","4","540","","","","","","","0","0","1","","0.6473310623","0.8","0.2","0.4","0.6","0.7088399779","0.8671572546","0.6473310623","0.4109144258","","","","","","","","","","","","","","75","K","2","","","99","main_expt",""
"","bandit","179","619728","0.0-141.0-0.0","65962959","wem/bandit_party_2","A1NFBKUYYVUYWF","either","4","429","","","","","","","1","0","0","0.3466085394","","0.8","0.2","0.4","0.6","","","","","0.7328055719","0.8312294914","0.6160818326","0.3466085394","","","","","","","","","","76","L","3","","","100","main_expt",""
"","bandit","180","621633","0.0-142.0-0.0","65962959","wem/bandit_party_2","A1NFBKUYYVUYWF","either","4","398","","","","","","","1","0","0","0.3712289037","","0.8","0.2","0.4","0.6","","","","","0.8183789849","0.8135240708","0.6963675268","0.3712289037","","","","","","","","","","76","L","3","","","101","main_expt",""
"","bandit","181","623634","0.0-143.0-0.0","65962959","wem/bandit_party_2","A1NFBKUYYVUYWF","either","4","492","","","","","","","1","0","0","0.3626324234","","0.8","0.2","0.4","0.6","","","","","0.7854635714","0.8556055773","0.6339579424","0.3626324234","","","","","","","","","","76","L","3","","","102","main_expt",""
"","bandit","182","625729","0.0-144.0-0.0","65962959","wem/bandit_party_2","A1NFBKUYYVUYWF","either","4","588","","","","","","","0","0","1","","0.2748825764","0.8","0.2","0.4","0.6","0.8481411385","0.7632006143","0.6908430899","0.2748825764","","","","","","","","","","","","","","76","L","3","","","103","main_expt",""
"","bandit","183","627634","0.0-145.0-0.0","65962959","wem/bandit_party_2","A1NFBKUYYVUYWF","either","4","398","","","","","","","0","1","0","","0.8273213265","0.8","0.2","0.4","0.6","0.8129446485","0.8273213265","0.6866318891","0.2381725209","","","","","","","","","","","","","","74","J","1","","","104","main_expt",""
"","bandit","184","629536","0.0-146.0-0.0","65962959","wem/bandit_party_2","A1NFBKUYYVUYWF","either","4","396","","","","","","","0","1","0","","0.7930501456","0.8","0.2","0.4","0.6","0.7898688037","0.7930501456","0.6749941214","0.1939551764","","","","","","","","","","","","","","74","J","1","","","105","main_expt",""
"","bandit","185","631632","0.0-147.0-0.0","65962959","wem/bandit_party_2","A1NFBKUYYVUYWF","either","4","590","","","","","","","0","0","1","","0.7186603115","0.8","0.2","0.4","0.6","0.7810744832","0.7186603115","0.7300347885","0.1884153881","","","","","","","","","","","","","","74","J","1","","","106","main_expt",""
"","bandit","186","633600","0.0-148.0-0.0","65962959","wem/bandit_party_2","A1NFBKUYYVUYWF","either","4","460","","","","","","","0","1","0","","0.8133516847","0.8","0.2","0.4","0.6","0.7837395221","0.7155595947","0.8133516847","0.1011451677","","","","","","","","","","","","","","75","K","2","","","107","main_expt",""
"","bandit","187","635552","0.0-149.0-0.0","65962959","wem/bandit_party_2","A1NFBKUYYVUYWF","either","4","445","","","","","","","0","1","0","","0.8009432675","0.8","0.2","0.4","0.6","0.787971135","0.7654707556","0.8009432675","0.1500242655","","","","","","","","","","","","","","75","K","2","","","108","main_expt",""
"","bandit","188","637681","0.0-150.0-0.0","65962959","wem/bandit_party_2","A1NFBKUYYVUYWF","either","4","621","","","","","","","1","0","0","0.7379370491","","0.8","0.2","0.4","0.6","","","","","0.6866525704","0.6288612937","0.7379370491","0.1285750889","","","","","","","","","","75","K","2","","","109","main_expt",""
"","bandit","189","639569","0.0-151.0-0.0","65962959","wem/bandit_party_2","A1NFBKUYYVUYWF","either","4","381","","","","","","","0","1","0","","0.7379992527","0.8","0.2","0.4","0.6","0.5824748378","0.6309058105","0.7379992527","0.06279291231","","","","","","","","","","","","","","75","K","2","","","110","main_expt",""
"","bandit","190","641569","0.0-152.0-0.0","65962959","wem/bandit_party_2","A1NFBKUYYVUYWF","either","4","493","","","","","","","0","1","0","","0.7464430213","0.8","0.2","0.4","0.6","0.659702805","0.6218965746","0.7464430213","0.07144278273","","","","","","","","","","","","","","75","K","2","","","111","main_expt",""
"","bandit","191","643584","0.0-153.0-0.0","65962959","wem/bandit_party_2","A1NFBKUYYVUYWF","either","4","508","","","","","","","0","1","0","","0.7736339118","0.8","0.2","0.4","0.6","0.5111205641","0.6741482942","0.7736339118","0.06013221683","","","","","","","","","","","","","","75","K","2","","","112","main_expt",""
"","bandit","192","645648","0.0-154.0-0.0","65962959","wem/bandit_party_2","A1NFBKUYYVUYWF","either","4","558","","","","","","","0","1","0","","0.8480767854","0.8","0.2","0.4","0.6","0.4852392648","0.7405202534","0.8480767854","0.1442356489","","","","","","","","","","","","","","75","K","2","","","113","main_expt",""
"","bandit","193","648657","0.0-155.0-0.0","65962959","wem/bandit_party_2","A1NFBKUYYVUYWF","either","4","1502","","","","","","","0","1","0","","0.8016933152","0.8","0.2","0.4","0.6","0.3531287621","0.743157628","0.8016933152","0.1733870882","","","","","","","","","","","","","","75","K","2","","","114","main_expt",""
"","bandit","194","650800","0.0-156.0-0.0","65962959","wem/bandit_party_2","A1NFBKUYYVUYWF","either","4","637","","","","","","","1","0","0","0.8200260584","","0.8","0.2","0.4","0.6","","","","","0.4090792957","0.7732583829","0.8200260584","0.2198725907","","","","","","","","","","75","K","2","","","115","main_expt",""
"","bandit","195","652704","0.0-157.0-0.0","65962959","wem/bandit_party_2","A1NFBKUYYVUYWF","either","4","396","","","","","","","0","1","0","","0.7761954976","0.8","0.2","0.4","0.6","0.4927933112","0.6224016225","0.7761954976","0.2116870815","","","","","","","","","","","","","","75","K","2","","","116","main_expt",""
"","bandit","196","655186","0.0-158.0-0.0","65962959","wem/bandit_party_2","A1NFBKUYYVUYWF","either","4","973","","","","","","","0","1","0","","0.7722233998","0.8","0.2","0.4","0.6","0.4255499736","0.6784399158","0.7722233998","0.1293815938","","","","","","","","","","","","","","75","K","2","","","117","main_expt",""
"","bandit","197","657521","0.0-159.0-0.0","65962959","wem/bandit_party_2","A1NFBKUYYVUYWF","either","4","827","","","","","","","0","1","0","","0.8049831996","0.8","0.2","0.4","0.6","0.4073726931","0.7499631032","0.8049831996","0.1442073762","","","","","","","","","","","","","","75","K","2","","","118","main_expt",""
"","bandit","198","659698","0.0-160.0-0.0","65962959","wem/bandit_party_2","A1NFBKUYYVUYWF","either","4","669","","","","","","","1","0","0","0.8469405197","","0.8","0.2","0.4","0.6","","","","","0.5447318884","0.6258432538","0.8469405197","0.2098334931","","","","","","","","","","75","K","2","","","119","main_expt",""
"","bandit","199","662354","0.0-161.0-0.0","65962959","wem/bandit_party_2","A1NFBKUYYVUYWF","either","4","1146","","","","","","","1","0","0","0.783925966","","0.8","0.2","0.4","0.6","","","","","0.5336717705","0.5602994123","0.783925966","0.243218138","","","","","","","","","","75","K","2","","","120","main_expt",""
"","bandit","200","664672","0.0-162.0-0.0","65962959","wem/bandit_party_2","A1NFBKUYYVUYWF","either","4","812","","","","","","","1","0","0","0.8031476983","","0.8","0.2","0.4","0.6","","","","","0.5621279662","0.5850644561","0.8031476983","0.1595445902","","","","","","","","","","75","K","2","","","121","main_expt",""
"","bandit","201","666928","0.0-163.0-0.0","65962959","wem/bandit_party_2","A1NFBKUYYVUYWF","either","4","748","","","","","","","1","0","0","0.776878313","","0.8","0.2","0.4","0.6","","","","","0.5664238538","0.6205732407","0.776878313","0.1939767007","","","","","","","","","","75","K","2","","","122","main_expt",""
"","bandit","202","670226","0.0-164.0-0.0","65962959","wem/bandit_party_2","A1NFBKUYYVUYWF","either","4","1792","","","","","","","1","0","0","0.7695343448","","0.8","0.2","0.4","0.6","","","","","0.6501842916","0.7954206102","0.7695343448","0.2265728871","","","","","","","","","","75","K","2","","","123","main_expt",""
"","bandit","203","672321","0.0-165.0-0.0","65962959","wem/bandit_party_2","A1NFBKUYYVUYWF","either","4","586","","","","","","","0","1","0","","0.6154230174","0.8","0.2","0.4","0.6","0.5413703051","0.881213352","0.6154230174","0.2027469411","","","","","","","","","","","","","","75","K","2","","","124","main_expt",""
"","bandit","204","674738","0.0-166.0-0.0","65962959","wem/bandit_party_2","A1NFBKUYYVUYWF","either","4","910","","","","","","","0","1","0","","0.4710930195","0.8","0.2","0.4","0.6","0.5191338098","0.8598562332","0.4710930195","0.1506135949","","","","","","","","","","","","","","75","K","2","","","125","main_expt",""
"","bandit","205","676674","0.0-167.0-0.0","65962959","wem/bandit_party_2","A1NFBKUYYVUYWF","either","4","428","","","","","","","0","0","1","","0.5258886302","0.8","0.2","0.4","0.6","0.6232591378","0.867144728","0.5258886302","0.1875851228","","","","","","","","","","","","","","75","K","2","","","126","main_expt",""
"","bandit","206","678481","0.0-168.0-0.0","65962959","wem/bandit_party_2","A1NFBKUYYVUYWF","either","4","301","","","","","","","0","1","0","","0.8677917819","0.8","0.2","0.4","0.6","0.601333273","0.8677917819","0.3996486754","0.2106184636","","","","","","","","","","","","","","74","J","1","","","127","main_expt",""
"","bandit","207","680418","0.0-169.0-0.0","65962959","wem/bandit_party_2","A1NFBKUYYVUYWF","either","4","430","","","","","","","0","1","0","","0.8194058857","0.8","0.2","0.4","0.6","0.6312294041","0.8194058857","0.3557241191","0.1276240755","","","","","","","","","","","","","","74","J","1","","","128","main_expt",""
"","bandit","208","682369","0.0-170.0-0.0","65962959","wem/bandit_party_2","A1NFBKUYYVUYWF","either","4","445","","","","","","","1","0","0","0.813940224","","0.8","0.2","0.4","0.6","","","","","0.6655034733","0.813940224","0.2432070908","0.2163335705","","","","","","","","","","74","J","1","","","129","main_expt",""
"","bandit","209","684289","0.0-171.0-0.0","65962959","wem/bandit_party_2","A1NFBKUYYVUYWF","either","4","413","","","","","","","0","1","0","","0.7296764962","0.8","0.2","0.4","0.6","0.6882303755","0.7296764962","0.1722843937","0.2448863899","","","","","","","","","","","","","","74","J","1","","","130","main_expt",""
"","bandit","210","686753","0.0-172.0-0.0","65962959","wem/bandit_party_2","A1NFBKUYYVUYWF","either","4","958","","","","","","","0","0","1","","0.614258276","0.8","0.2","0.4","0.6","0.6772884453","0.614258276","0.1336027919","0.3447645787","","","","","","","","","","","","","","74","J","1","","","131","main_expt",""
"","bandit","211","688465","0.0-173.0-0.0","65962959","wem/bandit_party_2","A1NFBKUYYVUYWF","either","4","203","","","","","","","1","0","0","0.6773684555","","0.8","0.2","0.4","0.6","","","","","0.6773684555","0.5349540706","0.1351629047","0.3622527956","","","","","","","","","","72","H","0","img/none_selected.jpg","","132","main_expt",""
"","bandit","212","690369","0.0-174.0-0.0","65962959","wem/bandit_party_2","A1NFBKUYYVUYWF","either","4","397","","","","","","","0","1","0","","0.7437755928","0.8","0.2","0.4","0.6","0.7437755928","0.5449090787","0.2495029","0.2961885878","","","","","","","","","","","","","","72","H","0","img/none_selected.jpg","","133","main_expt",""
"","bandit","213","692323","0.0-175.0-0.0","65962959","wem/bandit_party_2","A1NFBKUYYVUYWF","either","4","445","","","","","","","1","0","0","0.7423545867","","0.8","0.2","0.4","0.6","","","","","0.7423545867","0.5037108559","0.2118512663","0.2932126781","","","","","","","","","","72","H","0","img/none_selected.jpg","","134","main_expt",""
"","bandit","214","694418","0.0-176.0-0.0","65962959","wem/bandit_party_2","A1NFBKUYYVUYWF","either","4","587","","","","","","","1","0","0","0.7462440124","","0.8","0.2","0.4","0.6","","","","","0.7462440124","0.5131336393","0.2474577379","0.2836439675","","","","","","","","","","72","H","0","img/none_selected.jpg","","135","main_expt",""
"","bandit","215","696706","0.0-177.0-0.0","65962959","wem/bandit_party_2","A1NFBKUYYVUYWF","either","4","779","","","","","","","0","0","1","0.6372772774","","0.8","0.2","0.4","0.6","","","","","0.6372772774","0.5847952324","0.1496333288","0.1985775905","","","","","","","","","","72","H","0","img/none_selected.jpg","","136","main_expt",""
"","bandit","216","698561","0.0-178.0-0.0","65962959","wem/bandit_party_2","A1NFBKUYYVUYWF","either","4","348","","","","","","","0","0","1","0.2655975","","0.8","0.2","0.4","0.6","","","","","0.6587707878","0.5191620222","0.164835495","0.2655975","","","","","","","","","","76","L","3","","","137","main_expt",""
"","bandit","217","700418","0.0-179.0-0.0","65962959","wem/bandit_party_2","A1NFBKUYYVUYWF","either","4","349","","","","","","","0","0","1","","0.1629561883","0.8","0.2","0.4","0.6","0.6545472314","0.3830682141","0.1629561883","0.4066298912","","","","","","","","","","","","","","75","K","2","","","138","main_expt",""
"","bandit","218","702241","0.0-180.0-0.0","65962959","wem/bandit_party_2","A1NFBKUYYVUYWF","either","4","316","","","","","","","0","0","1","","0.3036015776","0.8","0.2","0.4","0.6","0.5773899651","0.3036015776","0.1162724323","0.4537429859","","","","","","","","","","","","","","74","J","1","","","139","main_expt",""
"","bandit","219","704146","0.0-181.0-0.0","65962959","wem/bandit_party_2","A1NFBKUYYVUYWF","either","4","398","","","","","","","0","1","0","","0.5786924042","0.8","0.2","0.4","0.6","0.5786924042","0.2541790234","0.1262651596","0.410026376","","","","","","","","","","","","","","72","H","0","img/none_selected.jpg","","140","main_expt",""
"","bandit","220","706001","0.0-182.0-0.0","65962959","wem/bandit_party_2","A1NFBKUYYVUYWF","either","4","347","","","","","","","1","0","0","0.4589731036","","0.8","0.2","0.4","0.6","","","","","0.4589731036","0.1899663758","0.1258799353","0.3978668086","","","","","","","","","","72","H","0","img/none_selected.jpg","","141","main_expt",""
"","bandit","221","707985","0.0-183.0-0.0","65962959","wem/bandit_party_2","A1NFBKUYYVUYWF","either","4","475","","","","","","","0","0","1","0.3667804619","","0.8","0.2","0.4","0.6","","","","","0.3667804619","0.214868544","0.1220135665","0.4096738096","","","","","","","","","","72","H","0","img/none_selected.jpg","","142","main_expt",""
"","bandit","222","709778","0.0-184.0-0.0","65962959","wem/bandit_party_2","A1NFBKUYYVUYWF","either","4","285","","","","","","","0","0","1","","0.1549416237","0.8","0.2","0.4","0.6","0.3563831379","0.1549416237","0.1600355681","0.5422751762","","","","","","","","","","","","","","74","J","1","","","143","main_expt",""
"","bandit","223","711842","0.0-185.0-0.0","65962959","wem/bandit_party_2","A1NFBKUYYVUYWF","either","4","556","","","","","","","0","0","1","","0.103653669","0.8","0.2","0.4","0.6","0.3675361202","0.2142728447","0.103653669","0.6045197677","","","","","","","","","","","","","","75","K","2","","","144","main_expt",""
"","bandit","224","713985","0.0-186.0-0.0","65962959","wem/bandit_party_2","A1NFBKUYYVUYWF","either","4","636","","","","","","","0","0","1","","0.6140727406","0.8","0.2","0.4","0.6","0.3266856562","0.2166472609","0.1417267119","0.6140727406","","","","","","","","","","","","","","76","L","3","","","145","main_expt",""
"","bandit","225","715826","0.0-187.0-0.0","65962959","wem/bandit_party_2","A1NFBKUYYVUYWF","either","4","334","","","","","","","0","1","0","","0.5553742365","0.8","0.2","0.4","0.6","0.2815179259","0.2446047688","0.1508894681","0.5553742365","","","","","","","","","","","","","","76","L","3","","","146","main_expt",""
"","bandit","226","717713","0.0-188.0-0.0","65962959","wem/bandit_party_2","A1NFBKUYYVUYWF","either","4","380","","","","","","","1","0","0","0.52787167","","0.8","0.2","0.4","0.6","","","","","0.3560244833","0.3011136322","0.1207147728","0.52787167","","","","","","","","","","76","L","3","","","147","main_expt",""
"","bandit","227","719601","0.0-189.0-0.0","65962959","wem/bandit_party_2","A1NFBKUYYVUYWF","either","4","380","","","","","","","0","0","1","","0.5053851794","0.8","0.2","0.4","0.6","0.3585854149","0.2519777133","0.1362234148","0.5053851794","","","","","","","","","","","","","","76","L","3","","","148","main_expt",""
"","bandit","228","721601","0.0-190.0-0.0","65962959","wem/bandit_party_2","A1NFBKUYYVUYWF","either","4","492","","","","","","","1","0","0","0.5431256022","","0.8","0.2","0.4","0.6","","","","","0.284478414","0.2996109941","0.1244444975","0.5431256022","","","","","","","","","","76","L","3","","","149","main_expt",""
"","bandit","229","723585","0.0-191.0-0.0","65962959","wem/bandit_party_2","A1NFBKUYYVUYWF","either","4","475","","","","","","","0","0","1","","0.422574086","0.8","0.2","0.4","0.6","0.2617238314","0.2963563975","0.1109305632","0.422574086","","","","","","","","","","","","","","76","L","3","","","150","main_expt",""
"","bandit","230","725458","0.0-192.0-0.0","65962959","wem/bandit_party_2","A1NFBKUYYVUYWF","either","4","364","","","","","","","0","0","1","0.11412436","","0.8","0.2","0.4","0.6","","","","","0.2709462114","0.4327396174","0.11412436","0.3907227364","","","","","","","","","","75","K","2","","","151","main_expt",""
"","bandit","231","727315","0.0-193.0-0.0","65962959","wem/bandit_party_2","A1NFBKUYYVUYWF","either","4","349","","","","","","","0","0","1","","0.1469045903","0.8","0.2","0.4","0.6","0.2993716907","0.4303068123","0.1469045903","0.5580814469","","","","","","","","","","","","","","75","K","2","","","152","main_expt",""
"","bandit","232","729217","0.0-194.0-0.0","65962959","wem/bandit_party_2","A1NFBKUYYVUYWF","either","4","395","","","","","","","0","0","1","","0.455197397","0.8","0.2","0.4","0.6","0.2733354782","0.455197397","0.1633028487","0.51223936","","","","","","","","","","","","","","74","J","1","","","153","main_expt",""
"","bandit","233","731089","0.0-195.0-0.0","65962959","wem/bandit_party_2","A1NFBKUYYVUYWF","either","4","363","","","","","","","0","1","0","","0.6184454144","0.8","0.2","0.4","0.6","0.3264007987","0.6184454144","0.1340882311","0.4811601507","","","","","","","","","","","","","","74","J","1","","","154","main_expt",""
"","bandit","234","732960","0.0-196.0-0.0","65962959","wem/bandit_party_2","A1NFBKUYYVUYWF","either","4","364","","","","","","","0","0","1","","0.5833601464","0.8","0.2","0.4","0.6","0.204433578","0.5833601464","0.1041462846","0.575425417","","","","","","","","","","","","","","74","J","1","","","155","main_expt",""
"","bandit","235","734896","0.0-197.0-0.0","65962959","wem/bandit_party_2","A1NFBKUYYVUYWF","either","4","428","","","","","","","0","0","1","0.07451572188","","0.8","0.2","0.4","0.6","","","","","0.07451572188","0.646897734","0.08564190031","0.6109018817","","","","","","","","","","72","H","0","img/none_selected.jpg","","156","main_expt",""
"","bandit","236","736800","0.0-198.0-0.0","65962959","wem/bandit_party_2","A1NFBKUYYVUYWF","either","4","397","","","","","","","0","0","1","0.1251686374","","0.8","0.2","0.4","0.6","","","","","0.1251686374","0.6912470103","0.06977116317","0.6812883852","","","","","","","","","","72","H","0","img/none_selected.jpg","","157","main_expt",""
"","bandit","237","738881","0.0-199.0-0.0","65962959","wem/bandit_party_2","A1NFBKUYYVUYWF","either","4","573","","","","","","","0","0","1","0.1292052795","","0.8","0.2","0.4","0.6","","","","","0.1292052795","0.7865398282","0.1504927074","0.73777041","","","","","","","","","","72","H","0","img/none_selected.jpg","","158","main_expt",""
"","bandit","238","740912","0.0-200.0-0.0","65962959","wem/bandit_party_2","A1NFBKUYYVUYWF","either","4","523","","","","","","","0","1","0","","0.7220910122","0.8","0.2","0.4","0.6","0.1200050714","0.7220910122","0.1429264201","0.8388849062","","","","","","","","","","","","","","74","J","1","","","159","main_expt",""
"","bandit","239","742800","0.0-201.0-0.0","65962959","wem/bandit_party_2","A1NFBKUYYVUYWF","either","4","379","","","","","","","0","0","1","","0.710563805","0.8","0.2","0.4","0.6","0.1156014834","0.710563805","0.1832893837","0.8006667519","","","","","","","","","","","","","","74","J","1","","","160","main_expt",""
"","bandit","240","744865","0.0-202.0-0.0","65962959","wem/bandit_party_2","A1NFBKUYYVUYWF","either","4","557","","","","","","","0","0","1","","0.6205281072","0.8","0.2","0.4","0.6","0.1425751263","0.6205281072","0.2337310763","0.7406956812","","","","","","","","","","","","","","74","J","1","","","161","main_expt",""
"","bandit","241","746785","0.0-203.0-0.0","65962959","wem/bandit_party_2","A1NFBKUYYVUYWF","either","4","412","","","","","","","0","0","1","","0.2326198937","0.8","0.2","0.4","0.6","0.2108345254","0.5246840185","0.2326198937","0.775259894","","","","","","","","","","","","","","75","K","2","","","162","main_expt",""
"","bandit","242","748592","0.0-204.0-0.0","65962959","wem/bandit_party_2","A1NFBKUYYVUYWF","either","4","299","","","","","","","0","0","1","","0.1584290897","0.8","0.2","0.4","0.6","0.1664621688","0.569340372","0.1584290897","0.6539471222","","","","","","","","","","","","","","75","K","2","","","163","main_expt",""
"","bandit","243","750466","0.0-205.0-0.0","65962959","wem/bandit_party_2","A1NFBKUYYVUYWF","either","4","365","","","","","","","0","0","1","0.1417900361","","0.8","0.2","0.4","0.6","","","","","0.1741279052","0.5688323765","0.1417900361","0.7914062868","","","","","","","","","","75","K","2","","","164","main_expt",""
"","bandit","244","752432","0.0-206.0-0.0","65962959","wem/bandit_party_2","A1NFBKUYYVUYWF","either","4","457","","","","","","","1","0","0","0.8415061218","","0.8","0.2","0.4","0.6","","","","","0.1891196979","0.5195648955","0.08849486786","0.8415061218","","","","","","","","","","76","L","3","","","165","main_expt",""
"","bandit","245","754320","0.0-207.0-0.0","65962959","wem/bandit_party_2","A1NFBKUYYVUYWF","either","4","378","","","","","","","0","1","0","","0.9084068317","0.8","0.2","0.4","0.6","0.3016440744","0.536500984","0.1010416226","0.9084068317","","","","","","","","","","","","","","76","L","3","","","166","main_expt",""
"","bandit","246","756288","0.0-208.0-0.0","65962959","wem/bandit_party_2","A1NFBKUYYVUYWF","either","4","460","","","","","","","0","1","0","","0.8857506799","0.8","0.2","0.4","0.6","0.3427468607","0.4243381616","0.1506776516","0.8857506799","","","","","","","","","","","","","","76","L","3","","","167","main_expt",""
"","bandit","247","758288","0.0-209.0-0.0","65962959","wem/bandit_party_2","A1NFBKUYYVUYWF","either","4","492","","","","","","","0","1","0","","0.9247721234","0.8","0.2","0.4","0.6","0.3759001064","0.4877327119","0.2532220847","0.9247721234","","","","","","","","","","","","","","76","L","3","","","168","main_expt",""
"","bandit","248","760593","0.0-210.0-0.0","65962959","wem/bandit_party_2","A1NFBKUYYVUYWF","either","4","797","","","","","","","0","1","0","","0.8870410368","0.8","0.2","0.4","0.6","0.3824832387","0.5096331713","0.2223654062","0.8870410368","","","","","","","","","","","","","","76","L","3","","","169","main_expt",""
"","bandit","249","762833","0.0-211.0-0.0","65962959","wem/bandit_party_2","A1NFBKUYYVUYWF","either","4","732","","","","","","","1","0","0","0.8782412079","","0.8","0.2","0.4","0.6","","","","","0.3257043992","0.6111595203","0.2161840498","0.8782412079","","","","","","","","","","76","L","3","","","170","main_expt",""
"","bandit","250","765425","0.0-212.0-0.0","65962959","wem/bandit_party_2","A1NFBKUYYVUYWF","either","4","1083","","","","","","","1","0","0","0.7978982074","","0.8","0.2","0.4","0.6","","","","","0.2943589708","0.5888321224","0.1996440145","0.7978982074","","","","","","","","","","76","L","3","","","171","main_expt",""
"","bandit","251","767744","0.0-213.0-0.0","65962959","wem/bandit_party_2","A1NFBKUYYVUYWF","either","4","810","","","","","","","0","0","1","","0.7896885826","0.8","0.2","0.4","0.6","0.4298537702","0.6295404033","0.275753823","0.7896885826","","","","","","","","","","","","","","76","L","3","","","172","main_expt",""
"","bandit","252","769744","0.0-214.0-0.0","65962959","wem/bandit_party_2","A1NFBKUYYVUYWF","either","4","493","","","","","","","0","0","1","","0.2850946521","0.8","0.2","0.4","0.6","0.4196262671","0.5976712981","0.2850946521","0.7771385218","","","","","","","","","","","","","","75","K","2","","","173","main_expt",""
"","bandit","253","771953","0.0-215.0-0.0","65962959","wem/bandit_party_2","A1NFBKUYYVUYWF","either","4","701","","","","","","","0","0","1","","0.5936331925","0.8","0.2","0.4","0.6","0.4056978145","0.5936331925","0.2836726952","0.8412209493","","","","","","","","","","","","","","74","J","1","","","174","main_expt",""
"","bandit","254","773744","0.0-216.0-0.0","65962959","wem/bandit_party_2","A1NFBKUYYVUYWF","either","4","283","","","","","","","0","0","1","0.3323311207","","0.8","0.2","0.4","0.6","","","","","0.3323311207","0.544145328","0.27413619","0.8433491626","","","","","","","","","","72","H","0","img/none_selected.jpg","","175","main_expt",""
"","bandit","255","775584","0.0-217.0-0.0","65962959","wem/bandit_party_2","A1NFBKUYYVUYWF","either","4","331","","","","","","","0","0","1","0.3087900888","","0.8","0.2","0.4","0.6","","","","","0.3087900888","0.3584947592","0.2369491767","0.778586436","","","","","","","","","","72","H","0","img/none_selected.jpg","","176","main_expt",""
"","bandit","256","777443","0.0-218.0-0.0","65962959","wem/bandit_party_2","A1NFBKUYYVUYWF","either","4","347","","","","","","","0","1","0","","0.436171931","0.8","0.2","0.4","0.6","0.3898613412","0.436171931","0.3440943848","0.7488794252","","","","","","","","","","","","","","74","J","1","","","177","main_expt",""
"","bandit","257","779281","0.0-219.0-0.0","65962959","wem/bandit_party_2","A1NFBKUYYVUYWF","either","4","329","","","","","","","0","0","1","","0.5193680035","0.8","0.2","0.4","0.6","0.5236321052","0.5193680035","0.3529135521","0.7738581751","","","","","","","","","","","","","","74","J","1","","","178","main_expt",""
"","bandit","258","781185","0.0-220.0-0.0","65962959","wem/bandit_party_2","A1NFBKUYYVUYWF","either","4","396","","","","","","","0","0","1","","0.3957798075","0.8","0.2","0.4","0.6","0.2955080601","0.3957798075","0.3787243664","0.7527820287","","","","","","","","","","","","","","74","J","1","","","179","main_expt",""
"","bandit","259","783075","0.0-221.0-0.0","65962959","wem/bandit_party_2","A1NFBKUYYVUYWF","either","4","380","","","","","","","0","1","0","","0.3092677326","0.8","0.2","0.4","0.6","0.3174151272","0.4249873197","0.3092677326","0.8022950929","","","","","","","","","","","","","","75","K","2","","","180","main_expt",""
"","bandit","260","784976","0.0-222.0-0.0","65962959","wem/bandit_party_2","A1NFBKUYYVUYWF","either","4","392","","","","","","","0","0","1","0.3701559146","","0.8","0.2","0.4","0.6","","","","","0.3560995969","0.4260342439","0.3701559146","0.7505347306","","","","","","","","","","75","K","2","","","181","main_expt",""
"","bandit","261","786912","0.0-223.0-0.0","65962959","wem/bandit_party_2","A1NFBKUYYVUYWF","either","4","428","","","","","","","0","1","0","","0.603349844","0.8","0.2","0.4","0.6","0.4649908644","0.4305619521","0.2672844749","0.603349844","","","","","","","","","","","","","","76","L","3","","","182","main_expt",""
"","bandit","262","788768","0.0-224.0-0.0","65962959","wem/bandit_party_2","A1NFBKUYYVUYWF","either","4","347","","","","","","","1","0","0","0.6464544124","","0.8","0.2","0.4","0.6","","","","","0.4588174784","0.4638513582","0.3046315644","0.6464544124","","","","","","","","","","76","L","3","","","183","main_expt",""
"","bandit","263","790689","0.0-225.0-0.0","65962959","wem/bandit_party_2","A1NFBKUYYVUYWF","either","4","412","","","","","","","0","1","0","","0.6606024443","0.8","0.2","0.4","0.6","0.509799977","0.5084330557","0.3507685813","0.6606024443","","","","","","","","","","","","","","76","L","3","","","184","main_expt",""
"","bandit","264","792657","0.0-226.0-0.0","65962959","wem/bandit_party_2","A1NFBKUYYVUYWF","either","4","458","","","","","","","1","0","0","0.7034535028","","0.8","0.2","0.4","0.6","","","","","0.4557178443","0.5853778332","0.3250269766","0.7034535028","","","","","","","","","","76","L","3","","","185","main_expt",""
"","bandit","265","794674","0.0-227.0-0.0","65962959","wem/bandit_party_2","A1NFBKUYYVUYWF","either","4","507","","","","","","","0","1","0","","0.7672503758","0.8","0.2","0.4","0.6","0.3250172706","0.5009207633","0.3636669497","0.7672503758","","","","","","","","","","","","","","76","L","3","","","186","main_expt",""
"","bandit","266","796978","0.0-228.0-0.0","65962959","wem/bandit_party_2","A1NFBKUYYVUYWF","either","4","795","","","","","","","0","0","1","0.7505037824","","0.8","0.2","0.4","0.6","","","","","0.2982192525","0.4376492532","0.4095027401","0.7505037824","","","","","","","","","","76","L","3","","","187","main_expt",""
"","bandit","267","798882","0.0-229.0-0.0","65962959","wem/bandit_party_2","A1NFBKUYYVUYWF","either","4","394","","","","","","","0","0","1","0.3356624093","","0.8","0.2","0.4","0.6","","","","","0.2647713636","0.317868257","0.3356624093","0.7458261356","","","","","","","","","","75","K","2","","","188","main_expt",""
"","bandit","268","802178","0.0-230.0-0.0","65962959","wem/bandit_party_2","A1NFBKUYYVUYWF","either","4","1786","","","","","","","1","0","0","0.3700786551","","0.8","0.2","0.4","0.6","","","","","0.2798663258","0.3700786551","0.3717951419","0.747965221","","","","","","","","","","74","J","1","","","189","main_expt",""
"","bandit","269","804065","0.0-231.0-0.0","65962959","wem/bandit_party_2","A1NFBKUYYVUYWF","either","4","379","","","","","","","0","0","1","0.3423477616","","0.8","0.2","0.4","0.6","","","","","0.2146362806","0.3423477616","0.3266606931","0.7459095382","","","","","","","","","","74","J","1","","","190","main_expt",""
"","bandit","270","805986","0.0-232.0-0.0","65962959","wem/bandit_party_2","A1NFBKUYYVUYWF","either","4","412","","","","","","","0","1","0","","0.2488230813","0.8","0.2","0.4","0.6","0.3132783624","0.2488230813","0.4206899072","0.6299055833","","","","","","","","","","","","","","74","J","1","","","191","main_expt",""
"","bandit","271","808177","0.0-233.0-0.0","65962959","wem/bandit_party_2","A1NFBKUYYVUYWF","either","4","682","","","","","","","0","0","1","","0.2193108308","0.8","0.2","0.4","0.6","0.2488083766","0.2193108308","0.4982817076","0.688533977","","","","","","","","","","","","","","74","J","1","","","192","main_expt",""
"","bandit","272","810161","0.0-234.0-0.0","65962959","wem/bandit_party_2","A1NFBKUYYVUYWF","either","4","475","","","","","","","0","0","1","0.225611763","","0.8","0.2","0.4","0.6","","","","","0.225611763","0.4057276106","0.4820211017","0.7176496952","","","","","","","","","","72","H","0","img/none_selected.jpg","","193","main_expt",""
"","bandit","273","812033","0.0-235.0-0.0","65962959","wem/bandit_party_2","A1NFBKUYYVUYWF","either","4","362","","","","","","","1","0","0","0.2159393038","","0.8","0.2","0.4","0.6","","","","","0.2159393038","0.3826056333","0.5373891537","0.746212457","","","","","","","","","","72","H","0","img/none_selected.jpg","","194","main_expt",""
"","bandit","274","813906","0.0-236.0-0.0","65962959","wem/bandit_party_2","A1NFBKUYYVUYWF","either","4","363","","","","","","","0","0","1","","0.3112228701","0.8","0.2","0.4","0.6","0.3112228701","0.4922935908","0.3890275207","0.6800784202","","","","","","","","","","","","","","72","H","0","img/none_selected.jpg","","195","main_expt",""
"","bandit","275","815778","0.0-237.0-0.0","65962959","wem/bandit_party_2","A1NFBKUYYVUYWF","either","4","363","","","","","","","0","0","1","","0.5475793877","0.8","0.2","0.4","0.6","0.3249051539","0.5475793877","0.4329462643","0.5986295964","","","","","","","","","","","","","","74","J","1","","","196","main_expt",""
"","bandit","276","817779","0.0-238.0-0.0","65962959","wem/bandit_party_2","A1NFBKUYYVUYWF","either","4","491","","","","","","","1","0","0","0.5323622673","","0.8","0.2","0.4","0.6","","","","","0.2985018541","0.6069385875","0.416825946","0.5323622673","","","","","","","","","","76","L","3","","","197","main_expt",""
"","bandit","277","819617","0.0-239.0-0.0","65962959","wem/bandit_party_2","A1NFBKUYYVUYWF","either","4","329","","","","","","","0","0","1","","0.5348043844","0.8","0.2","0.4","0.6","0.3109366799","0.4946816555","0.4063336836","0.5348043844","","","","","","","","","","","","","","76","L","3","","","198","main_expt",""
"","bandit","278","821649","0.0-240.0-0.0","65962959","wem/bandit_party_2","A1NFBKUYYVUYWF","either","4","524","","","","","","","0","1","0","","0.479635203","0.8","0.2","0.4","0.6","0.3143364341","0.479635203","0.361264989","0.4534403339","","","","","","","","","","","","","","74","J","1","","","199","main_expt",""
"","bandit","279","823473","0.0-241.0-0.0","65962959","wem/bandit_party_2","A1NFBKUYYVUYWF","either","4","315","","","","","","","0","1","0","","0.4969837249","0.8","0.2","0.4","0.6","0.3176919365","0.4969837249","0.4700223374","0.4185876589","","","","","","","","","","","","","","74","J","1","","","200","main_expt",""
"","bandit","280","825345","0.0-242.0-0.0","65962959","wem/bandit_party_2","A1NFBKUYYVUYWF","either","4","364","","","","","","","0","1","0","","0.4548125401","0.8","0.2","0.4","0.6","0.2848283651","0.4548125401","0.4751543938","0.3812211227","","","","","","","","","","","","","","74","J","1","","","201","main_expt",""
"","bandit","281","827297","0.0-243.0-0.0","65962959","wem/bandit_party_2","A1NFBKUYYVUYWF","either","4","442","","","","","","","1","0","0","0.5767771981","","0.8","0.2","0.4","0.6","","","","","0.2439676923","0.5767771981","0.4044794657","0.4414728031","","","","","","","","","","74","J","1","","","202","main_expt",""
"","bandit","282","829266","0.0-244.0-0.0","65962959","wem/bandit_party_2","A1NFBKUYYVUYWF","either","4","460","","","","","","","0","1","0","","0.6118171827","0.8","0.2","0.4","0.6","0.2582922662","0.6118171827","0.3321077444","0.3698030662","","","","","","","","","","","","","","74","J","1","","","203","main_expt",""
"","bandit","283","831185","0.0-245.0-0.0","65962959","wem/bandit_party_2","A1NFBKUYYVUYWF","either","4","409","","","","","","","0","0","1","","0.5373194108","0.8","0.2","0.4","0.6","0.3799793739","0.5373194108","0.3697340749","0.4899087748","","","","","","","","","","","","","","74","J","1","","","204","main_expt",""
"","bandit","284","833010","0.0-246.0-0.0","65962959","wem/bandit_party_2","A1NFBKUYYVUYWF","either","4","316","","","","","","","1","0","0","0.4441528059","","0.8","0.2","0.4","0.6","","","","","0.4441528059","0.5501461309","0.3998168993","0.4310108402","","","","","","","","","","72","H","0","img/none_selected.jpg","","205","main_expt",""
"","bandit","285","834882","0.0-247.0-0.0","65962959","wem/bandit_party_2","A1NFBKUYYVUYWF","either","4","363","","","","","","","0","0","1","0.4468516792","","0.8","0.2","0.4","0.6","","","","","0.4468516792","0.5094027242","0.4929909192","0.3912115078","","","","","","","","","","72","H","0","img/none_selected.jpg","","206","main_expt",""
"","bandit","286","836801","0.0-248.0-0.0","65962959","wem/bandit_party_2","A1NFBKUYYVUYWF","either","4","410","","","","","","","1","0","0","0.399366085","","0.8","0.2","0.4","0.6","","","","","0.399366085","0.6449696869","0.4960693894","0.3195818707","","","","","","","","","","72","H","0","img/none_selected.jpg","","207","main_expt",""
"","bandit","287","838754","0.0-249.0-0.0","65962959","wem/bandit_party_2","A1NFBKUYYVUYWF","either","4","444","","","","","","","0","0","1","0.4206610772","","0.8","0.2","0.4","0.6","","","","","0.4206610772","0.549996868","0.3912862986","0.2378171997","","","","","","","","","","72","H","0","img/none_selected.jpg","","208","main_expt",""
"","bandit","288","840707","0.0-250.0-0.0","65962959","wem/bandit_party_2","A1NFBKUYYVUYWF","either","4","444","","","","","","","1","0","0","0.5145499259","","0.8","0.2","0.4","0.6","","","","","0.5145499259","0.5258833792","0.4218938049","0.2339104391","","","","","","","","","","72","H","0","img/none_selected.jpg","","209","main_expt",""
"","bandit","289","842721","0.0-251.0-0.0","65962959","wem/bandit_party_2","A1NFBKUYYVUYWF","either","4","505","","","","","","","0","0","1","0.3497539355","","0.8","0.2","0.4","0.6","","","","","0.3497539355","0.5453980868","0.6003160005","0.2506558306","","","","","","","","","","72","H","0","img/none_selected.jpg","","210","main_expt",""
"","bandit","290","844385","0.0-252.0-0.0","65962959","wem/bandit_party_2","A1NFBKUYYVUYWF","either","4","152","","","","","","","0","0","1","","0.5481562991","0.8","0.2","0.4","0.6","0.3335821388","0.5370950561","0.5481562991","0.3466578502","","","","","","","","","","","","","","75","K","2","","","211","main_expt",""
"","bandit","291","846273","0.0-253.0-0.0","65962959","wem/bandit_party_2","A1NFBKUYYVUYWF","either","4","378","","","","","","","0","1","0","","0.6210595125","0.8","0.2","0.4","0.6","0.2778022227","0.5774996514","0.6210595125","0.4162959965","","","","","","","","","","","","","","75","K","2","","","212","main_expt",""
"","bandit","292","848194","0.0-254.0-0.0","65962959","wem/bandit_party_2","A1NFBKUYYVUYWF","either","4","410","","","","","","","1","0","0","0.7732161257","","0.8","0.2","0.4","0.6","","","","","0.2949104287","0.4826056363","0.7732161257","0.545788555","","","","","","","","","","75","K","2","","","213","main_expt",""
"","bandit","293","850097","0.0-255.0-0.0","65962959","wem/bandit_party_2","A1NFBKUYYVUYWF","either","4","394","","","","","","","0","1","0","","0.7689771773","0.8","0.2","0.4","0.6","0.2443343027","0.4913277851","0.7689771773","0.6077749924","","","","","","","","","","","","","","75","K","2","","","214","main_expt",""
"","bandit","294","852018","0.0-256.0-0.0","65962959","wem/bandit_party_2","A1NFBKUYYVUYWF","either","4","410","","","","","","","0","1","0","","0.6841712945","0.8","0.2","0.4","0.6","0.2232989174","0.5415006571","0.6841712945","0.4883429648","","","","","","","","","","","","","","75","K","2","","","215","main_expt",""
"","bandit","295","854000","0.0-257.0-0.0","65962959","wem/bandit_party_2","A1NFBKUYYVUYWF","either","4","472","","","","","","","0","1","0","","0.7019934296","0.8","0.2","0.4","0.6","0.2918619336","0.5198015267","0.7019934296","0.3309854328","","","","","","","","","","","","","","75","K","2","","","216","main_expt",""
"","bandit","296","855920","0.0-258.0-0.0","65962959","wem/bandit_party_2","A1NFBKUYYVUYWF","either","4","411","","","","","","","1","0","0","0.7537099884","","0.8","0.2","0.4","0.6","","","","","0.3571058798","0.545097872","0.7537099884","0.3310528633","","","","","","","","","","75","K","2","","","217","main_expt",""
"","bandit","297","857872","0.0-259.0-0.0","65962959","wem/bandit_party_2","A1NFBKUYYVUYWF","either","4","443","","","","","","","1","0","0","0.8428980993","","0.8","0.2","0.4","0.6","","","","","0.3738303097","0.5776025334","0.8428980993","0.4147218791","","","","","","","","","","75","K","2","","","218","main_expt",""
"","bandit","298","859872","0.0-260.0-0.0","65962959","wem/bandit_party_2","A1NFBKUYYVUYWF","either","4","492","","","","","","","0","0","1","0.8007326434","","0.8","0.2","0.4","0.6","","","","","0.4832874948","0.5616346574","0.8007326434","0.3402104323","","","","","","","","","","75","K","2","","","219","main_expt",""
"","bandit","299","861776","0.0-261.0-0.0","65962959","wem/bandit_party_2","A1NFBKUYYVUYWF","either","4","394","","","","","","","0","0","1","0.3448871422","","0.8","0.2","0.4","0.6","","","","","0.475455537","0.6261942659","0.8518850648","0.3448871422","","","","","","","","","","76","L","3","","","220","main_expt",""
"","bandit","300","863633","0.0-262.0-0.0","65962959","wem/bandit_party_2","A1NFBKUYYVUYWF","either","4","346","","","","","","","0","1","0","","0.4438284365","0.8","0.2","0.4","0.6","0.3849790123","0.6533416475","0.8488451861","0.4438284365","","","","","","","","","","","","","","76","L","3","","","221","main_expt",""
"","bandit","301","865584","0.0-263.0-0.0","65962959","wem/bandit_party_2","A1NFBKUYYVUYWF","either","4","441","","","","","","","0","0","1","0.3768672835","","0.8","0.2","0.4","0.6","","","","","0.2708628555","0.6780524799","0.8202185963","0.3768672835","","","","","","","","","","76","L","3","","","222","main_expt",""
"","bandit","302","867505","0.0-264.0-0.0","65962959","wem/bandit_party_2","A1NFBKUYYVUYWF","either","4","412","","","","","","","0","0","1","","0.4599748191","0.8","0.2","0.4","0.6","0.3886191555","0.638470603","0.839196386","0.4599748191","","","","","","","","","","","","","","76","L","3","","","223","main_expt",""
"","bandit","303","869200","0.0-265.0-0.0","65962959","wem/bandit_party_2","A1NFBKUYYVUYWF","either","4","185","","","","","","","0","0","1","","0.560582988","0.8","0.2","0.4","0.6","0.3352763987","0.560582988","0.8340435664","0.5868274652","","","","","","","","","","","","","","74","J","1","","","224","main_expt",""
"","bandit","304","871040","0.0-266.0-0.0","65962959","wem/bandit_party_2","A1NFBKUYYVUYWF","either","4","332","","","","","","","0","0","1","","0.5004803289","0.8","0.2","0.4","0.6","0.3948846532","0.5004803289","0.8229669419","0.510759767","","","","","","","","","","","","","","74","J","1","","","225","main_expt",""
"","bandit","305","872864","0.0-267.0-0.0","65962959","wem/bandit_party_2","A1NFBKUYYVUYWF","either","4","316","","","","","","","1","0","0","0.385279681","","0.8","0.2","0.4","0.6","","","","","0.385279681","0.5109709899","0.8326575293","0.6026028704","","","","","","","","","","72","H","0","img/none_selected.jpg","","226","main_expt",""
"","bandit","306","874769","0.0-268.0-0.0","65962959","wem/bandit_party_2","A1NFBKUYYVUYWF","either","4","396","","","","","","","0","0","1","","0.3296530349","0.8","0.2","0.4","0.6","0.3296530349","0.4271661703","0.8904476858","0.588132951","","","","","","","","","","","","","","72","H","0","img/none_selected.jpg","","227","main_expt",""
"","bandit","307","876737","0.0-269.0-0.0","65962959","wem/bandit_party_2","A1NFBKUYYVUYWF","either","4","456","","","","","","","0","0","1","0.4227788413","","0.8","0.2","0.4","0.6","","","","","0.4227788413","0.374673526","0.8877596604","0.5754590721","","","","","","","","","","72","H","0","img/none_selected.jpg","","228","main_expt",""
"","bandit","308","878624","0.0-270.0-0.0","65962959","wem/bandit_party_2","A1NFBKUYYVUYWF","either","4","377","","","","","","","0","0","1","0.4470353227","","0.8","0.2","0.4","0.6","","","","","0.4470353227","0.393435759","0.8647697669","0.6311951266","","","","","","","","","","72","H","0","img/none_selected.jpg","","229","main_expt",""
"","bandit","309","880400","0.0-271.0-0.0","65962959","wem/bandit_party_2","A1NFBKUYYVUYWF","either","4","267","","","","","","","1","0","0","0.8704214291","","0.8","0.2","0.4","0.6","","","","","0.2986819632","0.3299431778","0.8704214291","0.6164228117","","","","","","","","","","75","K","2","","","230","main_expt",""
"","bandit","310","882209","0.0-272.0-0.0","65962959","wem/bandit_party_2","A1NFBKUYYVUYWF","either","4","298","","","","","","","0","1","0","","0.8598686354","0.8","0.2","0.4","0.6","0.4508866759","0.3477061432","0.8598686354","0.5943568022","","","","","","","","","","","","","","75","K","2","","","231","main_expt",""
"","bandit","311","884001","0.0-273.0-0.0","65962959","wem/bandit_party_2","A1NFBKUYYVUYWF","either","4","281","","","","","","","0","1","0","","0.7939027672","0.8","0.2","0.4","0.6","0.5125968159","0.3430234075","0.7939027672","0.6032910051","","","","","","","","","","","","","","75","K","2","","","232","main_expt",""
"","bandit","312","885938","0.0-274.0-0.0","65962959","wem/bandit_party_2","A1NFBKUYYVUYWF","either","4","426","","","","","","","1","0","0","0.7930400566","","0.8","0.2","0.4","0.6","","","","","0.6020802482","0.2812772396","0.7930400566","0.7225660168","","","","","","","","","","75","K","2","","","233","main_expt",""
"","bandit","313","887920","0.0-275.0-0.0","65962959","wem/bandit_party_2","A1NFBKUYYVUYWF","either","4","473","","","","","","","0","1","0","","0.7549101179","0.8","0.2","0.4","0.6","0.5927943616","0.2049555934","0.7549101179","0.6718439238","","","","","","","","","","","","","","75","K","2","","","234","main_expt",""
"","bandit","314","889856","0.0-276.0-0.0","65962959","wem/bandit_party_2","A1NFBKUYYVUYWF","either","4","427","","","","","","","0","1","0","","0.7654291135","0.8","0.2","0.4","0.6","0.5814417759","0.144612338","0.7654291135","0.6025803433","","","","","","","","","","","","","","75","K","2","","","235","main_expt",""
"","bandit","315","891888","0.0-277.0-0.0","65962959","wem/bandit_party_2","A1NFBKUYYVUYWF","either","4","522","","","","","","","1","0","0","0.6965918162","","0.8","0.2","0.4","0.6","","","","","0.6530024001","0.1509581517","0.6965918162","0.6170166349","","","","","","","","","","75","K","2","","","236","main_expt",""
