"consent","trial_type","trial_index","time_elapsed","internal_node_id","subjID","study","MID","cond","drift","rt","responses","button_pressed","key_press","like","value","connected","gems","bombs","no_reward","GemPrChosen","BombPrChosen","GainOverPainPr_0","GainOverPainPr_1","GainOverPainPr_2","GainOverPainPr_3","LosePr_0","LosePr_1","LosePr_2","LosePr_3","WinPr_0","WinPr_1","WinPr_2","WinPr_3","Q0","Q1","Q2","gender","age","ethnicity","label","expt_phase","target","respCharCode","respKey","respChoiceNum","respChoice","practice","trial_counter","trial_label","Q0_index"
"GDM/GDM_behavioral_consent_30min_online.html","consent","0","21037","0.0-0.0","66778760","wem/bandit_party_2","A27F76XB3KS0W2","either","6","","","","","","","","","","","","","","","","","","","","","","","","","","","","","","","","","","","","","","","","",""
"","survey-text","1","30809","0.0-1.0","66778760","wem/bandit_party_2","A27F76XB3KS0W2","either","6","8758","{""Q0"":""A27F76XB3KS0W2""}","","","","","","","","","","","","","","","","","","","","","","","","","","","","","","","","","","","","","","",""
"","button-response","2","33828","0.0-2.0","66778760","wem/bandit_party_2","A27F76XB3KS0W2","either","6","2008","","1","","","","","","","","","","","","","","","","","","","","","","","","","","","","","","","","","","","","","",""
"","text-replacement","3","50756","0.0-3.0","66778760","wem/bandit_party_2","A27F76XB3KS0W2","either","6","15921","","","32","","","","","","","","","","","","","","","","","","","","","","","","","","","","","","","","","","","","",""
"","text-replacement","4","58347","0.0-4.0","66778760","wem/bandit_party_2","A27F76XB3KS0W2","either","6","7587","","","32","","","","","","","","","","","","","","","","","","","","","","","","","","","","","","","","","","","","",""
"","identification","5","65797","0.0-6.0-0.0","66778760","wem/bandit_party_2","A27F76XB3KS0W2","either","6","7426","","","","5","5","5","","","","","","","","","","","","","","","","","","","","","","","","pre","identification_pre","the Democratic Party","","","","","","","",""
"","identification","6","71297","0.0-6.0-1.0","66778760","wem/bandit_party_2","A27F76XB3KS0W2","either","6","4465","","","","1","1","0","","","","","","","","","","","","","","","","","","","","","","","","pre","identification_pre","the Republican Party","","","","","","","",""
"","text-replacement","7","81706","0.0-7.0","66778760","wem/bandit_party_2","A27F76XB3KS0W2","either","6","9400","","","32","","","","","","","","","","","","","","","","","","","","","","","","","","","","","","","","","","","","",""
"","text-replacement","8","86266","0.0-8.0","66778760","wem/bandit_party_2","A27F76XB3KS0W2","either","6","4556","","","32","","","","","","","","","","","","","","","","","","","","","","","","","","","","","","","","","","","","",""
"","text-replacement","9","94058","0.0-9.0","66778760","wem/bandit_party_2","A27F76XB3KS0W2","either","6","7787","","","32","","","","","","","","","","","","","","","","","","","","","","","","","","","","","","","","","","","","",""
"","text-replacement","10","99913","0.0-10.0","66778760","wem/bandit_party_2","A27F76XB3KS0W2","either","6","5850","","","32","","","","","","","","","","","","","","","","","","","","","","","","","","","","","","","","","","","","",""
"","text-replacement","11","105290","0.0-11.0","66778760","wem/bandit_party_2","A27F76XB3KS0W2","either","6","5373","","","32","","","","","","","","","","","","","","","","","","","","","","","","","","","","","","","","","","","","",""
"","bandit","12","109280","0.0-12.0-0.0","66778760","wem/bandit_party_2","A27F76XB3KS0W2","either","6","2472","","","","","","","0","0","1","0","0","","","","","0","","","","0","","","","","","","","","","","","","74","J","0","img/none_selected_demo.jpg","true","0","",""
"","bandit","13","112878","0.0-13.0-0.0","66778760","wem/bandit_party_2","A27F76XB3KS0W2","either","6","2082","","","","","","","0","0","1","0","0","","","","","0","","","","0","","","","","","","","","","","","","75","K","0","img/none_selected_demo.jpg","true","0","",""
"","text-replacement","14","112993","0.0-14.0","66778760","wem/bandit_party_2","A27F76XB3KS0W2","either","6","112","","","32","","","","","","","","","","","","","","","","","","","","","","","","","","","","","","","","","","","","",""
"","text-replacement","15","123794","0.0-15.0","66778760","wem/bandit_party_2","A27F76XB3KS0W2","either","6","10798","","","32","","","","","","","","","","","","","","","","","","","","","","","","","","","","","","","","","","","","",""
"","text-replacement","16","130302","0.0-16.0","66778760","wem/bandit_party_2","A27F76XB3KS0W2","either","6","6505","","","32","","","","","","","","","","","","","","","","","","","","","","","","","","","","","","","","","","","","",""
"","text-replacement","17","137398","0.0-17.0","66778760","wem/bandit_party_2","A27F76XB3KS0W2","either","6","7092","","","32","","","","","","","","","","","","","","","","","","","","","","","","","","","","","","","","","","","","",""
"","bandit","18","140450","0.0-18.0-0.0","66778760","wem/bandit_party_2","A27F76XB3KS0W2","either","6","1539","","","","","","","0","0","1","0.8","","0.5","0.5","","","","","","","0.8","0.2","","","","","","","","","","","","74","J","0","img/none_selected_demo.jpg","true","0","80_20_practice",""
"","bandit","19","143026","0.0-18.0-1.0","66778760","wem/bandit_party_2","A27F76XB3KS0W2","either","6","1062","","","","","","","0","1","0","","0.8","0.5","0.5","","","0.8","0.2","","","","","","","","","","","","","","","","74","J","0","img/none_selected_demo.jpg","true","0","80_20_practice",""
"","bandit","20","146217","0.0-18.0-2.0","66778760","wem/bandit_party_2","A27F76XB3KS0W2","either","6","1678","","","","","","","0","0","1","","0.8","0.5","0.5","","","0.8","0.2","","","","","","","","","","","","","","","","74","J","0","img/none_selected_demo.jpg","true","0","80_20_practice",""
"","bandit","21","148537","0.0-18.0-3.0","66778760","wem/bandit_party_2","A27F76XB3KS0W2","either","6","806","","","","","","","1","0","0","0.8","","0.5","0.5","","","","","","","0.8","0.2","","","","","","","","","","","","74","J","0","img/none_selected_demo.jpg","true","0","80_20_practice",""
"","bandit","22","150763","0.0-18.0-4.0","66778760","wem/bandit_party_2","A27F76XB3KS0W2","either","6","711","","","","","","","0","1","0","","0.8","0.5","0.5","","","0.8","0.2","","","","","","","","","","","","","","","","74","J","0","img/none_selected_demo.jpg","true","0","80_20_practice",""
"","bandit","23","152882","0.0-18.0-5.0","66778760","wem/bandit_party_2","A27F76XB3KS0W2","either","6","602","","","","","","","1","0","0","0.8","","0.5","0.5","","","","","","","0.8","0.2","","","","","","","","","","","","74","J","0","img/none_selected_demo.jpg","true","0","80_20_practice",""
"","bandit","24","155249","0.0-18.0-6.0","66778760","wem/bandit_party_2","A27F76XB3KS0W2","either","6","853","","","","","","","0","0","1","0.2","","0.5","0.5","","","","","","","0.8","0.2","","","","","","","","","","","","75","K","1","","true","0","80_20_practice",""
"","bandit","25","157161","0.0-18.0-7.0","66778760","wem/bandit_party_2","A27F76XB3KS0W2","either","6","399","","","","","","","1","0","0","0.2","","0.5","0.5","","","","","","","0.8","0.2","","","","","","","","","","","","75","K","1","","true","0","80_20_practice",""
"","bandit","26","159026","0.0-18.0-8.0","66778760","wem/bandit_party_2","A27F76XB3KS0W2","either","6","351","","","","","","","0","0","1","0.2","","0.5","0.5","","","","","","","0.8","0.2","","","","","","","","","","","","75","K","1","","true","0","80_20_practice",""
"","bandit","27","160567","0.0-18.0-9.0","66778760","wem/bandit_party_2","A27F76XB3KS0W2","either","6","30","","","","","","","0","0","1","","0.2","0.5","0.5","","","0.8","0.2","","","","","","","","","","","","","","","","75","K","1","","true","0","80_20_practice",""
"","bandit","28","162127","0.0-18.0-10.0","66778760","wem/bandit_party_2","A27F76XB3KS0W2","either","6","48","","","","","","","0","0","1","0.2","","0.5","0.5","","","","","","","0.8","0.2","","","","","","","","","","","","75","K","1","","true","0","80_20_practice",""
"","bandit","29","166177","0.0-18.0-11.0","66778760","wem/bandit_party_2","A27F76XB3KS0W2","either","6","2536","","","","","","","0","0","1","","0.2","0.5","0.5","","","0.8","0.2","","","","","","","","","","","","","","","","75","K","1","","true","0","80_20_practice",""
"","bandit","30","168137","0.0-18.0-12.0","66778760","wem/bandit_party_2","A27F76XB3KS0W2","either","6","446","","","","","","","0","0","1","","0.8","0.5","0.5","","","0.8","0.2","","","","","","","","","","","","","","","","74","J","0","img/none_selected_demo.jpg","true","0","80_20_practice",""
"","bandit","31","170440","0.0-18.0-13.0","66778760","wem/bandit_party_2","A27F76XB3KS0W2","either","6","790","","","","","","","0","1","0","","0.8","0.5","0.5","","","0.8","0.2","","","","","","","","","","","","","","","","74","J","0","img/none_selected_demo.jpg","true","0","80_20_practice",""
"","bandit","32","171962","0.0-18.0-14.0","66778760","wem/bandit_party_2","A27F76XB3KS0W2","either","6","7","","","","","","","0","1","0","","0.8","0.5","0.5","","","0.8","0.2","","","","","","","","","","","","","","","","74","J","0","img/none_selected_demo.jpg","true","0","80_20_practice",""
"","bandit","33","177464","0.0-18.0-15.0","66778760","wem/bandit_party_2","A27F76XB3KS0W2","either","6","3989","","","","","","","1","0","0","0.8","","0.5","0.5","","","","","","","0.8","0.2","","","","","","","","","","","","74","J","0","img/none_selected_demo.jpg","true","0","80_20_practice",""
"","bandit","34","179193","0.0-18.0-16.0","66778760","wem/bandit_party_2","A27F76XB3KS0W2","either","6","214","","","","","","","0","1","0","","0.8","0.5","0.5","","","0.8","0.2","","","","","","","","","","","","","","","","74","J","0","img/none_selected_demo.jpg","true","0","80_20_practice",""
"","bandit","35","183398","0.0-18.0-17.0","66778760","wem/bandit_party_2","A27F76XB3KS0W2","either","6","2694","","","","","","","1","0","0","0.8","","0.5","0.5","","","","","","","0.8","0.2","","","","","","","","","","","","74","J","0","img/none_selected_demo.jpg","true","0","80_20_practice",""
"","bandit","36","185392","0.0-18.0-18.0","66778760","wem/bandit_party_2","A27F76XB3KS0W2","either","6","480","","","","","","","0","0","1","","0.8","0.5","0.5","","","0.8","0.2","","","","","","","","","","","","","","","","74","J","0","img/none_selected_demo.jpg","true","0","80_20_practice",""
"","bandit","37","187376","0.0-18.0-19.0","66778760","wem/bandit_party_2","A27F76XB3KS0W2","either","6","471","","","","","","","0","1","0","","0.8","0.5","0.5","","","0.8","0.2","","","","","","","","","","","","","","","","74","J","0","img/none_selected_demo.jpg","true","0","80_20_practice",""
"","text-replacement","38","192124","0.0-19.0","66778760","wem/bandit_party_2","A27F76XB3KS0W2","either","6","4744","","","32","","","","","","","","","","","","","","","","","","","","","","","","","","","","","","","","","","","","",""
"","bandit","39","195791","0.0-20.0-0.0","66778760","wem/bandit_party_2","A27F76XB3KS0W2","either","6","2155","","","","","","","1","0","0","1","0","","","","","0","1","","","1","0","","","","","","","","","","","","74","J","0","img/none_selected_demo.jpg","true","0","",""
"","text-replacement","40","201932","0.0-21.0","66778760","wem/bandit_party_2","A27F76XB3KS0W2","either","6","6136","","","32","","","","","","","","","","","","","","","","","","","","","","","","","","","","","","","","","","","","",""
"","text-replacement","41","205411","0.0-22.0","66778760","wem/bandit_party_2","A27F76XB3KS0W2","either","6","3477","","","32","","","","","","","","","","","","","","","","","","","","","","","","","","","","","","","","","","","","",""
"","text-replacement","42","208139","0.0-23.0","66778760","wem/bandit_party_2","A27F76XB3KS0W2","either","6","2724","","","32","","","","","","","","","","","","","","","","","","","","","","","","","","","","","","","","","","","","",""
"","text-replacement","43","210475","0.0-24.0","66778760","wem/bandit_party_2","A27F76XB3KS0W2","either","6","2332","","","32","","","","","","","","","","","","","","","","","","","","","","","","","","","","","","","","","","","","",""
"","text-replacement","44","215387","0.0-25.0","66778760","wem/bandit_party_2","A27F76XB3KS0W2","either","6","4908","","","32","","","","","","","","","","","","","","","","","","","","","","","","","","","","","","","","","","","","",""
"","text-replacement","45","218155","0.0-26.0","66778760","wem/bandit_party_2","A27F76XB3KS0W2","either","6","2764","","","32","","","","","","","","","","","","","","","","","","","","","","","","","","","","","","","","","","","","",""
"","text-replacement","46","221475","0.0-27.0","66778760","wem/bandit_party_2","A27F76XB3KS0W2","either","6","3316","","","32","","","","","","","","","","","","","","","","","","","","","","","","","","","","","","","","","","","","",""
"","text-replacement","47","224483","0.0-28.0","66778760","wem/bandit_party_2","A27F76XB3KS0W2","either","6","3004","","","32","","","","","","","","","","","","","","","","","","","","","","","","","","","","","","","","","","","","",""
"","text-replacement","48","229488","0.0-29.0","66778760","wem/bandit_party_2","A27F76XB3KS0W2","either","6","5001","","","32","","","","","","","","","","","","","","","","","","","","","","","","","","","","","","","","","","","","",""
"","text-replacement","49","231216","0.0-30.0","66778760","wem/bandit_party_2","A27F76XB3KS0W2","either","6","1724","","","32","","","","","","","","","","","","","","","","","","","","","","","","","","","","","","","","","","","","",""
"","text-replacement","50","238456","0.0-31.0","66778760","wem/bandit_party_2","A27F76XB3KS0W2","either","6","7236","","","32","","","","","","","","","","","","","","","","","","","","","","","","","","","","","","","","","","","","",""
"","bandit","51","241915","0.0-32.0-0.0","66778760","wem/bandit_party_2","A27F76XB3KS0W2","either","6","1945","","","","","","","1","0","0","0.8","","0.5","0.5","0.5","0.5","","","","","0.8","0.2","0.6","0.2","","","","","","","","","","72","H","0","img/none_selected.jpg","true","0","full_practice",""
"","bandit","52","244214","0.0-32.0-1.0","66778760","wem/bandit_party_2","A27F76XB3KS0W2","either","6","782","","","","","","","1","0","0","0.8","","0.5","0.5","0.5","0.5","","","","","0.8","0.2","0.6","0.2","","","","","","","","","","72","H","0","img/none_selected.jpg","true","0","full_practice",""
"","bandit","53","246286","0.0-32.0-2.0","66778760","wem/bandit_party_2","A27F76XB3KS0W2","either","6","555","","","","","","","0","1","0","","0.8","0.5","0.5","0.5","0.5","0.8","0.2","0.6","0.2","","","","","","","","","","","","","","72","H","0","img/none_selected.jpg","true","0","full_practice",""
"","bandit","54","248252","0.0-32.0-3.0","66778760","wem/bandit_party_2","A27F76XB3KS0W2","either","6","452","","","","","","","0","0","1","","0.8","0.5","0.5","0.5","0.5","0.8","0.2","0.6","0.2","","","","","","","","","","","","","","72","H","0","img/none_selected.jpg","true","0","full_practice",""
"","bandit","55","250171","0.0-32.0-4.0","66778760","wem/bandit_party_2","A27F76XB3KS0W2","either","6","406","","","","","","","1","0","0","0.8","","0.5","0.5","0.5","0.5","","","","","0.8","0.2","0.6","0.2","","","","","","","","","","72","H","0","img/none_selected.jpg","true","0","full_practice",""
"","bandit","56","252235","0.0-32.0-5.0","66778760","wem/bandit_party_2","A27F76XB3KS0W2","either","6","549","","","","","","","0","1","0","","0.2","0.5","0.5","0.5","0.5","0.8","0.2","0.6","0.2","","","","","","","","","","","","","","74","J","1","","true","0","full_practice",""
"","bandit","57","254444","0.0-32.0-6.0","66778760","wem/bandit_party_2","A27F76XB3KS0W2","either","6","695","","","","","","","0","0","1","","0.2","0.5","0.5","0.5","0.5","0.8","0.2","0.6","0.2","","","","","","","","","","","","","","74","J","1","","true","0","full_practice",""
"","bandit","58","256387","0.0-32.0-7.0","66778760","wem/bandit_party_2","A27F76XB3KS0W2","either","6","429","","","","","","","0","0","1","0.2","","0.5","0.5","0.5","0.5","","","","","0.8","0.2","0.6","0.2","","","","","","","","","","74","J","1","","true","0","full_practice",""
"","bandit","59","258259","0.0-32.0-8.0","66778760","wem/bandit_party_2","A27F76XB3KS0W2","either","6","359","","","","","","","0","0","1","0.2","","0.5","0.5","0.5","0.5","","","","","0.8","0.2","0.6","0.2","","","","","","","","","","74","J","1","","true","0","full_practice",""
"","bandit","60","260331","0.0-32.0-9.0","66778760","wem/bandit_party_2","A27F76XB3KS0W2","either","6","559","","","","","","","0","0","1","","0.2","0.5","0.5","0.5","0.5","0.8","0.2","0.6","0.2","","","","","","","","","","","","","","74","J","1","","true","0","full_practice",""
"","bandit","61","262274","0.0-32.0-10.0","66778760","wem/bandit_party_2","A27F76XB3KS0W2","either","6","431","","","","","","","0","1","0","","0.6","0.5","0.5","0.5","0.5","0.8","0.2","0.6","0.2","","","","","","","","","","","","","","75","K","2","","true","0","full_practice",""
"","bandit","62","264107","0.0-32.0-11.0","66778760","wem/bandit_party_2","A27F76XB3KS0W2","either","6","320","","","","","","","0","0","1","0.6","","0.5","0.5","0.5","0.5","","","","","0.8","0.2","0.6","0.2","","","","","","","","","","75","K","2","","true","0","full_practice",""
"","bandit","63","265947","0.0-32.0-12.0","66778760","wem/bandit_party_2","A27F76XB3KS0W2","either","6","327","","","","","","","0","1","0","","0.6","0.5","0.5","0.5","0.5","0.8","0.2","0.6","0.2","","","","","","","","","","","","","","75","K","2","","true","0","full_practice",""
"","bandit","64","267789","0.0-32.0-13.0","66778760","wem/bandit_party_2","A27F76XB3KS0W2","either","6","326","","","","","","","0","0","1","0.6","","0.5","0.5","0.5","0.5","","","","","0.8","0.2","0.6","0.2","","","","","","","","","","75","K","2","","true","0","full_practice",""
"","bandit","65","269604","0.0-32.0-14.0","66778760","wem/bandit_party_2","A27F76XB3KS0W2","either","6","299","","","","","","","0","1","0","","0.6","0.5","0.5","0.5","0.5","0.8","0.2","0.6","0.2","","","","","","","","","","","","","","75","K","2","","true","0","full_practice",""
"","bandit","66","271787","0.0-32.0-15.0","66778760","wem/bandit_party_2","A27F76XB3KS0W2","either","6","669","","","","","","","0","1","0","","0.2","0.5","0.5","0.5","0.5","0.8","0.2","0.6","0.2","","","","","","","","","","","","","","76","L","3","","true","0","full_practice",""
"","bandit","67","273651","0.0-32.0-16.0","66778760","wem/bandit_party_2","A27F76XB3KS0W2","either","6","350","","","","","","","0","0","1","0.2","","0.5","0.5","0.5","0.5","","","","","0.8","0.2","0.6","0.2","","","","","","","","","","76","L","3","","true","0","full_practice",""
"","bandit","68","275539","0.0-32.0-17.0","66778760","wem/bandit_party_2","A27F76XB3KS0W2","either","6","374","","","","","","","0","0","1","0.2","","0.5","0.5","0.5","0.5","","","","","0.8","0.2","0.6","0.2","","","","","","","","","","76","L","3","","true","0","full_practice",""
"","bandit","69","277324","0.0-32.0-18.0","66778760","wem/bandit_party_2","A27F76XB3KS0W2","either","6","269","","","","","","","0","0","1","","0.2","0.5","0.5","0.5","0.5","0.8","0.2","0.6","0.2","","","","","","","","","","","","","","76","L","3","","true","0","full_practice",""
"","bandit","70","279146","0.0-32.0-19.0","66778760","wem/bandit_party_2","A27F76XB3KS0W2","either","6","309","","","","","","","0","0","1","","0.2","0.5","0.5","0.5","0.5","0.8","0.2","0.6","0.2","","","","","","","","","","","","","","76","L","3","","true","0","full_practice",""
"","text","71","283138","0.0-33.0","66778760","wem/bandit_party_2","A27F76XB3KS0W2","either","6","3983","","","32","","","","","","","","","","","","","","","","","","","","","","","","","","","","","","","","","","","","",""
"","text-replacement","72","292477","0.0-34.0","66778760","wem/bandit_party_2","A27F76XB3KS0W2","either","6","8332","","","32","","","","","","","","","","","","","","","","","","","","","","","","","","","","","","","","","","","","",""
"","text-replacement","73","297860","0.0-35.0","66778760","wem/bandit_party_2","A27F76XB3KS0W2","either","6","5378","","","32","","","","","","","","","","","","","","","","","","","","","","","","","","","","","","","","","","","","",""
"","text-replacement","74","303916","0.0-36.0","66778760","wem/bandit_party_2","A27F76XB3KS0W2","either","6","6051","","","32","","","","","","","","","","","","","","","","","","","","","","","","","","","","","","","","","","","","",""
"","text-replacement","75","307780","0.0-37.0","66778760","wem/bandit_party_2","A27F76XB3KS0W2","either","6","3860","","","32","","","","","","","","","","","","","","","","","","","","","","","","","","","","","","","","","","","","",""
"","text-replacement","76","312557","0.0-38.0","66778760","wem/bandit_party_2","A27F76XB3KS0W2","either","6","4772","","","32","","","","","","","","","","","","","","","","","","","","","","","","","","","","","","","","","","","","",""
"","survey-multi-choice-replacement","77","324811","0.0-39.0-0.0","66778760","wem/bandit_party_2","A27F76XB3KS0W2","either","6","12239","","","","","","","","","","","","","","","","","","","","","","","","Money will be added to the pool for <span style='color:blue;'>DEMOCRATS</span>","","","","","","","attn_check","","","","","","","","","0"
"","survey-multi-choice-replacement","78","332239","0.0-40.0-0.0","66778760","wem/bandit_party_2","A27F76XB3KS0W2","either","6","6401","","","","","","","","","","","","","","","","","","","","","","","","Equal amounts of money will be added to the pool for <span style='color:blue;'>DEMOCRATS</span> and subtracted from the pool for <span style='color:red;'>REPUBLICANS</span>","","","","","","","attn_check","","","","","","","","","2"
"","survey-multi-choice-replacement","79","337526","0.0-41.0-0.0","66778760","wem/bandit_party_2","A27F76XB3KS0W2","either","6","4266","","","","","","","","","","","","","","","","","","","","","","","","No money will be added to either pool","","","","","","","attn_check","","","","","","","","","3"
"","bandit","80","342751","0.0-42.0-0.0","66778760","wem/bandit_party_2","A27F76XB3KS0W2","either","6","2706","","","","","","","0","0","1","","0.1947351938","0.2","0.8","0.4","0.6","0.1947351938","0.3049938501","0.7197236342","0.2309914537","","","","","","","","","","","","","","72","H","0","img/none_selected.jpg","","1","main_expt",""
"","bandit","81","345016","0.0-43.0-0.0","66778760","wem/bandit_party_2","A27F76XB3KS0W2","either","6","748","","","","","","","0","0","1","","0.1865171684","0.2","0.8","0.4","0.6","0.1865171684","0.3105507028","0.7453792406","0.2351366282","","","","","","","","","","","","","","72","H","0","img/none_selected.jpg","","2","main_expt",""
"","bandit","82","347141","0.0-44.0-0.0","66778760","wem/bandit_party_2","A27F76XB3KS0W2","either","6","609","","","","","","","0","0","1","","0.1578482069","0.2","0.8","0.4","0.6","0.1578482069","0.347932066","0.7422746785","0.3338792953","","","","","","","","","","","","","","72","H","0","img/none_selected.jpg","","3","main_expt",""
"","bandit","83","349232","0.0-45.0-0.0","66778760","wem/bandit_party_2","A27F76XB3KS0W2","either","6","576","","","","","","","0","0","1","","0.1733557992","0.2","0.8","0.4","0.6","0.1733557992","0.294099503","0.8152876082","0.2578124611","","","","","","","","","","","","","","72","H","0","img/none_selected.jpg","","4","main_expt",""
"","bandit","84","351103","0.0-46.0-0.0","66778760","wem/bandit_party_2","A27F76XB3KS0W2","either","6","357","","","","","","","0","0","1","","0.1275681293","0.2","0.8","0.4","0.6","0.1275681293","0.256228135","0.8494846052","0.152782507","","","","","","","","","","","","","","72","H","0","img/none_selected.jpg","","5","main_expt",""
"","bandit","85","353295","0.0-47.0-0.0","66778760","wem/bandit_party_2","A27F76XB3KS0W2","either","6","678","","","","","","","1","0","0","0.3142053347","","0.2","0.8","0.4","0.6","","","","","0.1776351543","0.3142053347","0.8036792828","0.200224935","","","","","","","","","","74","J","1","","","6","main_expt",""
"","bandit","86","355160","0.0-48.0-0.0","66778760","wem/bandit_party_2","A27F76XB3KS0W2","either","6","350","","","","","","","1","0","0","0.2382568898","","0.2","0.8","0.4","0.6","","","","","0.1412615145","0.2382568898","0.8659664865","0.2200442108","","","","","","","","","","74","J","1","","","7","main_expt",""
"","bandit","87","357007","0.0-49.0-0.0","66778760","wem/bandit_party_2","A27F76XB3KS0W2","either","6","333","","","","","","","0","0","1","","0.220471749","0.2","0.8","0.4","0.6","0.1508054742","0.220471749","0.8475436228","0.1516915951","","","","","","","","","","","","","","74","J","1","","","8","main_expt",""
"","bandit","88","358831","0.0-50.0-0.0","66778760","wem/bandit_party_2","A27F76XB3KS0W2","either","6","309","","","","","","","0","1","0","","0.2842820234","0.2","0.8","0.4","0.6","0.1882404854","0.2842820234","0.8034999265","0.1468829212","","","","","","","","","","","","","","74","J","1","","","9","main_expt",""
"","bandit","89","360640","0.0-51.0-0.0","66778760","wem/bandit_party_2","A27F76XB3KS0W2","either","6","293","","","","","","","1","0","0","0.3392415315","","0.2","0.8","0.4","0.6","","","","","0.1731305678","0.3392415315","0.7148412232","0.1507643719","","","","","","","","","","74","J","1","","","10","main_expt",""
"","bandit","90","362448","0.0-52.0-0.0","66778760","wem/bandit_party_2","A27F76XB3KS0W2","either","6","292","","","","","","","0","0","1","0.4470346709","","0.2","0.8","0.4","0.6","","","","","0.2475279461","0.4470346709","0.7213030285","0.18301","","","","","","","","","","74","J","1","","","11","main_expt",""
"","bandit","91","364206","0.0-53.0-0.0","66778760","wem/bandit_party_2","A27F76XB3KS0W2","either","6","245","","","","","","","0","0","1","0.5143820195","","0.2","0.8","0.4","0.6","","","","","0.2068792089","0.5143820195","0.7396148754","0.209562337","","","","","","","","","","74","J","1","","","12","main_expt",""
"","bandit","92","366031","0.0-54.0-0.0","66778760","wem/bandit_party_2","A27F76XB3KS0W2","either","6","310","","","","","","","1","0","0","0.4934308908","","0.2","0.8","0.4","0.6","","","","","0.1594062408","0.4934308908","0.6870781676","0.2133897639","","","","","","","","","","74","J","1","","","13","main_expt",""
"","bandit","93","367823","0.0-55.0-0.0","66778760","wem/bandit_party_2","A27F76XB3KS0W2","either","6","276","","","","","","","0","1","0","","0.5884397519","0.2","0.8","0.4","0.6","0.1808320347","0.5884397519","0.6561171826","0.1865122749","","","","","","","","","","","","","","74","J","1","","","14","main_expt",""
"","bandit","94","369618","0.0-56.0-0.0","66778760","wem/bandit_party_2","A27F76XB3KS0W2","either","6","277","","","","","","","0","0","1","0.425765204","","0.2","0.8","0.4","0.6","","","","","0.2401125286","0.425765204","0.6255101569","0.3169691733","","","","","","","","","","74","J","1","","","15","main_expt",""
"","bandit","95","371847","0.0-57.0-0.0","66778760","wem/bandit_party_2","A27F76XB3KS0W2","either","6","713","","","","","","","0","1","0","","0.6101220295","0.2","0.8","0.4","0.6","0.1823220599","0.4458974369","0.6101220295","0.3927767979","","","","","","","","","","","","","","75","K","2","","","16","main_expt",""
"","bandit","96","373695","0.0-58.0-0.0","66778760","wem/bandit_party_2","A27F76XB3KS0W2","either","6","331","","","","","","","0","1","0","","0.6233337625","0.2","0.8","0.4","0.6","0.2076179308","0.4907358526","0.6233337625","0.2882183284","","","","","","","","","","","","","","75","K","2","","","17","main_expt",""
"","bandit","97","375487","0.0-59.0-0.0","66778760","wem/bandit_party_2","A27F76XB3KS0W2","either","6","276","","","","","","","0","0","1","0.598865074","","0.2","0.8","0.4","0.6","","","","","0.2310064443","0.4895096529","0.598865074","0.3212622409","","","","","","","","","","75","K","2","","","18","main_expt",""
"","bandit","98","378063","0.0-60.0-0.0","66778760","wem/bandit_party_2","A27F76XB3KS0W2","either","6","1061","","","","","","","0","1","0","","0.6318918302","0.2","0.8","0.4","0.6","0.1919199612","0.5437378015","0.6318918302","0.3678238944","","","","","","","","","","","","","","75","K","2","","","19","main_expt",""
"","bandit","99","379975","0.0-61.0-0.0","66778760","wem/bandit_party_2","A27F76XB3KS0W2","either","6","396","","","","","","","0","0","1","","0.5667690756","0.2","0.8","0.4","0.6","0.2150176637","0.543071052","0.5667690756","0.4357360734","","","","","","","","","","","","","","75","K","2","","","20","main_expt",""
"","bandit","100","381823","0.0-62.0-0.0","66778760","wem/bandit_party_2","A27F76XB3KS0W2","either","6","332","","","","","","","0","1","0","","0.6364396753","0.2","0.8","0.4","0.6","0.2980309021","0.5457928974","0.6364396753","0.4486518506","","","","","","","","","","","","","","75","K","2","","","21","main_expt",""
"","bandit","101","383671","0.0-63.0-0.0","66778760","wem/bandit_party_2","A27F76XB3KS0W2","either","6","333","","","","","","","0","0","1","","0.5563436533","0.2","0.8","0.4","0.6","0.3238742104","0.4531799458","0.5563436533","0.5145372488","","","","","","","","","","","","","","75","K","2","","","22","main_expt",""
"","bandit","102","385573","0.0-64.0-0.0","66778760","wem/bandit_party_2","A27F76XB3KS0W2","either","6","380","","","","","","","0","1","0","","0.4555064456","0.2","0.8","0.4","0.6","0.4158928209","0.4321579995","0.4555064456","0.6324996067","","","","","","","","","","","","","","75","K","2","","","23","main_expt",""
"","bandit","103","387433","0.0-65.0-0.0","66778760","wem/bandit_party_2","A27F76XB3KS0W2","either","6","343","","","","","","","0","0","1","","0.4398961724","0.2","0.8","0.4","0.6","0.2798670784","0.3892872195","0.4398961724","0.6665025749","","","","","","","","","","","","","","75","K","2","","","24","main_expt",""
"","bandit","104","388949","0.0-66.0-0.0","66778760","wem/bandit_party_2","A27F76XB3KS0W2","either","6","3","","","","","","","0","0","1","0.3810464824","","0.2","0.8","0.4","0.6","","","","","0.3932164435","0.4322880781","0.3810464824","0.5316582614","","","","","","","","","","75","K","2","","","25","main_expt",""
"","bandit","105","391422","0.0-67.0-0.0","66778760","wem/bandit_party_2","A27F76XB3KS0W2","either","6","958","","","","","","","0","0","1","0.4282094451","","0.2","0.8","0.4","0.6","","","","","0.3243459504","0.4560392573","0.451695138","0.4282094451","","","","","","","","","","76","L","3","","","26","main_expt",""
"","bandit","106","393327","0.0-68.0-0.0","66778760","wem/bandit_party_2","A27F76XB3KS0W2","either","6","389","","","","","","","1","0","0","0.4711380508","","0.2","0.8","0.4","0.6","","","","","0.4266302179","0.5372901799","0.4423729324","0.4711380508","","","","","","","","","","76","L","3","","","27","main_expt",""
"","bandit","107","395342","0.0-69.0-0.0","66778760","wem/bandit_party_2","A27F76XB3KS0W2","either","6","501","","","","","","","1","0","0","0.4539290932","","0.2","0.8","0.4","0.6","","","","","0.4206607535","0.6619872032","0.4221124674","0.4539290932","","","","","","","","","","76","L","3","","","28","main_expt",""
"","bandit","108","397207","0.0-70.0-0.0","66778760","wem/bandit_party_2","A27F76XB3KS0W2","either","6","350","","","","","","","0","0","1","0.4378511583","","0.2","0.8","0.4","0.6","","","","","0.440099583","0.5939885142","0.489207998","0.4378511583","","","","","","","","","","76","L","3","","","29","main_expt",""
"","bandit","109","399047","0.0-71.0-0.0","66778760","wem/bandit_party_2","A27F76XB3KS0W2","either","6","324","","","","","","","0","1","0","","0.3425428874","0.2","0.8","0.4","0.6","0.3982168329","0.5602145404","0.4406356357","0.3425428874","","","","","","","","","","","","","","76","L","3","","","30","main_expt",""
"","bandit","110","400966","0.0-72.0-0.0","66778760","wem/bandit_party_2","A27F76XB3KS0W2","either","6","405","","","","","","","0","0","1","","0.2354865125","0.2","0.8","0.4","0.6","0.3573437221","0.5376870091","0.484130952","0.2354865125","","","","","","","","","","","","","","76","L","3","","","31","main_expt",""
"","bandit","111","402807","0.0-73.0-0.0","66778760","wem/bandit_party_2","A27F76XB3KS0W2","either","6","325","","","","","","","0","0","1","0.2552437171","","0.2","0.8","0.4","0.6","","","","","0.3712986889","0.6346195819","0.432294219","0.2552437171","","","","","","","","","","76","L","3","","","32","main_expt",""
"","bandit","112","404662","0.0-74.0-0.0","66778760","wem/bandit_party_2","A27F76XB3KS0W2","either","6","340","","","","","","","0","1","0","","0.2470382599","0.2","0.8","0.4","0.6","0.45096985","0.7540961955","0.4821309474","0.2470382599","","","","","","","","","","","","","","76","L","3","","","33","main_expt",""
"","bandit","113","406510","0.0-75.0-0.0","66778760","wem/bandit_party_2","A27F76XB3KS0W2","either","6","334","","","","","","","1","0","0","0.2951894024","","0.2","0.8","0.4","0.6","","","","","0.5559331637","0.699797925","0.4702474349","0.2951894024","","","","","","","","","","76","L","3","","","34","main_expt",""
"","bandit","114","408325","0.0-76.0-0.0","66778760","wem/bandit_party_2","A27F76XB3KS0W2","either","6","301","","","","","","","1","0","0","0.2596626779","","0.2","0.8","0.4","0.6","","","","","0.7354386419","0.7410295452","0.5363697359","0.2596626779","","","","","","","","","","76","L","3","","","35","main_expt",""
"","bandit","115","410127","0.0-77.0-0.0","66778760","wem/bandit_party_2","A27F76XB3KS0W2","either","6","286","","","","","","","0","0","1","","0.3164764808","0.2","0.8","0.4","0.6","0.6934166837","0.7332281969","0.602250539","0.3164764808","","","","","","","","","","","","","","76","L","3","","","36","main_expt",""
"","bandit","116","413238","0.0-78.0-0.0","66778760","wem/bandit_party_2","A27F76XB3KS0W2","either","6","1595","","","","","","","1","0","0","0.736713329","","0.2","0.8","0.4","0.6","","","","","0.6311869688","0.736713329","0.5337433964","0.3672962009","","","","","","","","","","74","J","1","","","37","main_expt",""
"","bandit","117","415462","0.0-79.0-0.0","66778760","wem/bandit_party_2","A27F76XB3KS0W2","either","6","709","","","","","","","1","0","0","0.6860808007","","0.2","0.8","0.4","0.6","","","","","0.6583504975","0.6860808007","0.5970413872","0.4056598401","","","","","","","","","","74","J","1","","","38","main_expt",""
"","bandit","118","417670","0.0-80.0-0.0","66778760","wem/bandit_party_2","A27F76XB3KS0W2","either","6","692","","","","","","","0","0","1","0.7498761973","","0.2","0.8","0.4","0.6","","","","","0.5861321806","0.7498761973","0.6529448079","0.4236995386","","","","","","","","","","74","J","1","","","39","main_expt",""
"","bandit","119","419590","0.0-81.0-0.0","66778760","wem/bandit_party_2","A27F76XB3KS0W2","either","6","404","","","","","","","1","0","0","0.7043283504","","0.2","0.8","0.4","0.6","","","","","0.4892836735","0.7043283504","0.6612991154","0.4365163158","","","","","","","","","","74","J","1","","","40","main_expt",""
"","bandit","120","421461","0.0-82.0-0.0","66778760","wem/bandit_party_2","A27F76XB3KS0W2","either","6","356","","","","","","","1","0","0","0.6469690382","","0.2","0.8","0.4","0.6","","","","","0.3479900608","0.6469690382","0.7390431107","0.4854269132","","","","","","","","","","74","J","1","","","41","main_expt",""
"","bandit","121","423310","0.0-83.0-0.0","66778760","wem/bandit_party_2","A27F76XB3KS0W2","either","6","332","","","","","","","0","1","0","","0.6388905256","0.2","0.8","0.4","0.6","0.376709287","0.6388905256","0.7609423287","0.4753587859","","","","","","","","","","","","","","74","J","1","","","42","main_expt",""
"","bandit","122","425149","0.0-84.0-0.0","66778760","wem/bandit_party_2","A27F76XB3KS0W2","either","6","324","","","","","","","1","0","0","0.6383372244","","0.2","0.8","0.4","0.6","","","","","0.4319300722","0.6383372244","0.8039673949","0.452202747","","","","","","","","","","74","J","1","","","43","main_expt",""
"","bandit","123","427031","0.0-85.0-0.0","66778760","wem/bandit_party_2","A27F76XB3KS0W2","either","6","365","","","","","","","0","0","1","0.6247854939","","0.2","0.8","0.4","0.6","","","","","0.4458636389","0.6247854939","0.8216753652","0.5522191005","","","","","","","","","","74","J","1","","","44","main_expt",""
"","bandit","124","428908","0.0-86.0-0.0","66778760","wem/bandit_party_2","A27F76XB3KS0W2","either","6","361","","","","","","","1","0","0","0.6341880498","","0.2","0.8","0.4","0.6","","","","","0.4323480181","0.6341880498","0.7636866317","0.4878962787","","","","","","","","","","74","J","1","","","45","main_expt",""
"","bandit","125","430869","0.0-87.0-0.0","66778760","wem/bandit_party_2","A27F76XB3KS0W2","either","6","445","","","","","","","0","0","1","0.5081310512","","0.2","0.8","0.4","0.6","","","","","0.4348202433","0.5081310512","0.8203755575","0.487595293","","","","","","","","","","74","J","1","","","46","main_expt",""
"","bandit","126","432745","0.0-88.0-0.0","66778760","wem/bandit_party_2","A27F76XB3KS0W2","either","6","356","","","","","","","0","1","0","","0.4202927251","0.2","0.8","0.4","0.6","0.3430847618","0.4202927251","0.8706375764","0.444754188","","","","","","","","","","","","","","74","J","1","","","47","main_expt",""
"","bandit","127","434638","0.0-89.0-0.0","66778760","wem/bandit_party_2","A27F76XB3KS0W2","either","6","375","","","","","","","0","0","1","","0.4767868938","0.2","0.8","0.4","0.6","0.2601977795","0.4767868938","0.8019506245","0.5044276746","","","","","","","","","","","","","","74","J","1","","","48","main_expt",""
"","bandit","128","436526","0.0-90.0-0.0","66778760","wem/bandit_party_2","A27F76XB3KS0W2","either","6","372","","","","","","","0","0","1","","0.3749468019","0.2","0.8","0.4","0.6","0.2368144698","0.3749468019","0.7331224435","0.3766714482","","","","","","","","","","","","","","74","J","1","","","49","main_expt",""
"","bandit","129","438453","0.0-91.0-0.0","66778760","wem/bandit_party_2","A27F76XB3KS0W2","either","6","413","","","","","","","0","0","1","0.3532902347","","0.2","0.8","0.4","0.6","","","","","0.2484527115","0.3532902347","0.7908344101","0.406992786","","","","","","","","","","74","J","1","","","50","main_expt",""
"","bandit","130","440341","0.0-92.0-0.0","66778760","wem/bandit_party_2","A27F76XB3KS0W2","either","6","373","","","","","","","1","0","0","0.2413466802","","0.2","0.8","0.4","0.6","","","","","0.230268934","0.2413466802","0.7922828235","0.3854505747","","","","","","","","","","74","J","1","","","51","main_expt",""
"","bandit","131","442035","0.0-93.0-0.0","66778760","wem/bandit_party_2","A27F76XB3KS0W2","either","6","180","","","","","","","1","0","0","0.2673723166","","0.2","0.8","0.4","0.6","","","","","0.3429002399","0.2673723166","0.7485378942","0.3956915145","","","","","","","","","","74","J","1","","","52","main_expt",""
"","bandit","132","443869","0.0-94.0-0.0","66778760","wem/bandit_party_2","A27F76XB3KS0W2","either","6","318","","","","","","","0","0","1","0.2806035608","","0.2","0.8","0.4","0.6","","","","","0.2871029552","0.2806035608","0.6603794952","0.3062348001","","","","","","","","","","74","J","1","","","53","main_expt",""
"","bandit","133","447677","0.0-95.0-0.0","66778760","wem/bandit_party_2","A27F76XB3KS0W2","either","6","2293","","","","","","","0","1","0","","0.2544312064","0.2","0.8","0.4","0.6","0.2594444468","0.2544312064","0.6931449795","0.2996500993","","","","","","","","","","","","","","74","J","1","","","54","main_expt",""
"","bandit","134","450052","0.0-96.0-0.0","66778760","wem/bandit_party_2","A27F76XB3KS0W2","either","6","861","","","","","","","1","0","0","0.3362815808","","0.2","0.8","0.4","0.6","","","","","0.3333749245","0.3362815808","0.7553272845","0.2518247787","","","","","","","","","","74","J","1","","","55","main_expt",""
"","bandit","135","452229","0.0-97.0-0.0","66778760","wem/bandit_party_2","A27F76XB3KS0W2","either","6","660","","","","","","","0","0","1","0.3798256012","","0.2","0.8","0.4","0.6","","","","","0.3049104067","0.3798256012","0.7231548626","0.3014763065","","","","","","","","","","74","J","1","","","56","main_expt",""
"","bandit","136","454149","0.0-98.0-0.0","66778760","wem/bandit_party_2","A27F76XB3KS0W2","either","6","404","","","","","","","0","0","1","0.3989549393","","0.2","0.8","0.4","0.6","","","","","0.3623273811","0.3989549393","0.7485901337","0.2730843718","","","","","","","","","","74","J","1","","","57","main_expt",""
"","bandit","137","456038","0.0-99.0-0.0","66778760","wem/bandit_party_2","A27F76XB3KS0W2","either","6","372","","","","","","","0","0","1","0.3373398956","","0.2","0.8","0.4","0.6","","","","","0.3621169042","0.3373398956","0.797082508","0.367239041","","","","","","","","","","74","J","1","","","58","main_expt",""
"","bandit","138","458186","0.0-100.0-0.0","66778760","wem/bandit_party_2","A27F76XB3KS0W2","either","6","635","","","","","","","1","0","0","0.4005220403","","0.2","0.8","0.4","0.6","","","","","0.3672848169","0.3381045731","0.7466963627","0.4005220403","","","","","","","","","","76","L","3","","","59","main_expt",""
"","bandit","139","460259","0.0-101.0-0.0","66778760","wem/bandit_party_2","A27F76XB3KS0W2","either","6","558","","","","","","","0","0","1","0.4863912708","","0.2","0.8","0.4","0.6","","","","","0.5123874715","0.4838111383","0.6359615323","0.4863912708","","","","","","","","","","76","L","3","","","60","main_expt",""
"","bandit","140","462715","0.0-102.0-0.0","66778760","wem/bandit_party_2","A27F76XB3KS0W2","either","6","941","","","","","","","1","0","0","0.5220595343","","0.2","0.8","0.4","0.6","","","","","0.5218319631","0.4290776342","0.7125939799","0.5220595343","","","","","","","","","","76","L","3","","","61","main_expt",""
"","bandit","141","464667","0.0-103.0-0.0","66778760","wem/bandit_party_2","A27F76XB3KS0W2","either","6","437","","","","","","","0","0","1","0.5447889898","","0.2","0.8","0.4","0.6","","","","","0.6482151027","0.4387439774","0.5978650666","0.5447889898","","","","","","","","","","76","L","3","","","62","main_expt",""
"","bandit","142","466517","0.0-104.0-0.0","66778760","wem/bandit_party_2","A27F76XB3KS0W2","either","6","332","","","","","","","1","0","0","0.5517390004","","0.2","0.8","0.4","0.6","","","","","0.6966290852","0.3670418014","0.5166338879","0.5517390004","","","","","","","","","","76","L","3","","","63","main_expt",""
"","bandit","143","468365","0.0-105.0-0.0","66778760","wem/bandit_party_2","A27F76XB3KS0W2","either","6","332","","","","","","","0","1","0","","0.6576188384","0.2","0.8","0.4","0.6","0.6497033777","0.3470393933","0.4901650138","0.6576188384","","","","","","","","","","","","","","76","L","3","","","64","main_expt",""
"","bandit","144","470221","0.0-106.0-0.0","66778760","wem/bandit_party_2","A27F76XB3KS0W2","either","6","339","","","","","","","0","1","0","","0.5156176703","0.2","0.8","0.4","0.6","0.6925184903","0.3361574661","0.459365688","0.5156176703","","","","","","","","","","","","","","76","L","3","","","65","main_expt",""
"","bandit","145","472091","0.0-107.0-0.0","66778760","wem/bandit_party_2","A27F76XB3KS0W2","either","6","356","","","","","","","0","0","1","0.3851410914","","0.2","0.8","0.4","0.6","","","","","0.8298767513","0.34308242","0.4666104807","0.3851410914","","","","","","","","","","76","L","3","","","66","main_expt",""
"","bandit","146","474068","0.0-108.0-0.0","66778760","wem/bandit_party_2","A27F76XB3KS0W2","either","6","461","","","","","","","0","1","0","","0.3925250542","0.2","0.8","0.4","0.6","0.8506596021","0.3730603492","0.5547259005","0.3925250542","","","","","","","","","","","","","","76","L","3","","","67","main_expt",""
"","bandit","147","475940","0.0-109.0-0.0","66778760","wem/bandit_party_2","A27F76XB3KS0W2","either","6","357","","","","","","","0","0","1","0.3884113518","","0.2","0.8","0.4","0.6","","","","","0.8536910832","0.4089949532","0.6038719492","0.3884113518","","","","","","","","","","76","L","3","","","68","main_expt",""
"","bandit","148","477819","0.0-110.0-0.0","66778760","wem/bandit_party_2","A27F76XB3KS0W2","either","6","364","","","","","","","0","1","0","","0.3434478979","0.2","0.8","0.4","0.6","0.8642538991","0.3749002533","0.6148283845","0.3434478979","","","","","","","","","","","","","","76","L","3","","","69","main_expt",""
"","bandit","149","479680","0.0-111.0-0.0","66778760","wem/bandit_party_2","A27F76XB3KS0W2","either","6","341","","","","","","","0","0","1","","0.4426642051","0.2","0.8","0.4","0.6","0.8073802352","0.4133869845","0.6683283761","0.4426642051","","","","","","","","","","","","","","76","L","3","","","70","main_expt",""
"","bandit","150","481509","0.0-112.0-0.0","66778760","wem/bandit_party_2","A27F76XB3KS0W2","either","6","312","","","","","","","1","0","0","0.4518046004","","0.2","0.8","0.4","0.6","","","","","0.8059201048","0.3302164541","0.738459761","0.4518046004","","","","","","","","","","76","L","3","","","71","main_expt",""
"","bandit","151","483413","0.0-113.0-0.0","66778760","wem/bandit_party_2","A27F76XB3KS0W2","either","6","388","","","","","","","1","0","0","0.4903223245","","0.2","0.8","0.4","0.6","","","","","0.8262275011","0.2570952275","0.6525166508","0.4903223245","","","","","","","","","","76","L","3","","","72","main_expt",""
"","bandit","152","485308","0.0-114.0-0.0","66778760","wem/bandit_party_2","A27F76XB3KS0W2","either","6","380","","","","","","","0","0","1","0.5296083002","","0.2","0.8","0.4","0.6","","","","","0.7334390718","0.2042885023","0.5715134512","0.5296083002","","","","","","","","","","76","L","3","","","73","main_expt",""
"","bandit","153","487235","0.0-115.0-0.0","66778760","wem/bandit_party_2","A27F76XB3KS0W2","either","6","412","","","","","","","0","1","0","","0.6228045854","0.2","0.8","0.4","0.6","0.7490977197","0.2152837516","0.6228045854","0.4883026933","","","","","","","","","","","","","","75","K","2","","","74","main_expt",""
"","bandit","154","489084","0.0-116.0-0.0","66778760","wem/bandit_party_2","A27F76XB3KS0W2","either","6","333","","","","","","","0","1","0","","0.613630376","0.2","0.8","0.4","0.6","0.7554087461","0.2044775694","0.613630376","0.4914171484","","","","","","","","","","","","","","75","K","2","","","75","main_expt",""
"","bandit","155","491076","0.0-117.0-0.0","66778760","wem/bandit_party_2","A27F76XB3KS0W2","either","6","474","","","","","","","0","1","0","","0.7047266053","0.2","0.8","0.4","0.6","0.804443878","0.2247613499","0.7047266053","0.6059218973","","","","","","","","","","","","","","75","K","2","","","76","main_expt",""
"","bandit","156","493260","0.0-118.0-0.0","66778760","wem/bandit_party_2","A27F76XB3KS0W2","either","6","666","","","","","","","0","1","0","","0.6910360943","0.2","0.8","0.4","0.6","0.6656620098","0.2266335256","0.6910360943","0.553792366","","","","","","","","","","","","","","75","K","2","","","77","main_expt",""
"","bandit","157","495179","0.0-119.0-0.0","66778760","wem/bandit_party_2","A27F76XB3KS0W2","either","6","404","","","","","","","0","0","1","","0.5515992215","0.2","0.8","0.4","0.6","0.5898140708","0.1659731505","0.5515992215","0.6884193839","","","","","","","","","","","","","","75","K","2","","","78","main_expt",""
"","bandit","158","497060","0.0-120.0-0.0","66778760","wem/bandit_party_2","A27F76XB3KS0W2","either","6","364","","","","","","","1","0","0","0.6448399581","","0.2","0.8","0.4","0.6","","","","","0.613215191","0.2343921172","0.6448399581","0.7214277645","","","","","","","","","","75","K","2","","","79","main_expt",""
"","bandit","159","499027","0.0-121.0-0.0","66778760","wem/bandit_party_2","A27F76XB3KS0W2","either","6","450","","","","","","","1","0","0","0.739479497","","0.2","0.8","0.4","0.6","","","","","0.4605925783","0.2164054515","0.739479497","0.7328142644","","","","","","","","","","75","K","2","","","80","main_expt",""
"","bandit","160","500931","0.0-122.0-0.0","66778760","wem/bandit_party_2","A27F76XB3KS0W2","either","6","388","","","","","","","0","0","1","","0.6956071838","0.2","0.8","0.4","0.6","0.5390789087","0.1361232007","0.6956071838","0.7101675561","","","","","","","","","","","","","","75","K","2","","","81","main_expt",""
"","bandit","161","502779","0.0-123.0-0.0","66778760","wem/bandit_party_2","A27F76XB3KS0W2","either","6","332","","","","","","","1","0","0","0.5886517937","","0.2","0.8","0.4","0.6","","","","","0.621290364","0.2275447725","0.5886517937","0.6984384541","","","","","","","","","","75","K","2","","","82","main_expt",""
"","bandit","162","504570","0.0-124.0-0.0","66778760","wem/bandit_party_2","A27F76XB3KS0W2","either","6","276","","","","","","","0","0","1","","0.4764182235","0.2","0.8","0.4","0.6","0.6359424421","0.1900607051","0.4764182235","0.7447883659","","","","","","","","","","","","","","75","K","2","","","83","main_expt",""
"","bandit","163","506371","0.0-125.0-0.0","66778760","wem/bandit_party_2","A27F76XB3KS0W2","either","6","285","","","","","","","0","1","0","","0.5149027494","0.2","0.8","0.4","0.6","0.6133664729","0.1306868958","0.5149027494","0.6900592863","","","","","","","","","","","","","","75","K","2","","","84","main_expt",""
"","bandit","164","508147","0.0-126.0-0.0","66778760","wem/bandit_party_2","A27F76XB3KS0W2","either","6","260","","","","","","","0","0","1","","0.4908067213","0.2","0.8","0.4","0.6","0.7815463305","0.1683201849","0.4908067213","0.7010597455","","","","","","","","","","","","","","75","K","2","","","85","main_expt",""
"","bandit","165","509996","0.0-127.0-0.0","66778760","wem/bandit_party_2","A27F76XB3KS0W2","either","6","332","","","","","","","0","1","0","","0.4139472458","0.2","0.8","0.4","0.6","0.7355789231","0.1290314955","0.4139472458","0.6171062652","","","","","","","","","","","","","","75","K","2","","","86","main_expt",""
"","bandit","166","511804","0.0-128.0-0.0","66778760","wem/bandit_party_2","A27F76XB3KS0W2","either","6","291","","","","","","","0","0","1","","0.4253818619","0.2","0.8","0.4","0.6","0.7267399876","0.2297537383","0.4253818619","0.5629375242","","","","","","","","","","","","","","75","K","2","","","87","main_expt",""
"","bandit","167","513612","0.0-129.0-0.0","66778760","wem/bandit_party_2","A27F76XB3KS0W2","either","6","291","","","","","","","0","0","1","0.4448862761","","0.2","0.8","0.4","0.6","","","","","0.7703195612","0.1878263516","0.4448862761","0.6434443074","","","","","","","","","","75","K","2","","","88","main_expt",""
"","bandit","168","515435","0.0-130.0-0.0","66778760","wem/bandit_party_2","A27F76XB3KS0W2","either","6","307","","","","","","","0","0","1","0.4295642349","","0.2","0.8","0.4","0.6","","","","","0.81872988","0.1896964823","0.4295642349","0.7296698787","","","","","","","","","","75","K","2","","","89","main_expt",""
"","bandit","169","517435","0.0-131.0-0.0","66778760","wem/bandit_party_2","A27F76XB3KS0W2","either","6","484","","","","","","","1","0","0","0.8032570632","","0.2","0.8","0.4","0.6","","","","","0.8032570632","0.1614970172","0.3655203192","0.7042864347","","","","","","","","","","72","H","0","img/none_selected.jpg","","90","main_expt",""
"","bandit","170","519491","0.0-132.0-0.0","66778760","wem/bandit_party_2","A27F76XB3KS0W2","either","6","540","","","","","","","1","0","0","0.8257352781","","0.2","0.8","0.4","0.6","","","","","0.8257352781","0.2107705911","0.402428746","0.7606559624","","","","","","","","","","72","H","0","img/none_selected.jpg","","91","main_expt",""
"","bandit","171","521483","0.0-133.0-0.0","66778760","wem/bandit_party_2","A27F76XB3KS0W2","either","6","475","","","","","","","1","0","0","0.7762210657","","0.2","0.8","0.4","0.6","","","","","0.7762210657","0.1317951273","0.452733603","0.8466818248","","","","","","","","","","72","H","0","img/none_selected.jpg","","92","main_expt",""
"","bandit","172","523763","0.0-134.0-0.0","66778760","wem/bandit_party_2","A27F76XB3KS0W2","either","6","764","","","","","","","0","0","1","","0.8293629201","0.2","0.8","0.4","0.6","0.8293629201","0.09268613222","0.5416456901","0.8181600593","","","","","","","","","","","","","","72","H","0","img/none_selected.jpg","","93","main_expt",""
"","bandit","173","525810","0.0-135.0-0.0","66778760","wem/bandit_party_2","A27F76XB3KS0W2","either","6","531","","","","","","","0","1","0","","0.7849393417","0.2","0.8","0.4","0.6","0.7849393417","0.06418168538","0.5246039132","0.7259749053","","","","","","","","","","","","","","72","H","0","img/none_selected.jpg","","94","main_expt",""
"","bandit","174","527939","0.0-136.0-0.0","66778760","wem/bandit_party_2","A27F76XB3KS0W2","either","6","612","","","","","","","0","0","1","0.7850226125","","0.2","0.8","0.4","0.6","","","","","0.7850226125","0.100072779","0.606801291","0.6538641892","","","","","","","","","","72","H","0","img/none_selected.jpg","","95","main_expt",""
"","bandit","175","529900","0.0-137.0-0.0","66778760","wem/bandit_party_2","A27F76XB3KS0W2","either","6","443","","","","","","","0","0","1","","0.8013150942","0.2","0.8","0.4","0.6","0.8013150942","0.09628221604","0.7175242067","0.6384360591","","","","","","","","","","","","","","72","H","0","img/none_selected.jpg","","96","main_expt",""
"","bandit","176","531755","0.0-138.0-0.0","66778760","wem/bandit_party_2","A27F76XB3KS0W2","either","6","337","","","","","","","0","0","1","0.70340399","","0.2","0.8","0.4","0.6","","","","","0.70340399","0.1335622201","0.7706560561","0.6836118029","","","","","","","","","","72","H","0","img/none_selected.jpg","","97","main_expt",""
"","bandit","177","533881","0.0-139.0-0.0","66778760","wem/bandit_party_2","A27F76XB3KS0W2","either","6","611","","","","","","","0","0","1","","0.167202632","0.2","0.8","0.4","0.6","0.7562517051","0.167202632","0.7234704616","0.659457158","","","","","","","","","","","","","","74","J","1","","","98","main_expt",""
"","bandit","178","535963","0.0-140.0-0.0","66778760","wem/bandit_party_2","A27F76XB3KS0W2","either","6","564","","","","","","","0","0","1","0.1216125457","","0.2","0.8","0.4","0.6","","","","","0.6514659141","0.1216125457","0.6582042781","0.7726162223","","","","","","","","","","74","J","1","","","99","main_expt",""
"","bandit","179","537931","0.0-141.0-0.0","66778760","wem/bandit_party_2","A27F76XB3KS0W2","either","6","450","","","","","","","0","0","1","","0.1163239148","0.2","0.8","0.4","0.6","0.7112237606","0.1163239148","0.6530973887","0.8446518706","","","","","","","","","","","","","","74","J","1","","","100","main_expt",""
"","bandit","180","539843","0.0-142.0-0.0","66778760","wem/bandit_party_2","A27F76XB3KS0W2","either","6","395","","","","","","","1","0","0","0.6690961394","","0.2","0.8","0.4","0.6","","","","","0.6865981462","0.1037928869","0.6690961394","0.8784151442","","","","","","","","","","75","K","2","","","101","main_expt",""
"","bandit","181","541690","0.0-143.0-0.0","66778760","wem/bandit_party_2","A27F76XB3KS0W2","either","6","331","","","","","","","0","0","1","0.6268844929","","0.2","0.8","0.4","0.6","","","","","0.6663704066","0.0991068806","0.6268844929","0.8781202538","","","","","","","","","","75","K","2","","","102","main_expt",""
"","bandit","182","543491","0.0-144.0-0.0","66778760","wem/bandit_party_2","A27F76XB3KS0W2","either","6","283","","","","","","","0","1","0","","0.6657789595","0.2","0.8","0.4","0.6","0.6006744832","0.1226752409","0.6657789595","0.8123732176","","","","","","","","","","","","","","75","K","2","","","103","main_expt",""
"","bandit","183","545192","0.0-145.0-0.0","66778760","wem/bandit_party_2","A27F76XB3KS0W2","either","6","187","","","","","","","1","0","0","0.6951589836","","0.2","0.8","0.4","0.6","","","","","0.518723913","0.1552466415","0.6951589836","0.8461937008","","","","","","","","","","75","K","2","","","104","main_expt",""
"","bandit","184","547074","0.0-146.0-0.0","66778760","wem/bandit_party_2","A27F76XB3KS0W2","either","6","365","","","","","","","0","0","1","0.6382729445","","0.2","0.8","0.4","0.6","","","","","0.5343999165","0.1702138509","0.6382729445","0.8664825842","","","","","","","","","","75","K","2","","","105","main_expt",""
"","bandit","185","548906","0.0-147.0-0.0","66778760","wem/bandit_party_2","A27F76XB3KS0W2","either","6","315","","","","","","","0","1","0","","0.7139624249","0.2","0.8","0.4","0.6","0.4959998489","0.2021425125","0.7139624249","0.8703997655","","","","","","","","","","","","","","75","K","2","","","106","main_expt",""
"","bandit","186","550761","0.0-148.0-0.0","66778760","wem/bandit_party_2","A27F76XB3KS0W2","either","6","339","","","","","","","1","0","0","0.7718136471","","0.2","0.8","0.4","0.6","","","","","0.5052663648","0.2196373816","0.7718136471","0.8964314806","","","","","","","","","","75","K","2","","","107","main_expt",""
"","bandit","187","552610","0.0-149.0-0.0","66778760","wem/bandit_party_2","A27F76XB3KS0W2","either","6","332","","","","","","","1","0","0","0.8818715302","","0.2","0.8","0.4","0.6","","","","","0.4859582203","0.2393661099","0.8818715302","0.9080126319","","","","","","","","","","75","K","2","","","108","main_expt",""
"","bandit","188","554458","0.0-150.0-0.0","66778760","wem/bandit_party_2","A27F76XB3KS0W2","either","6","331","","","","","","","0","1","0","","0.8757741924","0.2","0.8","0.4","0.6","0.523617738","0.2516352594","0.8757741924","0.8880845243","","","","","","","","","","","","","","75","K","2","","","109","main_expt",""
"","bandit","189","556282","0.0-151.0-0.0","66778760","wem/bandit_party_2","A27F76XB3KS0W2","either","6","307","","","","","","","0","1","0","","0.8657151097","0.2","0.8","0.4","0.6","0.5492010791","0.2424291788","0.8657151097","0.899251136","","","","","","","","","","","","","","75","K","2","","","110","main_expt",""
"","bandit","190","558058","0.0-152.0-0.0","66778760","wem/bandit_party_2","A27F76XB3KS0W2","either","6","259","","","","","","","0","1","0","","0.8457624762","0.2","0.8","0.4","0.6","0.5467154696","0.2033086481","0.8457624762","0.9019514556","","","","","","","","","","","","","","75","K","2","","","111","main_expt",""
"","bandit","191","559899","0.0-153.0-0.0","66778760","wem/bandit_party_2","A27F76XB3KS0W2","either","6","323","","","","","","","0","1","0","","0.8756116827","0.2","0.8","0.4","0.6","0.5396215981","0.208613213","0.8756116827","0.9315537639","","","","","","","","","","","","","","75","K","2","","","112","main_expt",""
"","bandit","192","561715","0.0-154.0-0.0","66778760","wem/bandit_party_2","A27F76XB3KS0W2","either","6","299","","","","","","","0","1","0","","0.8773181328","0.2","0.8","0.4","0.6","0.5542875214","0.2743958833","0.8773181328","0.9254394702","","","","","","","","","","","","","","75","K","2","","","113","main_expt",""
"","bandit","193","563547","0.0-155.0-0.0","66778760","wem/bandit_party_2","A27F76XB3KS0W2","either","6","314","","","","","","","0","1","0","","0.8842236373","0.2","0.8","0.4","0.6","0.6411428718","0.2657329006","0.8842236373","0.9394904604","","","","","","","","","","","","","","75","K","2","","","114","main_expt",""
"","bandit","194","565411","0.0-156.0-0.0","66778760","wem/bandit_party_2","A27F76XB3KS0W2","either","6","345","","","","","","","1","0","0","0.8499121835","","0.2","0.8","0.4","0.6","","","","","0.7261400339","0.3234316928","0.8499121835","0.9533355239","","","","","","","","","","75","K","2","","","115","main_expt",""
"","bandit","195","567226","0.0-157.0-0.0","66778760","wem/bandit_party_2","A27F76XB3KS0W2","either","6","297","","","","","","","0","1","0","","0.7890056153","0.2","0.8","0.4","0.6","0.7395407697","0.3625587123","0.7890056153","0.960842596","","","","","","","","","","","","","","75","K","2","","","116","main_expt",""
"","bandit","196","569075","0.0-158.0-0.0","66778760","wem/bandit_party_2","A27F76XB3KS0W2","either","6","330","","","","","","","0","0","1","0.7709890197","","0.2","0.8","0.4","0.6","","","","","0.8231731708","0.4946904956","0.7709890197","0.937733065","","","","","","","","","","75","K","2","","","117","main_expt",""
"","bandit","197","570793","0.0-159.0-0.0","66778760","wem/bandit_party_2","A27F76XB3KS0W2","either","6","201","","","","","","","0","1","0","","0.7459937787","0.2","0.8","0.4","0.6","0.8278750807","0.6246330079","0.7459937787","0.9561499645","","","","","","","","","","","","","","75","K","2","","","118","main_expt",""
"","bandit","198","572617","0.0-160.0-0.0","66778760","wem/bandit_party_2","A27F76XB3KS0W2","either","6","306","","","","","","","0","0","1","0.716881491","","0.2","0.8","0.4","0.6","","","","","0.8715827524","0.5818097722","0.716881491","0.9595118281","","","","","","","","","","75","K","2","","","119","main_expt",""
"","bandit","199","574416","0.0-161.0-0.0","66778760","wem/bandit_party_2","A27F76XB3KS0W2","either","6","283","","","","","","","0","0","1","0.6595649419","","0.2","0.8","0.4","0.6","","","","","0.8522670476","0.5990025551","0.6595649419","0.9548463758","","","","","","","","","","75","K","2","","","120","main_expt",""
"","bandit","200","576193","0.0-162.0-0.0","66778760","wem/bandit_party_2","A27F76XB3KS0W2","either","6","258","","","","","","","0","0","1","0.6576447048","","0.2","0.8","0.4","0.6","","","","","0.8266542562","0.6534424477","0.6576447048","0.958085665","","","","","","","","","","75","K","2","","","121","main_expt",""
"","bandit","201","578049","0.0-163.0-0.0","66778760","wem/bandit_party_2","A27F76XB3KS0W2","either","6","338","","","","","","","0","1","0","","0.9630601427","0.2","0.8","0.4","0.6","0.81688531","0.5952731017","0.6391957719","0.9630601427","","","","","","","","","","","","","","76","L","3","","","122","main_expt",""
"","bandit","202","579946","0.0-164.0-0.0","66778760","wem/bandit_party_2","A27F76XB3KS0W2","either","6","379","","","","","","","1","0","0","0.9790283764","","0.2","0.8","0.4","0.6","","","","","0.8307363081","0.6469086187","0.5873908865","0.9790283764","","","","","","","","","","76","L","3","","","123","main_expt",""
"","bandit","203","581729","0.0-165.0-0.0","66778760","wem/bandit_party_2","A27F76XB3KS0W2","either","6","266","","","","","","","1","0","0","0.9718765302","","0.2","0.8","0.4","0.6","","","","","0.6943824695","0.6911454426","0.6592760984","0.9718765302","","","","","","","","","","76","L","3","","","124","main_expt",""
"","bandit","204","583537","0.0-166.0-0.0","66778760","wem/bandit_party_2","A27F76XB3KS0W2","either","6","290","","","","","","","0","1","0","","0.9845173964","0.2","0.8","0.4","0.6","0.7137568944","0.750572215","0.6012083746","0.9845173964","","","","","","","","","","","","","","76","L","3","","","125","main_expt",""
"","bandit","205","586664","0.0-167.0-0.0","66778760","wem/bandit_party_2","A27F76XB3KS0W2","either","6","1611","","","","","","","1","0","0","0.9804670004","","0.2","0.8","0.4","0.6","","","","","0.6878742658","0.8108432581","0.6043440275","0.9804670004","","","","","","","","","","76","L","3","","","126","main_expt",""
"","bandit","206","588528","0.0-168.0-0.0","66778760","wem/bandit_party_2","A27F76XB3KS0W2","either","6","347","","","","","","","1","0","0","0.9792667249","","0.2","0.8","0.4","0.6","","","","","0.6175454059","0.8338196277","0.5043142332","0.9792667249","","","","","","","","","","76","L","3","","","127","main_expt",""
"","bandit","207","590337","0.0-169.0-0.0","66778760","wem/bandit_party_2","A27F76XB3KS0W2","either","6","291","","","","","","","0","1","0","","0.9853815399","0.2","0.8","0.4","0.6","0.5556505876","0.8624128669","0.5778209799","0.9853815399","","","","","","","","","","","","","","76","L","3","","","128","main_expt",""
"","bandit","208","592152","0.0-170.0-0.0","66778760","wem/bandit_party_2","A27F76XB3KS0W2","either","6","298","","","","","","","1","0","0","0.9838319732","","0.2","0.8","0.4","0.6","","","","","0.5948532478","0.9026068167","0.5806273004","0.9838319732","","","","","","","","","","76","L","3","","","129","main_expt",""
"","bandit","209","594097","0.0-171.0-0.0","66778760","wem/bandit_party_2","A27F76XB3KS0W2","either","6","427","","","","","","","0","1","0","","0.9798768453","0.2","0.8","0.4","0.6","0.6646968067","0.8983636673","0.4152233618","0.9798768453","","","","","","","","","","","","","","76","L","3","","","130","main_expt",""
"","bandit","210","595977","0.0-172.0-0.0","66778760","wem/bandit_party_2","A27F76XB3KS0W2","either","6","363","","","","","","","1","0","0","0.9628017066","","0.2","0.8","0.4","0.6","","","","","0.6676177377","0.888478962","0.4527057242","0.9628017066","","","","","","","","","","76","L","3","","","131","main_expt",""
"","bandit","211","597793","0.0-173.0-0.0","66778760","wem/bandit_party_2","A27F76XB3KS0W2","either","6","299","","","","","","","1","0","0","0.9723970119","","0.2","0.8","0.4","0.6","","","","","0.7638630926","0.8470567254","0.5185753891","0.9723970119","","","","","","","","","","76","L","3","","","132","main_expt",""
"","bandit","212","599673","0.0-174.0-0.0","66778760","wem/bandit_party_2","A27F76XB3KS0W2","either","6","362","","","","","","","0","1","0","","0.9754432393","0.2","0.8","0.4","0.6","0.726350598","0.8852081265","0.4567386081","0.9754432393","","","","","","","","","","","","","","76","L","3","","","133","main_expt",""
"","bandit","213","601504","0.0-175.0-0.0","66778760","wem/bandit_party_2","A27F76XB3KS0W2","either","6","314","","","","","","","1","0","0","0.9635376407","","0.2","0.8","0.4","0.6","","","","","0.7638059904","0.8317422298","0.4494056808","0.9635376407","","","","","","","","","","76","L","3","","","134","main_expt",""
"","bandit","214","603329","0.0-176.0-0.0","66778760","wem/bandit_party_2","A27F76XB3KS0W2","either","6","306","","","","","","","1","0","0","0.9304273523","","0.2","0.8","0.4","0.6","","","","","0.7337835984","0.8121858422","0.4608562393","0.9304273523","","","","","","","","","","76","L","3","","","135","main_expt",""
"","bandit","215","605105","0.0-177.0-0.0","66778760","wem/bandit_party_2","A27F76XB3KS0W2","either","6","257","","","","","","","0","1","0","","0.9295592062","0.2","0.8","0.4","0.6","0.7869055623","0.8473276522","0.6684020244","0.9295592062","","","","","","","","","","","","","","76","L","3","","","136","main_expt",""
"","bandit","216","606897","0.0-178.0-0.0","66778760","wem/bandit_party_2","A27F76XB3KS0W2","either","6","274","","","","","","","0","1","0","","0.9343332129","0.2","0.8","0.4","0.6","0.8033651193","0.8251243182","0.614137061","0.9343332129","","","","","","","","","","","","","","76","L","3","","","137","main_expt",""
"","bandit","217","608744","0.0-179.0-0.0","66778760","wem/bandit_party_2","A27F76XB3KS0W2","either","6","329","","","","","","","0","1","0","","0.9325781127","0.2","0.8","0.4","0.6","0.7620089345","0.7892590299","0.711021659","0.9325781127","","","","","","","","","","","","","","76","L","3","","","138","main_expt",""
"","bandit","218","610632","0.0-180.0-0.0","66778760","wem/bandit_party_2","A27F76XB3KS0W2","either","6","370","","","","","","","0","0","1","0.9687763229","","0.2","0.8","0.4","0.6","","","","","0.8098853196","0.753698647","0.5731932267","0.9687763229","","","","","","","","","","76","L","3","","","139","main_expt",""
"","bandit","219","612376","0.0-181.0-0.0","66778760","wem/bandit_party_2","A27F76XB3KS0W2","either","6","226","","","","","","","0","1","0","","0.9520204639","0.2","0.8","0.4","0.6","0.8737133651","0.7281837229","0.6553783698","0.9520204639","","","","","","","","","","","","","","76","L","3","","","140","main_expt",""
"","bandit","220","614200","0.0-182.0-0.0","66778760","wem/bandit_party_2","A27F76XB3KS0W2","either","6","306","","","","","","","0","1","0","","0.9615613541","0.2","0.8","0.4","0.6","0.8464817719","0.7913145473","0.5665224918","0.9615613541","","","","","","","","","","","","","","76","L","3","","","141","main_expt",""
"","bandit","221","615910","0.0-183.0-0.0","66778760","wem/bandit_party_2","A27F76XB3KS0W2","either","6","194","","","","","","","1","0","0","0.9438722422","","0.2","0.8","0.4","0.6","","","","","0.8457688645","0.7498898283","0.5230460729","0.9438722422","","","","","","","","","","76","L","3","","","142","main_expt",""
"","bandit","222","617752","0.0-184.0-0.0","66778760","wem/bandit_party_2","A27F76XB3KS0W2","either","6","324","","","","","","","1","0","0","0.9419241064","","0.2","0.8","0.4","0.6","","","","","0.8801682128","0.723110339","0.5401897842","0.9419241064","","","","","","","","","","76","L","3","","","143","main_expt",""
"","bandit","223","619568","0.0-185.0-0.0","66778760","wem/bandit_party_2","A27F76XB3KS0W2","either","6","298","","","","","","","0","1","0","","0.9383966058","0.2","0.8","0.4","0.6","0.7806105972","0.7697142539","0.5495292383","0.9383966058","","","","","","","","","","","","","","76","L","3","","","144","main_expt",""
"","bandit","224","621385","0.0-186.0-0.0","66778760","wem/bandit_party_2","A27F76XB3KS0W2","either","6","298","","","","","","","1","0","0","0.9442204223","","0.2","0.8","0.4","0.6","","","","","0.7384744451","0.8279494337","0.4718854897","0.9442204223","","","","","","","","","","76","L","3","","","145","main_expt",""
"","bandit","225","623136","0.0-187.0-0.0","66778760","wem/bandit_party_2","A27F76XB3KS0W2","either","6","233","","","","","","","0","1","0","","0.9461270134","0.2","0.8","0.4","0.6","0.7078417075","0.747104877","0.3790577705","0.9461270134","","","","","","","","","","","","","","76","L","3","","","146","main_expt",""
"","bandit","226","624943","0.0-188.0-0.0","66778760","wem/bandit_party_2","A27F76XB3KS0W2","either","6","290","","","","","","","0","1","0","","0.9677113618","0.2","0.8","0.4","0.6","0.7671729372","0.7635883185","0.3671333747","0.9677113618","","","","","","","","","","","","","","76","L","3","","","147","main_expt",""
"","bandit","227","626759","0.0-189.0-0.0","66778760","wem/bandit_party_2","A27F76XB3KS0W2","either","6","299","","","","","","","1","0","0","0.9603287673","","0.2","0.8","0.4","0.6","","","","","0.7515071201","0.6650729927","0.4462771912","0.9603287673","","","","","","","","","","76","L","3","","","148","main_expt",""
"","bandit","228","628600","0.0-190.0-0.0","66778760","wem/bandit_party_2","A27F76XB3KS0W2","either","6","323","","","","","","","1","0","0","0.9256305183","","0.2","0.8","0.4","0.6","","","","","0.7582160768","0.594527628","0.3929125452","0.9256305183","","","","","","","","","","76","L","3","","","149","main_expt",""
"","bandit","229","630440","0.0-191.0-0.0","66778760","wem/bandit_party_2","A27F76XB3KS0W2","either","6","322","","","","","","","0","1","0","","0.9222609783","0.2","0.8","0.4","0.6","0.6843302658","0.5101412162","0.3825194633","0.9222609783","","","","","","","","","","","","","","76","L","3","","","150","main_expt",""
"","bandit","230","632289","0.0-192.0-0.0","66778760","wem/bandit_party_2","A27F76XB3KS0W2","either","6","330","","","","","","","1","0","0","0.9522131909","","0.2","0.8","0.4","0.6","","","","","0.4980827124","0.5755011036","0.3889652011","0.9522131909","","","","","","","","","","76","L","3","","","151","main_expt",""
"","bandit","231","634159","0.0-193.0-0.0","66778760","wem/bandit_party_2","A27F76XB3KS0W2","either","6","353","","","","","","","1","0","0","0.9351777179","","0.2","0.8","0.4","0.6","","","","","0.5418861514","0.5415628766","0.372169082","0.9351777179","","","","","","","","","","76","L","3","","","152","main_expt",""
"","bandit","232","635976","0.0-194.0-0.0","66778760","wem/bandit_party_2","A27F76XB3KS0W2","either","6","298","","","","","","","1","0","0","0.9526549669","","0.2","0.8","0.4","0.6","","","","","0.6424708626","0.6392888902","0.4275919172","0.9526549669","","","","","","","","","","76","L","3","","","153","main_expt",""
"","bandit","233","637832","0.0-195.0-0.0","66778760","wem/bandit_party_2","A27F76XB3KS0W2","either","6","337","","","","","","","0","1","0","","0.944677936","0.2","0.8","0.4","0.6","0.6200403258","0.6798835142","0.3978897223","0.944677936","","","","","","","","","","","","","","76","L","3","","","154","main_expt",""
"","bandit","234","639640","0.0-196.0-0.0","66778760","wem/bandit_party_2","A27F76XB3KS0W2","either","6","290","","","","","","","1","0","0","0.9443948233","","0.2","0.8","0.4","0.6","","","","","0.5087788092","0.7376683638","0.4922143253","0.9443948233","","","","","","","","","","76","L","3","","","155","main_expt",""
"","bandit","235","641512","0.0-197.0-0.0","66778760","wem/bandit_party_2","A27F76XB3KS0W2","either","6","353","","","","","","","1","0","0","0.9312029685","","0.2","0.8","0.4","0.6","","","","","0.4397360723","0.7740838489","0.5060601407","0.9312029685","","","","","","","","","","76","L","3","","","156","main_expt",""
"","bandit","236","643353","0.0-198.0-0.0","66778760","wem/bandit_party_2","A27F76XB3KS0W2","either","6","320","","","","","","","1","0","0","0.9009413449","","0.2","0.8","0.4","0.6","","","","","0.4529934193","0.7526352547","0.56460533","0.9009413449","","","","","","","","","","76","L","3","","","157","main_expt",""
"","bandit","237","645159","0.0-199.0-0.0","66778760","wem/bandit_party_2","A27F76XB3KS0W2","either","6","287","","","","","","","1","0","0","0.8799225656","","0.2","0.8","0.4","0.6","","","","","0.522014142","0.807066173","0.5551408743","0.8799225656","","","","","","","","","","76","L","3","","","158","main_expt",""
"","bandit","238","647047","0.0-200.0-0.0","66778760","wem/bandit_party_2","A27F76XB3KS0W2","either","6","369","","","","","","","0","1","0","","0.9103166083","0.2","0.8","0.4","0.6","0.447178695","0.8348587906","0.6362487126","0.9103166083","","","","","","","","","","","","","","76","L","3","","","159","main_expt",""
"","bandit","239","648903","0.0-201.0-0.0","66778760","wem/bandit_party_2","A27F76XB3KS0W2","either","6","337","","","","","","","1","0","0","0.9575168601","","0.2","0.8","0.4","0.6","","","","","0.4293784973","0.8054329593","0.5818198138","0.9575168601","","","","","","","","","","76","L","3","","","160","main_expt",""
"","bandit","240","650734","0.0-202.0-0.0","66778760","wem/bandit_party_2","A27F76XB3KS0W2","either","6","314","","","","","","","1","0","0","0.9323430526","","0.2","0.8","0.4","0.6","","","","","0.4263694152","0.8263011938","0.5079421761","0.9323430526","","","","","","","","","","76","L","3","","","161","main_expt",""
"","bandit","241","652414","0.0-203.0-0.0","66778760","wem/bandit_party_2","A27F76XB3KS0W2","either","6","163","","","","","","","0","0","1","0.8731035433","","0.2","0.8","0.4","0.6","","","","","0.4394756583","0.8468561623","0.3944353318","0.8731035433","","","","","","","","","","76","L","3","","","162","main_expt",""
"","bandit","242","654159","0.0-204.0-0.0","66778760","wem/bandit_party_2","A27F76XB3KS0W2","either","6","227","","","","","","","0","1","0","","0.860239847","0.2","0.8","0.4","0.6","0.4632532181","0.866861138","0.4560534757","0.860239847","","","","","","","","","","","","","","76","L","3","","","163","main_expt",""
"","bandit","243","655934","0.0-205.0-0.0","66778760","wem/bandit_party_2","A27F76XB3KS0W2","either","6","258","","","","","","","1","0","0","0.8327160304","","0.2","0.8","0.4","0.6","","","","","0.469091439","0.8621839131","0.4338988853","0.8327160304","","","","","","","","","","76","L","3","","","164","main_expt",""
"","bandit","244","657735","0.0-206.0-0.0","66778760","wem/bandit_party_2","A27F76XB3KS0W2","either","6","283","","","","","","","0","1","0","","0.8780399083","0.2","0.8","0.4","0.6","0.4691854483","0.8368369455","0.3640020004","0.8780399083","","","","","","","","","","","","","","76","L","3","","","165","main_expt",""
"","bandit","245","660447","0.0-207.0-0.0","66778760","wem/bandit_party_2","A27F76XB3KS0W2","either","6","1194","","","","","","","0","0","1","","0.8659509199","0.2","0.8","0.4","0.6","0.424594696","0.8543831227","0.4433911144","0.8659509199","","","","","","","","","","","","","","76","L","3","","","166","main_expt",""
"","bandit","246","662239","0.0-208.0-0.0","66778760","wem/bandit_party_2","A27F76XB3KS0W2","either","6","273","","","","","","","1","0","0","0.8458676595","","0.2","0.8","0.4","0.6","","","","","0.4691217736","0.8444257961","0.4852122499","0.8458676595","","","","","","","","","","76","L","3","","","167","main_expt",""
"","bandit","247","664127","0.0-209.0-0.0","66778760","wem/bandit_party_2","A27F76XB3KS0W2","either","6","370","","","","","","","0","0","1","0.7368025647","","0.2","0.8","0.4","0.6","","","","","0.4605946041","0.8895061166","0.4829488348","0.7368025647","","","","","","","","","","76","L","3","","","168","main_expt",""
"","bandit","248","665944","0.0-210.0-0.0","66778760","wem/bandit_party_2","A27F76XB3KS0W2","either","6","297","","","","","","","0","0","1","0.6811301937","","0.2","0.8","0.4","0.6","","","","","0.4302520818","0.8980662015","0.467087579","0.6811301937","","","","","","","","","","76","L","3","","","169","main_expt",""
"","bandit","249","667742","0.0-211.0-0.0","66778760","wem/bandit_party_2","A27F76XB3KS0W2","either","6","281","","","","","","","1","0","0","0.6781719117","","0.2","0.8","0.4","0.6","","","","","0.3846086554","0.9399190154","0.3575164989","0.6781719117","","","","","","","","","","76","L","3","","","170","main_expt",""
"","bandit","250","669759","0.0-212.0-0.0","66778760","wem/bandit_party_2","A27F76XB3KS0W2","either","6","499","","","","","","","1","0","0","0.5779776893","","0.2","0.8","0.4","0.6","","","","","0.4938912128","0.9199626721","0.3433755155","0.5779776893","","","","","","","","","","76","L","3","","","171","main_expt",""
"","bandit","251","671671","0.0-213.0-0.0","66778760","wem/bandit_party_2","A27F76XB3KS0W2","either","6","393","","","","","","","1","0","0","0.5461867433","","0.2","0.8","0.4","0.6","","","","","0.5409242696","0.8885959212","0.2921203137","0.5461867433","","","","","","","","","","76","L","3","","","172","main_expt",""
"","bandit","252","673525","0.0-214.0-0.0","66778760","wem/bandit_party_2","A27F76XB3KS0W2","either","6","337","","","","","","","0","0","1","0.5898781272","","0.2","0.8","0.4","0.6","","","","","0.4899310385","0.8502068985","0.3237382503","0.5898781272","","","","","","","","","","76","L","3","","","173","main_expt",""
"","bandit","253","675376","0.0-215.0-0.0","66778760","wem/bandit_party_2","A27F76XB3KS0W2","either","6","330","","","","","","","0","0","1","","0.5990225055","0.2","0.8","0.4","0.6","0.4464532747","0.9054067092","0.2935635685","0.5990225055","","","","","","","","","","","","","","76","L","3","","","174","main_expt",""
"","bandit","254","677167","0.0-216.0-0.0","66778760","wem/bandit_party_2","A27F76XB3KS0W2","either","6","271","","","","","","","0","0","1","0.6129624105","","0.2","0.8","0.4","0.6","","","","","0.4363040476","0.9096893241","0.2797951809","0.6129624105","","","","","","","","","","76","L","3","","","175","main_expt",""
"","bandit","255","679109","0.0-217.0-0.0","66778760","wem/bandit_party_2","A27F76XB3KS0W2","either","6","425","","","","","","","0","0","1","","0.4198776974","0.2","0.8","0.4","0.6","0.4198776974","0.9081003197","0.2067270565","0.5434192492","","","","","","","","","","","","","","72","H","0","img/none_selected.jpg","","176","main_expt",""
"","bandit","256","680942","0.0-218.0-0.0","66778760","wem/bandit_party_2","A27F76XB3KS0W2","either","6","314","","","","","","","0","0","1","","0.4001478854","0.2","0.8","0.4","0.6","0.4001478854","0.8417535431","0.19266164","0.5893108522","","","","","","","","","","","","","","72","H","0","img/none_selected.jpg","","177","main_expt",""
"","bandit","257","682758","0.0-219.0-0.0","66778760","wem/bandit_party_2","A27F76XB3KS0W2","either","6","297","","","","","","","0","0","1","","0.3015477047","0.2","0.8","0.4","0.6","0.3015477047","0.8045518304","0.1393448617","0.4862463398","","","","","","","","","","","","","","72","H","0","img/none_selected.jpg","","178","main_expt",""
"","bandit","258","685238","0.0-220.0-0.0","66778760","wem/bandit_party_2","A27F76XB3KS0W2","either","6","960","","","","","","","1","0","0","0.8250115846","","0.2","0.8","0.4","0.6","","","","","0.2700131006","0.8250115846","0.1149816072","0.4227787996","","","","","","","","","","74","J","1","","","179","main_expt",""
"","bandit","259","687150","0.0-221.0-0.0","66778760","wem/bandit_party_2","A27F76XB3KS0W2","either","6","393","","","","","","","0","0","1","","0.7418096358","0.2","0.8","0.4","0.6","0.3473069","0.7418096358","0.1231561222","0.3583368423","","","","","","","","","","","","","","74","J","1","","","180","main_expt",""
"","bandit","260","688934","0.0-222.0-0.0","66778760","wem/bandit_party_2","A27F76XB3KS0W2","either","6","265","","","","","","","0","0","1","0.7180260456","","0.2","0.8","0.4","0.6","","","","","0.3478804011","0.7180260456","0.1134989143","0.3820052134","","","","","","","","","","74","J","1","","","181","main_expt",""
"","bandit","261","690660","0.0-223.0-0.0","66778760","wem/bandit_party_2","A27F76XB3KS0W2","either","6","208","","","","","","","1","0","0","0.6777378447","","0.2","0.8","0.4","0.6","","","","","0.3304981007","0.6777378447","0.07317944644","0.437769555","","","","","","","","","","74","J","1","","","182","main_expt",""
"","bandit","262","692597","0.0-224.0-0.0","66778760","wem/bandit_party_2","A27F76XB3KS0W2","either","6","419","","","","","","","0","0","1","0.6331465848","","0.2","0.8","0.4","0.6","","","","","0.2578466268","0.6331465848","0.05085611098","0.3951330089","","","","","","","","","","74","J","1","","","183","main_expt",""
"","bandit","263","696031","0.0-225.0-0.0","66778760","wem/bandit_party_2","A27F76XB3KS0W2","either","6","1913","","","","","","","0","0","1","","0.6578519513","0.2","0.8","0.4","0.6","0.3550464129","0.6578519513","0.07152820202","0.4062376343","","","","","","","","","","","","","","74","J","1","","","184","main_expt",""
"","bandit","264","697895","0.0-226.0-0.0","66778760","wem/bandit_party_2","A27F76XB3KS0W2","either","6","343","","","","","","","1","0","0","0.7160298793","","0.2","0.8","0.4","0.6","","","","","0.2993299556","0.7160298793","0.08814522307","0.4035727276","","","","","","","","","","74","J","1","","","185","main_expt",""
"","bandit","265","699766","0.0-227.0-0.0","66778760","wem/bandit_party_2","A27F76XB3KS0W2","either","6","352","","","","","","","0","0","1","0.7081703269","","0.2","0.8","0.4","0.6","","","","","0.3985972224","0.7081703269","0.0931487442","0.4595565904","","","","","","","","","","74","J","1","","","186","main_expt",""
"","bandit","266","701686","0.0-228.0-0.0","66778760","wem/bandit_party_2","A27F76XB3KS0W2","either","6","401","","","","","","","0","0","1","0.7670757258","","0.2","0.8","0.4","0.6","","","","","0.4563810555","0.7670757258","0.05847154344","0.4956959756","","","","","","","","","","74","J","1","","","187","main_expt",""
"","bandit","267","703525","0.0-229.0-0.0","66778760","wem/bandit_party_2","A27F76XB3KS0W2","either","6","321","","","","","","","0","1","0","","0.7986884496","0.2","0.8","0.4","0.6","0.4621092719","0.7986884496","0.05005107021","0.4295585103","","","","","","","","","","","","","","74","J","1","","","188","main_expt",""
"","bandit","268","705358","0.0-230.0-0.0","66778760","wem/bandit_party_2","A27F76XB3KS0W2","either","6","314","","","","","","","1","0","0","0.8113194514","","0.2","0.8","0.4","0.6","","","","","0.4214675273","0.8113194514","0.05158958255","0.4121259827","","","","","","","","","","74","J","1","","","189","main_expt",""
"","bandit","269","707213","0.0-231.0-0.0","66778760","wem/bandit_party_2","A27F76XB3KS0W2","either","6","336","","","","","","","0","1","0","","0.8311477635","0.2","0.8","0.4","0.6","0.4445162903","0.8311477635","0.0530996007","0.40505342","","","","","","","","","","","","","","74","J","1","","","190","main_expt",""
"","bandit","270","709054","0.0-232.0-0.0","66778760","wem/bandit_party_2","A27F76XB3KS0W2","either","6","321","","","","","","","0","0","1","0.7941336253","","0.2","0.8","0.4","0.6","","","","","0.4077799102","0.7941336253","0.05342003941","0.3671493273","","","","","","","","","","74","J","1","","","191","main_expt",""
"","bandit","271","712309","0.0-233.0-0.0","66778760","wem/bandit_party_2","A27F76XB3KS0W2","either","6","1736","","","","","","","0","0","1","0.841847859","","0.2","0.8","0.4","0.6","","","","","0.413117206","0.841847859","0.05264216412","0.3367263454","","","","","","","","","","74","J","1","","","192","main_expt",""
"","bandit","272","714118","0.0-234.0-0.0","66778760","wem/bandit_party_2","A27F76XB3KS0W2","either","6","289","","","","","","","1","0","0","0.865127625","","0.2","0.8","0.4","0.6","","","","","0.374663265","0.865127625","0.07418965368","0.2587514209","","","","","","","","","","74","J","1","","","193","main_expt",""
"","bandit","273","716037","0.0-235.0-0.0","66778760","wem/bandit_party_2","A27F76XB3KS0W2","either","6","400","","","","","","","0","1","0","","0.8369883383","0.2","0.8","0.4","0.6","0.2792309937","0.8369883383","0.1148515542","0.2123696513","","","","","","","","","","","","","","74","J","1","","","194","main_expt",""
"","bandit","274","717846","0.0-236.0-0.0","66778760","wem/bandit_party_2","A27F76XB3KS0W2","either","6","288","","","","","","","1","0","0","0.8226177272","","0.2","0.8","0.4","0.6","","","","","0.3090424304","0.8226177272","0.1102075851","0.2551117677","","","","","","","","","","74","J","1","","","195","main_expt",""
"","bandit","275","719709","0.0-237.0-0.0","66778760","wem/bandit_party_2","A27F76XB3KS0W2","either","6","344","","","","","","","0","0","1","0.8759919892","","0.2","0.8","0.4","0.6","","","","","0.2254203465","0.8759919892","0.09307195637","0.2948177706","","","","","","","","","","74","J","1","","","196","main_expt",""
"","bandit","276","721557","0.0-238.0-0.0","66778760","wem/bandit_party_2","A27F76XB3KS0W2","either","6","328","","","","","","","0","0","1","0.08341332984","","0.2","0.8","0.4","0.6","","","","","0.2104085952","0.9413038234","0.08341332984","0.2864074111","","","","","","","","","","75","K","2","","","197","main_expt",""
"","bandit","277","723325","0.0-239.0-0.0","66778760","wem/bandit_party_2","A27F76XB3KS0W2","either","6","248","","","","","","","0","0","1","","0.06206278739","0.2","0.8","0.4","0.6","0.1686499416","0.9384937307","0.06206278739","0.3044962429","","","","","","","","","","","","","","75","K","2","","","198","main_expt",""
"","bandit","278","725158","0.0-240.0-0.0","66778760","wem/bandit_party_2","A27F76XB3KS0W2","either","6","313","","","","","","","0","0","1","","0.1015706687","0.2","0.8","0.4","0.6","0.1696058054","0.927250614","0.1015706687","0.2804127106","","","","","","","","","","","","","","75","K","2","","","199","main_expt",""
"","bandit","279","727092","0.0-241.0-0.0","66778760","wem/bandit_party_2","A27F76XB3KS0W2","either","6","416","","","","","","","1","0","0","0.8840406778","","0.2","0.8","0.4","0.6","","","","","0.1940139532","0.8840406778","0.07348353789","0.3151112274","","","","","","","","","","74","J","1","","","200","main_expt",""
"","bandit","280","728964","0.0-242.0-0.0","66778760","wem/bandit_party_2","A27F76XB3KS0W2","either","6","353","","","","","","","0","1","0","","0.8866639954","0.2","0.8","0.4","0.6","0.2384341862","0.8866639954","0.09218994405","0.3124471347","","","","","","","","","","","","","","74","J","1","","","201","main_expt",""
"","bandit","281","730821","0.0-243.0-0.0","66778760","wem/bandit_party_2","A27F76XB3KS0W2","either","6","337","","","","","","","1","0","0","0.8188103646","","0.2","0.8","0.4","0.6","","","","","0.2069173963","0.8188103646","0.1662378481","0.3418115628","","","","","","","","","","74","J","1","","","202","main_expt",""
"","bandit","282","732661","0.0-244.0-0.0","66778760","wem/bandit_party_2","A27F76XB3KS0W2","either","6","319","","","","","","","1","0","0","0.8026106274","","0.2","0.8","0.4","0.6","","","","","0.2502389624","0.8026106274","0.1808123801","0.2676578736","","","","","","","","","","74","J","1","","","203","main_expt",""
"","bandit","283","734483","0.0-245.0-0.0","66778760","wem/bandit_party_2","A27F76XB3KS0W2","either","6","304","","","","","","","0","1","0","","0.6613987003","0.2","0.8","0.4","0.6","0.2226806","0.6613987003","0.2011980288","0.2513587973","","","","","","","","","","","","","","74","J","1","","","204","main_expt",""
"","bandit","284","736645","0.0-246.0-0.0","66778760","wem/bandit_party_2","A27F76XB3KS0W2","either","6","642","","","","","","","0","0","1","","0.7402115251","0.2","0.8","0.4","0.6","0.2327973494","0.7402115251","0.1877492959","0.2733703365","","","","","","","","","","","","","","74","J","1","","","205","main_expt",""
"","bandit","285","738260","0.0-247.0-0.0","66778760","wem/bandit_party_2","A27F76XB3KS0W2","either","6","97","","","","","","","0","1","0","","0.6792505986","0.2","0.8","0.4","0.6","0.3134624789","0.6792505986","0.1891298069","0.3212331514","","","","","","","","","","","","","","74","J","1","","","206","main_expt",""
"","bandit","286","740260","0.0-248.0-0.0","66778760","wem/bandit_party_2","A27F76XB3KS0W2","either","6","482","","","","","","","1","0","0","0.6510378203","","0.2","0.8","0.4","0.6","","","","","0.3808856429","0.6510378203","0.2092890992","0.3381772831","","","","","","","","","","74","J","1","","","207","main_expt",""
"","bandit","287","741949","0.0-249.0-0.0","66778760","wem/bandit_party_2","A27F76XB3KS0W2","either","6","170","","","","","","","0","0","1","","0.5971377862","0.2","0.8","0.4","0.6","0.318509643","0.5971377862","0.2563161799","0.2370260631","","","","","","","","","","","","","","74","J","1","","","208","main_expt",""
"","bandit","288","743571","0.0-250.0-0.0","66778760","wem/bandit_party_2","A27F76XB3KS0W2","either","6","104","","","","","","","0","0","1","0.6040603887","","0.2","0.8","0.4","0.6","","","","","0.2932847295","0.6040603887","0.2643940457","0.2157004535","","","","","","","","","","74","J","1","","","209","main_expt",""
"","bandit","289","745298","0.0-251.0-0.0","66778760","wem/bandit_party_2","A27F76XB3KS0W2","either","6","210","","","","","","","1","0","0","0.7794442159","","0.2","0.8","0.4","0.6","","","","","0.2230023122","0.7794442159","0.2710870001","0.2655169153","","","","","","","","","","74","J","1","","","210","main_expt",""
"","bandit","290","747092","0.0-252.0-0.0","66778760","wem/bandit_party_2","A27F76XB3KS0W2","either","6","275","","","","","","","0","0","1","0.8397026392","","0.2","0.8","0.4","0.6","","","","","0.1899351836","0.8397026392","0.2056380183","0.2359505063","","","","","","","","","","74","J","1","","","211","main_expt",""
"","bandit","291","748981","0.0-253.0-0.0","66778760","wem/bandit_party_2","A27F76XB3KS0W2","either","6","368","","","","","","","1","0","0","0.7883870126","","0.2","0.8","0.4","0.6","","","","","0.2593929449","0.7883870126","0.2487045614","0.2431981852","","","","","","","","","","74","J","1","","","212","main_expt",""
"","bandit","292","750708","0.0-254.0-0.0","66778760","wem/bandit_party_2","A27F76XB3KS0W2","either","6","208","","","","","","","1","0","0","0.7160446845","","0.2","0.8","0.4","0.6","","","","","0.2304425673","0.7160446845","0.3520378668","0.3385658967","","","","","","","","","","74","J","1","","","213","main_expt",""
"","bandit","293","752532","0.0-255.0-0.0","66778760","wem/bandit_party_2","A27F76XB3KS0W2","either","6","304","","","","","","","1","0","0","0.7501162241","","0.2","0.8","0.4","0.6","","","","","0.2849244028","0.7501162241","0.3455661114","0.445002088","","","","","","","","","","74","J","1","","","214","main_expt",""
"","bandit","294","754342","0.0-256.0-0.0","66778760","wem/bandit_party_2","A27F76XB3KS0W2","either","6","286","","","","","","","1","0","0","0.7574589115","","0.2","0.8","0.4","0.6","","","","","0.3184819088","0.7574589115","0.3290646698","0.4340580748","","","","","","","","","","74","J","1","","","215","main_expt",""
"","bandit","295","756389","0.0-257.0-0.0","66778760","wem/bandit_party_2","A27F76XB3KS0W2","either","6","520","","","","","","","1","0","0","0.7376674805","","0.2","0.8","0.4","0.6","","","","","0.2989728513","0.7376674805","0.2737258078","0.3996931216","","","","","","","","","","74","J","1","","","216","main_expt",""
"","bandit","296","758220","0.0-258.0-0.0","66778760","wem/bandit_party_2","A27F76XB3KS0W2","either","6","312","","","","","","","0","1","0","","0.67262171","0.2","0.8","0.4","0.6","0.5538830624","0.67262171","0.2401291484","0.453570069","","","","","","","","","","","","","","74","J","1","","","217","main_expt",""
"","bandit","297","759997","0.0-259.0-0.0","66778760","wem/bandit_party_2","A27F76XB3KS0W2","either","6","256","","","","","","","0","1","0","","0.6309662891","0.2","0.8","0.4","0.6","0.5331458927","0.6309662891","0.2395298113","0.3566620654","","","","","","","","","","","","","","74","J","1","","","218","main_expt",""
"","bandit","298","761804","0.0-260.0-0.0","66778760","wem/bandit_party_2","A27F76XB3KS0W2","either","6","287","","","","","","","0","0","1","0.610488243","","0.2","0.8","0.4","0.6","","","","","0.409279481","0.610488243","0.2333127667","0.3114207129","","","","","","","","","","74","J","1","","","219","main_expt",""
"","bandit","299","763556","0.0-261.0-0.0","66778760","wem/bandit_party_2","A27F76XB3KS0W2","either","6","232","","","","","","","1","0","0","0.6741838821","","0.2","0.8","0.4","0.6","","","","","0.3910907299","0.6741838821","0.2097963002","0.348491043","","","","","","","","","","74","J","1","","","220","main_expt",""
"","bandit","300","766291","0.0-262.0-0.0","66778760","wem/bandit_party_2","A27F76XB3KS0W2","either","6","1215","","","","","","","1","0","0","0.6938787555","","0.2","0.8","0.4","0.6","","","","","0.37386253","0.6938787555","0.1761429423","0.325682353","","","","","","","","","","74","J","1","","","221","main_expt",""
"","bandit","301","768429","0.0-263.0-0.0","66778760","wem/bandit_party_2","A27F76XB3KS0W2","either","6","617","","","","","","","0","0","1","0.622086605","","0.2","0.8","0.4","0.6","","","","","0.5460784034","0.622086605","0.1770547834","0.3582518194","","","","","","","","","","74","J","1","","","222","main_expt",""
"","bandit","302","771156","0.0-264.0-0.0","66778760","wem/bandit_party_2","A27F76XB3KS0W2","either","6","1207","","","","","","","1","0","0","0.6190419158","","0.2","0.8","0.4","0.6","","","","","0.5484594206","0.6190419158","0.1494166006","0.3596631187","","","","","","","","","","74","J","1","","","223","main_expt",""
"","bandit","303","773212","0.0-265.0-0.0","66778760","wem/bandit_party_2","A27F76XB3KS0W2","either","6","536","","","","","","","0","1","0","","0.6525227655","0.2","0.8","0.4","0.6","0.5156266917","0.6525227655","0.1444184755","0.4757784632","","","","","","","","","","","","","","74","J","1","","","224","main_expt",""
"","bandit","304","775107","0.0-266.0-0.0","66778760","wem/bandit_party_2","A27F76XB3KS0W2","either","6","376","","","","","","","1","0","0","0.5739960468","","0.2","0.8","0.4","0.6","","","","","0.5120039273","0.5739960468","0.2381889698","0.5384710229","","","","","","","","","","74","J","1","","","225","main_expt",""
"","bandit","305","776947","0.0-267.0-0.0","66778760","wem/bandit_party_2","A27F76XB3KS0W2","either","6","321","","","","","","","0","0","1","0.6038380469","","0.2","0.8","0.4","0.6","","","","","0.5568413113","0.6038380469","0.1429230379","0.5308581489","","","","","","","","","","74","J","1","","","226","main_expt",""
"","bandit","306","778828","0.0-268.0-0.0","66778760","wem/bandit_party_2","A27F76XB3KS0W2","either","6","361","","","","","","","1","0","0","0.5203417309","","0.2","0.8","0.4","0.6","","","","","0.5277183188","0.5203417309","0.124100867","0.488482713","","","","","","","","","","74","J","1","","","227","main_expt",""
"","bandit","307","780644","0.0-269.0-0.0","66778760","wem/bandit_party_2","A27F76XB3KS0W2","either","6","296","","","","","","","1","0","0","0.4263922038","","0.2","0.8","0.4","0.6","","","","","0.5041270258","0.4263922038","0.1762219884","0.4406219513","","","","","","","","","","74","J","1","","","228","main_expt",""
"","bandit","308","782539","0.0-270.0-0.0","66778760","wem/bandit_party_2","A27F76XB3KS0W2","either","6","376","","","","","","","0","0","1","","0.3475105047","0.2","0.8","0.4","0.6","0.4541369304","0.3475105047","0.1910325121","0.4892119921","","","","","","","","","","","","","","74","J","1","","","229","main_expt",""
"","bandit","309","785252","0.0-271.0-0.0","66778760","wem/bandit_party_2","A27F76XB3KS0W2","either","6","1192","","","","","","","0","0","1","0.3353007417","","0.2","0.8","0.4","0.6","","","","","0.4504381994","0.3353007417","0.2571549068","0.5129573662","","","","","","","","","","74","J","1","","","230","main_expt",""
"","bandit","310","787092","0.0-272.0-0.0","66778760","wem/bandit_party_2","A27F76XB3KS0W2","either","6","319","","","","","","","1","0","0","0.2870546929","","0.2","0.8","0.4","0.6","","","","","0.4698668598","0.2870546929","0.1781345747","0.4382888871","","","","","","","","","","74","J","1","","","231","main_expt",""
"","bandit","311","789956","0.0-273.0-0.0","66778760","wem/bandit_party_2","A27F76XB3KS0W2","either","6","1343","","","","","","","1","0","0","0.3092655517","","0.2","0.8","0.4","0.6","","","","","0.5460008395","0.3092655517","0.1748933913","0.42174841","","","","","","","","","","74","J","1","","","232","main_expt",""
"","bandit","312","791923","0.0-274.0-0.0","66778760","wem/bandit_party_2","A27F76XB3KS0W2","either","6","447","","","","","","","1","0","0","0.4231157335","","0.2","0.8","0.4","0.6","","","","","0.5345299581","0.4231157335","0.2196371411","0.4297142637","","","","","","","","","","74","J","1","","","233","main_expt",""
"","bandit","313","794188","0.0-275.0-0.0","66778760","wem/bandit_party_2","A27F76XB3KS0W2","either","6","744","","","","","","","1","0","0","0.5525929145","","0.2","0.8","0.4","0.6","","","","","0.508060833","0.5525929145","0.2052749597","0.3016140143","","","","","","","","","","74","J","1","","","234","main_expt",""
"","bandit","314","796580","0.0-276.0-0.0","66778760","wem/bandit_party_2","A27F76XB3KS0W2","either","6","871","","","","","","","0","0","1","0.7239072418","","0.2","0.8","0.4","0.6","","","","","0.4956589368","0.7239072418","0.3158924645","0.2735586703","","","","","","","","","","74","J","1","","","235","main_expt",""
"","bandit","315","798810","0.0-277.0-0.0","66778760","wem/bandit_party_2","A27F76XB3KS0W2","either","6","710","","","","","","","1","0","0","0.8076920848","","0.2","0.8","0.4","0.6","","","","","0.5514737959","0.8076920848","0.3668106878","0.2536827631","","","","","","","","","","74","J","1","","","236","main_expt",""
"","bandit","316","801099","0.0-278.0-0.0","66778760","wem/bandit_party_2","A27F76XB3KS0W2","either","6","769","","","","","","","1","0","0","0.7703095863","","0.2","0.8","0.4","0.6","","","","","0.5183580196","0.7703095863","0.3866395083","0.2478783488","","","","","","","","","","74","J","1","","","237","main_expt",""
"","bandit","317","803426","0.0-279.0-0.0","66778760","wem/bandit_party_2","A27F76XB3KS0W2","either","6","808","","","","","","","1","0","0","0.6485929649","","0.2","0.8","0.4","0.6","","","","","0.5320509842","0.6485929649","0.4108821033","0.1688186905","","","","","","","","","","74","J","1","","","238","main_expt",""
"","bandit","318","805579","0.0-280.0-0.0","66778760","wem/bandit_party_2","A27F76XB3KS0W2","either","6","632","","","","","","","0","1","0","","0.7028133827","0.2","0.8","0.4","0.6","0.46832295","0.7028133827","0.4384900471","0.1232648298","","","","","","","","","","","","","","74","J","1","","","239","main_expt",""
"","bandit","319","807666","0.0-281.0-0.0","66778760","wem/bandit_party_2","A27F76XB3KS0W2","either","6","567","","","","","","","1","0","0","0.6620055833","","0.2","0.8","0.4","0.6","","","","","0.5024711131","0.6620055833","0.4246438665","0.1720424997","","","","","","","","","","74","J","1","","","240","main_expt",""
