"consent","trial_type","trial_index","time_elapsed","internal_node_id","subjID","study","MID","cond","drift","rt","responses","button_pressed","key_press","like","value","connected","gems","bombs","no_reward","GemPrChosen","BombPrChosen","GainOverPainPr_0","GainOverPainPr_1","GainOverPainPr_2","GainOverPainPr_3","LosePr_0","LosePr_1","LosePr_2","LosePr_3","WinPr_0","WinPr_1","WinPr_2","WinPr_3","Q0","Q1","Q2","gender","age","ethnicity","label","expt_phase","target","respCharCode","respKey","respChoiceNum","respChoice","practice","trial_counter","trial_label","Q0_index"
"GDM/GDM_behavioral_consent_30min_online.html","consent","0","10083","0.0-0.0","67328256","wem/bandit_party_2","A2TFMDDIPNF02W","either","6","","","","","","","","","","","","","","","","","","","","","","","","","","","","","","","","","","","","","","","","",""
"","survey-text","1","18066","0.0-1.0","67328256","wem/bandit_party_2","A2TFMDDIPNF02W","either","6","6967","{""Q0"":""A2TFMDDIPNF02W""}","","","","","","","","","","","","","","","","","","","","","","","","","","","","","","","","","","","","","","",""
"","button-response","2","23934","0.0-2.0","67328256","wem/bandit_party_2","A2TFMDDIPNF02W","either","6","4850","","1","","","","","","","","","","","","","","","","","","","","","","","","","","","","","","","","","","","","","",""
"","text-replacement","3","42677","0.0-3.0","67328256","wem/bandit_party_2","A2TFMDDIPNF02W","either","6","17737","","","32","","","","","","","","","","","","","","","","","","","","","","","","","","","","","","","","","","","","",""
"","text-replacement","4","56841","0.0-4.0","67328256","wem/bandit_party_2","A2TFMDDIPNF02W","either","6","14158","","","32","","","","","","","","","","","","","","","","","","","","","","","","","","","","","","","","","","","","",""
"","identification","5","65622","0.0-6.0-0.0","67328256","wem/bandit_party_2","A2TFMDDIPNF02W","either","6","8722","","","","0","0","0","","","","","","","","","","","","","","","","","","","","","","","","pre","identification_pre","the Republican Party","","","","","","","",""
"","identification","6","74307","0.0-6.0-1.0","67328256","wem/bandit_party_2","A2TFMDDIPNF02W","either","6","7632","","","","5","4","6","","","","","","","","","","","","","","","","","","","","","","","","pre","identification_pre","the Democratic Party","","","","","","","",""
"","text-replacement","7","87779","0.0-7.0","67328256","wem/bandit_party_2","A2TFMDDIPNF02W","either","6","12464","","","32","","","","","","","","","","","","","","","","","","","","","","","","","","","","","","","","","","","","",""
"","text-replacement","8","97594","0.0-8.0","67328256","wem/bandit_party_2","A2TFMDDIPNF02W","either","6","9806","","","32","","","","","","","","","","","","","","","","","","","","","","","","","","","","","","","","","","","","",""
"","text-replacement","9","108965","0.0-9.0","67328256","wem/bandit_party_2","A2TFMDDIPNF02W","either","6","11362","","","32","","","","","","","","","","","","","","","","","","","","","","","","","","","","","","","","","","","","",""
"","text-replacement","10","115678","0.0-10.0","67328256","wem/bandit_party_2","A2TFMDDIPNF02W","either","6","6705","","","32","","","","","","","","","","","","","","","","","","","","","","","","","","","","","","","","","","","","",""
"","text-replacement","11","121182","0.0-11.0","67328256","wem/bandit_party_2","A2TFMDDIPNF02W","either","6","5498","","","32","","","","","","","","","","","","","","","","","","","","","","","","","","","","","","","","","","","","",""
"","bandit","12","127984","0.0-12.0-0.0","67328256","wem/bandit_party_2","A2TFMDDIPNF02W","either","6","5186","","","","","","","0","0","1","0","0","","","","","0","","","","0","","","","","","","","","","","","","74","J","0","img/none_selected_demo.jpg","true","0","",""
"","bandit","13","130619","0.0-13.0-0.0","67328256","wem/bandit_party_2","A2TFMDDIPNF02W","either","6","1124","","","","","","","0","0","1","0","0","","","","","0","","","","0","","","","","","","","","","","","","75","K","0","img/none_selected_demo.jpg","true","0","",""
"","text-replacement","14","147410","0.0-14.0","67328256","wem/bandit_party_2","A2TFMDDIPNF02W","either","6","16784","","","32","","","","","","","","","","","","","","","","","","","","","","","","","","","","","","","","","","","","",""
"","text-replacement","15","196561","0.0-15.0","67328256","wem/bandit_party_2","A2TFMDDIPNF02W","either","6","49141","","","32","","","","","","","","","","","","","","","","","","","","","","","","","","","","","","","","","","","","",""
"","text-replacement","16","209827","0.0-16.0","67328256","wem/bandit_party_2","A2TFMDDIPNF02W","either","6","13256","","","32","","","","","","","","","","","","","","","","","","","","","","","","","","","","","","","","","","","","",""
"","text-replacement","17","217962","0.0-17.0","67328256","wem/bandit_party_2","A2TFMDDIPNF02W","either","6","8131","","","32","","","","","","","","","","","","","","","","","","","","","","","","","","","","","","","","","","","","",""
"","bandit","18","220468","0.0-18.0-0.0","67328256","wem/bandit_party_2","A2TFMDDIPNF02W","either","6","991","","","","","","","0","1","0","","0.8","0.5","0.5","","","0.8","0.2","","","","","","","","","","","","","","","","74","J","0","img/none_selected_demo.jpg","true","0","80_20_practice",""
"","bandit","19","222463","0.0-18.0-1.0","67328256","wem/bandit_party_2","A2TFMDDIPNF02W","either","6","475","","","","","","","0","0","1","0.8","","0.5","0.5","","","","","","","0.8","0.2","","","","","","","","","","","","74","J","0","img/none_selected_demo.jpg","true","0","80_20_practice",""
"","bandit","20","224697","0.0-18.0-2.0","67328256","wem/bandit_party_2","A2TFMDDIPNF02W","either","6","718","","","","","","","0","0","1","0.2","","0.5","0.5","","","","","","","0.8","0.2","","","","","","","","","","","","75","K","1","","true","0","80_20_practice",""
"","bandit","21","226553","0.0-18.0-3.0","67328256","wem/bandit_party_2","A2TFMDDIPNF02W","either","6","330","","","","","","","0","0","1","","0.2","0.5","0.5","","","0.8","0.2","","","","","","","","","","","","","","","","75","K","1","","true","0","80_20_practice",""
"","bandit","22","228786","0.0-18.0-4.0","67328256","wem/bandit_party_2","A2TFMDDIPNF02W","either","6","696","","","","","","","0","1","0","","0.8","0.5","0.5","","","0.8","0.2","","","","","","","","","","","","","","","","74","J","0","img/none_selected_demo.jpg","true","0","80_20_practice",""
"","bandit","23","230453","0.0-18.0-5.0","67328256","wem/bandit_party_2","A2TFMDDIPNF02W","either","6","151","","","","","","","0","0","1","","0.8","0.5","0.5","","","0.8","0.2","","","","","","","","","","","","","","","","74","J","0","img/none_selected_demo.jpg","true","0","80_20_practice",""
"","bandit","24","232540","0.0-18.0-6.0","67328256","wem/bandit_party_2","A2TFMDDIPNF02W","either","6","567","","","","","","","1","0","0","0.8","","0.5","0.5","","","","","","","0.8","0.2","","","","","","","","","","","","74","J","0","img/none_selected_demo.jpg","true","0","80_20_practice",""
"","bandit","25","234332","0.0-18.0-7.0","67328256","wem/bandit_party_2","A2TFMDDIPNF02W","either","6","275","","","","","","","1","0","0","0.8","","0.5","0.5","","","","","","","0.8","0.2","","","","","","","","","","","","74","J","0","img/none_selected_demo.jpg","true","0","80_20_practice",""
"","bandit","26","236058","0.0-18.0-8.0","67328256","wem/bandit_party_2","A2TFMDDIPNF02W","either","6","208","","","","","","","1","0","0","0.8","","0.5","0.5","","","","","","","0.8","0.2","","","","","","","","","","","","74","J","0","img/none_selected_demo.jpg","true","0","80_20_practice",""
"","bandit","27","237649","0.0-18.0-9.0","67328256","wem/bandit_party_2","A2TFMDDIPNF02W","either","6","72","","","","","","","0","0","1","","0.8","0.5","0.5","","","0.8","0.2","","","","","","","","","","","","","","","","74","J","0","img/none_selected_demo.jpg","true","0","80_20_practice",""
"","bandit","28","239551","0.0-18.0-10.0","67328256","wem/bandit_party_2","A2TFMDDIPNF02W","either","6","380","","","","","","","0","1","0","","0.8","0.5","0.5","","","0.8","0.2","","","","","","","","","","","","","","","","74","J","0","img/none_selected_demo.jpg","true","0","80_20_practice",""
"","bandit","29","241281","0.0-18.0-11.0","67328256","wem/bandit_party_2","A2TFMDDIPNF02W","either","6","215","","","","","","","0","0","1","0.2","","0.5","0.5","","","","","","","0.8","0.2","","","","","","","","","","","","75","K","1","","true","0","80_20_practice",""
"","bandit","30","243520","0.0-18.0-12.0","67328256","wem/bandit_party_2","A2TFMDDIPNF02W","either","6","710","","","","","","","1","0","0","0.8","","0.5","0.5","","","","","","","0.8","0.2","","","","","","","","","","","","74","J","0","img/none_selected_demo.jpg","true","0","80_20_practice",""
"","bandit","31","245302","0.0-18.0-13.0","67328256","wem/bandit_party_2","A2TFMDDIPNF02W","either","6","262","","","","","","","1","0","0","0.8","","0.5","0.5","","","","","","","0.8","0.2","","","","","","","","","","","","74","J","0","img/none_selected_demo.jpg","true","0","80_20_practice",""
"","bandit","32","247109","0.0-18.0-14.0","67328256","wem/bandit_party_2","A2TFMDDIPNF02W","either","6","284","","","","","","","1","0","0","0.8","","0.5","0.5","","","","","","","0.8","0.2","","","","","","","","","","","","74","J","0","img/none_selected_demo.jpg","true","0","80_20_practice",""
"","bandit","33","248951","0.0-18.0-15.0","67328256","wem/bandit_party_2","A2TFMDDIPNF02W","either","6","315","","","","","","","0","1","0","","0.8","0.5","0.5","","","0.8","0.2","","","","","","","","","","","","","","","","74","J","0","img/none_selected_demo.jpg","true","0","80_20_practice",""
"","bandit","34","250977","0.0-18.0-16.0","67328256","wem/bandit_party_2","A2TFMDDIPNF02W","either","6","387","","","","","","","0","1","0","","0.8","0.5","0.5","","","0.8","0.2","","","","","","","","","","","","","","","","74","J","0","img/none_selected_demo.jpg","true","0","80_20_practice",""
"","bandit","35","253022","0.0-18.0-17.0","67328256","wem/bandit_party_2","A2TFMDDIPNF02W","either","6","526","","","","","","","0","1","0","","0.8","0.5","0.5","","","0.8","0.2","","","","","","","","","","","","","","","","74","J","0","img/none_selected_demo.jpg","true","0","80_20_practice",""
"","bandit","36","255014","0.0-18.0-18.0","67328256","wem/bandit_party_2","A2TFMDDIPNF02W","either","6","481","","","","","","","0","1","0","","0.8","0.5","0.5","","","0.8","0.2","","","","","","","","","","","","","","","","74","J","0","img/none_selected_demo.jpg","true","0","80_20_practice",""
"","bandit","37","257069","0.0-18.0-19.0","67328256","wem/bandit_party_2","A2TFMDDIPNF02W","either","6","484","","","","","","","0","1","0","","0.8","0.5","0.5","","","0.8","0.2","","","","","","","","","","","","","","","","74","J","0","img/none_selected_demo.jpg","true","0","80_20_practice",""
"","text-replacement","38","264255","0.0-19.0","67328256","wem/bandit_party_2","A2TFMDDIPNF02W","either","6","7179","","","32","","","","","","","","","","","","","","","","","","","","","","","","","","","","","","","","","","","","",""
"","bandit","39","268332","0.0-20.0-0.0","67328256","wem/bandit_party_2","A2TFMDDIPNF02W","either","6","2554","","","","","","","1","0","0","1","0","","","","","0","1","","","1","0","","","","","","","","","","","","74","J","0","img/none_selected_demo.jpg","true","0","",""
"","text-replacement","40","277779","0.0-21.0","67328256","wem/bandit_party_2","A2TFMDDIPNF02W","either","6","9436","","","32","","","","","","","","","","","","","","","","","","","","","","","","","","","","","","","","","","","","",""
"","text-replacement","41","285050","0.0-22.0","67328256","wem/bandit_party_2","A2TFMDDIPNF02W","either","6","7265","","","32","","","","","","","","","","","","","","","","","","","","","","","","","","","","","","","","","","","","",""
"","text-replacement","42","291092","0.0-23.0","67328256","wem/bandit_party_2","A2TFMDDIPNF02W","either","6","6037","","","32","","","","","","","","","","","","","","","","","","","","","","","","","","","","","","","","","","","","",""
"","text-replacement","43","299209","0.0-24.0","67328256","wem/bandit_party_2","A2TFMDDIPNF02W","either","6","8110","","","32","","","","","","","","","","","","","","","","","","","","","","","","","","","","","","","","","","","","",""
"","text-replacement","44","317759","0.0-25.0","67328256","wem/bandit_party_2","A2TFMDDIPNF02W","either","6","18538","","","32","","","","","","","","","","","","","","","","","","","","","","","","","","","","","","","","","","","","",""
"","text-replacement","45","324846","0.0-26.0","67328256","wem/bandit_party_2","A2TFMDDIPNF02W","either","6","7076","","","32","","","","","","","","","","","","","","","","","","","","","","","","","","","","","","","","","","","","",""
"","text-replacement","46","344065","0.0-27.0","67328256","wem/bandit_party_2","A2TFMDDIPNF02W","either","6","19214","","","32","","","","","","","","","","","","","","","","","","","","","","","","","","","","","","","","","","","","",""
"","text-replacement","47","351918","0.0-28.0","67328256","wem/bandit_party_2","A2TFMDDIPNF02W","either","6","7848","","","32","","","","","","","","","","","","","","","","","","","","","","","","","","","","","","","","","","","","",""
"","text-replacement","48","364765","0.0-29.0","67328256","wem/bandit_party_2","A2TFMDDIPNF02W","either","6","12842","","","32","","","","","","","","","","","","","","","","","","","","","","","","","","","","","","","","","","","","",""
"","text-replacement","49","367677","0.0-30.0","67328256","wem/bandit_party_2","A2TFMDDIPNF02W","either","6","2907","","","32","","","","","","","","","","","","","","","","","","","","","","","","","","","","","","","","","","","","",""
"","text-replacement","50","371306","0.0-31.0","67328256","wem/bandit_party_2","A2TFMDDIPNF02W","either","6","3624","","","32","","","","","","","","","","","","","","","","","","","","","","","","","","","","","","","","","","","","",""
"","bandit","51","373481","0.0-32.0-0.0","67328256","wem/bandit_party_2","A2TFMDDIPNF02W","either","6","648","","","","","","","0","0","1","","0.8","0.5","0.5","0.5","0.5","0.8","0.2","0.6","0.2","","","","","","","","","","","","","","72","H","0","img/none_selected.jpg","true","0","full_practice",""
"","bandit","52","375441","0.0-32.0-1.0","67328256","wem/bandit_party_2","A2TFMDDIPNF02W","either","6","431","","","","","","","1","0","0","0.8","","0.5","0.5","0.5","0.5","","","","","0.8","0.2","0.6","0.2","","","","","","","","","","72","H","0","img/none_selected.jpg","true","0","full_practice",""
"","bandit","53","377309","0.0-32.0-2.0","67328256","wem/bandit_party_2","A2TFMDDIPNF02W","either","6","345","","","","","","","1","0","0","0.8","","0.5","0.5","0.5","0.5","","","","","0.8","0.2","0.6","0.2","","","","","","","","","","72","H","0","img/none_selected.jpg","true","0","full_practice",""
"","bandit","54","379347","0.0-32.0-3.0","67328256","wem/bandit_party_2","A2TFMDDIPNF02W","either","6","522","","","","","","","0","1","0","","0.8","0.5","0.5","0.5","0.5","0.8","0.2","0.6","0.2","","","","","","","","","","","","","","72","H","0","img/none_selected.jpg","true","0","full_practice",""
"","bandit","55","381251","0.0-32.0-4.0","67328256","wem/bandit_party_2","A2TFMDDIPNF02W","either","6","385","","","","","","","0","0","1","0.8","","0.5","0.5","0.5","0.5","","","","","0.8","0.2","0.6","0.2","","","","","","","","","","72","H","0","img/none_selected.jpg","true","0","full_practice",""
"","bandit","56","382838","0.0-32.0-5.0","67328256","wem/bandit_party_2","A2TFMDDIPNF02W","either","6","53","","","","","","","0","0","1","","0.6","0.5","0.5","0.5","0.5","0.8","0.2","0.6","0.2","","","","","","","","","","","","","","75","K","2","","true","0","full_practice",""
"","bandit","57","385669","0.0-32.0-6.0","67328256","wem/bandit_party_2","A2TFMDDIPNF02W","either","6","1313","","","","","","","0","0","1","","0.2","0.5","0.5","0.5","0.5","0.8","0.2","0.6","0.2","","","","","","","","","","","","","","74","J","1","","true","0","full_practice",""
"","bandit","58","388278","0.0-32.0-7.0","67328256","wem/bandit_party_2","A2TFMDDIPNF02W","either","6","1083","","","","","","","0","0","1","","0.2","0.5","0.5","0.5","0.5","0.8","0.2","0.6","0.2","","","","","","","","","","","","","","76","L","3","","true","0","full_practice",""
"","bandit","59","390416","0.0-32.0-8.0","67328256","wem/bandit_party_2","A2TFMDDIPNF02W","either","6","609","","","","","","","0","0","1","0.8","","0.5","0.5","0.5","0.5","","","","","0.8","0.2","0.6","0.2","","","","","","","","","","72","H","0","img/none_selected.jpg","true","0","full_practice",""
"","bandit","60","392524","0.0-32.0-9.0","67328256","wem/bandit_party_2","A2TFMDDIPNF02W","either","6","585","","","","","","","1","0","0","0.8","","0.5","0.5","0.5","0.5","","","","","0.8","0.2","0.6","0.2","","","","","","","","","","72","H","0","img/none_selected.jpg","true","0","full_practice",""
"","bandit","61","394612","0.0-32.0-10.0","67328256","wem/bandit_party_2","A2TFMDDIPNF02W","either","6","557","","","","","","","0","1","0","","0.8","0.5","0.5","0.5","0.5","0.8","0.2","0.6","0.2","","","","","","","","","","","","","","72","H","0","img/none_selected.jpg","true","0","full_practice",""
"","bandit","62","396720","0.0-32.0-11.0","67328256","wem/bandit_party_2","A2TFMDDIPNF02W","either","6","585","","","","","","","0","0","1","0.8","","0.5","0.5","0.5","0.5","","","","","0.8","0.2","0.6","0.2","","","","","","","","","","72","H","0","img/none_selected.jpg","true","0","full_practice",""
"","bandit","63","398678","0.0-32.0-12.0","67328256","wem/bandit_party_2","A2TFMDDIPNF02W","either","6","426","","","","","","","1","0","0","0.8","","0.5","0.5","0.5","0.5","","","","","0.8","0.2","0.6","0.2","","","","","","","","","","72","H","0","img/none_selected.jpg","true","0","full_practice",""
"","bandit","64","400657","0.0-32.0-13.0","67328256","wem/bandit_party_2","A2TFMDDIPNF02W","either","6","451","","","","","","","1","0","0","0.8","","0.5","0.5","0.5","0.5","","","","","0.8","0.2","0.6","0.2","","","","","","","","","","72","H","0","img/none_selected.jpg","true","0","full_practice",""
"","bandit","65","402658","0.0-32.0-14.0","67328256","wem/bandit_party_2","A2TFMDDIPNF02W","either","6","470","","","","","","","0","0","1","0.8","","0.5","0.5","0.5","0.5","","","","","0.8","0.2","0.6","0.2","","","","","","","","","","72","H","0","img/none_selected.jpg","true","0","full_practice",""
"","bandit","66","404595","0.0-32.0-15.0","67328256","wem/bandit_party_2","A2TFMDDIPNF02W","either","6","407","","","","","","","0","0","1","","0.2","0.5","0.5","0.5","0.5","0.8","0.2","0.6","0.2","","","","","","","","","","","","","","74","J","1","","true","0","full_practice",""
"","bandit","67","406155","0.0-32.0-16.0","67328256","wem/bandit_party_2","A2TFMDDIPNF02W","either","6","34","","","","","","","0","0","1","","0.2","0.5","0.5","0.5","0.5","0.8","0.2","0.6","0.2","","","","","","","","","","","","","","74","J","1","","true","0","full_practice",""
"","bandit","68","408329","0.0-32.0-17.0","67328256","wem/bandit_party_2","A2TFMDDIPNF02W","either","6","645","","","","","","","0","1","0","","0.6","0.5","0.5","0.5","0.5","0.8","0.2","0.6","0.2","","","","","","","","","","","","","","75","K","2","","true","0","full_practice",""
"","bandit","69","410110","0.0-32.0-18.0","67328256","wem/bandit_party_2","A2TFMDDIPNF02W","either","6","259","","","","","","","1","0","0","0.6","","0.5","0.5","0.5","0.5","","","","","0.8","0.2","0.6","0.2","","","","","","","","","","75","K","2","","true","0","full_practice",""
"","bandit","70","411910","0.0-32.0-19.0","67328256","wem/bandit_party_2","A2TFMDDIPNF02W","either","6","281","","","","","","","0","1","0","","0.6","0.5","0.5","0.5","0.5","0.8","0.2","0.6","0.2","","","","","","","","","","","","","","75","K","2","","true","0","full_practice",""
"","text","71","416919","0.0-33.0","67328256","wem/bandit_party_2","A2TFMDDIPNF02W","either","6","4992","","","32","","","","","","","","","","","","","","","","","","","","","","","","","","","","","","","","","","","","",""
"","text-replacement","72","437816","0.0-34.0","67328256","wem/bandit_party_2","A2TFMDDIPNF02W","either","6","19758","","","32","","","","","","","","","","","","","","","","","","","","","","","","","","","","","","","","","","","","",""
"","text-replacement","73","454776","0.0-35.0","67328256","wem/bandit_party_2","A2TFMDDIPNF02W","either","6","16952","","","32","","","","","","","","","","","","","","","","","","","","","","","","","","","","","","","","","","","","",""
"","text-replacement","74","463993","0.0-36.0","67328256","wem/bandit_party_2","A2TFMDDIPNF02W","either","6","9206","","","32","","","","","","","","","","","","","","","","","","","","","","","","","","","","","","","","","","","","",""
"","text-replacement","75","471761","0.0-37.0","67328256","wem/bandit_party_2","A2TFMDDIPNF02W","either","6","7760","","","32","","","","","","","","","","","","","","","","","","","","","","","","","","","","","","","","","","","","",""
"","text-replacement","76","484284","0.0-38.0","67328256","wem/bandit_party_2","A2TFMDDIPNF02W","either","6","12512","","","32","","","","","","","","","","","","","","","","","","","","","","","","","","","","","","","","","","","","",""
"","survey-multi-choice-replacement","77","491447","0.0-39.0-0.0","67328256","wem/bandit_party_2","A2TFMDDIPNF02W","either","6","7143","","","","","","","","","","","","","","","","","","","","","","","","Money will be added to the pool for <span style='color:blue;'>DEMOCRATS</span>","","","","","","","attn_check","","","","","","","","","0"
"","survey-multi-choice-replacement","78","501127","0.0-40.0-0.0","67328256","wem/bandit_party_2","A2TFMDDIPNF02W","either","6","8660","","","","","","","","","","","","","","","","","","","","","","","","Equal amounts of money will be added to the pool for <span style='color:blue;'>DEMOCRATS</span> and subtracted from the pool for <span style='color:red;'>REPUBLICANS</span>","","","","","","","attn_check","","","","","","","","","2"
"","survey-multi-choice-replacement","79","506312","0.0-41.0-0.0","67328256","wem/bandit_party_2","A2TFMDDIPNF02W","either","6","4163","","","","","","","","","","","","","","","","","","","","","","","","No money will be added to either pool","","","","","","","attn_check","","","","","","","","","3"
"","bandit","80","511113","0.0-42.0-0.0","67328256","wem/bandit_party_2","A2TFMDDIPNF02W","either","6","2253","","","","","","","0","0","1","","0.2309914537","0.8","0.2","0.6","0.4","0.2309914537","0.7197236342","0.3049938501","0.1947351938","","","","","","","","","","","","","","72","H","0","img/none_selected.jpg","","1","main_expt",""
"","bandit","81","513953","0.0-43.0-0.0","67328256","wem/bandit_party_2","A2TFMDDIPNF02W","either","6","1286","","","","","","","1","0","0","0.7453792406","","0.8","0.2","0.6","0.4","","","","","0.2351366282","0.7453792406","0.3105507028","0.1865171684","","","","","","","","","","74","J","1","","","2","main_expt",""
"","bandit","82","516520","0.0-44.0-0.0","67328256","wem/bandit_party_2","A2TFMDDIPNF02W","either","6","1053","","","","","","","0","0","1","","0.7422746785","0.8","0.2","0.6","0.4","0.3338792953","0.7422746785","0.347932066","0.1578482069","","","","","","","","","","","","","","74","J","1","","","3","main_expt",""
"","bandit","83","519041","0.0-45.0-0.0","67328256","wem/bandit_party_2","A2TFMDDIPNF02W","either","6","818","","","","","","","1","0","0","0.294099503","","0.8","0.2","0.6","0.4","","","","","0.2578124611","0.8152876082","0.294099503","0.1733557992","","","","","","","","","","75","K","2","","","4","main_expt",""
"","bandit","84","521289","0.0-46.0-0.0","67328256","wem/bandit_party_2","A2TFMDDIPNF02W","either","6","732","","","","","","","0","0","1","","0.256228135","0.8","0.2","0.6","0.4","0.152782507","0.8494846052","0.256228135","0.1275681293","","","","","","","","","","","","","","75","K","2","","","5","main_expt",""
"","bandit","85","523909","0.0-47.0-0.0","67328256","wem/bandit_party_2","A2TFMDDIPNF02W","either","6","1085","","","","","","","0","0","1","","0.1776351543","0.8","0.2","0.6","0.4","0.200224935","0.8036792828","0.3142053347","0.1776351543","","","","","","","","","","","","","","76","L","3","","","6","main_expt",""
"","bandit","86","526569","0.0-48.0-0.0","67328256","wem/bandit_party_2","A2TFMDDIPNF02W","either","6","1142","","","","","","","0","0","1","0.2200442108","","0.8","0.2","0.6","0.4","","","","","0.2200442108","0.8659664865","0.2382568898","0.1412615145","","","","","","","","","","72","H","0","img/none_selected.jpg","","7","main_expt",""
"","bandit","87","528588","0.0-49.0-0.0","67328256","wem/bandit_party_2","A2TFMDDIPNF02W","either","6","488","","","","","","","0","1","0","","0.8475436228","0.8","0.2","0.6","0.4","0.1516915951","0.8475436228","0.220471749","0.1508054742","","","","","","","","","","","","","","74","J","1","","","8","main_expt",""
"","bandit","88","531152","0.0-50.0-0.0","67328256","wem/bandit_party_2","A2TFMDDIPNF02W","either","6","1035","","","","","","","0","1","0","","0.8034999265","0.8","0.2","0.6","0.4","0.1468829212","0.8034999265","0.2842820234","0.1882404854","","","","","","","","","","","","","","74","J","1","","","9","main_expt",""
"","bandit","89","534004","0.0-51.0-0.0","67328256","wem/bandit_party_2","A2TFMDDIPNF02W","either","6","1319","","","","","","","1","0","0","0.7148412232","","0.8","0.2","0.6","0.4","","","","","0.1507643719","0.7148412232","0.3392415315","0.1731305678","","","","","","","","","","74","J","1","","","10","main_expt",""
"","bandit","90","536449","0.0-52.0-0.0","67328256","wem/bandit_party_2","A2TFMDDIPNF02W","either","6","927","","","","","","","0","0","1","","0.7213030285","0.8","0.2","0.6","0.4","0.18301","0.7213030285","0.4470346709","0.2475279461","","","","","","","","","","","","","","74","J","1","","","11","main_expt",""
"","bandit","91","539079","0.0-53.0-0.0","67328256","wem/bandit_party_2","A2TFMDDIPNF02W","either","6","1102","","","","","","","1","0","0","0.7396148754","","0.8","0.2","0.6","0.4","","","","","0.209562337","0.7396148754","0.5143820195","0.2068792089","","","","","","","","","","74","J","1","","","12","main_expt",""
"","bandit","92","541571","0.0-54.0-0.0","67328256","wem/bandit_party_2","A2TFMDDIPNF02W","either","6","971","","","","","","","0","0","1","","0.6870781676","0.8","0.2","0.6","0.4","0.2133897639","0.6870781676","0.4934308908","0.1594062408","","","","","","","","","","","","","","74","J","1","","","13","main_expt",""
"","bandit","93","544427","0.0-55.0-0.0","67328256","wem/bandit_party_2","A2TFMDDIPNF02W","either","6","1336","","","","","","","0","1","0","","0.6561171826","0.8","0.2","0.6","0.4","0.1865122749","0.6561171826","0.5884397519","0.1808320347","","","","","","","","","","","","","","74","J","1","","","14","main_expt",""
"","bandit","94","547339","0.0-56.0-0.0","67328256","wem/bandit_party_2","A2TFMDDIPNF02W","either","6","1384","","","","","","","0","0","1","0.6255101569","","0.8","0.2","0.6","0.4","","","","","0.3169691733","0.6255101569","0.425765204","0.2401125286","","","","","","","","","","74","J","1","","","15","main_expt",""
"","bandit","95","550022","0.0-57.0-0.0","67328256","wem/bandit_party_2","A2TFMDDIPNF02W","either","6","1024","","","","","","","0","0","1","0.3927767979","","0.8","0.2","0.6","0.4","","","","","0.3927767979","0.6101220295","0.4458974369","0.1823220599","","","","","","","","","","72","H","0","img/none_selected.jpg","","16","main_expt",""
"","bandit","96","553069","0.0-58.0-0.0","67328256","wem/bandit_party_2","A2TFMDDIPNF02W","either","6","1511","","","","","","","0","0","1","0.2882183284","","0.8","0.2","0.6","0.4","","","","","0.2882183284","0.6233337625","0.4907358526","0.2076179308","","","","","","","","","","72","H","0","img/none_selected.jpg","","17","main_expt",""
"","bandit","97","555203","0.0-59.0-0.0","67328256","wem/bandit_party_2","A2TFMDDIPNF02W","either","6","606","","","","","","","0","0","1","","0.598865074","0.8","0.2","0.6","0.4","0.3212622409","0.598865074","0.4895096529","0.2310064443","","","","","","","","","","","","","","74","J","1","","","18","main_expt",""
"","bandit","98","557238","0.0-60.0-0.0","67328256","wem/bandit_party_2","A2TFMDDIPNF02W","either","6","496","","","","","","","0","0","1","0.5437378015","","0.8","0.2","0.6","0.4","","","","","0.3678238944","0.6318918302","0.5437378015","0.1919199612","","","","","","","","","","75","K","2","","","19","main_expt",""
"","bandit","99","559298","0.0-61.0-0.0","67328256","wem/bandit_party_2","A2TFMDDIPNF02W","either","6","543","","","","","","","0","0","1","0.2150176637","","0.8","0.2","0.6","0.4","","","","","0.4357360734","0.5667690756","0.543071052","0.2150176637","","","","","","","","","","76","L","3","","","20","main_expt",""
"","bandit","100","561322","0.0-62.0-0.0","67328256","wem/bandit_party_2","A2TFMDDIPNF02W","either","6","497","","","","","","","1","0","0","0.5457928974","","0.8","0.2","0.6","0.4","","","","","0.4486518506","0.6364396753","0.5457928974","0.2980309021","","","","","","","","","","75","K","2","","","21","main_expt",""
"","bandit","101","563938","0.0-63.0-0.0","67328256","wem/bandit_party_2","A2TFMDDIPNF02W","either","6","1091","","","","","","","0","0","1","","0.4531799458","0.8","0.2","0.6","0.4","0.5145372488","0.5563436533","0.4531799458","0.3238742104","","","","","","","","","","","","","","75","K","2","","","22","main_expt",""
"","bandit","102","566379","0.0-64.0-0.0","67328256","wem/bandit_party_2","A2TFMDDIPNF02W","either","6","872","","","","","","","0","1","0","","0.4158928209","0.8","0.2","0.6","0.4","0.6324996067","0.4555064456","0.4321579995","0.4158928209","","","","","","","","","","","","","","76","L","3","","","23","main_expt",""
"","bandit","103","568951","0.0-65.0-0.0","67328256","wem/bandit_party_2","A2TFMDDIPNF02W","either","6","1023","","","","","","","1","0","0","0.2798670784","","0.8","0.2","0.6","0.4","","","","","0.6665025749","0.4398961724","0.3892872195","0.2798670784","","","","","","","","","","76","L","3","","","24","main_expt",""
"","bandit","104","571552","0.0-66.0-0.0","67328256","wem/bandit_party_2","A2TFMDDIPNF02W","either","6","1084","","","","","","","0","0","1","","0.3932164435","0.8","0.2","0.6","0.4","0.5316582614","0.3810464824","0.4322880781","0.3932164435","","","","","","","","","","","","","","76","L","3","","","25","main_expt",""
"","bandit","105","574031","0.0-67.0-0.0","67328256","wem/bandit_party_2","A2TFMDDIPNF02W","either","6","872","","","","","","","0","0","1","0.4560392573","","0.8","0.2","0.6","0.4","","","","","0.4282094451","0.451695138","0.4560392573","0.3243459504","","","","","","","","","","75","K","2","","","26","main_expt",""
"","bandit","106","575951","0.0-68.0-0.0","67328256","wem/bandit_party_2","A2TFMDDIPNF02W","either","6","404","","","","","","","0","0","1","","0.4423729324","0.8","0.2","0.6","0.4","0.4711380508","0.4423729324","0.5372901799","0.4266302179","","","","","","","","","","","","","","74","J","1","","","27","main_expt",""
"","bandit","107","578022","0.0-69.0-0.0","67328256","wem/bandit_party_2","A2TFMDDIPNF02W","either","6","557","","","","","","","1","0","0","0.4539290932","","0.8","0.2","0.6","0.4","","","","","0.4539290932","0.4221124674","0.6619872032","0.4206607535","","","","","","","","","","72","H","0","img/none_selected.jpg","","28","main_expt",""
"","bandit","108","580735","0.0-70.0-0.0","67328256","wem/bandit_party_2","A2TFMDDIPNF02W","either","6","1194","","","","","","","0","0","1","","0.4378511583","0.8","0.2","0.6","0.4","0.4378511583","0.489207998","0.5939885142","0.440099583","","","","","","","","","","","","","","72","H","0","img/none_selected.jpg","","29","main_expt",""
"","bandit","109","583021","0.0-71.0-0.0","67328256","wem/bandit_party_2","A2TFMDDIPNF02W","either","6","569","","","","","","","1","0","0","0.3425428874","","0.8","0.2","0.6","0.4","","","","","0.3425428874","0.4406356357","0.5602145404","0.3982168329","","","","","","","","","","72","H","0","img/none_selected.jpg","","30","main_expt",""
"","bandit","110","586019","0.0-72.0-0.0","67328256","wem/bandit_party_2","A2TFMDDIPNF02W","either","6","1427","","","","","","","0","0","1","","0.2354865125","0.8","0.2","0.6","0.4","0.2354865125","0.484130952","0.5376870091","0.3573437221","","","","","","","","","","","","","","72","H","0","img/none_selected.jpg","","31","main_expt",""
"","bandit","111","587970","0.0-73.0-0.0","67328256","wem/bandit_party_2","A2TFMDDIPNF02W","either","6","439","","","","","","","0","0","1","","0.2552437171","0.8","0.2","0.6","0.4","0.2552437171","0.432294219","0.6346195819","0.3712986889","","","","","","","","","","","","","","72","H","0","img/none_selected.jpg","","32","main_expt",""
"","bandit","112","590130","0.0-74.0-0.0","67328256","wem/bandit_party_2","A2TFMDDIPNF02W","either","6","642","","","","","","","0","1","0","","0.4821309474","0.8","0.2","0.6","0.4","0.2470382599","0.4821309474","0.7540961955","0.45096985","","","","","","","","","","","","","","74","J","1","","","33","main_expt",""
"","bandit","113","592512","0.0-75.0-0.0","67328256","wem/bandit_party_2","A2TFMDDIPNF02W","either","6","861","","","","","","","0","0","1","","0.4702474349","0.8","0.2","0.6","0.4","0.2951894024","0.4702474349","0.699797925","0.5559331637","","","","","","","","","","","","","","74","J","1","","","34","main_expt",""
"","bandit","114","594938","0.0-76.0-0.0","67328256","wem/bandit_party_2","A2TFMDDIPNF02W","either","6","868","","","","","","","1","0","0","0.5363697359","","0.8","0.2","0.6","0.4","","","","","0.2596626779","0.5363697359","0.7410295452","0.7354386419","","","","","","","","","","74","J","1","","","35","main_expt",""
"","bandit","115","597560","0.0-77.0-0.0","67328256","wem/bandit_party_2","A2TFMDDIPNF02W","either","6","1101","","","","","","","0","1","0","","0.602250539","0.8","0.2","0.6","0.4","0.3164764808","0.602250539","0.7332281969","0.6934166837","","","","","","","","","","","","","","74","J","1","","","36","main_expt",""
"","bandit","116","600099","0.0-78.0-0.0","67328256","wem/bandit_party_2","A2TFMDDIPNF02W","either","6","1008","","","","","","","0","1","0","","0.5337433964","0.8","0.2","0.6","0.4","0.3672962009","0.5337433964","0.736713329","0.6311869688","","","","","","","","","","","","","","74","J","1","","","37","main_expt",""
"","bandit","117","602582","0.0-79.0-0.0","67328256","wem/bandit_party_2","A2TFMDDIPNF02W","either","6","955","","","","","","","0","1","0","","0.5970413872","0.8","0.2","0.6","0.4","0.4056598401","0.5970413872","0.6860808007","0.6583504975","","","","","","","","","","","","","","74","J","1","","","38","main_expt",""
"","bandit","118","605241","0.0-80.0-0.0","67328256","wem/bandit_party_2","A2TFMDDIPNF02W","either","6","1127","","","","","","","0","0","1","","0.6529448079","0.8","0.2","0.6","0.4","0.4236995386","0.6529448079","0.7498761973","0.5861321806","","","","","","","","","","","","","","74","J","1","","","39","main_expt",""
"","bandit","119","607934","0.0-81.0-0.0","67328256","wem/bandit_party_2","A2TFMDDIPNF02W","either","6","1165","","","","","","","0","0","1","0.6612991154","","0.8","0.2","0.6","0.4","","","","","0.4365163158","0.6612991154","0.7043283504","0.4892836735","","","","","","","","","","74","J","1","","","40","main_expt",""
"","bandit","120","610686","0.0-82.0-0.0","67328256","wem/bandit_party_2","A2TFMDDIPNF02W","either","6","1231","","","","","","","1","0","0","0.6469690382","","0.8","0.2","0.6","0.4","","","","","0.4854269132","0.7390431107","0.6469690382","0.3479900608","","","","","","","","","","75","K","2","","","41","main_expt",""
"","bandit","121","613337","0.0-83.0-0.0","67328256","wem/bandit_party_2","A2TFMDDIPNF02W","either","6","1032","","","","","","","1","0","0","0.6388905256","","0.8","0.2","0.6","0.4","","","","","0.4753587859","0.7609423287","0.6388905256","0.376709287","","","","","","","","","","75","K","2","","","42","main_expt",""
"","bandit","122","615567","0.0-84.0-0.0","67328256","wem/bandit_party_2","A2TFMDDIPNF02W","either","6","702","","","","","","","1","0","0","0.6383372244","","0.8","0.2","0.6","0.4","","","","","0.452202747","0.8039673949","0.6383372244","0.4319300722","","","","","","","","","","75","K","2","","","43","main_expt",""
"","bandit","123","618258","0.0-85.0-0.0","67328256","wem/bandit_party_2","A2TFMDDIPNF02W","either","6","1172","","","","","","","0","0","1","0.6247854939","","0.8","0.2","0.6","0.4","","","","","0.5522191005","0.8216753652","0.6247854939","0.4458636389","","","","","","","","","","75","K","2","","","44","main_expt",""
"","bandit","124","620977","0.0-86.0-0.0","67328256","wem/bandit_party_2","A2TFMDDIPNF02W","either","6","1149","","","","","","","1","0","0","0.6341880498","","0.8","0.2","0.6","0.4","","","","","0.4878962787","0.7636866317","0.6341880498","0.4323480181","","","","","","","","","","75","K","2","","","45","main_expt",""
"","bandit","125","623980","0.0-87.0-0.0","67328256","wem/bandit_party_2","A2TFMDDIPNF02W","either","6","1359","","","","","","","1","0","0","0.5081310512","","0.8","0.2","0.6","0.4","","","","","0.487595293","0.8203755575","0.5081310512","0.4348202433","","","","","","","","","","75","K","2","","","46","main_expt",""
"","bandit","126","626944","0.0-88.0-0.0","67328256","wem/bandit_party_2","A2TFMDDIPNF02W","either","6","1408","","","","","","","0","1","0","","0.4202927251","0.8","0.2","0.6","0.4","0.444754188","0.8706375764","0.4202927251","0.3430847618","","","","","","","","","","","","","","75","K","2","","","47","main_expt",""
"","bandit","127","629732","0.0-89.0-0.0","67328256","wem/bandit_party_2","A2TFMDDIPNF02W","either","6","1267","","","","","","","0","1","0","","0.4767868938","0.8","0.2","0.6","0.4","0.5044276746","0.8019506245","0.4767868938","0.2601977795","","","","","","","","","","","","","","75","K","2","","","48","main_expt",""
"","bandit","128","632699","0.0-90.0-0.0","67328256","wem/bandit_party_2","A2TFMDDIPNF02W","either","6","1433","","","","","","","1","0","0","0.3749468019","","0.8","0.2","0.6","0.4","","","","","0.3766714482","0.7331224435","0.3749468019","0.2368144698","","","","","","","","","","75","K","2","","","49","main_expt",""
"","bandit","129","635432","0.0-91.0-0.0","67328256","wem/bandit_party_2","A2TFMDDIPNF02W","either","6","1203","","","","","","","0","0","1","0.3532902347","","0.8","0.2","0.6","0.4","","","","","0.406992786","0.7908344101","0.3532902347","0.2484527115","","","","","","","","","","75","K","2","","","50","main_expt",""
"","bandit","130","637975","0.0-92.0-0.0","67328256","wem/bandit_party_2","A2TFMDDIPNF02W","either","6","914","","","","","","","0","0","1","","0.2413466802","0.8","0.2","0.6","0.4","0.3854505747","0.7922828235","0.2413466802","0.230268934","","","","","","","","","","","","","","75","K","2","","","51","main_expt",""
"","bandit","131","640532","0.0-93.0-0.0","67328256","wem/bandit_party_2","A2TFMDDIPNF02W","either","6","1039","","","","","","","0","0","1","","0.3429002399","0.8","0.2","0.6","0.4","0.3956915145","0.7485378942","0.2673723166","0.3429002399","","","","","","","","","","","","","","76","L","3","","","52","main_expt",""
"","bandit","132","643277","0.0-94.0-0.0","67328256","wem/bandit_party_2","A2TFMDDIPNF02W","either","6","1214","","","","","","","0","0","1","","0.2871029552","0.8","0.2","0.6","0.4","0.3062348001","0.6603794952","0.2806035608","0.2871029552","","","","","","","","","","","","","","76","L","3","","","53","main_expt",""
"","bandit","133","647155","0.0-95.0-0.0","67328256","wem/bandit_party_2","A2TFMDDIPNF02W","either","6","2346","","","","","","","0","0","1","0.2996500993","","0.8","0.2","0.6","0.4","","","","","0.2996500993","0.6931449795","0.2544312064","0.2594444468","","","","","","","","","","72","H","0","img/none_selected.jpg","","54","main_expt",""
"","bandit","134","650168","0.0-96.0-0.0","67328256","wem/bandit_party_2","A2TFMDDIPNF02W","either","6","1482","","","","","","","0","0","1","0.2518247787","","0.8","0.2","0.6","0.4","","","","","0.2518247787","0.7553272845","0.3362815808","0.3333749245","","","","","","","","","","72","H","0","img/none_selected.jpg","","55","main_expt",""
"","bandit","135","652630","0.0-97.0-0.0","67328256","wem/bandit_party_2","A2TFMDDIPNF02W","either","6","938","","","","","","","0","0","1","","0.7231548626","0.8","0.2","0.6","0.4","0.3014763065","0.7231548626","0.3798256012","0.3049104067","","","","","","","","","","","","","","74","J","1","","","56","main_expt",""
"","bandit","136","655257","0.0-98.0-0.0","67328256","wem/bandit_party_2","A2TFMDDIPNF02W","either","6","1090","","","","","","","0","0","1","0.3989549393","","0.8","0.2","0.6","0.4","","","","","0.2730843718","0.7485901337","0.3989549393","0.3623273811","","","","","","","","","","75","K","2","","","57","main_expt",""
"","bandit","137","658334","0.0-99.0-0.0","67328256","wem/bandit_party_2","A2TFMDDIPNF02W","either","6","1545","","","","","","","0","0","1","","0.3621169042","0.8","0.2","0.6","0.4","0.367239041","0.797082508","0.3373398956","0.3621169042","","","","","","","","","","","","","","76","L","3","","","58","main_expt",""
"","bandit","138","660932","0.0-100.0-0.0","67328256","wem/bandit_party_2","A2TFMDDIPNF02W","either","6","1064","","","","","","","0","0","1","0.3672848169","","0.8","0.2","0.6","0.4","","","","","0.4005220403","0.7466963627","0.3381045731","0.3672848169","","","","","","","","","","76","L","3","","","59","main_expt",""
"","bandit","139","663662","0.0-101.0-0.0","67328256","wem/bandit_party_2","A2TFMDDIPNF02W","either","6","1211","","","","","","","1","0","0","0.4838111383","","0.8","0.2","0.6","0.4","","","","","0.4863912708","0.6359615323","0.4838111383","0.5123874715","","","","","","","","","","75","K","2","","","60","main_expt",""
"","bandit","140","666984","0.0-102.0-0.0","67328256","wem/bandit_party_2","A2TFMDDIPNF02W","either","6","1736","","","","","","","1","0","0","0.4290776342","","0.8","0.2","0.6","0.4","","","","","0.5220595343","0.7125939799","0.4290776342","0.5218319631","","","","","","","","","","75","K","2","","","61","main_expt",""
"","bandit","141","670158","0.0-103.0-0.0","67328256","wem/bandit_party_2","A2TFMDDIPNF02W","either","6","1656","","","","","","","0","0","1","","0.4387439774","0.8","0.2","0.6","0.4","0.5447889898","0.5978650666","0.4387439774","0.6482151027","","","","","","","","","","","","","","75","K","2","","","62","main_expt",""
"","bandit","142","672632","0.0-104.0-0.0","67328256","wem/bandit_party_2","A2TFMDDIPNF02W","either","6","951","","","","","","","0","0","1","","0.3670418014","0.8","0.2","0.6","0.4","0.5517390004","0.5166338879","0.3670418014","0.6966290852","","","","","","","","","","","","","","75","K","2","","","63","main_expt",""
"","bandit","143","675330","0.0-105.0-0.0","67328256","wem/bandit_party_2","A2TFMDDIPNF02W","either","6","1166","","","","","","","0","0","1","","0.4901650138","0.8","0.2","0.6","0.4","0.6576188384","0.4901650138","0.3470393933","0.6497033777","","","","","","","","","","","","","","74","J","1","","","64","main_expt",""
"","bandit","144","677455","0.0-106.0-0.0","67328256","wem/bandit_party_2","A2TFMDDIPNF02W","either","6","591","","","","","","","0","0","1","0.5156176703","","0.8","0.2","0.6","0.4","","","","","0.5156176703","0.459365688","0.3361574661","0.6925184903","","","","","","","","","","72","H","0","img/none_selected.jpg","","65","main_expt",""
"","bandit","145","679782","0.0-107.0-0.0","67328256","wem/bandit_party_2","A2TFMDDIPNF02W","either","6","785","","","","","","","0","0","1","0.3851410914","","0.8","0.2","0.6","0.4","","","","","0.3851410914","0.4666104807","0.34308242","0.8298767513","","","","","","","","","","72","H","0","img/none_selected.jpg","","66","main_expt",""
"","bandit","146","681969","0.0-108.0-0.0","67328256","wem/bandit_party_2","A2TFMDDIPNF02W","either","6","651","","","","","","","0","0","1","","0.5547259005","0.8","0.2","0.6","0.4","0.3925250542","0.5547259005","0.3730603492","0.8506596021","","","","","","","","","","","","","","74","J","1","","","67","main_expt",""
"","bandit","147","684252","0.0-109.0-0.0","67328256","wem/bandit_party_2","A2TFMDDIPNF02W","either","6","762","","","","","","","0","1","0","","0.6038719492","0.8","0.2","0.6","0.4","0.3884113518","0.6038719492","0.4089949532","0.8536910832","","","","","","","","","","","","","","74","J","1","","","68","main_expt",""
"","bandit","148","686976","0.0-110.0-0.0","67328256","wem/bandit_party_2","A2TFMDDIPNF02W","either","6","1147","","","","","","","0","0","1","","0.6148283845","0.8","0.2","0.6","0.4","0.3434478979","0.6148283845","0.3749002533","0.8642538991","","","","","","","","","","","","","","74","J","1","","","69","main_expt",""
"","bandit","149","689737","0.0-111.0-0.0","67328256","wem/bandit_party_2","A2TFMDDIPNF02W","either","6","1223","","","","","","","0","0","1","0.4133869845","","0.8","0.2","0.6","0.4","","","","","0.4426642051","0.6683283761","0.4133869845","0.8073802352","","","","","","","","","","75","K","2","","","70","main_expt",""
"","bandit","150","692057","0.0-112.0-0.0","67328256","wem/bandit_party_2","A2TFMDDIPNF02W","either","6","801","","","","","","","1","0","0","0.8059201048","","0.8","0.2","0.6","0.4","","","","","0.4518046004","0.738459761","0.3302164541","0.8059201048","","","","","","","","","","76","L","3","","","71","main_expt",""
"","bandit","151","694572","0.0-113.0-0.0","67328256","wem/bandit_party_2","A2TFMDDIPNF02W","either","6","995","","","","","","","1","0","0","0.8262275011","","0.8","0.2","0.6","0.4","","","","","0.4903223245","0.6525166508","0.2570952275","0.8262275011","","","","","","","","","","76","L","3","","","72","main_expt",""
"","bandit","152","697052","0.0-114.0-0.0","67328256","wem/bandit_party_2","A2TFMDDIPNF02W","either","6","943","","","","","","","0","0","1","","0.7334390718","0.8","0.2","0.6","0.4","0.5296083002","0.5715134512","0.2042885023","0.7334390718","","","","","","","","","","","","","","76","L","3","","","73","main_expt",""
"","bandit","153","699534","0.0-115.0-0.0","67328256","wem/bandit_party_2","A2TFMDDIPNF02W","either","6","949","","","","","","","0","0","1","0.7490977197","","0.8","0.2","0.6","0.4","","","","","0.4883026933","0.6228045854","0.2152837516","0.7490977197","","","","","","","","","","76","L","3","","","74","main_expt",""
"","bandit","154","702313","0.0-116.0-0.0","67328256","wem/bandit_party_2","A2TFMDDIPNF02W","either","6","1257","","","","","","","0","0","1","","0.7554087461","0.8","0.2","0.6","0.4","0.4914171484","0.613630376","0.2044775694","0.7554087461","","","","","","","","","","","","","","76","L","3","","","75","main_expt",""
"","bandit","155","704680","0.0-117.0-0.0","67328256","wem/bandit_party_2","A2TFMDDIPNF02W","either","6","830","","","","","","","0","0","1","0.6059218973","","0.8","0.2","0.6","0.4","","","","","0.6059218973","0.7047266053","0.2247613499","0.804443878","","","","","","","","","","72","H","0","img/none_selected.jpg","","76","main_expt",""
"","bandit","156","706702","0.0-118.0-0.0","67328256","wem/bandit_party_2","A2TFMDDIPNF02W","either","6","503","","","","","","","1","0","0","0.553792366","","0.8","0.2","0.6","0.4","","","","","0.553792366","0.6910360943","0.2266335256","0.6656620098","","","","","","","","","","72","H","0","img/none_selected.jpg","","77","main_expt",""
"","bandit","157","709249","0.0-119.0-0.0","67328256","wem/bandit_party_2","A2TFMDDIPNF02W","either","6","1024","","","","","","","1","0","0","0.6884193839","","0.8","0.2","0.6","0.4","","","","","0.6884193839","0.5515992215","0.1659731505","0.5898140708","","","","","","","","","","72","H","0","img/none_selected.jpg","","78","main_expt",""
"","bandit","158","712504","0.0-120.0-0.0","67328256","wem/bandit_party_2","A2TFMDDIPNF02W","either","6","1717","","","","","","","1","0","0","0.7214277645","","0.8","0.2","0.6","0.4","","","","","0.7214277645","0.6448399581","0.2343921172","0.613215191","","","","","","","","","","72","H","0","img/none_selected.jpg","","79","main_expt",""
"","bandit","159","715345","0.0-121.0-0.0","67328256","wem/bandit_party_2","A2TFMDDIPNF02W","either","6","1320","","","","","","","1","0","0","0.7328142644","","0.8","0.2","0.6","0.4","","","","","0.7328142644","0.739479497","0.2164054515","0.4605925783","","","","","","","","","","72","H","0","img/none_selected.jpg","","80","main_expt",""
"","bandit","160","718345","0.0-122.0-0.0","67328256","wem/bandit_party_2","A2TFMDDIPNF02W","either","6","1470","","","","","","","0","0","1","0.7101675561","","0.8","0.2","0.6","0.4","","","","","0.7101675561","0.6956071838","0.1361232007","0.5390789087","","","","","","","","","","72","H","0","img/none_selected.jpg","","81","main_expt",""
"","bandit","161","721052","0.0-123.0-0.0","67328256","wem/bandit_party_2","A2TFMDDIPNF02W","either","6","1186","","","","","","","1","0","0","0.6984384541","","0.8","0.2","0.6","0.4","","","","","0.6984384541","0.5886517937","0.2275447725","0.621290364","","","","","","","","","","72","H","0","img/none_selected.jpg","","82","main_expt",""
"","bandit","162","723817","0.0-124.0-0.0","67328256","wem/bandit_party_2","A2TFMDDIPNF02W","either","6","1205","","","","","","","0","1","0","","0.7447883659","0.8","0.2","0.6","0.4","0.7447883659","0.4764182235","0.1900607051","0.6359424421","","","","","","","","","","","","","","72","H","0","img/none_selected.jpg","","83","main_expt",""
"","bandit","163","726982","0.0-125.0-0.0","67328256","wem/bandit_party_2","A2TFMDDIPNF02W","either","6","1574","","","","","","","1","0","0","0.6900592863","","0.8","0.2","0.6","0.4","","","","","0.6900592863","0.5149027494","0.1306868958","0.6133664729","","","","","","","","","","72","H","0","img/none_selected.jpg","","84","main_expt",""
"","bandit","164","729726","0.0-126.0-0.0","67328256","wem/bandit_party_2","A2TFMDDIPNF02W","either","6","1224","","","","","","","1","0","0","0.7010597455","","0.8","0.2","0.6","0.4","","","","","0.7010597455","0.4908067213","0.1683201849","0.7815463305","","","","","","","","","","72","H","0","img/none_selected.jpg","","85","main_expt",""
"","bandit","165","732628","0.0-127.0-0.0","67328256","wem/bandit_party_2","A2TFMDDIPNF02W","either","6","1366","","","","","","","0","0","1","0.6171062652","","0.8","0.2","0.6","0.4","","","","","0.6171062652","0.4139472458","0.1290314955","0.7355789231","","","","","","","","","","72","H","0","img/none_selected.jpg","","86","main_expt",""
"","bandit","166","735441","0.0-128.0-0.0","67328256","wem/bandit_party_2","A2TFMDDIPNF02W","either","6","1282","","","","","","","0","0","1","0.5629375242","","0.8","0.2","0.6","0.4","","","","","0.5629375242","0.4253818619","0.2297537383","0.7267399876","","","","","","","","","","72","H","0","img/none_selected.jpg","","87","main_expt",""
"","bandit","167","738514","0.0-129.0-0.0","67328256","wem/bandit_party_2","A2TFMDDIPNF02W","either","6","1537","","","","","","","1","0","0","0.6434443074","","0.8","0.2","0.6","0.4","","","","","0.6434443074","0.4448862761","0.1878263516","0.7703195612","","","","","","","","","","72","H","0","img/none_selected.jpg","","88","main_expt",""
"","bandit","168","741980","0.0-130.0-0.0","67328256","wem/bandit_party_2","A2TFMDDIPNF02W","either","6","1939","","","","","","","0","0","1","0.7296698787","","0.8","0.2","0.6","0.4","","","","","0.7296698787","0.4295642349","0.1896964823","0.81872988","","","","","","","","","","72","H","0","img/none_selected.jpg","","89","main_expt",""
"","bandit","169","745612","0.0-131.0-0.0","67328256","wem/bandit_party_2","A2TFMDDIPNF02W","either","6","2108","","","","","","","0","0","1","0.3655203192","","0.8","0.2","0.6","0.4","","","","","0.7042864347","0.3655203192","0.1614970172","0.8032570632","","","","","","","","","","74","J","1","","","90","main_expt",""
"","bandit","170","748711","0.0-132.0-0.0","67328256","wem/bandit_party_2","A2TFMDDIPNF02W","either","6","1563","","","","","","","0","0","1","","0.2107705911","0.8","0.2","0.6","0.4","0.7606559624","0.402428746","0.2107705911","0.8257352781","","","","","","","","","","","","","","75","K","2","","","91","main_expt",""
"","bandit","171","751571","0.0-133.0-0.0","67328256","wem/bandit_party_2","A2TFMDDIPNF02W","either","6","1327","","","","","","","0","0","1","","0.7762210657","0.8","0.2","0.6","0.4","0.8466818248","0.452733603","0.1317951273","0.7762210657","","","","","","","","","","","","","","76","L","3","","","92","main_expt",""
"","bandit","172","753779","0.0-134.0-0.0","67328256","wem/bandit_party_2","A2TFMDDIPNF02W","either","6","690","","","","","","","0","0","1","","0.5416456901","0.8","0.2","0.6","0.4","0.8181600593","0.5416456901","0.09268613222","0.8293629201","","","","","","","","","","","","","","74","J","1","","","93","main_expt",""
"","bandit","173","756409","0.0-135.0-0.0","67328256","wem/bandit_party_2","A2TFMDDIPNF02W","either","6","1107","","","","","","","0","0","1","0.06418168538","","0.8","0.2","0.6","0.4","","","","","0.7259749053","0.5246039132","0.06418168538","0.7849393417","","","","","","","","","","75","K","2","","","94","main_expt",""
"","bandit","174","758742","0.0-136.0-0.0","67328256","wem/bandit_party_2","A2TFMDDIPNF02W","either","6","797","","","","","","","0","1","0","","0.7850226125","0.8","0.2","0.6","0.4","0.6538641892","0.606801291","0.100072779","0.7850226125","","","","","","","","","","","","","","76","L","3","","","95","main_expt",""
"","bandit","175","761429","0.0-137.0-0.0","67328256","wem/bandit_party_2","A2TFMDDIPNF02W","either","6","1146","","","","","","","1","0","0","0.8013150942","","0.8","0.2","0.6","0.4","","","","","0.6384360591","0.7175242067","0.09628221604","0.8013150942","","","","","","","","","","76","L","3","","","96","main_expt",""
"","bandit","176","763955","0.0-138.0-0.0","67328256","wem/bandit_party_2","A2TFMDDIPNF02W","either","6","1007","","","","","","","1","0","0","0.70340399","","0.8","0.2","0.6","0.4","","","","","0.6836118029","0.7706560561","0.1335622201","0.70340399","","","","","","","","","","76","L","3","","","97","main_expt",""
"","bandit","177","766097","0.0-139.0-0.0","67328256","wem/bandit_party_2","A2TFMDDIPNF02W","either","6","565","","","","","","","0","1","0","","0.7562517051","0.8","0.2","0.6","0.4","0.659457158","0.7234704616","0.167202632","0.7562517051","","","","","","","","","","","","","","76","L","3","","","98","main_expt",""
"","bandit","178","768468","0.0-140.0-0.0","67328256","wem/bandit_party_2","A2TFMDDIPNF02W","either","6","824","","","","","","","0","1","0","","0.6514659141","0.8","0.2","0.6","0.4","0.7726162223","0.6582042781","0.1216125457","0.6514659141","","","","","","","","","","","","","","76","L","3","","","99","main_expt",""
"","bandit","179","771177","0.0-141.0-0.0","67328256","wem/bandit_party_2","A2TFMDDIPNF02W","either","6","1167","","","","","","","1","0","0","0.7112237606","","0.8","0.2","0.6","0.4","","","","","0.8446518706","0.6530973887","0.1163239148","0.7112237606","","","","","","","","","","76","L","3","","","100","main_expt",""
"","bandit","180","773956","0.0-142.0-0.0","67328256","wem/bandit_party_2","A2TFMDDIPNF02W","either","6","1185","","","","","","","1","0","0","0.6865981462","","0.8","0.2","0.6","0.4","","","","","0.8784151442","0.6690961394","0.1037928869","0.6865981462","","","","","","","","","","76","L","3","","","101","main_expt",""
"","bandit","181","776369","0.0-143.0-0.0","67328256","wem/bandit_party_2","A2TFMDDIPNF02W","either","6","889","","","","","","","0","0","1","0.6663704066","","0.8","0.2","0.6","0.4","","","","","0.8781202538","0.6268844929","0.0991068806","0.6663704066","","","","","","","","","","76","L","3","","","102","main_expt",""
"","bandit","182","778561","0.0-144.0-0.0","67328256","wem/bandit_party_2","A2TFMDDIPNF02W","either","6","663","","","","","","","1","0","0","0.6006744832","","0.8","0.2","0.6","0.4","","","","","0.8123732176","0.6657789595","0.1226752409","0.6006744832","","","","","","","","","","76","L","3","","","103","main_expt",""
"","bandit","183","782608","0.0-145.0-0.0","67328256","wem/bandit_party_2","A2TFMDDIPNF02W","either","6","2524","","","","","","","1","0","0","0.518723913","","0.8","0.2","0.6","0.4","","","","","0.8461937008","0.6951589836","0.1552466415","0.518723913","","","","","","","","","","76","L","3","","","104","main_expt",""
"","bandit","184","785518","0.0-146.0-0.0","67328256","wem/bandit_party_2","A2TFMDDIPNF02W","either","6","1373","","","","","","","0","1","0","","0.5343999165","0.8","0.2","0.6","0.4","0.8664825842","0.6382729445","0.1702138509","0.5343999165","","","","","","","","","","","","","","76","L","3","","","105","main_expt",""
"","bandit","185","788553","0.0-147.0-0.0","67328256","wem/bandit_party_2","A2TFMDDIPNF02W","either","6","1508","","","","","","","0","1","0","","0.4959998489","0.8","0.2","0.6","0.4","0.8703997655","0.7139624249","0.2021425125","0.4959998489","","","","","","","","","","","","","","76","L","3","","","106","main_expt",""
"","bandit","186","791944","0.0-148.0-0.0","67328256","wem/bandit_party_2","A2TFMDDIPNF02W","either","6","1868","","","","","","","0","1","0","","0.5052663648","0.8","0.2","0.6","0.4","0.8964314806","0.7718136471","0.2196373816","0.5052663648","","","","","","","","","","","","","","76","L","3","","","107","main_expt",""
"","bandit","187","794719","0.0-149.0-0.0","67328256","wem/bandit_party_2","A2TFMDDIPNF02W","either","6","1228","","","","","","","0","1","0","","0.4859582203","0.8","0.2","0.6","0.4","0.9080126319","0.8818715302","0.2393661099","0.4859582203","","","","","","","","","","","","","","76","L","3","","","108","main_expt",""
"","bandit","188","797538","0.0-150.0-0.0","67328256","wem/bandit_party_2","A2TFMDDIPNF02W","either","6","1294","","","","","","","0","0","1","","0.523617738","0.8","0.2","0.6","0.4","0.8880845243","0.8757741924","0.2516352594","0.523617738","","","","","","","","","","","","","","76","L","3","","","109","main_expt",""
"","bandit","189","800384","0.0-151.0-0.0","67328256","wem/bandit_party_2","A2TFMDDIPNF02W","either","6","1234","","","","","","","0","0","1","","0.5492010791","0.8","0.2","0.6","0.4","0.899251136","0.8657151097","0.2424291788","0.5492010791","","","","","","","","","","","","","","76","L","3","","","110","main_expt",""
"","bandit","190","803331","0.0-152.0-0.0","67328256","wem/bandit_party_2","A2TFMDDIPNF02W","either","6","1424","","","","","","","0","1","0","","0.5467154696","0.8","0.2","0.6","0.4","0.9019514556","0.8457624762","0.2033086481","0.5467154696","","","","","","","","","","","","","","76","L","3","","","111","main_expt",""
"","bandit","191","806204","0.0-153.0-0.0","67328256","wem/bandit_party_2","A2TFMDDIPNF02W","either","6","1337","","","","","","","0","1","0","","0.5396215981","0.8","0.2","0.6","0.4","0.9315537639","0.8756116827","0.208613213","0.5396215981","","","","","","","","","","","","","","76","L","3","","","112","main_expt",""
"","bandit","192","808541","0.0-154.0-0.0","67328256","wem/bandit_party_2","A2TFMDDIPNF02W","either","6","798","","","","","","","0","0","1","","0.5542875214","0.8","0.2","0.6","0.4","0.9254394702","0.8773181328","0.2743958833","0.5542875214","","","","","","","","","","","","","","76","L","3","","","113","main_expt",""
"","bandit","193","811441","0.0-155.0-0.0","67328256","wem/bandit_party_2","A2TFMDDIPNF02W","either","6","1367","","","","","","","0","0","1","","0.6411428718","0.8","0.2","0.6","0.4","0.9394904604","0.8842236373","0.2657329006","0.6411428718","","","","","","","","","","","","","","76","L","3","","","114","main_expt",""
"","bandit","194","813866","0.0-156.0-0.0","67328256","wem/bandit_party_2","A2TFMDDIPNF02W","either","6","888","","","","","","","0","1","0","","0.3234316928","0.8","0.2","0.6","0.4","0.9533355239","0.8499121835","0.3234316928","0.7261400339","","","","","","","","","","","","","","75","K","2","","","115","main_expt",""
"","bandit","195","816441","0.0-157.0-0.0","67328256","wem/bandit_party_2","A2TFMDDIPNF02W","either","6","1038","","","","","","","0","1","0","","0.3625587123","0.8","0.2","0.6","0.4","0.960842596","0.7890056153","0.3625587123","0.7395407697","","","","","","","","","","","","","","75","K","2","","","116","main_expt",""
"","bandit","196","818860","0.0-158.0-0.0","67328256","wem/bandit_party_2","A2TFMDDIPNF02W","either","6","887","","","","","","","0","0","1","","0.4946904956","0.8","0.2","0.6","0.4","0.937733065","0.7709890197","0.4946904956","0.8231731708","","","","","","","","","","","","","","75","K","2","","","117","main_expt",""
"","bandit","197","821355","0.0-159.0-0.0","67328256","wem/bandit_party_2","A2TFMDDIPNF02W","either","6","891","","","","","","","1","0","0","0.6246330079","","0.8","0.2","0.6","0.4","","","","","0.9561499645","0.7459937787","0.6246330079","0.8278750807","","","","","","","","","","75","K","2","","","118","main_expt",""
"","bandit","198","824492","0.0-160.0-0.0","67328256","wem/bandit_party_2","A2TFMDDIPNF02W","either","6","1604","","","","","","","0","1","0","","0.5818097722","0.8","0.2","0.6","0.4","0.9595118281","0.716881491","0.5818097722","0.8715827524","","","","","","","","","","","","","","75","K","2","","","119","main_expt",""
"","bandit","199","827057","0.0-161.0-0.0","67328256","wem/bandit_party_2","A2TFMDDIPNF02W","either","6","1030","","","","","","","1","0","0","0.5990025551","","0.8","0.2","0.6","0.4","","","","","0.9548463758","0.6595649419","0.5990025551","0.8522670476","","","","","","","","","","75","K","2","","","120","main_expt",""
"","bandit","200","828940","0.0-162.0-0.0","67328256","wem/bandit_party_2","A2TFMDDIPNF02W","either","6","361","","","","","","","1","0","0","0.6534424477","","0.8","0.2","0.6","0.4","","","","","0.958085665","0.6576447048","0.6534424477","0.8266542562","","","","","","","","","","75","K","2","","","121","main_expt",""
"","bandit","201","831523","0.0-163.0-0.0","67328256","wem/bandit_party_2","A2TFMDDIPNF02W","either","6","985","","","","","","","1","0","0","0.5952731017","","0.8","0.2","0.6","0.4","","","","","0.9630601427","0.6391957719","0.5952731017","0.81688531","","","","","","","","","","75","K","2","","","122","main_expt",""
"","bandit","202","833419","0.0-164.0-0.0","67328256","wem/bandit_party_2","A2TFMDDIPNF02W","either","6","371","","","","","","","0","1","0","","0.6469086187","0.8","0.2","0.6","0.4","0.9790283764","0.5873908865","0.6469086187","0.8307363081","","","","","","","","","","","","","","75","K","2","","","123","main_expt",""
"","bandit","203","835850","0.0-165.0-0.0","67328256","wem/bandit_party_2","A2TFMDDIPNF02W","either","6","886","","","","","","","1","0","0","0.6911454426","","0.8","0.2","0.6","0.4","","","","","0.9718765302","0.6592760984","0.6911454426","0.6943824695","","","","","","","","","","75","K","2","","","124","main_expt",""
"","bandit","204","838370","0.0-166.0-0.0","67328256","wem/bandit_party_2","A2TFMDDIPNF02W","either","6","1002","","","","","","","0","0","1","0.750572215","","0.8","0.2","0.6","0.4","","","","","0.9845173964","0.6012083746","0.750572215","0.7137568944","","","","","","","","","","75","K","2","","","125","main_expt",""
"","bandit","205","840846","0.0-167.0-0.0","67328256","wem/bandit_party_2","A2TFMDDIPNF02W","either","6","955","","","","","","","0","1","0","","0.8108432581","0.8","0.2","0.6","0.4","0.9804670004","0.6043440275","0.8108432581","0.6878742658","","","","","","","","","","","","","","75","K","2","","","126","main_expt",""
"","bandit","206","843659","0.0-168.0-0.0","67328256","wem/bandit_party_2","A2TFMDDIPNF02W","either","6","1287","","","","","","","1","0","0","0.8338196277","","0.8","0.2","0.6","0.4","","","","","0.9792667249","0.5043142332","0.8338196277","0.6175454059","","","","","","","","","","75","K","2","","","127","main_expt",""
"","bandit","207","846217","0.0-169.0-0.0","67328256","wem/bandit_party_2","A2TFMDDIPNF02W","either","6","1018","","","","","","","1","0","0","0.8624128669","","0.8","0.2","0.6","0.4","","","","","0.9853815399","0.5778209799","0.8624128669","0.5556505876","","","","","","","","","","75","K","2","","","128","main_expt",""
"","bandit","208","848744","0.0-170.0-0.0","67328256","wem/bandit_party_2","A2TFMDDIPNF02W","either","6","1004","","","","","","","1","0","0","0.9026068167","","0.8","0.2","0.6","0.4","","","","","0.9838319732","0.5806273004","0.9026068167","0.5948532478","","","","","","","","","","75","K","2","","","129","main_expt",""
"","bandit","209","851496","0.0-171.0-0.0","67328256","wem/bandit_party_2","A2TFMDDIPNF02W","either","6","1223","","","","","","","1","0","0","0.8983636673","","0.8","0.2","0.6","0.4","","","","","0.9798768453","0.4152233618","0.8983636673","0.6646968067","","","","","","","","","","75","K","2","","","130","main_expt",""
"","bandit","210","854438","0.0-172.0-0.0","67328256","wem/bandit_party_2","A2TFMDDIPNF02W","either","6","1315","","","","","","","0","1","0","","0.888478962","0.8","0.2","0.6","0.4","0.9628017066","0.4527057242","0.888478962","0.6676177377","","","","","","","","","","","","","","75","K","2","","","131","main_expt",""
"","bandit","211","857162","0.0-173.0-0.0","67328256","wem/bandit_party_2","A2TFMDDIPNF02W","either","6","1194","","","","","","","0","1","0","","0.8470567254","0.8","0.2","0.6","0.4","0.9723970119","0.5185753891","0.8470567254","0.7638630926","","","","","","","","","","","","","","75","K","2","","","132","main_expt",""
"","bandit","212","860579","0.0-174.0-0.0","67328256","wem/bandit_party_2","A2TFMDDIPNF02W","either","6","1885","","","","","","","0","1","0","","0.8852081265","0.8","0.2","0.6","0.4","0.9754432393","0.4567386081","0.8852081265","0.726350598","","","","","","","","","","","","","","75","K","2","","","133","main_expt",""
"","bandit","213","863113","0.0-175.0-0.0","67328256","wem/bandit_party_2","A2TFMDDIPNF02W","either","6","1013","","","","","","","0","1","0","","0.8317422298","0.8","0.2","0.6","0.4","0.9635376407","0.4494056808","0.8317422298","0.7638059904","","","","","","","","","","","","","","75","K","2","","","134","main_expt",""
"","bandit","214","866082","0.0-176.0-0.0","67328256","wem/bandit_party_2","A2TFMDDIPNF02W","either","6","1439","","","","","","","0","0","1","0.8121858422","","0.8","0.2","0.6","0.4","","","","","0.9304273523","0.4608562393","0.8121858422","0.7337835984","","","","","","","","","","75","K","2","","","135","main_expt",""
"","bandit","215","868950","0.0-177.0-0.0","67328256","wem/bandit_party_2","A2TFMDDIPNF02W","either","6","1344","","","","","","","1","0","0","0.8473276522","","0.8","0.2","0.6","0.4","","","","","0.9295592062","0.6684020244","0.8473276522","0.7869055623","","","","","","","","","","75","K","2","","","136","main_expt",""
"","bandit","216","872056","0.0-178.0-0.0","67328256","wem/bandit_party_2","A2TFMDDIPNF02W","either","6","1469","","","","","","","1","0","0","0.8251243182","","0.8","0.2","0.6","0.4","","","","","0.9343332129","0.614137061","0.8251243182","0.8033651193","","","","","","","","","","75","K","2","","","137","main_expt",""
"","bandit","217","874841","0.0-179.0-0.0","67328256","wem/bandit_party_2","A2TFMDDIPNF02W","either","6","1246","","","","","","","0","0","1","0.7892590299","","0.8","0.2","0.6","0.4","","","","","0.9325781127","0.711021659","0.7892590299","0.7620089345","","","","","","","","","","75","K","2","","","138","main_expt",""
"","bandit","218","877683","0.0-180.0-0.0","67328256","wem/bandit_party_2","A2TFMDDIPNF02W","either","6","1297","","","","","","","1","0","0","0.753698647","","0.8","0.2","0.6","0.4","","","","","0.9687763229","0.5731932267","0.753698647","0.8098853196","","","","","","","","","","75","K","2","","","139","main_expt",""
"","bandit","219","881154","0.0-181.0-0.0","67328256","wem/bandit_party_2","A2TFMDDIPNF02W","either","6","1899","","","","","","","0","1","0","","0.7281837229","0.8","0.2","0.6","0.4","0.9520204639","0.6553783698","0.7281837229","0.8737133651","","","","","","","","","","","","","","75","K","2","","","140","main_expt",""
"","bandit","220","883981","0.0-182.0-0.0","67328256","wem/bandit_party_2","A2TFMDDIPNF02W","either","6","1306","","","","","","","0","0","1","","0.7913145473","0.8","0.2","0.6","0.4","0.9615613541","0.5665224918","0.7913145473","0.8464817719","","","","","","","","","","","","","","75","K","2","","","141","main_expt",""
"","bandit","221","886925","0.0-183.0-0.0","67328256","wem/bandit_party_2","A2TFMDDIPNF02W","either","6","1363","","","","","","","0","0","1","0.7498898283","","0.8","0.2","0.6","0.4","","","","","0.9438722422","0.5230460729","0.7498898283","0.8457688645","","","","","","","","","","75","K","2","","","142","main_expt",""
"","bandit","222","889047","0.0-184.0-0.0","67328256","wem/bandit_party_2","A2TFMDDIPNF02W","either","6","388","","","","","","","1","0","0","0.5401897842","","0.8","0.2","0.6","0.4","","","","","0.9419241064","0.5401897842","0.723110339","0.8801682128","","","","","","","","","","74","J","1","","","143","main_expt",""
"","bandit","223","891805","0.0-185.0-0.0","67328256","wem/bandit_party_2","A2TFMDDIPNF02W","either","6","1206","","","","","","","0","1","0","","0.5495292383","0.8","0.2","0.6","0.4","0.9383966058","0.5495292383","0.7697142539","0.7806105972","","","","","","","","","","","","","","74","J","1","","","144","main_expt",""
"","bandit","224","895101","0.0-186.0-0.0","67328256","wem/bandit_party_2","A2TFMDDIPNF02W","either","6","1774","","","","","","","0","1","0","","0.4718854897","0.8","0.2","0.6","0.4","0.9442204223","0.4718854897","0.8279494337","0.7384744451","","","","","","","","","","","","","","74","J","1","","","145","main_expt",""
"","bandit","225","897588","0.0-187.0-0.0","67328256","wem/bandit_party_2","A2TFMDDIPNF02W","either","6","964","","","","","","","0","0","1","0.3790577705","","0.8","0.2","0.6","0.4","","","","","0.9461270134","0.3790577705","0.747104877","0.7078417075","","","","","","","","","","74","J","1","","","146","main_expt",""
"","bandit","226","900426","0.0-188.0-0.0","67328256","wem/bandit_party_2","A2TFMDDIPNF02W","either","6","1316","","","","","","","0","0","1","0.3671333747","","0.8","0.2","0.6","0.4","","","","","0.9677113618","0.3671333747","0.7635883185","0.7671729372","","","","","","","","","","74","J","1","","","147","main_expt",""
"","bandit","227","903476","0.0-189.0-0.0","67328256","wem/bandit_party_2","A2TFMDDIPNF02W","either","6","1510","","","","","","","1","0","0","0.4462771912","","0.8","0.2","0.6","0.4","","","","","0.9603287673","0.4462771912","0.6650729927","0.7515071201","","","","","","","","","","74","J","1","","","148","main_expt",""
"","bandit","228","906714","0.0-190.0-0.0","67328256","wem/bandit_party_2","A2TFMDDIPNF02W","either","6","1706","","","","","","","0","1","0","","0.3929125452","0.8","0.2","0.6","0.4","0.9256305183","0.3929125452","0.594527628","0.7582160768","","","","","","","","","","","","","","74","J","1","","","149","main_expt",""
"","bandit","229","909429","0.0-191.0-0.0","67328256","wem/bandit_party_2","A2TFMDDIPNF02W","either","6","1192","","","","","","","0","1","0","","0.3825194633","0.8","0.2","0.6","0.4","0.9222609783","0.3825194633","0.5101412162","0.6843302658","","","","","","","","","","","","","","74","J","1","","","150","main_expt",""
"","bandit","230","912631","0.0-192.0-0.0","67328256","wem/bandit_party_2","A2TFMDDIPNF02W","either","6","1661","","","","","","","0","1","0","","0.3889652011","0.8","0.2","0.6","0.4","0.9522131909","0.3889652011","0.5755011036","0.4980827124","","","","","","","","","","","","","","74","J","1","","","151","main_expt",""
"","bandit","231","915224","0.0-193.0-0.0","67328256","wem/bandit_party_2","A2TFMDDIPNF02W","either","6","1069","","","","","","","0","0","1","","0.372169082","0.8","0.2","0.6","0.4","0.9351777179","0.372169082","0.5415628766","0.5418861514","","","","","","","","","","","","","","74","J","1","","","152","main_expt",""
"","bandit","232","918133","0.0-194.0-0.0","67328256","wem/bandit_party_2","A2TFMDDIPNF02W","either","6","1370","","","","","","","0","0","1","0.4275919172","","0.8","0.2","0.6","0.4","","","","","0.9526549669","0.4275919172","0.6392888902","0.6424708626","","","","","","","","","","74","J","1","","","153","main_expt",""
"","bandit","233","921058","0.0-195.0-0.0","67328256","wem/bandit_party_2","A2TFMDDIPNF02W","either","6","1324","","","","","","","0","0","1","0.3978897223","","0.8","0.2","0.6","0.4","","","","","0.944677936","0.3978897223","0.6798835142","0.6200403258","","","","","","","","","","74","J","1","","","154","main_expt",""
"","bandit","234","923480","0.0-196.0-0.0","67328256","wem/bandit_party_2","A2TFMDDIPNF02W","either","6","899","","","","","","","1","0","0","0.5087788092","","0.8","0.2","0.6","0.4","","","","","0.9443948233","0.4922143253","0.7376683638","0.5087788092","","","","","","","","","","76","L","3","","","155","main_expt",""
"","bandit","235","926318","0.0-197.0-0.0","67328256","wem/bandit_party_2","A2TFMDDIPNF02W","either","6","1299","","","","","","","0","0","1","0.4397360723","","0.8","0.2","0.6","0.4","","","","","0.9312029685","0.5060601407","0.7740838489","0.4397360723","","","","","","","","","","76","L","3","","","156","main_expt",""
"","bandit","236","929164","0.0-198.0-0.0","67328256","wem/bandit_party_2","A2TFMDDIPNF02W","either","6","1305","","","","","","","0","1","0","","0.4529934193","0.8","0.2","0.6","0.4","0.9009413449","0.56460533","0.7526352547","0.4529934193","","","","","","","","","","","","","","76","L","3","","","157","main_expt",""
"","bandit","237","932020","0.0-199.0-0.0","67328256","wem/bandit_party_2","A2TFMDDIPNF02W","either","6","1322","","","","","","","0","1","0","","0.522014142","0.8","0.2","0.6","0.4","0.8799225656","0.5551408743","0.807066173","0.522014142","","","","","","","","","","","","","","76","L","3","","","158","main_expt",""
"","bandit","238","934443","0.0-200.0-0.0","67328256","wem/bandit_party_2","A2TFMDDIPNF02W","either","6","900","","","","","","","0","1","0","","0.447178695","0.8","0.2","0.6","0.4","0.9103166083","0.6362487126","0.8348587906","0.447178695","","","","","","","","","","","","","","76","L","3","","","159","main_expt",""
"","bandit","239","937097","0.0-201.0-0.0","67328256","wem/bandit_party_2","A2TFMDDIPNF02W","either","6","1052","","","","","","","0","0","1","","0.4293784973","0.8","0.2","0.6","0.4","0.9575168601","0.5818198138","0.8054329593","0.4293784973","","","","","","","","","","","","","","76","L","3","","","160","main_expt",""
"","bandit","240","939439","0.0-202.0-0.0","67328256","wem/bandit_party_2","A2TFMDDIPNF02W","either","6","818","","","","","","","0","0","1","","0.4263694152","0.8","0.2","0.6","0.4","0.9323430526","0.5079421761","0.8263011938","0.4263694152","","","","","","","","","","","","","","76","L","3","","","161","main_expt",""
"","bandit","241","942266","0.0-203.0-0.0","67328256","wem/bandit_party_2","A2TFMDDIPNF02W","either","6","1270","","","","","","","0","1","0","","0.4394756583","0.8","0.2","0.6","0.4","0.8731035433","0.3944353318","0.8468561623","0.4394756583","","","","","","","","","","","","","","76","L","3","","","162","main_expt",""
"","bandit","242","945324","0.0-204.0-0.0","67328256","wem/bandit_party_2","A2TFMDDIPNF02W","either","6","1521","","","","","","","0","0","1","0.4632532181","","0.8","0.2","0.6","0.4","","","","","0.860239847","0.4560534757","0.866861138","0.4632532181","","","","","","","","","","76","L","3","","","163","main_expt",""
"","bandit","243","947668","0.0-205.0-0.0","67328256","wem/bandit_party_2","A2TFMDDIPNF02W","either","6","809","","","","","","","1","0","0","0.8327160304","","0.8","0.2","0.6","0.4","","","","","0.8327160304","0.4338988853","0.8621839131","0.469091439","","","","","","","","","","72","H","0","img/none_selected.jpg","","164","main_expt",""
"","bandit","244","950730","0.0-206.0-0.0","67328256","wem/bandit_party_2","A2TFMDDIPNF02W","either","6","1536","","","","","","","1","0","0","0.8780399083","","0.8","0.2","0.6","0.4","","","","","0.8780399083","0.3640020004","0.8368369455","0.4691854483","","","","","","","","","","72","H","0","img/none_selected.jpg","","165","main_expt",""
"","bandit","245","953293","0.0-207.0-0.0","67328256","wem/bandit_party_2","A2TFMDDIPNF02W","either","6","1023","","","","","","","0","0","1","0.8659509199","","0.8","0.2","0.6","0.4","","","","","0.8659509199","0.4433911144","0.8543831227","0.424594696","","","","","","","","","","72","H","0","img/none_selected.jpg","","166","main_expt",""
"","bandit","246","955990","0.0-208.0-0.0","67328256","wem/bandit_party_2","A2TFMDDIPNF02W","either","6","1042","","","","","","","1","0","0","0.8458676595","","0.8","0.2","0.6","0.4","","","","","0.8458676595","0.4852122499","0.8444257961","0.4691217736","","","","","","","","","","72","H","0","img/none_selected.jpg","","167","main_expt",""
"","bandit","247","958253","0.0-209.0-0.0","67328256","wem/bandit_party_2","A2TFMDDIPNF02W","either","6","738","","","","","","","1","0","0","0.7368025647","","0.8","0.2","0.6","0.4","","","","","0.7368025647","0.4829488348","0.8895061166","0.4605946041","","","","","","","","","","72","H","0","img/none_selected.jpg","","168","main_expt",""
"","bandit","248","960730","0.0-210.0-0.0","67328256","wem/bandit_party_2","A2TFMDDIPNF02W","either","6","915","","","","","","","0","0","1","0.6811301937","","0.8","0.2","0.6","0.4","","","","","0.6811301937","0.467087579","0.8980662015","0.4302520818","","","","","","","","","","72","H","0","img/none_selected.jpg","","169","main_expt",""
"","bandit","249","964321","0.0-211.0-0.0","67328256","wem/bandit_party_2","A2TFMDDIPNF02W","either","6","2039","","","","","","","0","1","0","","0.6781719117","0.8","0.2","0.6","0.4","0.6781719117","0.3575164989","0.9399190154","0.3846086554","","","","","","","","","","","","","","72","H","0","img/none_selected.jpg","","170","main_expt",""
"","bandit","250","967004","0.0-212.0-0.0","67328256","wem/bandit_party_2","A2TFMDDIPNF02W","either","6","1157","","","","","","","1","0","0","0.5779776893","","0.8","0.2","0.6","0.4","","","","","0.5779776893","0.3433755155","0.9199626721","0.4938912128","","","","","","","","","","72","H","0","img/none_selected.jpg","","171","main_expt",""
"","bandit","251","969302","0.0-213.0-0.0","67328256","wem/bandit_party_2","A2TFMDDIPNF02W","either","6","775","","","","","","","1","0","0","0.5461867433","","0.8","0.2","0.6","0.4","","","","","0.5461867433","0.2921203137","0.8885959212","0.5409242696","","","","","","","","","","72","H","0","img/none_selected.jpg","","172","main_expt",""
"","bandit","252","971833","0.0-214.0-0.0","67328256","wem/bandit_party_2","A2TFMDDIPNF02W","either","6","990","","","","","","","1","0","0","0.5898781272","","0.8","0.2","0.6","0.4","","","","","0.5898781272","0.3237382503","0.8502068985","0.4899310385","","","","","","","","","","72","H","0","img/none_selected.jpg","","173","main_expt",""
"","bandit","253","974170","0.0-215.0-0.0","67328256","wem/bandit_party_2","A2TFMDDIPNF02W","either","6","810","","","","","","","0","1","0","","0.5990225055","0.8","0.2","0.6","0.4","0.5990225055","0.2935635685","0.9054067092","0.4464532747","","","","","","","","","","","","","","72","H","0","img/none_selected.jpg","","174","main_expt",""
"","bandit","254","976704","0.0-216.0-0.0","67328256","wem/bandit_party_2","A2TFMDDIPNF02W","either","6","999","","","","","","","0","0","1","0.6129624105","","0.8","0.2","0.6","0.4","","","","","0.6129624105","0.2797951809","0.9096893241","0.4363040476","","","","","","","","","","72","H","0","img/none_selected.jpg","","175","main_expt",""
"","bandit","255","979187","0.0-217.0-0.0","67328256","wem/bandit_party_2","A2TFMDDIPNF02W","either","6","960","","","","","","","0","0","1","0.5434192492","","0.8","0.2","0.6","0.4","","","","","0.5434192492","0.2067270565","0.9081003197","0.4198776974","","","","","","","","","","72","H","0","img/none_selected.jpg","","176","main_expt",""
"","bandit","256","982075","0.0-218.0-0.0","67328256","wem/bandit_party_2","A2TFMDDIPNF02W","either","6","1171","","","","","","","0","0","1","0.19266164","","0.8","0.2","0.6","0.4","","","","","0.5893108522","0.19266164","0.8417535431","0.4001478854","","","","","","","","","","74","J","1","","","177","main_expt",""
"","bandit","257","984828","0.0-219.0-0.0","67328256","wem/bandit_party_2","A2TFMDDIPNF02W","either","6","1184","","","","","","","0","0","1","","0.1393448617","0.8","0.2","0.6","0.4","0.4862463398","0.1393448617","0.8045518304","0.3015477047","","","","","","","","","","","","","","74","J","1","","","178","main_expt",""
"","bandit","258","987755","0.0-220.0-0.0","67328256","wem/bandit_party_2","A2TFMDDIPNF02W","either","6","1372","","","","","","","1","0","0","0.8250115846","","0.8","0.2","0.6","0.4","","","","","0.4227787996","0.1149816072","0.8250115846","0.2700131006","","","","","","","","","","75","K","2","","","179","main_expt",""
"","bandit","259","990343","0.0-221.0-0.0","67328256","wem/bandit_party_2","A2TFMDDIPNF02W","either","6","1064","","","","","","","1","0","0","0.7418096358","","0.8","0.2","0.6","0.4","","","","","0.3583368423","0.1231561222","0.7418096358","0.3473069","","","","","","","","","","75","K","2","","","180","main_expt",""
"","bandit","260","992995","0.0-222.0-0.0","67328256","wem/bandit_party_2","A2TFMDDIPNF02W","either","6","1106","","","","","","","0","0","1","","0.7180260456","0.8","0.2","0.6","0.4","0.3820052134","0.1134989143","0.7180260456","0.3478804011","","","","","","","","","","","","","","75","K","2","","","181","main_expt",""
"","bandit","261","997039","0.0-223.0-0.0","67328256","wem/bandit_party_2","A2TFMDDIPNF02W","either","6","2421","","","","","","","0","0","1","","0.6777378447","0.8","0.2","0.6","0.4","0.437769555","0.07317944644","0.6777378447","0.3304981007","","","","","","","","","","","","","","75","K","2","","","182","main_expt",""
"","bandit","262","999968","0.0-224.0-0.0","67328256","wem/bandit_party_2","A2TFMDDIPNF02W","either","6","1389","","","","","","","0","0","1","","0.2578466268","0.8","0.2","0.6","0.4","0.3951330089","0.05085611098","0.6331465848","0.2578466268","","","","","","","","","","","","","","76","L","3","","","183","main_expt",""
"","bandit","263","1002108","0.0-225.0-0.0","67328256","wem/bandit_party_2","A2TFMDDIPNF02W","either","6","596","","","","","","","1","0","0","0.6578519513","","0.8","0.2","0.6","0.4","","","","","0.4062376343","0.07152820202","0.6578519513","0.3550464129","","","","","","","","","","75","K","2","","","184","main_expt",""
"","bandit","264","1004681","0.0-226.0-0.0","67328256","wem/bandit_party_2","A2TFMDDIPNF02W","either","6","1027","","","","","","","1","0","0","0.7160298793","","0.8","0.2","0.6","0.4","","","","","0.4035727276","0.08814522307","0.7160298793","0.2993299556","","","","","","","","","","75","K","2","","","185","main_expt",""
"","bandit","265","1007337","0.0-227.0-0.0","67328256","wem/bandit_party_2","A2TFMDDIPNF02W","either","6","1112","","","","","","","0","0","1","0.7081703269","","0.8","0.2","0.6","0.4","","","","","0.4595565904","0.0931487442","0.7081703269","0.3985972224","","","","","","","","","","75","K","2","","","186","main_expt",""
"","bandit","266","1009525","0.0-228.0-0.0","67328256","wem/bandit_party_2","A2TFMDDIPNF02W","either","6","655","","","","","","","0","1","0","","0.4563810555","0.8","0.2","0.6","0.4","0.4956959756","0.05847154344","0.7670757258","0.4563810555","","","","","","","","","","","","","","76","L","3","","","187","main_expt",""
"","bandit","267","1013061","0.0-229.0-0.0","67328256","wem/bandit_party_2","A2TFMDDIPNF02W","either","6","1961","","","","","","","0","0","1","0.4621092719","","0.8","0.2","0.6","0.4","","","","","0.4295585103","0.05005107021","0.7986884496","0.4621092719","","","","","","","","","","76","L","3","","","188","main_expt",""
"","bandit","268","1015027","0.0-230.0-0.0","67328256","wem/bandit_party_2","A2TFMDDIPNF02W","either","6","429","","","","","","","0","1","0","","0.8113194514","0.8","0.2","0.6","0.4","0.4121259827","0.05158958255","0.8113194514","0.4214675273","","","","","","","","","","","","","","75","K","2","","","189","main_expt",""
"","bandit","269","1018493","0.0-231.0-0.0","67328256","wem/bandit_party_2","A2TFMDDIPNF02W","either","6","1935","","","","","","","1","0","0","0.8311477635","","0.8","0.2","0.6","0.4","","","","","0.40505342","0.0530996007","0.8311477635","0.4445162903","","","","","","","","","","75","K","2","","","190","main_expt",""
"","bandit","270","1022980","0.0-232.0-0.0","67328256","wem/bandit_party_2","A2TFMDDIPNF02W","either","6","2831","","","","","","","1","0","0","0.7941336253","","0.8","0.2","0.6","0.4","","","","","0.3671493273","0.05342003941","0.7941336253","0.4077799102","","","","","","","","","","75","K","2","","","191","main_expt",""
"","bandit","271","1026086","0.0-233.0-0.0","67328256","wem/bandit_party_2","A2TFMDDIPNF02W","either","6","1585","","","","","","","0","0","1","0.841847859","","0.8","0.2","0.6","0.4","","","","","0.3367263454","0.05264216412","0.841847859","0.413117206","","","","","","","","","","75","K","2","","","192","main_expt",""
"","bandit","272","1029217","0.0-234.0-0.0","67328256","wem/bandit_party_2","A2TFMDDIPNF02W","either","6","1603","","","","","","","1","0","0","0.865127625","","0.8","0.2","0.6","0.4","","","","","0.2587514209","0.07418965368","0.865127625","0.374663265","","","","","","","","","","75","K","2","","","193","main_expt",""
"","bandit","273","1032188","0.0-235.0-0.0","67328256","wem/bandit_party_2","A2TFMDDIPNF02W","either","6","1425","","","","","","","0","0","1","0.8369883383","","0.8","0.2","0.6","0.4","","","","","0.2123696513","0.1148515542","0.8369883383","0.2792309937","","","","","","","","","","75","K","2","","","194","main_expt",""
"","bandit","274","1035475","0.0-236.0-0.0","67328256","wem/bandit_party_2","A2TFMDDIPNF02W","either","6","1742","","","","","","","0","1","0","","0.8226177272","0.8","0.2","0.6","0.4","0.2551117677","0.1102075851","0.8226177272","0.3090424304","","","","","","","","","","","","","","75","K","2","","","195","main_expt",""
"","bandit","275","1038271","0.0-237.0-0.0","67328256","wem/bandit_party_2","A2TFMDDIPNF02W","either","6","1257","","","","","","","0","0","1","0.8759919892","","0.8","0.2","0.6","0.4","","","","","0.2948177706","0.09307195637","0.8759919892","0.2254203465","","","","","","","","","","75","K","2","","","196","main_expt",""
"","bandit","276","1041447","0.0-238.0-0.0","67328256","wem/bandit_party_2","A2TFMDDIPNF02W","either","6","1630","","","","","","","1","0","0","0.9413038234","","0.8","0.2","0.6","0.4","","","","","0.2864074111","0.08341332984","0.9413038234","0.2104085952","","","","","","","","","","75","K","2","","","197","main_expt",""
"","bandit","277","1044409","0.0-239.0-0.0","67328256","wem/bandit_party_2","A2TFMDDIPNF02W","either","6","1429","","","","","","","0","1","0","","0.9384937307","0.8","0.2","0.6","0.4","0.3044962429","0.06206278739","0.9384937307","0.1686499416","","","","","","","","","","","","","","75","K","2","","","198","main_expt",""
"","bandit","278","1047922","0.0-240.0-0.0","67328256","wem/bandit_party_2","A2TFMDDIPNF02W","either","6","1883","","","","","","","1","0","0","0.927250614","","0.8","0.2","0.6","0.4","","","","","0.2804127106","0.1015706687","0.927250614","0.1696058054","","","","","","","","","","75","K","2","","","199","main_expt",""
"","bandit","279","1052064","0.0-241.0-0.0","67328256","wem/bandit_party_2","A2TFMDDIPNF02W","either","6","2609","","","","","","","1","0","0","0.8840406778","","0.8","0.2","0.6","0.4","","","","","0.3151112274","0.07348353789","0.8840406778","0.1940139532","","","","","","","","","","75","K","2","","","200","main_expt",""
"","bandit","280","1056065","0.0-242.0-0.0","67328256","wem/bandit_party_2","A2TFMDDIPNF02W","either","6","2449","","","","","","","1","0","0","0.8866639954","","0.8","0.2","0.6","0.4","","","","","0.3124471347","0.09218994405","0.8866639954","0.2384341862","","","","","","","","","","75","K","2","","","201","main_expt",""
"","bandit","281","1059425","0.0-243.0-0.0","67328256","wem/bandit_party_2","A2TFMDDIPNF02W","either","6","1829","","","","","","","1","0","0","0.8188103646","","0.8","0.2","0.6","0.4","","","","","0.3418115628","0.1662378481","0.8188103646","0.2069173963","","","","","","","","","","75","K","2","","","202","main_expt",""
"","bandit","282","1062452","0.0-244.0-0.0","67328256","wem/bandit_party_2","A2TFMDDIPNF02W","either","6","1486","","","","","","","1","0","0","0.8026106274","","0.8","0.2","0.6","0.4","","","","","0.2676578736","0.1808123801","0.8026106274","0.2502389624","","","","","","","","","","75","K","2","","","203","main_expt",""
"","bandit","283","1064934","0.0-245.0-0.0","67328256","wem/bandit_party_2","A2TFMDDIPNF02W","either","6","855","","","","","","","1","0","0","0.6613987003","","0.8","0.2","0.6","0.4","","","","","0.2513587973","0.2011980288","0.6613987003","0.2226806","","","","","","","","","","75","K","2","","","204","main_expt",""
"","bandit","284","1067620","0.0-246.0-0.0","67328256","wem/bandit_party_2","A2TFMDDIPNF02W","either","6","1160","","","","","","","0","1","0","","0.7402115251","0.8","0.2","0.6","0.4","0.2733703365","0.1877492959","0.7402115251","0.2327973494","","","","","","","","","","","","","","75","K","2","","","205","main_expt",""
"","bandit","285","1070237","0.0-247.0-0.0","67328256","wem/bandit_party_2","A2TFMDDIPNF02W","either","6","1070","","","","","","","0","1","0","","0.6792505986","0.8","0.2","0.6","0.4","0.3212331514","0.1891298069","0.6792505986","0.3134624789","","","","","","","","","","","","","","75","K","2","","","206","main_expt",""
"","bandit","286","1072927","0.0-248.0-0.0","67328256","wem/bandit_party_2","A2TFMDDIPNF02W","either","6","1080","","","","","","","1","0","0","0.6510378203","","0.8","0.2","0.6","0.4","","","","","0.3381772831","0.2092890992","0.6510378203","0.3808856429","","","","","","","","","","75","K","2","","","207","main_expt",""
"","bandit","287","1075481","0.0-249.0-0.0","67328256","wem/bandit_party_2","A2TFMDDIPNF02W","either","6","1032","","","","","","","0","1","0","","0.5971377862","0.8","0.2","0.6","0.4","0.2370260631","0.2563161799","0.5971377862","0.318509643","","","","","","","","","","","","","","75","K","2","","","208","main_expt",""
"","bandit","288","1078078","0.0-250.0-0.0","67328256","wem/bandit_party_2","A2TFMDDIPNF02W","either","6","1072","","","","","","","1","0","0","0.6040603887","","0.8","0.2","0.6","0.4","","","","","0.2157004535","0.2643940457","0.6040603887","0.2932847295","","","","","","","","","","75","K","2","","","209","main_expt",""
"","bandit","289","1080917","0.0-251.0-0.0","67328256","wem/bandit_party_2","A2TFMDDIPNF02W","either","6","1226","","","","","","","1","0","0","0.7794442159","","0.8","0.2","0.6","0.4","","","","","0.2655169153","0.2710870001","0.7794442159","0.2230023122","","","","","","","","","","75","K","2","","","210","main_expt",""
"","bandit","290","1083359","0.0-252.0-0.0","67328256","wem/bandit_party_2","A2TFMDDIPNF02W","either","6","845","","","","","","","1","0","0","0.8397026392","","0.8","0.2","0.6","0.4","","","","","0.2359505063","0.2056380183","0.8397026392","0.1899351836","","","","","","","","","","75","K","2","","","211","main_expt",""
"","bandit","291","1085600","0.0-253.0-0.0","67328256","wem/bandit_party_2","A2TFMDDIPNF02W","either","6","714","","","","","","","0","0","1","","0.7883870126","0.8","0.2","0.6","0.4","0.2431981852","0.2487045614","0.7883870126","0.2593929449","","","","","","","","","","","","","","75","K","2","","","212","main_expt",""
"","bandit","292","1088078","0.0-254.0-0.0","67328256","wem/bandit_party_2","A2TFMDDIPNF02W","either","6","952","","","","","","","1","0","0","0.7160446845","","0.8","0.2","0.6","0.4","","","","","0.3385658967","0.3520378668","0.7160446845","0.2304425673","","","","","","","","","","75","K","2","","","213","main_expt",""
"","bandit","293","1090631","0.0-255.0-0.0","67328256","wem/bandit_party_2","A2TFMDDIPNF02W","either","6","1026","","","","","","","0","0","1","0.7501162241","","0.8","0.2","0.6","0.4","","","","","0.445002088","0.3455661114","0.7501162241","0.2849244028","","","","","","","","","","75","K","2","","","214","main_expt",""
"","bandit","294","1093043","0.0-256.0-0.0","67328256","wem/bandit_party_2","A2TFMDDIPNF02W","either","6","858","","","","","","","1","0","0","0.7574589115","","0.8","0.2","0.6","0.4","","","","","0.4340580748","0.3290646698","0.7574589115","0.3184819088","","","","","","","","","","75","K","2","","","215","main_expt",""
"","bandit","295","1095256","0.0-257.0-0.0","67328256","wem/bandit_party_2","A2TFMDDIPNF02W","either","6","690","","","","","","","0","1","0","","0.7376674805","0.8","0.2","0.6","0.4","0.3996931216","0.2737258078","0.7376674805","0.2989728513","","","","","","","","","","","","","","75","K","2","","","216","main_expt",""
"","bandit","296","1097471","0.0-258.0-0.0","67328256","wem/bandit_party_2","A2TFMDDIPNF02W","either","6","677","","","","","","","0","1","0","","0.67262171","0.8","0.2","0.6","0.4","0.453570069","0.2401291484","0.67262171","0.5538830624","","","","","","","","","","","","","","75","K","2","","","217","main_expt",""
"","bandit","297","1099768","0.0-259.0-0.0","67328256","wem/bandit_party_2","A2TFMDDIPNF02W","either","6","765","","","","","","","0","0","1","0.6309662891","","0.8","0.2","0.6","0.4","","","","","0.3566620654","0.2395298113","0.6309662891","0.5331458927","","","","","","","","","","75","K","2","","","218","main_expt",""
"","bandit","298","1102177","0.0-260.0-0.0","67328256","wem/bandit_party_2","A2TFMDDIPNF02W","either","6","886","","","","","","","0","0","1","","0.610488243","0.8","0.2","0.6","0.4","0.3114207129","0.2333127667","0.610488243","0.409279481","","","","","","","","","","","","","","75","K","2","","","219","main_expt",""
"","bandit","299","1104175","0.0-261.0-0.0","67328256","wem/bandit_party_2","A2TFMDDIPNF02W","either","6","477","","","","","","","0","0","1","0.348491043","","0.8","0.2","0.6","0.4","","","","","0.348491043","0.2097963002","0.6741838821","0.3910907299","","","","","","","","","","72","H","0","img/none_selected.jpg","","220","main_expt",""
"","bandit","300","1106762","0.0-262.0-0.0","67328256","wem/bandit_party_2","A2TFMDDIPNF02W","either","6","1047","","","","","","","0","0","1","0.325682353","","0.8","0.2","0.6","0.4","","","","","0.325682353","0.1761429423","0.6938787555","0.37386253","","","","","","","","","","72","H","0","img/none_selected.jpg","","221","main_expt",""
"","bandit","301","1109025","0.0-263.0-0.0","67328256","wem/bandit_party_2","A2TFMDDIPNF02W","either","6","738","","","","","","","0","0","1","","0.1770547834","0.8","0.2","0.6","0.4","0.3582518194","0.1770547834","0.622086605","0.5460784034","","","","","","","","","","","","","","74","J","1","","","222","main_expt",""
"","bandit","302","1111441","0.0-264.0-0.0","67328256","wem/bandit_party_2","A2TFMDDIPNF02W","either","6","890","","","","","","","0","0","1","","0.1494166006","0.8","0.2","0.6","0.4","0.3596631187","0.1494166006","0.6190419158","0.5484594206","","","","","","","","","","","","","","74","J","1","","","223","main_expt",""
"","bandit","303","1113679","0.0-265.0-0.0","67328256","wem/bandit_party_2","A2TFMDDIPNF02W","either","6","687","","","","","","","0","1","0","","0.5156266917","0.8","0.2","0.6","0.4","0.4757784632","0.1444184755","0.6525227655","0.5156266917","","","","","","","","","","","","","","76","L","3","","","224","main_expt",""
"","bandit","304","1115934","0.0-266.0-0.0","67328256","wem/bandit_party_2","A2TFMDDIPNF02W","either","6","702","","","","","","","0","0","1","","0.5120039273","0.8","0.2","0.6","0.4","0.5384710229","0.2381889698","0.5739960468","0.5120039273","","","","","","","","","","","","","","76","L","3","","","225","main_expt",""
"","bandit","305","1118537","0.0-267.0-0.0","67328256","wem/bandit_party_2","A2TFMDDIPNF02W","either","6","1070","","","","","","","0","1","0","","0.5568413113","0.8","0.2","0.6","0.4","0.5308581489","0.1429230379","0.6038380469","0.5568413113","","","","","","","","","","","","","","76","L","3","","","226","main_expt",""
"","bandit","306","1121598","0.0-268.0-0.0","67328256","wem/bandit_party_2","A2TFMDDIPNF02W","either","6","1535","","","","","","","0","0","1","0.5277183188","","0.8","0.2","0.6","0.4","","","","","0.488482713","0.124100867","0.5203417309","0.5277183188","","","","","","","","","","76","L","3","","","227","main_expt",""
"","bandit","307","1124953","0.0-269.0-0.0","67328256","wem/bandit_party_2","A2TFMDDIPNF02W","either","6","1815","","","","","","","0","0","1","0.5041270258","","0.8","0.2","0.6","0.4","","","","","0.4406219513","0.1762219884","0.4263922038","0.5041270258","","","","","","","","","","76","L","3","","","228","main_expt",""
"","bandit","308","1127546","0.0-270.0-0.0","67328256","wem/bandit_party_2","A2TFMDDIPNF02W","either","6","1065","","","","","","","0","0","1","0.3475105047","","0.8","0.2","0.6","0.4","","","","","0.4892119921","0.1910325121","0.3475105047","0.4541369304","","","","","","","","","","75","K","2","","","229","main_expt",""
"","bandit","309","1130327","0.0-271.0-0.0","67328256","wem/bandit_party_2","A2TFMDDIPNF02W","either","6","1240","","","","","","","0","0","1","0.3353007417","","0.8","0.2","0.6","0.4","","","","","0.5129573662","0.2571549068","0.3353007417","0.4504381994","","","","","","","","","","75","K","2","","","230","main_expt",""
"","bandit","310","1132620","0.0-272.0-0.0","67328256","wem/bandit_party_2","A2TFMDDIPNF02W","either","6","751","","","","","","","0","0","1","0.1781345747","","0.8","0.2","0.6","0.4","","","","","0.4382888871","0.1781345747","0.2870546929","0.4698668598","","","","","","","","","","74","J","1","","","231","main_expt",""
"","bandit","311","1135458","0.0-273.0-0.0","67328256","wem/bandit_party_2","A2TFMDDIPNF02W","either","6","1292","","","","","","","0","0","1","","0.1748933913","0.8","0.2","0.6","0.4","0.42174841","0.1748933913","0.3092655517","0.5460008395","","","","","","","","","","","","","","74","J","1","","","232","main_expt",""
"","bandit","312","1138179","0.0-274.0-0.0","67328256","wem/bandit_party_2","A2TFMDDIPNF02W","either","6","1195","","","","","","","0","0","1","0.4297142637","","0.8","0.2","0.6","0.4","","","","","0.4297142637","0.2196371411","0.4231157335","0.5345299581","","","","","","","","","","72","H","0","img/none_selected.jpg","","233","main_expt",""
"","bandit","313","1141006","0.0-275.0-0.0","67328256","wem/bandit_party_2","A2TFMDDIPNF02W","either","6","1283","","","","","","","0","0","1","0.3016140143","","0.8","0.2","0.6","0.4","","","","","0.3016140143","0.2052749597","0.5525929145","0.508060833","","","","","","","","","","72","H","0","img/none_selected.jpg","","234","main_expt",""
"","bandit","314","1143168","0.0-276.0-0.0","67328256","wem/bandit_party_2","A2TFMDDIPNF02W","either","6","634","","","","","","","0","0","1","","0.4956589368","0.8","0.2","0.6","0.4","0.2735586703","0.3158924645","0.7239072418","0.4956589368","","","","","","","","","","","","","","76","L","3","","","235","main_expt",""
"","bandit","315","1145419","0.0-277.0-0.0","67328256","wem/bandit_party_2","A2TFMDDIPNF02W","either","6","701","","","","","","","0","1","0","","0.8076920848","0.8","0.2","0.6","0.4","0.2536827631","0.3668106878","0.8076920848","0.5514737959","","","","","","","","","","","","","","75","K","2","","","236","main_expt",""
"","bandit","316","1148159","0.0-278.0-0.0","67328256","wem/bandit_party_2","A2TFMDDIPNF02W","either","6","1202","","","","","","","0","0","1","0.7703095863","","0.8","0.2","0.6","0.4","","","","","0.2478783488","0.3866395083","0.7703095863","0.5183580196","","","","","","","","","","75","K","2","","","237","main_expt",""
