"consent","trial_type","trial_index","time_elapsed","internal_node_id","subjID","study","MID","cond","drift","rt","responses","button_pressed","key_press","like","value","connected","gems","bombs","no_reward","GemPrChosen","BombPrChosen","GainOverPainPr_0","GainOverPainPr_1","GainOverPainPr_2","GainOverPainPr_3","LosePr_0","LosePr_1","LosePr_2","LosePr_3","WinPr_0","WinPr_1","WinPr_2","WinPr_3","Q0","Q1","Q2","gender","age","ethnicity","label","expt_phase","target","respCharCode","respKey","respChoiceNum","respChoice","practice","trial_counter","trial_label","Q0_index","view_history"
"GDM/GDM_behavioral_consent_30min_online.html","consent","0","8325","0.0-0.0","67824082","wem/bandit_party_2","ADTIO3A6TM9CG","either","4","","","","","","","","","","","","","","","","","","","","","","","","","","","","","","","","","","","","","","","","","",""
"","survey-text","1","26466","0.0-1.0","67824082","wem/bandit_party_2","ADTIO3A6TM9CG","either","4","17128","{""Q0"":""ADTIO3A6TM9CG""}","","","","","","","","","","","","","","","","","","","","","","","","","","","","","","","","","","","","","","","",""
"","button-response","2","29218","0.0-2.0","67824082","wem/bandit_party_2","ADTIO3A6TM9CG","either","4","1745","","0","","","","","","","","","","","","","","","","","","","","","","","","","","","","","","","","","","","","","","",""
"","text-replacement","3","36829","0.0-3.0","67824082","wem/bandit_party_2","ADTIO3A6TM9CG","either","4","6605","","","32","","","","","","","","","","","","","","","","","","","","","","","","","","","","","","","","","","","","","",""
"","text-replacement","4","41060","0.0-4.0","67824082","wem/bandit_party_2","ADTIO3A6TM9CG","either","4","4227","","","32","","","","","","","","","","","","","","","","","","","","","","","","","","","","","","","","","","","","","",""
"","identification","5","48396","0.0-6.0-0.0","67824082","wem/bandit_party_2","ADTIO3A6TM9CG","either","4","7294","","","","4","4","4","","","","","","","","","","","","","","","","","","","","","","","","pre","identification_pre","the Republican Party","","","","","","","","",""
"","identification","6","52002","0.0-6.0-1.0","67824082","wem/bandit_party_2","ADTIO3A6TM9CG","either","4","2585","","","","2","2","2","","","","","","","","","","","","","","","","","","","","","","","","pre","identification_pre","the Democratic Party","","","","","","","","",""
"","text-replacement","7","59474","0.0-7.0","67824082","wem/bandit_party_2","ADTIO3A6TM9CG","either","4","6467","","","32","","","","","","","","","","","","","","","","","","","","","","","","","","","","","","","","","","","","","",""
"","text-replacement","8","84114","0.0-8.0","67824082","wem/bandit_party_2","ADTIO3A6TM9CG","either","4","24635","","","32","","","","","","","","","","","","","","","","","","","","","","","","","","","","","","","","","","","","","",""
"","text-replacement","9","84659","0.0-9.0","67824082","wem/bandit_party_2","ADTIO3A6TM9CG","either","4","542","","","32","","","","","","","","","","","","","","","","","","","","","","","","","","","","","","","","","","","","","",""
"","text-replacement","10","85756","0.0-10.0","67824082","wem/bandit_party_2","ADTIO3A6TM9CG","either","4","1095","","","32","","","","","","","","","","","","","","","","","","","","","","","","","","","","","","","","","","","","","",""
"","text-replacement","11","86253","0.0-11.0","67824082","wem/bandit_party_2","ADTIO3A6TM9CG","either","4","495","","","32","","","","","","","","","","","","","","","","","","","","","","","","","","","","","","","","","","","","","",""
"","bandit","12","89380","0.0-12.0-0.0","67824082","wem/bandit_party_2","ADTIO3A6TM9CG","either","4","1611","","","","","","","0","0","1","0","0","","","","","0","","","","0","","","","","","","","","","","","","74","J","0","img/none_selected_demo.jpg","true","0","","",""
"","bandit","13","92494","0.0-13.0-0.0","67824082","wem/bandit_party_2","ADTIO3A6TM9CG","either","4","1604","","","","","","","0","0","1","0","0","","","","","0","","","","0","","","","","","","","","","","","","75","K","0","img/none_selected_demo.jpg","true","0","","",""
"","text-replacement","14","102024","0.0-14.0","67824082","wem/bandit_party_2","ADTIO3A6TM9CG","either","4","9525","","","32","","","","","","","","","","","","","","","","","","","","","","","","","","","","","","","","","","","","","",""
"","text-replacement","15","102459","0.0-15.0","67824082","wem/bandit_party_2","ADTIO3A6TM9CG","either","4","432","","","32","","","","","","","","","","","","","","","","","","","","","","","","","","","","","","","","","","","","","",""
"","text-replacement","16","102659","0.0-16.0","67824082","wem/bandit_party_2","ADTIO3A6TM9CG","either","4","197","","","32","","","","","","","","","","","","","","","","","","","","","","","","","","","","","","","","","","","","","",""
"","text-replacement","17","102829","0.0-17.0","67824082","wem/bandit_party_2","ADTIO3A6TM9CG","either","4","167","","","32","","","","","","","","","","","","","","","","","","","","","","","","","","","","","","","","","","","","","",""
"","bandit","18","110957","0.0-18.0-0.0","67824082","wem/bandit_party_2","ADTIO3A6TM9CG","either","4","6611","","","","","","","0","0","1","","0.2","0.5","0.5","","","0.8","0.2","","","","","","","","","","","","","","","","75","K","1","","true","0","80_20_practice","",""
"","bandit","19","113194","0.0-18.0-1.0","67824082","wem/bandit_party_2","ADTIO3A6TM9CG","either","4","714","","","","","","","0","0","1","","0.2","0.5","0.5","","","0.8","0.2","","","","","","","","","","","","","","","","75","K","1","","true","0","80_20_practice","",""
"","bandit","20","115101","0.0-18.0-2.0","67824082","wem/bandit_party_2","ADTIO3A6TM9CG","either","4","393","","","","","","","1","0","0","0.8","","0.5","0.5","","","","","","","0.8","0.2","","","","","","","","","","","","74","J","0","img/none_selected_demo.jpg","true","0","80_20_practice","",""
"","bandit","21","116944","0.0-18.0-3.0","67824082","wem/bandit_party_2","ADTIO3A6TM9CG","either","4","334","","","","","","","0","0","1","","0.8","0.5","0.5","","","0.8","0.2","","","","","","","","","","","","","","","","74","J","0","img/none_selected_demo.jpg","true","0","80_20_practice","",""
"","bandit","22","118781","0.0-18.0-4.0","67824082","wem/bandit_party_2","ADTIO3A6TM9CG","either","4","323","","","","","","","0","1","0","","0.2","0.5","0.5","","","0.8","0.2","","","","","","","","","","","","","","","","75","K","1","","true","0","80_20_practice","",""
"","bandit","23","120703","0.0-18.0-5.0","67824082","wem/bandit_party_2","ADTIO3A6TM9CG","either","4","413","","","","","","","0","0","1","","0.8","0.5","0.5","","","0.8","0.2","","","","","","","","","","","","","","","","74","J","0","img/none_selected_demo.jpg","true","0","80_20_practice","",""
"","bandit","24","123129","0.0-18.0-6.0","67824082","wem/bandit_party_2","ADTIO3A6TM9CG","either","4","915","","","","","","","0","1","0","","0.8","0.5","0.5","","","0.8","0.2","","","","","","","","","","","","","","","","74","J","0","img/none_selected_demo.jpg","true","0","80_20_practice","",""
"","bandit","25","132157","0.0-18.0-7.0","67824082","wem/bandit_party_2","ADTIO3A6TM9CG","either","4","7514","","","","","","","0","0","1","0.2","","0.5","0.5","","","","","","","0.8","0.2","","","","","","","","","","","","75","K","1","","true","0","80_20_practice","",""
"","bandit","26","133790","0.0-18.0-8.0","67824082","wem/bandit_party_2","ADTIO3A6TM9CG","either","4","120","","","","","","","0","0","1","","0.2","0.5","0.5","","","0.8","0.2","","","","","","","","","","","","","","","","75","K","1","","true","0","80_20_practice","",""
"","bandit","27","135439","0.0-18.0-9.0","67824082","wem/bandit_party_2","ADTIO3A6TM9CG","either","4","137","","","","","","","0","0","1","","0.2","0.5","0.5","","","0.8","0.2","","","","","","","","","","","","","","","","75","K","1","","true","0","80_20_practice","",""
"","bandit","28","137181","0.0-18.0-10.0","67824082","wem/bandit_party_2","ADTIO3A6TM9CG","either","4","230","","","","","","","0","1","0","","0.8","0.5","0.5","","","0.8","0.2","","","","","","","","","","","","","","","","74","J","0","img/none_selected_demo.jpg","true","0","80_20_practice","",""
"","bandit","29","138952","0.0-18.0-11.0","67824082","wem/bandit_party_2","ADTIO3A6TM9CG","either","4","261","","","","","","","1","0","0","0.8","","0.5","0.5","","","","","","","0.8","0.2","","","","","","","","","","","","74","J","0","img/none_selected_demo.jpg","true","0","80_20_practice","",""
"","bandit","30","140747","0.0-18.0-12.0","67824082","wem/bandit_party_2","ADTIO3A6TM9CG","either","4","280","","","","","","","0","1","0","","0.8","0.5","0.5","","","0.8","0.2","","","","","","","","","","","","","","","","74","J","0","img/none_selected_demo.jpg","true","0","80_20_practice","",""
"","bandit","31","142624","0.0-18.0-13.0","67824082","wem/bandit_party_2","ADTIO3A6TM9CG","either","4","366","","","","","","","0","0","1","0.8","","0.5","0.5","","","","","","","0.8","0.2","","","","","","","","","","","","74","J","0","img/none_selected_demo.jpg","true","0","80_20_practice","",""
"","bandit","32","144395","0.0-18.0-14.0","67824082","wem/bandit_party_2","ADTIO3A6TM9CG","either","4","261","","","","","","","1","0","0","0.8","","0.5","0.5","","","","","","","0.8","0.2","","","","","","","","","","","","74","J","0","img/none_selected_demo.jpg","true","0","80_20_practice","",""
"","bandit","33","146183","0.0-18.0-15.0","67824082","wem/bandit_party_2","ADTIO3A6TM9CG","either","4","278","","","","","","","0","1","0","","0.8","0.5","0.5","","","0.8","0.2","","","","","","","","","","","","","","","","74","J","0","img/none_selected_demo.jpg","true","0","80_20_practice","",""
"","bandit","34","147935","0.0-18.0-16.0","67824082","wem/bandit_party_2","ADTIO3A6TM9CG","either","4","240","","","","","","","1","0","0","0.8","","0.5","0.5","","","","","","","0.8","0.2","","","","","","","","","","","","74","J","0","img/none_selected_demo.jpg","true","0","80_20_practice","",""
"","bandit","35","149962","0.0-18.0-17.0","67824082","wem/bandit_party_2","ADTIO3A6TM9CG","either","4","516","","","","","","","0","1","0","","0.8","0.5","0.5","","","0.8","0.2","","","","","","","","","","","","","","","","74","J","0","img/none_selected_demo.jpg","true","0","80_20_practice","",""
"","bandit","36","151727","0.0-18.0-18.0","67824082","wem/bandit_party_2","ADTIO3A6TM9CG","either","4","255","","","","","","","0","1","0","","0.8","0.5","0.5","","","0.8","0.2","","","","","","","","","","","","","","","","74","J","0","img/none_selected_demo.jpg","true","0","80_20_practice","",""
"","bandit","37","153362","0.0-18.0-19.0","67824082","wem/bandit_party_2","ADTIO3A6TM9CG","either","4","125","","","","","","","0","1","0","","0.8","0.5","0.5","","","0.8","0.2","","","","","","","","","","","","","","","","74","J","0","img/none_selected_demo.jpg","true","0","80_20_practice","",""
"","text-replacement","38","164632","0.0-19.0","67824082","wem/bandit_party_2","ADTIO3A6TM9CG","either","4","11265","","","32","","","","","","","","","","","","","","","","","","","","","","","","","","","","","","","","","","","","","",""
"","bandit","39","167543","0.0-20.0-0.0","67824082","wem/bandit_party_2","ADTIO3A6TM9CG","either","4","1402","","","","","","","1","0","0","1","0","","","","","0","1","","","1","0","","","","","","","","","","","","74","J","0","img/none_selected_demo.jpg","true","0","","",""
"","text-replacement","40","177214","0.0-21.0","67824082","wem/bandit_party_2","ADTIO3A6TM9CG","either","4","9666","","","32","","","","","","","","","","","","","","","","","","","","","","","","","","","","","","","","","","","","","",""
"","text-replacement","41","179587","0.0-22.0","67824082","wem/bandit_party_2","ADTIO3A6TM9CG","either","4","2369","","","32","","","","","","","","","","","","","","","","","","","","","","","","","","","","","","","","","","","","","",""
"","text-replacement","42","180319","0.0-23.0","67824082","wem/bandit_party_2","ADTIO3A6TM9CG","either","4","729","","","32","","","","","","","","","","","","","","","","","","","","","","","","","","","","","","","","","","","","","",""
"","text-replacement","43","180622","0.0-24.0","67824082","wem/bandit_party_2","ADTIO3A6TM9CG","either","4","301","","","32","","","","","","","","","","","","","","","","","","","","","","","","","","","","","","","","","","","","","",""
"","text-replacement","44","180944","0.0-25.0","67824082","wem/bandit_party_2","ADTIO3A6TM9CG","either","4","319","","","32","","","","","","","","","","","","","","","","","","","","","","","","","","","","","","","","","","","","","",""
"","text-replacement","45","181372","0.0-26.0","67824082","wem/bandit_party_2","ADTIO3A6TM9CG","either","4","424","","","32","","","","","","","","","","","","","","","","","","","","","","","","","","","","","","","","","","","","","",""
"","text-replacement","46","181837","0.0-27.0","67824082","wem/bandit_party_2","ADTIO3A6TM9CG","either","4","463","","","32","","","","","","","","","","","","","","","","","","","","","","","","","","","","","","","","","","","","","",""
"","text-replacement","47","182305","0.0-28.0","67824082","wem/bandit_party_2","ADTIO3A6TM9CG","either","4","462","","","32","","","","","","","","","","","","","","","","","","","","","","","","","","","","","","","","","","","","","",""
"","text-replacement","48","183092","0.0-29.0","67824082","wem/bandit_party_2","ADTIO3A6TM9CG","either","4","784","","","32","","","","","","","","","","","","","","","","","","","","","","","","","","","","","","","","","","","","","",""
"","text-replacement","49","183967","0.0-30.0","67824082","wem/bandit_party_2","ADTIO3A6TM9CG","either","4","870","","","32","","","","","","","","","","","","","","","","","","","","","","","","","","","","","","","","","","","","","",""
"","text-replacement","50","186626","0.0-31.0","67824082","wem/bandit_party_2","ADTIO3A6TM9CG","either","4","2657","","","32","","","","","","","","","","","","","","","","","","","","","","","","","","","","","","","","","","","","","",""
"","bandit","51","188706","0.0-32.0-0.0","67824082","wem/bandit_party_2","ADTIO3A6TM9CG","either","4","571","","","","","","","0","1","0","","0.8","0.5","0.5","0.5","0.5","0.8","0.2","0.6","0.2","","","","","","","","","","","","","","72","H","0","img/none_selected.jpg","true","0","full_practice","",""
"","bandit","52","190704","0.0-32.0-1.0","67824082","wem/bandit_party_2","ADTIO3A6TM9CG","either","4","487","","","","","","","1","0","0","0.2","","0.5","0.5","0.5","0.5","","","","","0.8","0.2","0.6","0.2","","","","","","","","","","74","J","1","","true","0","full_practice","",""
"","bandit","53","192495","0.0-32.0-2.0","67824082","wem/bandit_party_2","ADTIO3A6TM9CG","either","4","281","","","","","","","0","0","1","0.2","","0.5","0.5","0.5","0.5","","","","","0.8","0.2","0.6","0.2","","","","","","","","","","74","J","1","","true","0","full_practice","",""
"","bandit","54","194291","0.0-32.0-3.0","67824082","wem/bandit_party_2","ADTIO3A6TM9CG","either","4","285","","","","","","","0","0","1","0.2","","0.5","0.5","0.5","0.5","","","","","0.8","0.2","0.6","0.2","","","","","","","","","","74","J","1","","true","0","full_practice","",""
"","bandit","55","196099","0.0-32.0-4.0","67824082","wem/bandit_party_2","ADTIO3A6TM9CG","either","4","298","","","","","","","1","0","0","0.2","","0.5","0.5","0.5","0.5","","","","","0.8","0.2","0.6","0.2","","","","","","","","","","74","J","1","","true","0","full_practice","",""
"","bandit","56","197817","0.0-32.0-5.0","67824082","wem/bandit_party_2","ADTIO3A6TM9CG","either","4","207","","","","","","","0","1","0","","0.8","0.5","0.5","0.5","0.5","0.8","0.2","0.6","0.2","","","","","","","","","","","","","","72","H","0","img/none_selected.jpg","true","0","full_practice","",""
"","bandit","57","199601","0.0-32.0-6.0","67824082","wem/bandit_party_2","ADTIO3A6TM9CG","either","4","273","","","","","","","0","0","1","","0.8","0.5","0.5","0.5","0.5","0.8","0.2","0.6","0.2","","","","","","","","","","","","","","72","H","0","img/none_selected.jpg","true","0","full_practice","",""
"","bandit","58","201344","0.0-32.0-7.0","67824082","wem/bandit_party_2","ADTIO3A6TM9CG","either","4","229","","","","","","","1","0","0","0.8","","0.5","0.5","0.5","0.5","","","","","0.8","0.2","0.6","0.2","","","","","","","","","","72","H","0","img/none_selected.jpg","true","0","full_practice","",""
"","bandit","59","203160","0.0-32.0-8.0","67824082","wem/bandit_party_2","ADTIO3A6TM9CG","either","4","305","","","","","","","0","0","1","0.8","","0.5","0.5","0.5","0.5","","","","","0.8","0.2","0.6","0.2","","","","","","","","","","72","H","0","img/none_selected.jpg","true","0","full_practice","",""
"","bandit","60","204949","0.0-32.0-9.0","67824082","wem/bandit_party_2","ADTIO3A6TM9CG","either","4","273","","","","","","","0","1","0","","0.8","0.5","0.5","0.5","0.5","0.8","0.2","0.6","0.2","","","","","","","","","","","","","","72","H","0","img/none_selected.jpg","true","0","full_practice","",""
"","bandit","61","206919","0.0-32.0-10.0","67824082","wem/bandit_party_2","ADTIO3A6TM9CG","either","4","457","","","","","","","1","0","0","0.6","","0.5","0.5","0.5","0.5","","","","","0.8","0.2","0.6","0.2","","","","","","","","","","75","K","2","","true","0","full_practice","",""
"","bandit","62","208672","0.0-32.0-11.0","67824082","wem/bandit_party_2","ADTIO3A6TM9CG","either","4","243","","","","","","","1","0","0","0.6","","0.5","0.5","0.5","0.5","","","","","0.8","0.2","0.6","0.2","","","","","","","","","","75","K","2","","true","0","full_practice","",""
"","bandit","63","210451","0.0-32.0-12.0","67824082","wem/bandit_party_2","ADTIO3A6TM9CG","either","4","266","","","","","","","1","0","0","0.6","","0.5","0.5","0.5","0.5","","","","","0.8","0.2","0.6","0.2","","","","","","","","","","75","K","2","","true","0","full_practice","",""
"","bandit","64","212239","0.0-32.0-13.0","67824082","wem/bandit_party_2","ADTIO3A6TM9CG","either","4","273","","","","","","","1","0","0","0.6","","0.5","0.5","0.5","0.5","","","","","0.8","0.2","0.6","0.2","","","","","","","","","","75","K","2","","true","0","full_practice","",""
"","bandit","65","214072","0.0-32.0-14.0","67824082","wem/bandit_party_2","ADTIO3A6TM9CG","either","4","325","","","","","","","0","1","0","","0.6","0.5","0.5","0.5","0.5","0.8","0.2","0.6","0.2","","","","","","","","","","","","","","75","K","2","","true","0","full_practice","",""
"","bandit","66","215836","0.0-32.0-15.0","67824082","wem/bandit_party_2","ADTIO3A6TM9CG","either","4","253","","","","","","","0","0","1","0.2","","0.5","0.5","0.5","0.5","","","","","0.8","0.2","0.6","0.2","","","","","","","","","","76","L","3","","true","0","full_practice","",""
"","bandit","67","217621","0.0-32.0-16.0","67824082","wem/bandit_party_2","ADTIO3A6TM9CG","either","4","275","","","","","","","0","1","0","","0.6","0.5","0.5","0.5","0.5","0.8","0.2","0.6","0.2","","","","","","","","","","","","","","75","K","2","","true","0","full_practice","",""
"","bandit","68","219389","0.0-32.0-17.0","67824082","wem/bandit_party_2","ADTIO3A6TM9CG","either","4","257","","","","","","","0","1","0","","0.6","0.5","0.5","0.5","0.5","0.8","0.2","0.6","0.2","","","","","","","","","","","","","","75","K","2","","true","0","full_practice","",""
"","bandit","69","221156","0.0-32.0-18.0","67824082","wem/bandit_party_2","ADTIO3A6TM9CG","either","4","257","","","","","","","0","1","0","","0.6","0.5","0.5","0.5","0.5","0.8","0.2","0.6","0.2","","","","","","","","","","","","","","75","K","2","","true","0","full_practice","",""
"","bandit","70","222900","0.0-32.0-19.0","67824082","wem/bandit_party_2","ADTIO3A6TM9CG","either","4","235","","","","","","","1","0","0","0.6","","0.5","0.5","0.5","0.5","","","","","0.8","0.2","0.6","0.2","","","","","","","","","","75","K","2","","true","0","full_practice","",""
"","text","71","238623","0.0-33.0","67824082","wem/bandit_party_2","ADTIO3A6TM9CG","either","4","15713","","","32","","","","","","","","","","","","","","","","","","","","","","","","","","","","","","","","","","","","","",""
"","text-replacement","72","251269","0.0-34.0","67824082","wem/bandit_party_2","ADTIO3A6TM9CG","either","4","11639","","","32","","","","","","","","","","","","","","","","","","","","","","","","","","","","","","","","","","","","","",""
"","text-replacement","73","266061","0.0-35.0","67824082","wem/bandit_party_2","ADTIO3A6TM9CG","either","4","14788","","","32","","","","","","","","","","","","","","","","","","","","","","","","","","","","","","","","","","","","","",""
"","text-replacement","74","273104","0.0-36.0","67824082","wem/bandit_party_2","ADTIO3A6TM9CG","either","4","7037","","","32","","","","","","","","","","","","","","","","","","","","","","","","","","","","","","","","","","","","","",""
"","text-replacement","75","279821","0.0-37.0","67824082","wem/bandit_party_2","ADTIO3A6TM9CG","either","4","6711","","","32","","","","","","","","","","","","","","","","","","","","","","","","","","","","","","","","","","","","","",""
"","text-replacement","76","284606","0.0-38.0","67824082","wem/bandit_party_2","ADTIO3A6TM9CG","either","4","4778","","","32","","","","","","","","","","","","","","","","","","","","","","","","","","","","","","","","","","","","","",""
"","survey-multi-choice-replacement","77","288731","0.0-39.0-0.0","67824082","wem/bandit_party_2","ADTIO3A6TM9CG","either","4","4107","","","","","","","","","","","","","","","","","","","","","","","","Money will be added to the pool for <span style='color:red;'>REPUBLICANS</span>","","","","","","","attn_check","","","","","","","","","0",""
"","survey-multi-choice-replacement","78","294745","0.0-40.0-0.0","67824082","wem/bandit_party_2","ADTIO3A6TM9CG","either","4","5000","","","","","","","","","","","","","","","","","","","","","","","","Money will be subtracted from the pool for <span style='color:blue;'>DEMOCRATS</span>","","","","","","","attn_check","","","","","","","","","1",""
"","instructions","79","297029","0.0-40.0-1.0-0.0","67824082","wem/bandit_party_2","ADTIO3A6TM9CG","either","4","1277","","","","","","","","","","","","","","","","","","","","","","","","","","","","","","","","","","","","","","","","","[{""page_index"":0,""viewing_time"":1275}]"
"","survey-multi-choice-replacement","80","300957","0.0-40.1-0.1","67824082","wem/bandit_party_2","ADTIO3A6TM9CG","either","4","2914","","","","","","","","","","","","","","","","","","","","","","","","Equal amounts of money will be added to the pool for <span style='color:red;'>REPUBLICANS</span> and subtracted from the pool for <span style='color:blue;'>DEMOCRATS</span>","","","","","","","attn_check","","","","","","","","","2",""
"","survey-multi-choice-replacement","81","304542","0.0-41.0-0.0","67824082","wem/bandit_party_2","ADTIO3A6TM9CG","either","4","2572","","","","","","","","","","","","","","","","","","","","","","","","No money will be added to either pool","","","","","","","attn_check","","","","","","","","","3",""
"","bandit","82","326145","0.0-42.0-0.0","67824082","wem/bandit_party_2","ADTIO3A6TM9CG","either","4","19088","","","","","","","1","0","0","0.8209843215","","0.8","0.4","0.2","0.6","","","","","0.8209843215","0.9858900825","0.7267404998","0.2887693562","","","","","","","","","","72","H","0","img/none_selected.jpg","","1","main_expt","",""
"","bandit","83","328009","0.0-43.0-0.0","67824082","wem/bandit_party_2","ADTIO3A6TM9CG","either","4","348","","","","","","","0","0","1","0.8179122382","","0.8","0.4","0.2","0.6","","","","","0.8179122382","0.9854924354","0.7034907646","0.2986217167","","","","","","","","","","72","H","0","img/none_selected.jpg","","2","main_expt","",""
"","bandit","84","329944","0.0-44.0-0.0","67824082","wem/bandit_party_2","ADTIO3A6TM9CG","either","4","421","","","","","","","1","0","0","0.8301291561","","0.8","0.4","0.2","0.6","","","","","0.8301291561","0.9789624529","0.6574847675","0.261346942","","","","","","","","","","72","H","0","img/none_selected.jpg","","3","main_expt","",""
"","bandit","85","331758","0.0-45.0-0.0","67824082","wem/bandit_party_2","ADTIO3A6TM9CG","either","4","305","","","","","","","0","0","1","0.8219157537","","0.8","0.4","0.2","0.6","","","","","0.8219157537","0.9565345184","0.5092805277","0.2757740293","","","","","","","","","","72","H","0","img/none_selected.jpg","","4","main_expt","",""
"","bandit","86","333522","0.0-46.0-0.0","67824082","wem/bandit_party_2","ADTIO3A6TM9CG","either","4","250","","","","","","","0","1","0","","0.941194936","0.8","0.4","0.2","0.6","0.7759220463","0.941194936","0.5952926025","0.3329857669","","","","","","","","","","","","","","74","J","1","","","5","main_expt","",""
"","bandit","87","335420","0.0-47.0-0.0","67824082","wem/bandit_party_2","ADTIO3A6TM9CG","either","4","386","","","","","","","0","1","0","","0.9305219143","0.8","0.4","0.2","0.6","0.7495930044","0.9305219143","0.6160758637","0.331878758","","","","","","","","","","","","","","74","J","1","","","6","main_expt","",""
"","bandit","88","337239","0.0-48.0-0.0","67824082","wem/bandit_party_2","ADTIO3A6TM9CG","either","4","309","","","","","","","0","1","0","","0.937738562","0.8","0.4","0.2","0.6","0.7078030286","0.937738562","0.6381806331","0.3863389794","","","","","","","","","","","","","","74","J","1","","","7","main_expt","",""
"","bandit","89","339021","0.0-49.0-0.0","67824082","wem/bandit_party_2","ADTIO3A6TM9CG","either","4","269","","","","","","","1","0","0","0.8269671957","","0.8","0.4","0.2","0.6","","","","","0.689407674","0.8269671957","0.7047831713","0.4242016385","","","","","","","","","","74","J","1","","","8","main_expt","",""
"","bandit","90","340796","0.0-50.0-0.0","67824082","wem/bandit_party_2","ADTIO3A6TM9CG","either","4","261","","","","","","","0","0","1","0.7696709776","","0.8","0.4","0.2","0.6","","","","","0.7848236408","0.7696709776","0.6222923336","0.379169242","","","","","","","","","","74","J","1","","","9","main_expt","",""
"","bandit","91","342531","0.0-51.0-0.0","67824082","wem/bandit_party_2","ADTIO3A6TM9CG","either","4","203","","","","","","","0","1","0","","0.7313552403","0.8","0.4","0.2","0.6","0.791363481","0.7313552403","0.5629201009","0.40569916","","","","","","","","","","","","","","74","J","1","","","10","main_expt","",""
"","bandit","92","344324","0.0-52.0-0.0","67824082","wem/bandit_party_2","ADTIO3A6TM9CG","either","4","285","","","","","","","1","0","0","0.8129169819","","0.8","0.4","0.2","0.6","","","","","0.7800632456","0.8129169819","0.644159789","0.4188021694","","","","","","","","","","74","J","1","","","11","main_expt","",""
"","bandit","93","346085","0.0-53.0-0.0","67824082","wem/bandit_party_2","ADTIO3A6TM9CG","either","4","248","","","","","","","1","0","0","0.7611571711","","0.8","0.4","0.2","0.6","","","","","0.7559884596","0.7611571711","0.6840372722","0.3689559917","","","","","","","","","","74","J","1","","","12","main_expt","",""
"","bandit","94","347843","0.0-54.0-0.0","67824082","wem/bandit_party_2","ADTIO3A6TM9CG","either","4","245","","","","","","","0","1","0","","0.7628417147","0.8","0.4","0.2","0.6","0.7695577991","0.7628417147","0.6236151953","0.4584943612","","","","","","","","","","","","","","74","J","1","","","13","main_expt","",""
"","bandit","95","349586","0.0-55.0-0.0","67824082","wem/bandit_party_2","ADTIO3A6TM9CG","either","4","237","","","","","","","0","0","1","0.7436451733","","0.8","0.4","0.2","0.6","","","","","0.8509931145","0.7436451733","0.5388331182","0.455083938","","","","","","","","","","74","J","1","","","14","main_expt","",""
"","bandit","96","351330","0.0-56.0-0.0","67824082","wem/bandit_party_2","ADTIO3A6TM9CG","either","4","230","","","","","","","0","1","0","","0.8256008488","0.8","0.4","0.2","0.6","0.7745856811","0.8256008488","0.4802769188","0.5360112786","","","","","","","","","","","","","","74","J","1","","","15","main_expt","",""
"","bandit","97","353124","0.0-57.0-0.0","67824082","wem/bandit_party_2","ADTIO3A6TM9CG","either","4","272","","","","","","","0","1","0","","0.7683027423","0.8","0.4","0.2","0.6","0.7576521113","0.7683027423","0.4688000192","0.4791571541","","","","","","","","","","","","","","74","J","1","","","16","main_expt","",""
"","bandit","98","354950","0.0-58.0-0.0","67824082","wem/bandit_party_2","ADTIO3A6TM9CG","either","4","315","","","","","","","0","1","0","","0.7857675768","0.8","0.4","0.2","0.6","0.8099558365","0.7857675768","0.6000602573","0.5263630166","","","","","","","","","","","","","","74","J","1","","","17","main_expt","",""
"","bandit","99","356682","0.0-59.0-0.0","67824082","wem/bandit_party_2","ADTIO3A6TM9CG","either","4","219","","","","","","","0","1","0","","0.7303419725","0.8","0.4","0.2","0.6","0.7535280451","0.7303419725","0.6046592687","0.543945959","","","","","","","","","","","","","","74","J","1","","","18","main_expt","",""
"","bandit","100","358434","0.0-60.0-0.0","67824082","wem/bandit_party_2","ADTIO3A6TM9CG","either","4","239","","","","","","","0","0","1","","0.7243255268","0.8","0.4","0.2","0.6","0.7206444799","0.7243255268","0.6177236116","0.4579801682","","","","","","","","","","","","","","74","J","1","","","19","main_expt","",""
"","bandit","101","360159","0.0-61.0-0.0","67824082","wem/bandit_party_2","ADTIO3A6TM9CG","either","4","213","","","","","","","0","1","0","","0.7691283854","0.8","0.4","0.2","0.6","0.6388551968","0.7691283854","0.5484637992","0.5439896582","","","","","","","","","","","","","","74","J","1","","","20","main_expt","",""
"","bandit","102","362174","0.0-62.0-0.0","67824082","wem/bandit_party_2","ADTIO3A6TM9CG","either","4","503","","","","","","","0","0","1","0.7068464658","","0.8","0.4","0.2","0.6","","","","","0.4956822649","0.7068464658","0.6646151354","0.5796019833","","","","","","","","","","74","J","1","","","21","main_expt","",""
"","bandit","103","363987","0.0-63.0-0.0","67824082","wem/bandit_party_2","ADTIO3A6TM9CG","either","4","300","","","","","","","0","0","1","","0.7407239748","0.8","0.4","0.2","0.6","0.4316307404","0.7407239748","0.7223938077","0.5885929095","","","","","","","","","","","","","","74","J","1","","","22","main_expt","",""
"","bandit","104","365826","0.0-64.0-0.0","67824082","wem/bandit_party_2","ADTIO3A6TM9CG","either","4","328","","","","","","","1","0","0","0.7300920021","","0.8","0.4","0.2","0.6","","","","","0.4158022912","0.7300920021","0.7548690184","0.4899642796","","","","","","","","","","74","J","1","","","23","main_expt","",""
"","bandit","105","367675","0.0-65.0-0.0","67824082","wem/bandit_party_2","ADTIO3A6TM9CG","either","4","324","","","","","","","1","0","0","0.7074307303","","0.8","0.4","0.2","0.6","","","","","0.4099928258","0.7074307303","0.7794954679","0.4984159311","","","","","","","","","","74","J","1","","","24","main_expt","",""
"","bandit","106","373579","0.0-66.0-0.0","67824082","wem/bandit_party_2","ADTIO3A6TM9CG","either","4","4392","","","","","","","1","0","0","0.6228099684","","0.8","0.4","0.2","0.6","","","","","0.4303724308","0.6228099684","0.8029664172","0.5885503773","","","","","","","","","","74","J","1","","","25","main_expt","",""
"","bandit","107","375621","0.0-67.0-0.0","67824082","wem/bandit_party_2","ADTIO3A6TM9CG","either","4","532","","","","","","","0","1","0","","0.5588879168","0.8","0.4","0.2","0.6","0.3291624114","0.5588879168","0.6980766755","0.6978100054","","","","","","","","","","","","","","74","J","1","","","26","main_expt","",""
"","bandit","108","382039","0.0-68.0-0.0","67824082","wem/bandit_party_2","ADTIO3A6TM9CG","either","4","4905","","","","","","","0","1","0","","0.5033257713","0.8","0.4","0.2","0.6","0.3795789415","0.5033257713","0.7021498626","0.6442468271","","","","","","","","","","","","","","74","J","1","","","27","main_expt","",""
"","bandit","109","383806","0.0-69.0-0.0","67824082","wem/bandit_party_2","ADTIO3A6TM9CG","either","4","254","","","","","","","0","0","1","","0.4915102133","0.8","0.4","0.2","0.6","0.3208573938","0.4915102133","0.7802436781","0.7399213538","","","","","","","","","","","","","","74","J","1","","","28","main_expt","",""
"","bandit","110","385565","0.0-70.0-0.0","67824082","wem/bandit_party_2","ADTIO3A6TM9CG","either","4","246","","","","","","","0","0","1","0.4291187576","","0.8","0.4","0.2","0.6","","","","","0.3352919619","0.4291187576","0.6907923131","0.7520253205","","","","","","","","","","74","J","1","","","29","main_expt","",""
"","bandit","111","387316","0.0-71.0-0.0","67824082","wem/bandit_party_2","ADTIO3A6TM9CG","either","4","240","","","","","","","0","1","0","","0.5379907803","0.8","0.4","0.2","0.6","0.3452717309","0.5379907803","0.6771306444","0.7528469829","","","","","","","","","","","","","","74","J","1","","","30","main_expt","",""
"","bandit","112","388905","0.0-72.0-0.0","67824082","wem/bandit_party_2","ADTIO3A6TM9CG","either","4","50","","","","","","","0","0","1","","0.646046857","0.8","0.4","0.2","0.6","0.2967094522","0.646046857","0.7130915948","0.7571908429","","","","","","","","","","","","","","74","J","1","","","31","main_expt","",""
"","bandit","113","390566","0.0-73.0-0.0","67824082","wem/bandit_party_2","ADTIO3A6TM9CG","either","4","149","","","","","","","0","1","0","","0.5608885347","0.8","0.4","0.2","0.6","0.255781972","0.5608885347","0.6849190202","0.7530934884","","","","","","","","","","","","","","74","J","1","","","32","main_expt","",""
"","bandit","114","392440","0.0-74.0-0.0","67824082","wem/bandit_party_2","ADTIO3A6TM9CG","either","4","358","","","","","","","0","1","0","","0.5952322697","0.8","0.4","0.2","0.6","0.2703771925","0.5952322697","0.7392612035","0.7163673585","","","","","","","","","","","","","","74","J","1","","","33","main_expt","",""
"","bandit","115","394320","0.0-75.0-0.0","67824082","wem/bandit_party_2","ADTIO3A6TM9CG","either","4","367","","","","","","","0","0","1","","0.6206609301","0.8","0.4","0.2","0.6","0.3572673824","0.6206609301","0.7026009082","0.6817248107","","","","","","","","","","","","","","74","J","1","","","34","main_expt","",""
"","bandit","116","396081","0.0-76.0-0.0","67824082","wem/bandit_party_2","ADTIO3A6TM9CG","either","4","249","","","","","","","0","0","1","0.6223058769","","0.8","0.4","0.2","0.6","","","","","0.3237575066","0.6223058769","0.632003728","0.6903641832","","","","","","","","","","74","J","1","","","35","main_expt","",""
"","bandit","117","397819","0.0-77.0-0.0","67824082","wem/bandit_party_2","ADTIO3A6TM9CG","either","4","229","","","","","","","0","1","0","","0.7304722347","0.8","0.4","0.2","0.6","0.3724209237","0.7304722347","0.7266912659","0.6953747248","","","","","","","","","","","","","","74","J","1","","","36","main_expt","",""
"","bandit","118","399563","0.0-78.0-0.0","67824082","wem/bandit_party_2","ADTIO3A6TM9CG","either","4","234","","","","","","","0","1","0","","0.6789706255","0.8","0.4","0.2","0.6","0.3848591071","0.6789706255","0.5512211225","0.7552078918","","","","","","","","","","","","","","74","J","1","","","37","main_expt","",""
"","bandit","119","401335","0.0-79.0-0.0","67824082","wem/bandit_party_2","ADTIO3A6TM9CG","either","4","262","","","","","","","0","1","0","","0.6758320082","0.8","0.4","0.2","0.6","0.4026628424","0.6758320082","0.5888446875","0.7095976639","","","","","","","","","","","","","","74","J","1","","","38","main_expt","",""
"","bandit","120","403172","0.0-80.0-0.0","67824082","wem/bandit_party_2","ADTIO3A6TM9CG","either","4","326","","","","","","","0","1","0","","0.753286291","0.8","0.4","0.2","0.6","0.460229008","0.753286291","0.7349010221","0.7813817897","","","","","","","","","","","","","","74","J","1","","","39","main_expt","",""
"","bandit","121","404944","0.0-81.0-0.0","67824082","wem/bandit_party_2","ADTIO3A6TM9CG","either","4","257","","","","","","","0","1","0","","0.7527041006","0.8","0.4","0.2","0.6","0.3392787789","0.7527041006","0.6715391024","0.7604460558","","","","","","","","","","","","","","74","J","1","","","40","main_expt","",""
"","bandit","122","406943","0.0-82.0-0.0","67824082","wem/bandit_party_2","ADTIO3A6TM9CG","either","4","487","","","","","","","0","1","0","","0.7900808451","0.8","0.4","0.2","0.6","0.2983701942","0.7900808451","0.688235262","0.7588214983","","","","","","","","","","","","","","74","J","1","","","41","main_expt","",""
"","bandit","123","408857","0.0-83.0-0.0","67824082","wem/bandit_party_2","ADTIO3A6TM9CG","either","4","397","","","","","","","1","0","0","0.7261157662","","0.8","0.4","0.2","0.6","","","","","0.2390858253","0.7261157662","0.750516412","0.8204813903","","","","","","","","","","74","J","1","","","42","main_expt","",""
"","bandit","124","410580","0.0-84.0-0.0","67824082","wem/bandit_party_2","ADTIO3A6TM9CG","either","4","209","","","","","","","0","1","0","","0.772887471","0.8","0.4","0.2","0.6","0.1877526289","0.772887471","0.775378891","0.8310219988","","","","","","","","","","","","","","74","J","1","","","43","main_expt","",""
"","bandit","125","412374","0.0-85.0-0.0","67824082","wem/bandit_party_2","ADTIO3A6TM9CG","either","4","272","","","","","","","0","1","0","","0.7359848823","0.8","0.4","0.2","0.6","0.2713877418","0.7359848823","0.5983035632","0.8165903167","","","","","","","","","","","","","","74","J","1","","","44","main_expt","",""
"","bandit","126","414114","0.0-86.0-0.0","67824082","wem/bandit_party_2","ADTIO3A6TM9CG","either","4","227","","","","","","","1","0","0","0.6223954065","","0.8","0.4","0.2","0.6","","","","","0.2600408605","0.6223954065","0.6453890447","0.6765015189","","","","","","","","","","74","J","1","","","45","main_expt","",""
"","bandit","127","416059","0.0-87.0-0.0","67824082","wem/bandit_party_2","ADTIO3A6TM9CG","either","4","433","","","","","","","0","0","1","","0.5963379238","0.8","0.4","0.2","0.6","0.2435580982","0.5963379238","0.4979639723","0.6613510417","","","","","","","","","","","","","","74","J","1","","","46","main_expt","",""
"","bandit","128","417716","0.0-88.0-0.0","67824082","wem/bandit_party_2","ADTIO3A6TM9CG","either","4","141","","","","","","","0","1","0","","0.6161308884","0.8","0.4","0.2","0.6","0.3258971046","0.6161308884","0.4475739324","0.7373034573","","","","","","","","","","","","","","74","J","1","","","47","main_expt","",""
"","bandit","129","419609","0.0-89.0-0.0","67824082","wem/bandit_party_2","ADTIO3A6TM9CG","either","4","382","","","","","","","0","1","0","","0.6354722558","0.8","0.4","0.2","0.6","0.2934977076","0.6354722558","0.570942939","0.6580913366","","","","","","","","","","","","","","74","J","1","","","48","main_expt","",""
"","bandit","130","421566","0.0-90.0-0.0","67824082","wem/bandit_party_2","ADTIO3A6TM9CG","either","4","445","","","","","","","1","0","0","0.5941747261","","0.8","0.4","0.2","0.6","","","","","0.3381222087","0.5941747261","0.5943858444","0.6518545324","","","","","","","","","","74","J","1","","","49","main_expt","",""
"","bandit","131","423228","0.0-91.0-0.0","67824082","wem/bandit_party_2","ADTIO3A6TM9CG","either","4","149","","","","","","","0","0","1","0.5510631732","","0.8","0.4","0.2","0.6","","","","","0.4149653651","0.5510631732","0.72156704","0.6362385309","","","","","","","","","","74","J","1","","","50","main_expt","",""
"","bandit","132","425394","0.0-92.0-0.0","67824082","wem/bandit_party_2","ADTIO3A6TM9CG","either","4","650","","","","","","","0","1","0","","0.5580995271","0.8","0.4","0.2","0.6","0.315936401","0.5580995271","0.6453884322","0.6673370403","","","","","","","","","","","","","","74","J","1","","","51","main_expt","",""
"","bandit","133","427366","0.0-93.0-0.0","67824082","wem/bandit_party_2","ADTIO3A6TM9CG","either","4","463","","","","","","","0","0","1","","0.4492126091","0.8","0.4","0.2","0.6","0.34776451","0.4492126091","0.635653338","0.6614759556","","","","","","","","","","","","","","74","J","1","","","52","main_expt","",""
"","bandit","134","429253","0.0-94.0-0.0","67824082","wem/bandit_party_2","ADTIO3A6TM9CG","either","4","371","","","","","","","0","0","1","","0.4600129001","0.8","0.4","0.2","0.6","0.2946288454","0.4600129001","0.5700640027","0.5099009019","","","","","","","","","","","","","","74","J","1","","","53","main_expt","",""
"","bandit","135","431075","0.0-95.0-0.0","67824082","wem/bandit_party_2","ADTIO3A6TM9CG","either","4","309","","","","","","","0","0","1","","0.4005354829","0.8","0.4","0.2","0.6","0.3757560715","0.4005354829","0.4535518587","0.5323874036","","","","","","","","","","","","","","74","J","1","","","54","main_expt","",""
"","bandit","136","432943","0.0-96.0-0.0","67824082","wem/bandit_party_2","ADTIO3A6TM9CG","either","4","355","","","","","","","0","0","1","0.3305694417","","0.8","0.4","0.2","0.6","","","","","0.3258455482","0.3305694417","0.4271895083","0.5410243768","","","","","","","","","","74","J","1","","","55","main_expt","",""
"","bandit","137","434882","0.0-97.0-0.0","67824082","wem/bandit_party_2","ADTIO3A6TM9CG","either","4","428","","","","","","","0","0","1","","0.3443449075","0.8","0.4","0.2","0.6","0.4350401219","0.3443449075","0.3506641683","0.5594159285","","","","","","","","","","","","","","74","J","1","","","56","main_expt","",""
"","bandit","138","436686","0.0-98.0-0.0","67824082","wem/bandit_party_2","ADTIO3A6TM9CG","either","4","284","","","","","","","0","1","0","","0.3266461122","0.8","0.4","0.2","0.6","0.3707313189","0.3719720486","0.3266461122","0.5057935102","","","","","","","","","","","","","","75","K","2","","","57","main_expt","",""
"","bandit","139","438334","0.0-99.0-0.0","67824082","wem/bandit_party_2","ADTIO3A6TM9CG","either","4","137","","","","","","","1","0","0","0.3024401834","","0.8","0.4","0.2","0.6","","","","","0.5588799977","0.2230753252","0.3024401834","0.4921421838","","","","","","","","","","75","K","2","","","58","main_expt","",""
"","bandit","140","439999","0.0-100.0-0.0","67824082","wem/bandit_party_2","ADTIO3A6TM9CG","either","4","150","","","","","","","0","1","0","","0.4306619987","0.8","0.4","0.2","0.6","0.6863198467","0.2255195526","0.4306619987","0.4740341295","","","","","","","","","","","","","","75","K","2","","","59","main_expt","",""
"","bandit","141","441770","0.0-101.0-0.0","67824082","wem/bandit_party_2","ADTIO3A6TM9CG","either","4","252","","","","","","","1","0","0","0.4710521126","","0.8","0.4","0.2","0.6","","","","","0.6998437478","0.2150487889","0.4710521126","0.4853159436","","","","","","","","","","75","K","2","","","60","main_expt","",""
"","bandit","142","443488","0.0-102.0-0.0","67824082","wem/bandit_party_2","ADTIO3A6TM9CG","either","4","204","","","","","","","0","0","1","","0.4797168847","0.8","0.4","0.2","0.6","0.7027468204","0.2670703017","0.4797168847","0.4843563089","","","","","","","","","","","","","","75","K","2","","","61","main_expt","",""
"","bandit","143","445276","0.0-103.0-0.0","67824082","wem/bandit_party_2","ADTIO3A6TM9CG","either","4","270","","","","","","","0","0","1","0.441351191","","0.8","0.4","0.2","0.6","","","","","0.7461433662","0.1622034337","0.441351191","0.4970562682","","","","","","","","","","75","K","2","","","62","main_expt","",""
"","bandit","144","447090","0.0-104.0-0.0","67824082","wem/bandit_party_2","ADTIO3A6TM9CG","either","4","293","","","","","","","1","0","0","0.6405696824","","0.8","0.4","0.2","0.6","","","","","0.7956877632","0.1872430185","0.6405696824","0.4870743105","","","","","","","","","","75","K","2","","","63","main_expt","",""
"","bandit","145","448859","0.0-105.0-0.0","67824082","wem/bandit_party_2","ADTIO3A6TM9CG","either","4","254","","","","","","","1","0","0","0.5093225209","","0.8","0.4","0.2","0.6","","","","","0.7533911137","0.1921602407","0.5093225209","0.5297884171","","","","","","","","","","75","K","2","","","64","main_expt","",""
"","bandit","146","450396","0.0-106.0-0.0","67824082","wem/bandit_party_2","ADTIO3A6TM9CG","either","4","24","","","","","","","0","0","1","","0.5190422554","0.8","0.4","0.2","0.6","0.8407665504","0.1747679693","0.5190422554","0.5510281753","","","","","","","","","","","","","","75","K","2","","","65","main_expt","",""
"","bandit","147","452220","0.0-107.0-0.0","67824082","wem/bandit_party_2","ADTIO3A6TM9CG","either","4","313","","","","","","","0","0","1","","0.4367989657","0.8","0.4","0.2","0.6","0.8392190168","0.149475979","0.4367989657","0.6548378986","","","","","","","","","","","","","","75","K","2","","","66","main_expt","",""
"","bandit","148","453825","0.0-108.0-0.0","67824082","wem/bandit_party_2","ADTIO3A6TM9CG","either","4","91","","","","","","","0","0","1","0.1340316754","","0.8","0.4","0.2","0.6","","","","","0.7998105719","0.1340316754","0.4515976155","0.7873643744","","","","","","","","","","74","J","1","","","67","main_expt","",""
"","bandit","149","455585","0.0-109.0-0.0","67824082","wem/bandit_party_2","ADTIO3A6TM9CG","either","4","248","","","","","","","0","1","0","","0.8374830125","0.8","0.4","0.2","0.6","0.8055175736","0.1635100664","0.4605235732","0.8374830125","","","","","","","","","","","","","","76","L","3","","","68","main_expt","",""
"","bandit","150","457409","0.0-110.0-0.0","67824082","wem/bandit_party_2","ADTIO3A6TM9CG","either","4","313","","","","","","","0","1","0","","0.7948054761","0.8","0.4","0.2","0.6","0.9157616325","0.1227365859","0.3799115548","0.7948054761","","","","","","","","","","","","","","76","L","3","","","69","main_expt","",""
"","bandit","151","459232","0.0-111.0-0.0","67824082","wem/bandit_party_2","ADTIO3A6TM9CG","either","4","312","","","","","","","0","1","0","","0.8257183208","0.8","0.4","0.2","0.6","0.9575411193","0.1248437045","0.4215965018","0.8257183208","","","","","","","","","","","","","","76","L","3","","","70","main_expt","",""
"","bandit","152","461117","0.0-112.0-0.0","67824082","wem/bandit_party_2","ADTIO3A6TM9CG","either","4","373","","","","","","","1","0","0","0.7378076352","","0.8","0.4","0.2","0.6","","","","","0.9604429572","0.1153860856","0.4069040491","0.7378076352","","","","","","","","","","76","L","3","","","71","main_expt","",""
"","bandit","153","463001","0.0-113.0-0.0","67824082","wem/bandit_party_2","ADTIO3A6TM9CG","either","4","370","","","","","","","1","0","0","0.7402058239","","0.8","0.4","0.2","0.6","","","","","0.9598545795","0.1355011504","0.4396577013","0.7402058239","","","","","","","","","","76","L","3","","","72","main_expt","",""
"","bandit","154","464722","0.0-114.0-0.0","67824082","wem/bandit_party_2","ADTIO3A6TM9CG","either","4","210","","","","","","","0","1","0","","0.6976791507","0.8","0.4","0.2","0.6","0.944667289","0.05996807606","0.6562772762","0.6976791507","","","","","","","","","","","","","","76","L","3","","","73","main_expt","",""
"","bandit","155","466556","0.0-115.0-0.0","67824082","wem/bandit_party_2","ADTIO3A6TM9CG","either","4","320","","","","","","","0","0","1","0.7918365236","","0.8","0.4","0.2","0.6","","","","","0.9226304804","0.05405538329","0.6973429816","0.7918365236","","","","","","","","","","76","L","3","","","74","main_expt","",""
"","bandit","156","468341","0.0-116.0-0.0","67824082","wem/bandit_party_2","ADTIO3A6TM9CG","either","4","271","","","","","","","1","0","0","0.7822783488","","0.8","0.4","0.2","0.6","","","","","0.9398646798","0.02989929625","0.7736122178","0.7822783488","","","","","","","","","","76","L","3","","","75","main_expt","",""
"","bandit","157","470049","0.0-117.0-0.0","67824082","wem/bandit_party_2","ADTIO3A6TM9CG","either","4","198","","","","","","","0","0","1","","0.7290889389","0.8","0.4","0.2","0.6","0.9344412274","0.0563551135","0.8130420724","0.7290889389","","","","","","","","","","","","","","76","L","3","","","76","main_expt","",""
"","bandit","158","472846","0.0-118.0-0.0","67824082","wem/bandit_party_2","ADTIO3A6TM9CG","either","4","1281","","","","","","","1","0","0","0.7903383215","","0.8","0.4","0.2","0.6","","","","","0.9512527415","0.0510075381","0.8182773084","0.7903383215","","","","","","","","","","76","L","3","","","77","main_expt","",""
"","bandit","159","474637","0.0-119.0-0.0","67824082","wem/bandit_party_2","ADTIO3A6TM9CG","either","4","278","","","","","","","1","0","0","0.8093770606","","0.8","0.4","0.2","0.6","","","","","0.945324638","0.07280641377","0.910984946","0.8093770606","","","","","","","","","","76","L","3","","","78","main_expt","",""
"","bandit","160","476631","0.0-120.0-0.0","67824082","wem/bandit_party_2","ADTIO3A6TM9CG","either","4","483","","","","","","","0","0","1","","0.7310189459","0.8","0.4","0.2","0.6","0.9313693401","0.06591604593","0.9303795674","0.7310189459","","","","","","","","","","","","","","76","L","3","","","79","main_expt","",""
"","bandit","161","478452","0.0-121.0-0.0","67824082","wem/bandit_party_2","ADTIO3A6TM9CG","either","4","302","","","","","","","0","0","1","0.7915113188","","0.8","0.4","0.2","0.6","","","","","0.9272018461","0.02790121052","0.9581515868","0.7915113188","","","","","","","","","","76","L","3","","","80","main_expt","",""
"","bandit","162","480233","0.0-122.0-0.0","67824082","wem/bandit_party_2","ADTIO3A6TM9CG","either","4","265","","","","","","","1","0","0","0.8463201033","","0.8","0.4","0.2","0.6","","","","","0.9340165544","0.03997429631","0.9107397581","0.8463201033","","","","","","","","","","76","L","3","","","81","main_expt","",""
"","bandit","163","482026","0.0-123.0-0.0","67824082","wem/bandit_party_2","ADTIO3A6TM9CG","either","4","277","","","","","","","0","1","0","","0.9043915002","0.8","0.4","0.2","0.6","0.9778602254","0.03692483048","0.9531247327","0.9043915002","","","","","","","","","","","","","","76","L","3","","","82","main_expt","",""
"","bandit","164","483631","0.0-124.0-0.0","67824082","wem/bandit_party_2","ADTIO3A6TM9CG","either","4","93","","","","","","","1","0","0","0.922294541","","0.8","0.4","0.2","0.6","","","","","0.9593015187","0.04167024954","0.91574064","0.922294541","","","","","","","","","","76","L","3","","","83","main_expt","",""
"","bandit","165","485456","0.0-125.0-0.0","67824082","wem/bandit_party_2","ADTIO3A6TM9CG","either","4","311","","","","","","","0","1","0","","0.9079954767","0.8","0.4","0.2","0.6","0.9398758864","0.03449326924","0.9287460716","0.9079954767","","","","","","","","","","","","","","76","L","3","","","84","main_expt","",""
"","bandit","166","487306","0.0-126.0-0.0","67824082","wem/bandit_party_2","ADTIO3A6TM9CG","either","4","333","","","","","","","1","0","0","0.92293493","","0.8","0.4","0.2","0.6","","","","","0.9256746213","0.07382848834","0.9817994773","0.92293493","","","","","","","","","","76","L","3","","","85","main_expt","",""
"","bandit","167","489055","0.0-127.0-0.0","67824082","wem/bandit_party_2","ADTIO3A6TM9CG","either","4","232","","","","","","","0","1","0","","0.8831043051","0.8","0.4","0.2","0.6","0.8910640916","0.08839198485","0.9651028603","0.8831043051","","","","","","","","","","","","","","76","L","3","","","86","main_expt","",""
"","bandit","168","490828","0.0-128.0-0.0","67824082","wem/bandit_party_2","ADTIO3A6TM9CG","either","4","262","","","","","","","1","0","0","0.876749115","","0.8","0.4","0.2","0.6","","","","","0.8729480744","0.08767612821","0.9364705545","0.876749115","","","","","","","","","","76","L","3","","","87","main_expt","",""
"","bandit","169","492622","0.0-129.0-0.0","67824082","wem/bandit_party_2","ADTIO3A6TM9CG","either","4","279","","","","","","","0","1","0","","0.9189432589","0.8","0.4","0.2","0.6","0.8780151739","0.1606359608","0.9235767634","0.9189432589","","","","","","","","","","","","","","76","L","3","","","88","main_expt","",""
"","bandit","170","494625","0.0-130.0-0.0","67824082","wem/bandit_party_2","ADTIO3A6TM9CG","either","4","482","","","","","","","0","1","0","","0.8770582065","0.8","0.4","0.2","0.6","0.8856980863","0.2051996915","0.9375107972","0.8770582065","","","","","","","","","","","","","","76","L","3","","","89","main_expt","",""
"","bandit","171","496409","0.0-131.0-0.0","67824082","wem/bandit_party_2","ADTIO3A6TM9CG","either","4","271","","","","","","","0","1","0","","0.9303780437","0.8","0.4","0.2","0.6","0.8828292745","0.1757431166","0.9201099193","0.9303780437","","","","","","","","","","","","","","76","L","3","","","90","main_expt","",""
"","bandit","172","498384","0.0-132.0-0.0","67824082","wem/bandit_party_2","ADTIO3A6TM9CG","either","4","460","","","","","","","1","0","0","0.8870296602","","0.8","0.4","0.2","0.6","","","","","0.9016480115","0.3470073597","0.9416722714","0.8870296602","","","","","","","","","","76","L","3","","","91","main_expt","",""
"","bandit","173","500047","0.0-133.0-0.0","67824082","wem/bandit_party_2","ADTIO3A6TM9CG","either","4","146","","","","","","","1","0","0","0.8466670433","","0.8","0.4","0.2","0.6","","","","","0.9077272713","0.4969118024","0.943817784","0.8466670433","","","","","","","","","","76","L","3","","","92","main_expt","",""
"","bandit","174","501822","0.0-134.0-0.0","67824082","wem/bandit_party_2","ADTIO3A6TM9CG","either","4","259","","","","","","","0","1","0","","0.850017275","0.8","0.4","0.2","0.6","0.875936713","0.5773598144","0.9078517942","0.850017275","","","","","","","","","","","","","","76","L","3","","","93","main_expt","",""
"","bandit","175","503641","0.0-135.0-0.0","67824082","wem/bandit_party_2","ADTIO3A6TM9CG","either","4","307","","","","","","","1","0","0","0.6893652978","","0.8","0.4","0.2","0.6","","","","","0.8089346838","0.5513550223","0.8983200186","0.6893652978","","","","","","","","","","76","L","3","","","94","main_expt","",""
"","bandit","176","505449","0.0-136.0-0.0","67824082","wem/bandit_party_2","ADTIO3A6TM9CG","either","4","291","","","","","","","0","0","1","","0.6025630118","0.8","0.4","0.2","0.6","0.7472177953","0.5461825447","0.8744309931","0.6025630118","","","","","","","","","","","","","","76","L","3","","","95","main_expt","",""
"","bandit","177","507094","0.0-137.0-0.0","67824082","wem/bandit_party_2","ADTIO3A6TM9CG","either","4","133","","","","","","","0","1","0","","0.5565182624","0.8","0.4","0.2","0.6","0.631257407","0.5564841108","0.8894212924","0.5565182624","","","","","","","","","","","","","","76","L","3","","","96","main_expt","",""
"","bandit","178","508970","0.0-138.0-0.0","67824082","wem/bandit_party_2","ADTIO3A6TM9CG","either","4","363","","","","","","","0","0","1","","0.4820287155","0.8","0.4","0.2","0.6","0.7474787878","0.6513715187","0.891162681","0.4820287155","","","","","","","","","","","","","","76","L","3","","","97","main_expt","",""
"","bandit","179","510623","0.0-139.0-0.0","67824082","wem/bandit_party_2","ADTIO3A6TM9CG","either","4","138","","","","","","","0","0","1","0.4599621431","","0.8","0.4","0.2","0.6","","","","","0.7753317291","0.7004254565","0.8495400438","0.4599621431","","","","","","","","","","76","L","3","","","98","main_expt","",""
"","bandit","180","512165","0.0-140.0-0.0","67824082","wem/bandit_party_2","ADTIO3A6TM9CG","either","4","25","","","","","","","1","0","0","0.4109144258","","0.8","0.4","0.2","0.6","","","","","0.7088399779","0.6473310623","0.8671572546","0.4109144258","","","","","","","","","","76","L","3","","","99","main_expt","",""
"","bandit","181","513723","0.0-141.0-0.0","67824082","wem/bandit_party_2","ADTIO3A6TM9CG","either","4","43","","","","","","","1","0","0","0.3466085394","","0.8","0.4","0.2","0.6","","","","","0.7328055719","0.6160818326","0.8312294914","0.3466085394","","","","","","","","","","76","L","3","","","100","main_expt","",""
"","bandit","182","515420","0.0-142.0-0.0","67824082","wem/bandit_party_2","ADTIO3A6TM9CG","either","4","186","","","","","","","0","0","1","0.3712289037","","0.8","0.4","0.2","0.6","","","","","0.8183789849","0.6963675268","0.8135240708","0.3712289037","","","","","","","","","","76","L","3","","","101","main_expt","",""
"","bandit","183","517045","0.0-143.0-0.0","67824082","wem/bandit_party_2","ADTIO3A6TM9CG","either","4","111","","","","","","","0","0","1","0.3626324234","","0.8","0.4","0.2","0.6","","","","","0.7854635714","0.6339579424","0.8556055773","0.3626324234","","","","","","","","","","76","L","3","","","102","main_expt","",""
"","bandit","184","518638","0.0-144.0-0.0","67824082","wem/bandit_party_2","ADTIO3A6TM9CG","either","4","82","","","","","","","0","0","1","0.2748825764","","0.8","0.4","0.2","0.6","","","","","0.8481411385","0.6908430899","0.7632006143","0.2748825764","","","","","","","","","","76","L","3","","","103","main_expt","",""
"","bandit","185","520760","0.0-145.0-0.0","67824082","wem/bandit_party_2","ADTIO3A6TM9CG","either","4","608","","","","","","","1","0","0","0.2381725209","","0.8","0.4","0.2","0.6","","","","","0.8129446485","0.6866318891","0.8273213265","0.2381725209","","","","","","","","","","76","L","3","","","104","main_expt","",""
"","bandit","186","522465","0.0-146.0-0.0","67824082","wem/bandit_party_2","ADTIO3A6TM9CG","either","4","189","","","","","","","0","0","1","","0.1939551764","0.8","0.4","0.2","0.6","0.7898688037","0.6749941214","0.7930501456","0.1939551764","","","","","","","","","","","","","","76","L","3","","","105","main_expt","",""
"","bandit","187","524097","0.0-147.0-0.0","67824082","wem/bandit_party_2","ADTIO3A6TM9CG","either","4","114","","","","","","","0","0","1","","0.1884153881","0.8","0.4","0.2","0.6","0.7810744832","0.7300347885","0.7186603115","0.1884153881","","","","","","","","","","","","","","76","L","3","","","106","main_expt","",""
"","bandit","188","525870","0.0-148.0-0.0","67824082","wem/bandit_party_2","ADTIO3A6TM9CG","either","4","257","","","","","","","0","0","1","0.1011451677","","0.8","0.4","0.2","0.6","","","","","0.7837395221","0.8133516847","0.7155595947","0.1011451677","","","","","","","","","","76","L","3","","","107","main_expt","",""
"","bandit","189","527626","0.0-149.0-0.0","67824082","wem/bandit_party_2","ADTIO3A6TM9CG","either","4","238","","","","","","","0","0","1","0.1500242655","","0.8","0.4","0.2","0.6","","","","","0.787971135","0.8009432675","0.7654707556","0.1500242655","","","","","","","","","","76","L","3","","","108","main_expt","",""
"","bandit","190","529601","0.0-150.0-0.0","67824082","wem/bandit_party_2","ADTIO3A6TM9CG","either","4","463","","","","","","","0","1","0","","0.7379370491","0.8","0.4","0.2","0.6","0.6866525704","0.7379370491","0.6288612937","0.1285750889","","","","","","","","","","","","","","74","J","1","","","109","main_expt","",""
"","bandit","191","531340","0.0-151.0-0.0","67824082","wem/bandit_party_2","ADTIO3A6TM9CG","either","4","225","","","","","","","0","0","1","0.7379992527","","0.8","0.4","0.2","0.6","","","","","0.5824748378","0.7379992527","0.6309058105","0.06279291231","","","","","","","","","","74","J","1","","","110","main_expt","",""
"","bandit","192","533219","0.0-152.0-0.0","67824082","wem/bandit_party_2","ADTIO3A6TM9CG","either","4","363","","","","","","","0","1","0","","0.7464430213","0.8","0.4","0.2","0.6","0.659702805","0.7464430213","0.6218965746","0.07144278273","","","","","","","","","","","","","","74","J","1","","","111","main_expt","",""
"","bandit","193","535095","0.0-153.0-0.0","67824082","wem/bandit_party_2","ADTIO3A6TM9CG","either","4","363","","","","","","","0","1","0","","0.7736339118","0.8","0.4","0.2","0.6","0.5111205641","0.7736339118","0.6741482942","0.06013221683","","","","","","","","","","","","","","74","J","1","","","112","main_expt","",""
"","bandit","194","536905","0.0-154.0-0.0","67824082","wem/bandit_party_2","ADTIO3A6TM9CG","either","4","300","","","","","","","1","0","0","0.8480767854","","0.8","0.4","0.2","0.6","","","","","0.4852392648","0.8480767854","0.7405202534","0.1442356489","","","","","","","","","","74","J","1","","","113","main_expt","",""
"","bandit","195","538963","0.0-155.0-0.0","67824082","wem/bandit_party_2","ADTIO3A6TM9CG","either","4","547","","","","","","","0","0","1","0.8016933152","","0.8","0.4","0.2","0.6","","","","","0.3531287621","0.8016933152","0.743157628","0.1733870882","","","","","","","","","","74","J","1","","","114","main_expt","",""
"","bandit","196","540762","0.0-156.0-0.0","67824082","wem/bandit_party_2","ADTIO3A6TM9CG","either","4","283","","","","","","","0","0","1","0.8200260584","","0.8","0.4","0.2","0.6","","","","","0.4090792957","0.8200260584","0.7732583829","0.2198725907","","","","","","","","","","74","J","1","","","115","main_expt","",""
"","bandit","197","542300","0.0-157.0-0.0","67824082","wem/bandit_party_2","ADTIO3A6TM9CG","either","4","26","","","","","","","1","0","0","0.6224016225","","0.8","0.4","0.2","0.6","","","","","0.4927933112","0.7761954976","0.6224016225","0.2116870815","","","","","","","","","","75","K","2","","","116","main_expt","",""
"","bandit","198","544058","0.0-158.0-0.0","67824082","wem/bandit_party_2","ADTIO3A6TM9CG","either","4","245","","","","","","","0","1","0","","0.6784399158","0.8","0.4","0.2","0.6","0.4255499736","0.7722233998","0.6784399158","0.1293815938","","","","","","","","","","","","","","75","K","2","","","117","main_expt","",""
"","bandit","199","545619","0.0-159.0-0.0","67824082","wem/bandit_party_2","ADTIO3A6TM9CG","either","4","47","","","","","","","0","1","0","","0.7499631032","0.8","0.4","0.2","0.6","0.4073726931","0.8049831996","0.7499631032","0.1442073762","","","","","","","","","","","","","","75","K","2","","","118","main_expt","",""
"","bandit","200","548728","0.0-160.0-0.0","67824082","wem/bandit_party_2","ADTIO3A6TM9CG","either","4","1598","","","","","","","0","1","0","","0.6258432538","0.8","0.4","0.2","0.6","0.5447318884","0.8469405197","0.6258432538","0.2098334931","","","","","","","","","","","","","","75","K","2","","","119","main_expt","",""
"","bandit","201","550475","0.0-161.0-0.0","67824082","wem/bandit_party_2","ADTIO3A6TM9CG","either","4","232","","","","","","","0","0","1","","0.5602994123","0.8","0.4","0.2","0.6","0.5336717705","0.783925966","0.5602994123","0.243218138","","","","","","","","","","","","","","75","K","2","","","120","main_expt","",""
"","bandit","202","552264","0.0-162.0-0.0","67824082","wem/bandit_party_2","ADTIO3A6TM9CG","either","4","270","","","","","","","0","1","0","","0.5850644561","0.8","0.4","0.2","0.6","0.5621279662","0.8031476983","0.5850644561","0.1595445902","","","","","","","","","","","","","","75","K","2","","","121","main_expt","",""
"","bandit","203","554081","0.0-163.0-0.0","67824082","wem/bandit_party_2","ADTIO3A6TM9CG","either","4","300","","","","","","","0","0","1","","0.6205732407","0.8","0.4","0.2","0.6","0.5664238538","0.776878313","0.6205732407","0.1939767007","","","","","","","","","","","","","","75","K","2","","","122","main_expt","",""
"","bandit","204","555888","0.0-164.0-0.0","67824082","wem/bandit_party_2","ADTIO3A6TM9CG","either","4","292","","","","","","","1","0","0","0.7954206102","","0.8","0.4","0.2","0.6","","","","","0.6501842916","0.7695343448","0.7954206102","0.2265728871","","","","","","","","","","75","K","2","","","123","main_expt","",""
"","bandit","205","557686","0.0-165.0-0.0","67824082","wem/bandit_party_2","ADTIO3A6TM9CG","either","4","281","","","","","","","0","1","0","","0.881213352","0.8","0.4","0.2","0.6","0.5413703051","0.6154230174","0.881213352","0.2027469411","","","","","","","","","","","","","","75","K","2","","","124","main_expt","",""
"","bandit","206","559524","0.0-166.0-0.0","67824082","wem/bandit_party_2","ADTIO3A6TM9CG","either","4","323","","","","","","","0","1","0","","0.8598562332","0.8","0.4","0.2","0.6","0.5191338098","0.4710930195","0.8598562332","0.1506135949","","","","","","","","","","","","","","75","K","2","","","125","main_expt","",""
"","bandit","207","561303","0.0-167.0-0.0","67824082","wem/bandit_party_2","ADTIO3A6TM9CG","either","4","263","","","","","","","0","0","1","","0.867144728","0.8","0.4","0.2","0.6","0.6232591378","0.5258886302","0.867144728","0.1875851228","","","","","","","","","","","","","","75","K","2","","","126","main_expt","",""
"","bandit","208","564504","0.0-168.0-0.0","67824082","wem/bandit_party_2","ADTIO3A6TM9CG","either","4","1687","","","","","","","0","1","0","","0.8677917819","0.8","0.4","0.2","0.6","0.601333273","0.3996486754","0.8677917819","0.2106184636","","","","","","","","","","","","","","75","K","2","","","127","main_expt","",""
"","bandit","209","566287","0.0-169.0-0.0","67824082","wem/bandit_party_2","ADTIO3A6TM9CG","either","4","269","","","","","","","0","1","0","","0.8194058857","0.8","0.4","0.2","0.6","0.6312294041","0.3557241191","0.8194058857","0.1276240755","","","","","","","","","","","","","","75","K","2","","","128","main_expt","",""
"","bandit","210","568114","0.0-170.0-0.0","67824082","wem/bandit_party_2","ADTIO3A6TM9CG","either","4","310","","","","","","","0","1","0","","0.813940224","0.8","0.4","0.2","0.6","0.6655034733","0.2432070908","0.813940224","0.2163335705","","","","","","","","","","","","","","75","K","2","","","129","main_expt","",""
"","bandit","211","569887","0.0-171.0-0.0","67824082","wem/bandit_party_2","ADTIO3A6TM9CG","either","4","260","","","","","","","0","1","0","","0.7296764962","0.8","0.4","0.2","0.6","0.6882303755","0.1722843937","0.7296764962","0.2448863899","","","","","","","","","","","","","","75","K","2","","","130","main_expt","",""
"","bandit","212","571594","0.0-172.0-0.0","67824082","wem/bandit_party_2","ADTIO3A6TM9CG","either","4","194","","","","","","","0","0","1","","0.614258276","0.8","0.4","0.2","0.6","0.6772884453","0.1336027919","0.614258276","0.3447645787","","","","","","","","","","","","","","75","K","2","","","131","main_expt","",""
"","bandit","213","573543","0.0-173.0-0.0","67824082","wem/bandit_party_2","ADTIO3A6TM9CG","either","4","434","","","","","","","0","0","1","","0.5349540706","0.8","0.4","0.2","0.6","0.6773684555","0.1351629047","0.5349540706","0.3622527956","","","","","","","","","","","","","","75","K","2","","","132","main_expt","",""
"","bandit","214","575370","0.0-174.0-0.0","67824082","wem/bandit_party_2","ADTIO3A6TM9CG","either","4","316","","","","","","","0","1","0","","0.2495029","0.8","0.4","0.2","0.6","0.7437755928","0.2495029","0.5449090787","0.2961885878","","","","","","","","","","","","","","74","J","1","","","133","main_expt","",""
"","bandit","215","577074","0.0-175.0-0.0","67824082","wem/bandit_party_2","ADTIO3A6TM9CG","either","4","189","","","","","","","0","0","1","","0.2118512663","0.8","0.4","0.2","0.6","0.7423545867","0.2118512663","0.5037108559","0.2932126781","","","","","","","","","","","","","","74","J","1","","","134","main_expt","",""
"","bandit","216","578818","0.0-176.0-0.0","67824082","wem/bandit_party_2","ADTIO3A6TM9CG","either","4","227","","","","","","","0","0","1","","0.2474577379","0.8","0.4","0.2","0.6","0.7462440124","0.2474577379","0.5131336393","0.2836439675","","","","","","","","","","","","","","74","J","1","","","135","main_expt","",""
"","bandit","217","580521","0.0-177.0-0.0","67824082","wem/bandit_party_2","ADTIO3A6TM9CG","either","4","187","","","","","","","0","0","1","0.1985775905","","0.8","0.4","0.2","0.6","","","","","0.6372772774","0.1496333288","0.5847952324","0.1985775905","","","","","","","","","","76","L","3","","","136","main_expt","",""
"","bandit","218","582326","0.0-178.0-0.0","67824082","wem/bandit_party_2","ADTIO3A6TM9CG","either","4","288","","","","","","","0","0","1","","0.2655975","0.8","0.4","0.2","0.6","0.6587707878","0.164835495","0.5191620222","0.2655975","","","","","","","","","","","","","","76","L","3","","","137","main_expt","",""
"","bandit","219","584020","0.0-179.0-0.0","67824082","wem/bandit_party_2","ADTIO3A6TM9CG","either","4","178","","","","","","","0","0","1","0.6545472314","","0.8","0.4","0.2","0.6","","","","","0.6545472314","0.1629561883","0.3830682141","0.4066298912","","","","","","","","","","72","H","0","img/none_selected.jpg","","138","main_expt","",""
"","bandit","220","585581","0.0-180.0-0.0","67824082","wem/bandit_party_2","ADTIO3A6TM9CG","either","4","44","","","","","","","1","0","0","0.5773899651","","0.8","0.4","0.2","0.6","","","","","0.5773899651","0.1162724323","0.3036015776","0.4537429859","","","","","","","","","","72","H","0","img/none_selected.jpg","","139","main_expt","",""
"","bandit","221","587353","0.0-181.0-0.0","67824082","wem/bandit_party_2","ADTIO3A6TM9CG","either","4","256","","","","","","","1","0","0","0.5786924042","","0.8","0.4","0.2","0.6","","","","","0.5786924042","0.1262651596","0.2541790234","0.410026376","","","","","","","","","","72","H","0","img/none_selected.jpg","","140","main_expt","",""
"","bandit","222","589978","0.0-182.0-0.0","67824082","wem/bandit_party_2","ADTIO3A6TM9CG","either","4","1108","","","","","","","1","0","0","0.4589731036","","0.8","0.4","0.2","0.6","","","","","0.4589731036","0.1258799353","0.1899663758","0.3978668086","","","","","","","","","","72","H","0","img/none_selected.jpg","","141","main_expt","",""
"","bandit","223","591764","0.0-183.0-0.0","67824082","wem/bandit_party_2","ADTIO3A6TM9CG","either","4","266","","","","","","","0","0","1","0.3667804619","","0.8","0.4","0.2","0.6","","","","","0.3667804619","0.1220135665","0.214868544","0.4096738096","","","","","","","","","","72","H","0","img/none_selected.jpg","","142","main_expt","",""
"","bandit","224","594349","0.0-184.0-0.0","67824082","wem/bandit_party_2","ADTIO3A6TM9CG","either","4","1063","","","","","","","0","1","0","","0.1549416237","0.8","0.4","0.2","0.6","0.3563831379","0.1600355681","0.1549416237","0.5422751762","","","","","","","","","","","","","","75","K","2","","","143","main_expt","",""
"","bandit","225","596153","0.0-185.0-0.0","67824082","wem/bandit_party_2","ADTIO3A6TM9CG","either","4","285","","","","","","","0","0","1","","0.2142728447","0.8","0.4","0.2","0.6","0.3675361202","0.103653669","0.2142728447","0.6045197677","","","","","","","","","","","","","","75","K","2","","","144","main_expt","",""
"","bandit","226","597808","0.0-186.0-0.0","67824082","wem/bandit_party_2","ADTIO3A6TM9CG","either","4","139","","","","","","","0","0","1","","0.2166472609","0.8","0.4","0.2","0.6","0.3266856562","0.1417267119","0.2166472609","0.6140727406","","","","","","","","","","","","","","75","K","2","","","145","main_expt","",""
"","bandit","227","599627","0.0-187.0-0.0","67824082","wem/bandit_party_2","ADTIO3A6TM9CG","either","4","302","","","","","","","0","1","0","","0.1508894681","0.8","0.4","0.2","0.6","0.2815179259","0.1508894681","0.2446047688","0.5553742365","","","","","","","","","","","","","","74","J","1","","","146","main_expt","",""
"","bandit","228","601221","0.0-188.0-0.0","67824082","wem/bandit_party_2","ADTIO3A6TM9CG","either","4","78","","","","","","","0","0","1","0.1207147728","","0.8","0.4","0.2","0.6","","","","","0.3560244833","0.1207147728","0.3011136322","0.52787167","","","","","","","","","","74","J","1","","","147","main_expt","",""
"","bandit","229","603008","0.0-189.0-0.0","67824082","wem/bandit_party_2","ADTIO3A6TM9CG","either","4","267","","","","","","","0","0","1","0.1362234148","","0.8","0.4","0.2","0.6","","","","","0.3585854149","0.1362234148","0.2519777133","0.5053851794","","","","","","","","","","74","J","1","","","148","main_expt","",""
"","bandit","230","604795","0.0-190.0-0.0","67824082","wem/bandit_party_2","ADTIO3A6TM9CG","either","4","269","","","","","","","0","0","1","","0.5431256022","0.8","0.4","0.2","0.6","0.284478414","0.1244444975","0.2996109941","0.5431256022","","","","","","","","","","","","","","76","L","3","","","149","main_expt","",""
"","bandit","231","606511","0.0-191.0-0.0","67824082","wem/bandit_party_2","ADTIO3A6TM9CG","either","4","199","","","","","","","0","0","1","0.422574086","","0.8","0.4","0.2","0.6","","","","","0.2617238314","0.1109305632","0.2963563975","0.422574086","","","","","","","","","","76","L","3","","","150","main_expt","",""
"","bandit","232","608237","0.0-192.0-0.0","67824082","wem/bandit_party_2","ADTIO3A6TM9CG","either","4","212","","","","","","","0","0","1","","0.2709462114","0.8","0.4","0.2","0.6","0.2709462114","0.11412436","0.4327396174","0.3907227364","","","","","","","","","","","","","","72","H","0","img/none_selected.jpg","","151","main_expt","",""
"","bandit","233","609938","0.0-193.0-0.0","67824082","wem/bandit_party_2","ADTIO3A6TM9CG","either","4","185","","","","","","","0","0","1","0.2993716907","","0.8","0.4","0.2","0.6","","","","","0.2993716907","0.1469045903","0.4303068123","0.5580814469","","","","","","","","","","72","H","0","img/none_selected.jpg","","152","main_expt","",""
"","bandit","234","611583","0.0-194.0-0.0","67824082","wem/bandit_party_2","ADTIO3A6TM9CG","either","4","128","","","","","","","0","0","1","","0.455197397","0.8","0.4","0.2","0.6","0.2733354782","0.1633028487","0.455197397","0.51223936","","","","","","","","","","","","","","75","K","2","","","153","main_expt","",""
"","bandit","235","613205","0.0-195.0-0.0","67824082","wem/bandit_party_2","ADTIO3A6TM9CG","either","4","110","","","","","","","0","1","0","","0.6184454144","0.8","0.4","0.2","0.6","0.3264007987","0.1340882311","0.6184454144","0.4811601507","","","","","","","","","","","","","","75","K","2","","","154","main_expt","",""
"","bandit","236","614772","0.0-196.0-0.0","67824082","wem/bandit_party_2","ADTIO3A6TM9CG","either","4","50","","","","","","","0","1","0","","0.5833601464","0.8","0.4","0.2","0.6","0.204433578","0.1041462846","0.5833601464","0.575425417","","","","","","","","","","","","","","75","K","2","","","155","main_expt","",""
"","bandit","237","616519","0.0-197.0-0.0","67824082","wem/bandit_party_2","ADTIO3A6TM9CG","either","4","234","","","","","","","0","0","1","","0.646897734","0.8","0.4","0.2","0.6","0.07451572188","0.08564190031","0.646897734","0.6109018817","","","","","","","","","","","","","","75","K","2","","","156","main_expt","",""
"","bandit","238","618326","0.0-198.0-0.0","67824082","wem/bandit_party_2","ADTIO3A6TM9CG","either","4","290","","","","","","","0","1","0","","0.6912470103","0.8","0.4","0.2","0.6","0.1251686374","0.06977116317","0.6912470103","0.6812883852","","","","","","","","","","","","","","75","K","2","","","157","main_expt","",""
"","bandit","239","620098","0.0-199.0-0.0","67824082","wem/bandit_party_2","ADTIO3A6TM9CG","either","4","256","","","","","","","0","0","1","","0.7865398282","0.8","0.4","0.2","0.6","0.1292052795","0.1504927074","0.7865398282","0.73777041","","","","","","","","","","","","","","75","K","2","","","158","main_expt","",""
"","bandit","240","621905","0.0-200.0-0.0","67824082","wem/bandit_party_2","ADTIO3A6TM9CG","either","4","293","","","","","","","0","1","0","","0.7220910122","0.8","0.4","0.2","0.6","0.1200050714","0.1429264201","0.7220910122","0.8388849062","","","","","","","","","","","","","","75","K","2","","","159","main_expt","",""
"","bandit","241","623591","0.0-201.0-0.0","67824082","wem/bandit_party_2","ADTIO3A6TM9CG","either","4","167","","","","","","","1","0","0","0.710563805","","0.8","0.4","0.2","0.6","","","","","0.1156014834","0.1832893837","0.710563805","0.8006667519","","","","","","","","","","75","K","2","","","160","main_expt","",""
"","bandit","242","625657","0.0-202.0-0.0","67824082","wem/bandit_party_2","ADTIO3A6TM9CG","either","4","552","","","","","","","0","1","0","","0.6205281072","0.8","0.4","0.2","0.6","0.1425751263","0.2337310763","0.6205281072","0.7406956812","","","","","","","","","","","","","","75","K","2","","","161","main_expt","",""
"","bandit","243","627742","0.0-203.0-0.0","67824082","wem/bandit_party_2","ADTIO3A6TM9CG","either","4","567","","","","","","","0","1","0","","0.5246840185","0.8","0.4","0.2","0.6","0.2108345254","0.2326198937","0.5246840185","0.775259894","","","","","","","","","","","","","","75","K","2","","","162","main_expt","",""
"","bandit","244","630227","0.0-204.0-0.0","67824082","wem/bandit_party_2","ADTIO3A6TM9CG","either","4","975","","","","","","","0","1","0","","0.569340372","0.8","0.4","0.2","0.6","0.1664621688","0.1584290897","0.569340372","0.6539471222","","","","","","","","","","","","","","75","K","2","","","163","main_expt","",""
"","bandit","245","633644","0.0-205.0-0.0","67824082","wem/bandit_party_2","ADTIO3A6TM9CG","either","4","1903","","","","","","","0","0","1","","0.5688323765","0.8","0.4","0.2","0.6","0.1741279052","0.1417900361","0.5688323765","0.7914062868","","","","","","","","","","","","","","75","K","2","","","164","main_expt","",""
"","bandit","246","635253","0.0-206.0-0.0","67824082","wem/bandit_party_2","ADTIO3A6TM9CG","either","4","95","","","","","","","0","0","1","0.5195648955","","0.8","0.4","0.2","0.6","","","","","0.1891196979","0.08849486786","0.5195648955","0.8415061218","","","","","","","","","","75","K","2","","","165","main_expt","",""
"","bandit","247","638285","0.0-207.0-0.0","67824082","wem/bandit_party_2","ADTIO3A6TM9CG","either","4","1519","","","","","","","0","0","1","","0.536500984","0.8","0.4","0.2","0.6","0.3016440744","0.1010416226","0.536500984","0.9084068317","","","","","","","","","","","","","","75","K","2","","","166","main_expt","",""
"","bandit","248","640978","0.0-208.0-0.0","67824082","wem/bandit_party_2","ADTIO3A6TM9CG","either","4","1176","","","","","","","0","0","1","0.1506776516","","0.8","0.4","0.2","0.6","","","","","0.3427468607","0.1506776516","0.4243381616","0.8857506799","","","","","","","","","","74","J","1","","","167","main_expt","",""
"","bandit","249","642561","0.0-209.0-0.0","67824082","wem/bandit_party_2","ADTIO3A6TM9CG","either","4","66","","","","","","","0","1","0","","0.2532220847","0.8","0.4","0.2","0.6","0.3759001064","0.2532220847","0.4877327119","0.9247721234","","","","","","","","","","","","","","74","J","1","","","168","main_expt","",""
"","bandit","250","644123","0.0-210.0-0.0","67824082","wem/bandit_party_2","ADTIO3A6TM9CG","either","4","43","","","","","","","0","0","1","","0.2223654062","0.8","0.4","0.2","0.6","0.3824832387","0.2223654062","0.5096331713","0.8870410368","","","","","","","","","","","","","","74","J","1","","","169","main_expt","",""
"","bandit","251","646281","0.0-211.0-0.0","67824082","wem/bandit_party_2","ADTIO3A6TM9CG","either","4","640","","","","","","","0","0","1","","0.2161840498","0.8","0.4","0.2","0.6","0.3257043992","0.2161840498","0.6111595203","0.8782412079","","","","","","","","","","","","","","74","J","1","","","170","main_expt","",""
"","bandit","252","648358","0.0-212.0-0.0","67824082","wem/bandit_party_2","ADTIO3A6TM9CG","either","4","563","","","","","","","1","0","0","0.7978982074","","0.8","0.4","0.2","0.6","","","","","0.2943589708","0.1996440145","0.5888321224","0.7978982074","","","","","","","","","","76","L","3","","","171","main_expt","",""
"","bandit","253","650172","0.0-213.0-0.0","67824082","wem/bandit_party_2","ADTIO3A6TM9CG","either","4","301","","","","","","","0","1","0","","0.7896885826","0.8","0.4","0.2","0.6","0.4298537702","0.275753823","0.6295404033","0.7896885826","","","","","","","","","","","","","","76","L","3","","","172","main_expt","",""
"","bandit","254","651815","0.0-214.0-0.0","67824082","wem/bandit_party_2","ADTIO3A6TM9CG","either","4","128","","","","","","","0","1","0","","0.7771385218","0.8","0.4","0.2","0.6","0.4196262671","0.2850946521","0.5976712981","0.7771385218","","","","","","","","","","","","","","76","L","3","","","173","main_expt","",""
"","bandit","255","653637","0.0-215.0-0.0","67824082","wem/bandit_party_2","ADTIO3A6TM9CG","either","4","305","","","","","","","0","1","0","","0.8412209493","0.8","0.4","0.2","0.6","0.4056978145","0.2836726952","0.5936331925","0.8412209493","","","","","","","","","","","","","","76","L","3","","","174","main_expt","",""
"","bandit","256","655420","0.0-216.0-0.0","67824082","wem/bandit_party_2","ADTIO3A6TM9CG","either","4","267","","","","","","","0","0","1","0.8433491626","","0.8","0.4","0.2","0.6","","","","","0.3323311207","0.27413619","0.544145328","0.8433491626","","","","","","","","","","76","L","3","","","175","main_expt","",""
"","bandit","257","657281","0.0-217.0-0.0","67824082","wem/bandit_party_2","ADTIO3A6TM9CG","either","4","343","","","","","","","0","0","1","0.3584947592","","0.8","0.4","0.2","0.6","","","","","0.3087900888","0.2369491767","0.3584947592","0.778586436","","","","","","","","","","75","K","2","","","176","main_expt","",""
"","bandit","258","659465","0.0-218.0-0.0","67824082","wem/bandit_party_2","ADTIO3A6TM9CG","either","4","665","","","","","","","0","0","1","","0.3440943848","0.8","0.4","0.2","0.6","0.3898613412","0.3440943848","0.436171931","0.7488794252","","","","","","","","","","","","","","74","J","1","","","177","main_expt","",""
"","bandit","259","661133","0.0-219.0-0.0","67824082","wem/bandit_party_2","ADTIO3A6TM9CG","either","4","151","","","","","","","0","0","1","0.3529135521","","0.8","0.4","0.2","0.6","","","","","0.5236321052","0.3529135521","0.5193680035","0.7738581751","","","","","","","","","","74","J","1","","","178","main_expt","",""
"","bandit","260","662970","0.0-220.0-0.0","67824082","wem/bandit_party_2","ADTIO3A6TM9CG","either","4","320","","","","","","","0","1","0","","0.3957798075","0.8","0.4","0.2","0.6","0.2955080601","0.3787243664","0.3957798075","0.7527820287","","","","","","","","","","","","","","75","K","2","","","179","main_expt","",""
"","bandit","261","664946","0.0-221.0-0.0","67824082","wem/bandit_party_2","ADTIO3A6TM9CG","either","4","459","","","","","","","0","1","0","","0.4249873197","0.8","0.4","0.2","0.6","0.3174151272","0.3092677326","0.4249873197","0.8022950929","","","","","","","","","","","","","","75","K","2","","","180","main_expt","",""
"","bandit","262","666892","0.0-222.0-0.0","67824082","wem/bandit_party_2","ADTIO3A6TM9CG","either","4","429","","","","","","","1","0","0","0.4260342439","","0.8","0.4","0.2","0.6","","","","","0.3560995969","0.3701559146","0.4260342439","0.7505347306","","","","","","","","","","75","K","2","","","181","main_expt","",""
"","bandit","263","668801","0.0-223.0-0.0","67824082","wem/bandit_party_2","ADTIO3A6TM9CG","either","4","387","","","","","","","0","1","0","","0.4305619521","0.8","0.4","0.2","0.6","0.4649908644","0.2672844749","0.4305619521","0.603349844","","","","","","","","","","","","","","75","K","2","","","182","main_expt","",""
"","bandit","264","670942","0.0-224.0-0.0","67824082","wem/bandit_party_2","ADTIO3A6TM9CG","either","4","622","","","","","","","0","0","1","","0.4638513582","0.8","0.4","0.2","0.6","0.4588174784","0.3046315644","0.4638513582","0.6464544124","","","","","","","","","","","","","","75","K","2","","","183","main_expt","",""
"","bandit","265","674494","0.0-225.0-0.0","67824082","wem/bandit_party_2","ADTIO3A6TM9CG","either","4","2028","","","","","","","1","0","0","0.509799977","","0.8","0.4","0.2","0.6","","","","","0.509799977","0.3507685813","0.5084330557","0.6606024443","","","","","","","","","","72","H","0","img/none_selected.jpg","","184","main_expt","",""
"","bandit","266","678941","0.0-226.0-0.0","67824082","wem/bandit_party_2","ADTIO3A6TM9CG","either","4","2923","","","","","","","0","0","1","0.4557178443","","0.8","0.4","0.2","0.6","","","","","0.4557178443","0.3250269766","0.5853778332","0.7034535028","","","","","","","","","","72","H","0","img/none_selected.jpg","","185","main_expt","",""
"","bandit","267","680625","0.0-227.0-0.0","67824082","wem/bandit_party_2","ADTIO3A6TM9CG","either","4","167","","","","","","","0","0","1","","0.5009207633","0.8","0.4","0.2","0.6","0.3250172706","0.3636669497","0.5009207633","0.7672503758","","","","","","","","","","","","","","75","K","2","","","186","main_expt","",""
"","bandit","268","682201","0.0-228.0-0.0","67824082","wem/bandit_party_2","ADTIO3A6TM9CG","either","4","63","","","","","","","1","0","0","0.4376492532","","0.8","0.4","0.2","0.6","","","","","0.2982192525","0.4095027401","0.4376492532","0.7505037824","","","","","","","","","","75","K","2","","","187","main_expt","",""
"","bandit","269","685634","0.0-229.0-0.0","67824082","wem/bandit_party_2","ADTIO3A6TM9CG","either","4","1913","","","","","","","0","0","1","","0.317868257","0.8","0.4","0.2","0.6","0.2647713636","0.3356624093","0.317868257","0.7458261356","","","","","","","","","","","","","","75","K","2","","","188","main_expt","",""
"","bandit","270","687751","0.0-230.0-0.0","67824082","wem/bandit_party_2","ADTIO3A6TM9CG","either","4","599","","","","","","","0","0","1","","0.3700786551","0.8","0.4","0.2","0.6","0.2798663258","0.3717951419","0.3700786551","0.747965221","","","","","","","","","","","","","","75","K","2","","","189","main_expt","",""
"","bandit","271","689772","0.0-231.0-0.0","67824082","wem/bandit_party_2","ADTIO3A6TM9CG","either","4","503","","","","","","","0","0","1","","0.3423477616","0.8","0.4","0.2","0.6","0.2146362806","0.3266606931","0.3423477616","0.7459095382","","","","","","","","","","","","","","75","K","2","","","190","main_expt","",""
"","bandit","272","692459","0.0-232.0-0.0","67824082","wem/bandit_party_2","ADTIO3A6TM9CG","either","4","1169","","","","","","","0","0","1","","0.2488230813","0.8","0.4","0.2","0.6","0.3132783624","0.4206899072","0.2488230813","0.6299055833","","","","","","","","","","","","","","75","K","2","","","191","main_expt","",""
"","bandit","273","694487","0.0-233.0-0.0","67824082","wem/bandit_party_2","ADTIO3A6TM9CG","either","4","508","","","","","","","0","1","0","","0.2193108308","0.8","0.4","0.2","0.6","0.2488083766","0.4982817076","0.2193108308","0.688533977","","","","","","","","","","","","","","75","K","2","","","192","main_expt","",""
"","bandit","274","696453","0.0-234.0-0.0","67824082","wem/bandit_party_2","ADTIO3A6TM9CG","either","4","449","","","","","","","0","1","0","","0.4057276106","0.8","0.4","0.2","0.6","0.225611763","0.4820211017","0.4057276106","0.7176496952","","","","","","","","","","","","","","75","K","2","","","193","main_expt","",""
"","bandit","275","698643","0.0-235.0-0.0","67824082","wem/bandit_party_2","ADTIO3A6TM9CG","either","4","670","","","","","","","0","1","0","","0.3826056333","0.8","0.4","0.2","0.6","0.2159393038","0.5373891537","0.3826056333","0.746212457","","","","","","","","","","","","","","75","K","2","","","194","main_expt","",""
"","bandit","276","701267","0.0-236.0-0.0","67824082","wem/bandit_party_2","ADTIO3A6TM9CG","either","4","1099","","","","","","","0","1","0","","0.4922935908","0.8","0.4","0.2","0.6","0.3112228701","0.3890275207","0.4922935908","0.6800784202","","","","","","","","","","","","","","75","K","2","","","195","main_expt","",""
"","bandit","277","705496","0.0-237.0-0.0","67824082","wem/bandit_party_2","ADTIO3A6TM9CG","either","4","2711","","","","","","","0","0","1","","0.5475793877","0.8","0.4","0.2","0.6","0.3249051539","0.4329462643","0.5475793877","0.5986295964","","","","","","","","","","","","","","75","K","2","","","196","main_expt","",""
"","bandit","278","707264","0.0-238.0-0.0","67824082","wem/bandit_party_2","ADTIO3A6TM9CG","either","4","247","","","","","","","0","1","0","","0.5323622673","0.8","0.4","0.2","0.6","0.2985018541","0.416825946","0.6069385875","0.5323622673","","","","","","","","","","","","","","76","L","3","","","197","main_expt","",""
"","bandit","279","708968","0.0-239.0-0.0","67824082","wem/bandit_party_2","ADTIO3A6TM9CG","either","4","190","","","","","","","1","0","0","0.5348043844","","0.8","0.4","0.2","0.6","","","","","0.3109366799","0.4063336836","0.4946816555","0.5348043844","","","","","","","","","","76","L","3","","","198","main_expt","",""
"","bandit","280","710744","0.0-240.0-0.0","67824082","wem/bandit_party_2","ADTIO3A6TM9CG","either","4","258","","","","","","","0","1","0","","0.4534403339","0.8","0.4","0.2","0.6","0.3143364341","0.361264989","0.479635203","0.4534403339","","","","","","","","","","","","","","76","L","3","","","199","main_expt","",""
"","bandit","281","712497","0.0-241.0-0.0","67824082","wem/bandit_party_2","ADTIO3A6TM9CG","either","4","236","","","","","","","0","0","1","","0.4185876589","0.8","0.4","0.2","0.6","0.3176919365","0.4700223374","0.4969837249","0.4185876589","","","","","","","","","","","","","","76","L","3","","","200","main_expt","",""
"","bandit","282","714374","0.0-242.0-0.0","67824082","wem/bandit_party_2","ADTIO3A6TM9CG","either","4","354","","","","","","","0","0","1","0.3812211227","","0.8","0.4","0.2","0.6","","","","","0.2848283651","0.4751543938","0.4548125401","0.3812211227","","","","","","","","","","76","L","3","","","201","main_expt","",""
"","bandit","283","716184","0.0-243.0-0.0","67824082","wem/bandit_party_2","ADTIO3A6TM9CG","either","4","289","","","","","","","0","0","1","0.4044794657","","0.8","0.4","0.2","0.6","","","","","0.2439676923","0.4044794657","0.5767771981","0.4414728031","","","","","","","","","","74","J","1","","","202","main_expt","",""
"","bandit","284","718393","0.0-244.0-0.0","67824082","wem/bandit_party_2","ADTIO3A6TM9CG","either","4","689","","","","","","","0","0","1","","0.3321077444","0.8","0.4","0.2","0.6","0.2582922662","0.3321077444","0.6118171827","0.3698030662","","","","","","","","","","","","","","74","J","1","","","203","main_expt","",""
"","bandit","285","720228","0.0-245.0-0.0","67824082","wem/bandit_party_2","ADTIO3A6TM9CG","either","4","314","","","","","","","0","0","1","","0.3697340749","0.8","0.4","0.2","0.6","0.3799793739","0.3697340749","0.5373194108","0.4899087748","","","","","","","","","","","","","","74","J","1","","","204","main_expt","",""
"","bandit","286","721934","0.0-246.0-0.0","67824082","wem/bandit_party_2","ADTIO3A6TM9CG","either","4","186","","","","","","","0","0","1","","0.5501461309","0.8","0.4","0.2","0.6","0.4441528059","0.3998168993","0.5501461309","0.4310108402","","","","","","","","","","","","","","75","K","2","","","205","main_expt","",""
"","bandit","287","723691","0.0-247.0-0.0","67824082","wem/bandit_party_2","ADTIO3A6TM9CG","either","4","238","","","","","","","0","0","1","","0.5094027242","0.8","0.4","0.2","0.6","0.4468516792","0.4929909192","0.5094027242","0.3912115078","","","","","","","","","","","","","","75","K","2","","","206","main_expt","",""
"","bandit","288","725300","0.0-248.0-0.0","67824082","wem/bandit_party_2","ADTIO3A6TM9CG","either","4","88","","","","","","","1","0","0","0.399366085","","0.8","0.4","0.2","0.6","","","","","0.399366085","0.4960693894","0.6449696869","0.3195818707","","","","","","","","","","72","H","0","img/none_selected.jpg","","207","main_expt","",""
"","bandit","289","726960","0.0-249.0-0.0","67824082","wem/bandit_party_2","ADTIO3A6TM9CG","either","4","143","","","","","","","0","0","1","0.4206610772","","0.8","0.4","0.2","0.6","","","","","0.4206610772","0.3912862986","0.549996868","0.2378171997","","","","","","","","","","72","H","0","img/none_selected.jpg","","208","main_expt","",""
"","bandit","290","729408","0.0-250.0-0.0","67824082","wem/bandit_party_2","ADTIO3A6TM9CG","either","4","930","","","","","","","0","0","1","0.5145499259","","0.8","0.4","0.2","0.6","","","","","0.5145499259","0.4218938049","0.5258833792","0.2339104391","","","","","","","","","","72","H","0","img/none_selected.jpg","","209","main_expt","",""
"","bandit","291","731154","0.0-251.0-0.0","67824082","wem/bandit_party_2","ADTIO3A6TM9CG","either","4","227","","","","","","","0","0","1","","0.2506558306","0.8","0.4","0.2","0.6","0.3497539355","0.6003160005","0.5453980868","0.2506558306","","","","","","","","","","","","","","76","L","3","","","210","main_expt","",""
"","bandit","292","732776","0.0-252.0-0.0","67824082","wem/bandit_party_2","ADTIO3A6TM9CG","either","4","98","","","","","","","1","0","0","0.3466578502","","0.8","0.4","0.2","0.6","","","","","0.3335821388","0.5481562991","0.5370950561","0.3466578502","","","","","","","","","","76","L","3","","","211","main_expt","",""
"","bandit","293","734578","0.0-253.0-0.0","67824082","wem/bandit_party_2","ADTIO3A6TM9CG","either","4","280","","","","","","","0","0","1","0.4162959965","","0.8","0.4","0.2","0.6","","","","","0.2778022227","0.6210595125","0.5774996514","0.4162959965","","","","","","","","","","76","L","3","","","212","main_expt","",""
"","bandit","294","736351","0.0-254.0-0.0","67824082","wem/bandit_party_2","ADTIO3A6TM9CG","either","4","257","","","","","","","0","0","1","0.545788555","","0.8","0.4","0.2","0.6","","","","","0.2949104287","0.7732161257","0.4826056363","0.545788555","","","","","","","","","","76","L","3","","","213","main_expt","",""
"","bandit","295","738127","0.0-255.0-0.0","67824082","wem/bandit_party_2","ADTIO3A6TM9CG","either","4","254","","","","","","","0","0","1","","0.7689771773","0.8","0.4","0.2","0.6","0.2443343027","0.7689771773","0.4913277851","0.6077749924","","","","","","","","","","","","","","74","J","1","","","214","main_expt","",""
"","bandit","296","739802","0.0-256.0-0.0","67824082","wem/bandit_party_2","ADTIO3A6TM9CG","either","4","156","","","","","","","1","0","0","0.6841712945","","0.8","0.4","0.2","0.6","","","","","0.2232989174","0.6841712945","0.5415006571","0.4883429648","","","","","","","","","","74","J","1","","","215","main_expt","",""
"","bandit","297","741556","0.0-257.0-0.0","67824082","wem/bandit_party_2","ADTIO3A6TM9CG","either","4","236","","","","","","","1","0","0","0.7019934296","","0.8","0.4","0.2","0.6","","","","","0.2918619336","0.7019934296","0.5198015267","0.3309854328","","","","","","","","","","74","J","1","","","216","main_expt","",""
"","bandit","298","743239","0.0-258.0-0.0","67824082","wem/bandit_party_2","ADTIO3A6TM9CG","either","4","160","","","","","","","1","0","0","0.7537099884","","0.8","0.4","0.2","0.6","","","","","0.3571058798","0.7537099884","0.545097872","0.3310528633","","","","","","","","","","74","J","1","","","217","main_expt","",""
"","bandit","299","744970","0.0-259.0-0.0","67824082","wem/bandit_party_2","ADTIO3A6TM9CG","either","4","215","","","","","","","1","0","0","0.8428980993","","0.8","0.4","0.2","0.6","","","","","0.3738303097","0.8428980993","0.5776025334","0.4147218791","","","","","","","","","","74","J","1","","","218","main_expt","",""
"","bandit","300","746690","0.0-260.0-0.0","67824082","wem/bandit_party_2","ADTIO3A6TM9CG","either","4","200","","","","","","","0","0","1","","0.8007326434","0.8","0.4","0.2","0.6","0.4832874948","0.8007326434","0.5616346574","0.3402104323","","","","","","","","","","","","","","74","J","1","","","219","main_expt","",""
"","bandit","301","748266","0.0-261.0-0.0","67824082","wem/bandit_party_2","ADTIO3A6TM9CG","either","4","43","","","","","","","0","1","0","","0.8518850648","0.8","0.4","0.2","0.6","0.475455537","0.8518850648","0.6261942659","0.3448871422","","","","","","","","","","","","","","74","J","1","","","220","main_expt","",""
"","bandit","302","750007","0.0-262.0-0.0","67824082","wem/bandit_party_2","ADTIO3A6TM9CG","either","4","223","","","","","","","0","1","0","","0.8488451861","0.8","0.4","0.2","0.6","0.3849790123","0.8488451861","0.6533416475","0.4438284365","","","","","","","","","","","","","","74","J","1","","","221","main_expt","",""
"","bandit","303","751566","0.0-263.0-0.0","67824082","wem/bandit_party_2","ADTIO3A6TM9CG","either","4","43","","","","","","","0","1","0","","0.8202185963","0.8","0.4","0.2","0.6","0.2708628555","0.8202185963","0.6780524799","0.3768672835","","","","","","","","","","","","","","74","J","1","","","222","main_expt","",""
"","bandit","304","753207","0.0-264.0-0.0","67824082","wem/bandit_party_2","ADTIO3A6TM9CG","either","4","125","","","","","","","0","0","1","0.839196386","","0.8","0.4","0.2","0.6","","","","","0.3886191555","0.839196386","0.638470603","0.4599748191","","","","","","","","","","74","J","1","","","223","main_expt","",""
"","bandit","305","754752","0.0-265.0-0.0","67824082","wem/bandit_party_2","ADTIO3A6TM9CG","either","4","29","","","","","","","0","1","0","","0.8340435664","0.8","0.4","0.2","0.6","0.3352763987","0.8340435664","0.560582988","0.5868274652","","","","","","","","","","","","","","74","J","1","","","224","main_expt","",""
"","bandit","306","756534","0.0-266.0-0.0","67824082","wem/bandit_party_2","ADTIO3A6TM9CG","either","4","218","","","","","","","0","1","0","","0.8229669419","0.8","0.4","0.2","0.6","0.3948846532","0.8229669419","0.5004803289","0.510759767","","","","","","","","","","","","","","74","J","1","","","225","main_expt","",""
"","bandit","307","758299","0.0-267.0-0.0","67824082","wem/bandit_party_2","ADTIO3A6TM9CG","either","4","247","","","","","","","0","1","0","","0.8326575293","0.8","0.4","0.2","0.6","0.385279681","0.8326575293","0.5109709899","0.6026028704","","","","","","","","","","","","","","74","J","1","","","226","main_expt","",""
"","bandit","308","760215","0.0-268.0-0.0","67824082","wem/bandit_party_2","ADTIO3A6TM9CG","either","4","394","","","","","","","0","0","1","","0.8904476858","0.8","0.4","0.2","0.6","0.3296530349","0.8904476858","0.4271661703","0.588132951","","","","","","","","","","","","","","74","J","1","","","227","main_expt","",""
"","bandit","309","761875","0.0-269.0-0.0","67824082","wem/bandit_party_2","ADTIO3A6TM9CG","either","4","143","","","","","","","0","1","0","","0.8877596604","0.8","0.4","0.2","0.6","0.4227788413","0.8877596604","0.374673526","0.5754590721","","","","","","","","","","","","","","74","J","1","","","228","main_expt","",""
"","bandit","310","763674","0.0-270.0-0.0","67824082","wem/bandit_party_2","ADTIO3A6TM9CG","either","4","278","","","","","","","0","1","0","","0.8647697669","0.8","0.4","0.2","0.6","0.4470353227","0.8647697669","0.393435759","0.6311951266","","","","","","","","","","","","","","74","J","1","","","229","main_expt","",""
"","bandit","311","765398","0.0-271.0-0.0","67824082","wem/bandit_party_2","ADTIO3A6TM9CG","either","4","207","","","","","","","1","0","0","0.8704214291","","0.8","0.4","0.2","0.6","","","","","0.2986819632","0.8704214291","0.3299431778","0.6164228117","","","","","","","","","","74","J","1","","","230","main_expt","",""
"","bandit","312","767224","0.0-272.0-0.0","67824082","wem/bandit_party_2","ADTIO3A6TM9CG","either","4","308","","","","","","","1","0","0","0.8598686354","","0.8","0.4","0.2","0.6","","","","","0.4508866759","0.8598686354","0.3477061432","0.5943568022","","","","","","","","","","74","J","1","","","231","main_expt","",""
"","bandit","313","769142","0.0-273.0-0.0","67824082","wem/bandit_party_2","ADTIO3A6TM9CG","either","4","395","","","","","","","0","1","0","","0.7939027672","0.8","0.4","0.2","0.6","0.5125968159","0.7939027672","0.3430234075","0.6032910051","","","","","","","","","","","","","","74","J","1","","","232","main_expt","",""
"","bandit","314","770892","0.0-274.0-0.0","67824082","wem/bandit_party_2","ADTIO3A6TM9CG","either","4","230","","","","","","","1","0","0","0.7930400566","","0.8","0.4","0.2","0.6","","","","","0.6020802482","0.7930400566","0.2812772396","0.7225660168","","","","","","","","","","74","J","1","","","233","main_expt","",""
"","bandit","315","772481","0.0-275.0-0.0","67824082","wem/bandit_party_2","ADTIO3A6TM9CG","either","4","69","","","","","","","1","0","0","0.7549101179","","0.8","0.4","0.2","0.6","","","","","0.5927943616","0.7549101179","0.2049555934","0.6718439238","","","","","","","","","","74","J","1","","","234","main_expt","",""
"","bandit","316","774538","0.0-276.0-0.0","67824082","wem/bandit_party_2","ADTIO3A6TM9CG","either","4","540","","","","","","","0","1","0","","0.7654291135","0.8","0.4","0.2","0.6","0.5814417759","0.7654291135","0.144612338","0.6025803433","","","","","","","","","","","","","","74","J","1","","","235","main_expt","",""
"","bandit","317","776443","0.0-277.0-0.0","67824082","wem/bandit_party_2","ADTIO3A6TM9CG","either","4","389","","","","","","","1","0","0","0.6965918162","","0.8","0.4","0.2","0.6","","","","","0.6530024001","0.6965918162","0.1509581517","0.6170166349","","","","","","","","","","74","J","1","","","236","main_expt","",""
