"consent","trial_type","trial_index","time_elapsed","internal_node_id","subjID","study","MID","cond","drift","rt","responses","button_pressed","key_press","like","value","connected","gems","bombs","no_reward","GemPrChosen","BombPrChosen","GainOverPainPr_0","GainOverPainPr_1","GainOverPainPr_2","GainOverPainPr_3","LosePr_0","LosePr_1","LosePr_2","LosePr_3","WinPr_0","WinPr_1","WinPr_2","WinPr_3","Q0","Q1","Q2","gender","age","ethnicity","label","expt_phase","target","respCharCode","respKey","respChoiceNum","respChoice","practice","trial_counter","trial_label","Q0_index"
"GDM/GDM_behavioral_consent_30min_online.html","consent","0","15706","0.0-0.0","68571403","wem/bandit_party_2","AKQWJ8Y1TMHX0","either","8","","","","","","","","","","","","","","","","","","","","","","","","","","","","","","","","","","","","","","","","",""
"","survey-text","1","23448","0.0-1.0","68571403","wem/bandit_party_2","AKQWJ8Y1TMHX0","either","8","6728","{""Q0"":""AKQWJ8Y1TMHX0""}","","","","","","","","","","","","","","","","","","","","","","","","","","","","","","","","","","","","","","",""
"","button-response","2","27220","0.0-2.0","68571403","wem/bandit_party_2","AKQWJ8Y1TMHX0","either","8","2757","","1","","","","","","","","","","","","","","","","","","","","","","","","","","","","","","","","","","","","","",""
"","text-replacement","3","44115","0.0-3.0","68571403","wem/bandit_party_2","AKQWJ8Y1TMHX0","either","8","15881","","","32","","","","","","","","","","","","","","","","","","","","","","","","","","","","","","","","","","","","",""
"","text-replacement","4","52546","0.0-4.0","68571403","wem/bandit_party_2","AKQWJ8Y1TMHX0","either","8","8429","","","32","","","","","","","","","","","","","","","","","","","","","","","","","","","","","","","","","","","","",""
"","identification","5","59496","0.0-6.0-0.0","68571403","wem/bandit_party_2","AKQWJ8Y1TMHX0","either","8","6923","","","","5","4","4","","","","","","","","","","","","","","","","","","","","","","","","pre","identification_pre","the Democratic Party","","","","","","","",""
"","identification","6","66703","0.0-6.0-1.0","68571403","wem/bandit_party_2","AKQWJ8Y1TMHX0","either","8","6180","","","","1","1","0","","","","","","","","","","","","","","","","","","","","","","","","pre","identification_pre","the Republican Party","","","","","","","",""
"","text-replacement","7","76046","0.0-7.0","68571403","wem/bandit_party_2","AKQWJ8Y1TMHX0","either","8","8333","","","32","","","","","","","","","","","","","","","","","","","","","","","","","","","","","","","","","","","","",""
"","text-replacement","8","85479","0.0-8.0","68571403","wem/bandit_party_2","AKQWJ8Y1TMHX0","either","8","9426","","","32","","","","","","","","","","","","","","","","","","","","","","","","","","","","","","","","","","","","",""
"","text-replacement","9","95483","0.0-9.0","68571403","wem/bandit_party_2","AKQWJ8Y1TMHX0","either","8","10002","","","32","","","","","","","","","","","","","","","","","","","","","","","","","","","","","","","","","","","","",""
"","text-replacement","10","99082","0.0-10.0","68571403","wem/bandit_party_2","AKQWJ8Y1TMHX0","either","8","3597","","","32","","","","","","","","","","","","","","","","","","","","","","","","","","","","","","","","","","","","",""
"","text-replacement","11","107724","0.0-11.0","68571403","wem/bandit_party_2","AKQWJ8Y1TMHX0","either","8","8637","","","32","","","","","","","","","","","","","","","","","","","","","","","","","","","","","","","","","","","","",""
"","bandit","12","111173","0.0-12.0-0.0","68571403","wem/bandit_party_2","AKQWJ8Y1TMHX0","either","8","1911","","","","","","","0","0","1","0","0","","","","","0","","","","0","","","","","","","","","","","","","74","J","0","img/none_selected_demo.jpg","true","0","",""
"","bandit","13","114376","0.0-13.0-0.0","68571403","wem/bandit_party_2","AKQWJ8Y1TMHX0","either","8","1675","","","","","","","0","0","1","0","0","","","","","0","","","","0","","","","","","","","","","","","","75","K","0","img/none_selected_demo.jpg","true","0","",""
"","text-replacement","14","120643","0.0-14.0","68571403","wem/bandit_party_2","AKQWJ8Y1TMHX0","either","8","6264","","","32","","","","","","","","","","","","","","","","","","","","","","","","","","","","","","","","","","","","",""
"","text-replacement","15","126485","0.0-15.0","68571403","wem/bandit_party_2","AKQWJ8Y1TMHX0","either","8","5840","","","32","","","","","","","","","","","","","","","","","","","","","","","","","","","","","","","","","","","","",""
"","text-replacement","16","140093","0.0-16.0","68571403","wem/bandit_party_2","AKQWJ8Y1TMHX0","either","8","13606","","","32","","","","","","","","","","","","","","","","","","","","","","","","","","","","","","","","","","","","",""
"","text-replacement","17","144277","0.0-17.0","68571403","wem/bandit_party_2","AKQWJ8Y1TMHX0","either","8","4183","","","32","","","","","","","","","","","","","","","","","","","","","","","","","","","","","","","","","","","","",""
"","bandit","18","148080","0.0-18.0-0.0","68571403","wem/bandit_party_2","AKQWJ8Y1TMHX0","either","8","2269","","","","","","","0","1","0","","0.8","0.5","0.5","","","0.8","0.2","","","","","","","","","","","","","","","","74","J","0","img/none_selected_demo.jpg","true","0","80_20_practice",""
"","bandit","19","150511","0.0-18.0-1.0","68571403","wem/bandit_party_2","AKQWJ8Y1TMHX0","either","8","914","","","","","","","0","1","0","","0.8","0.5","0.5","","","0.8","0.2","","","","","","","","","","","","","","","","74","J","0","img/none_selected_demo.jpg","true","0","80_20_practice",""
"","bandit","20","152584","0.0-18.0-2.0","68571403","wem/bandit_party_2","AKQWJ8Y1TMHX0","either","8","548","","","","","","","0","1","0","","0.8","0.5","0.5","","","0.8","0.2","","","","","","","","","","","","","","","","74","J","0","img/none_selected_demo.jpg","true","0","80_20_practice",""
"","bandit","21","154669","0.0-18.0-3.0","68571403","wem/bandit_party_2","AKQWJ8Y1TMHX0","either","8","564","","","","","","","1","0","0","0.8","","0.5","0.5","","","","","","","0.8","0.2","","","","","","","","","","","","74","J","0","img/none_selected_demo.jpg","true","0","80_20_practice",""
"","bandit","22","156784","0.0-18.0-4.0","68571403","wem/bandit_party_2","AKQWJ8Y1TMHX0","either","8","595","","","","","","","0","0","1","","0.8","0.5","0.5","","","0.8","0.2","","","","","","","","","","","","","","","","74","J","0","img/none_selected_demo.jpg","true","0","80_20_practice",""
"","bandit","23","158811","0.0-18.0-5.0","68571403","wem/bandit_party_2","AKQWJ8Y1TMHX0","either","8","495","","","","","","","0","0","1","","0.8","0.5","0.5","","","0.8","0.2","","","","","","","","","","","","","","","","74","J","0","img/none_selected_demo.jpg","true","0","80_20_practice",""
"","bandit","24","160807","0.0-18.0-6.0","68571403","wem/bandit_party_2","AKQWJ8Y1TMHX0","either","8","471","","","","","","","1","0","0","0.8","","0.5","0.5","","","","","","","0.8","0.2","","","","","","","","","","","","74","J","0","img/none_selected_demo.jpg","true","0","80_20_practice",""
"","bandit","25","162862","0.0-18.0-7.0","68571403","wem/bandit_party_2","AKQWJ8Y1TMHX0","either","8","532","","","","","","","0","1","0","","0.8","0.5","0.5","","","0.8","0.2","","","","","","","","","","","","","","","","74","J","0","img/none_selected_demo.jpg","true","0","80_20_practice",""
"","bandit","26","164902","0.0-18.0-8.0","68571403","wem/bandit_party_2","AKQWJ8Y1TMHX0","either","8","513","","","","","","","0","1","0","","0.8","0.5","0.5","","","0.8","0.2","","","","","","","","","","","","","","","","74","J","0","img/none_selected_demo.jpg","true","0","80_20_practice",""
"","bandit","27","166925","0.0-18.0-9.0","68571403","wem/bandit_party_2","AKQWJ8Y1TMHX0","either","8","493","","","","","","","1","0","0","0.8","","0.5","0.5","","","","","","","0.8","0.2","","","","","","","","","","","","74","J","0","img/none_selected_demo.jpg","true","0","80_20_practice",""
"","bandit","28","168952","0.0-18.0-10.0","68571403","wem/bandit_party_2","AKQWJ8Y1TMHX0","either","8","502","","","","","","","1","0","0","0.8","","0.5","0.5","","","","","","","0.8","0.2","","","","","","","","","","","","74","J","0","img/none_selected_demo.jpg","true","0","80_20_practice",""
"","bandit","29","170669","0.0-18.0-11.0","68571403","wem/bandit_party_2","AKQWJ8Y1TMHX0","either","8","182","","","","","","","0","0","1","","0.8","0.5","0.5","","","0.8","0.2","","","","","","","","","","","","","","","","74","J","0","img/none_selected_demo.jpg","true","0","80_20_practice",""
"","bandit","30","172695","0.0-18.0-12.0","68571403","wem/bandit_party_2","AKQWJ8Y1TMHX0","either","8","509","","","","","","","1","0","0","0.8","","0.5","0.5","","","","","","","0.8","0.2","","","","","","","","","","","","74","J","0","img/none_selected_demo.jpg","true","0","80_20_practice",""
"","bandit","31","174777","0.0-18.0-13.0","68571403","wem/bandit_party_2","AKQWJ8Y1TMHX0","either","8","552","","","","","","","1","0","0","0.8","","0.5","0.5","","","","","","","0.8","0.2","","","","","","","","","","","","74","J","0","img/none_selected_demo.jpg","true","0","80_20_practice",""
"","bandit","32","176826","0.0-18.0-14.0","68571403","wem/bandit_party_2","AKQWJ8Y1TMHX0","either","8","522","","","","","","","0","1","0","","0.8","0.5","0.5","","","0.8","0.2","","","","","","","","","","","","","","","","74","J","0","img/none_selected_demo.jpg","true","0","80_20_practice",""
"","bandit","33","178869","0.0-18.0-15.0","68571403","wem/bandit_party_2","AKQWJ8Y1TMHX0","either","8","522","","","","","","","1","0","0","0.8","","0.5","0.5","","","","","","","0.8","0.2","","","","","","","","","","","","74","J","0","img/none_selected_demo.jpg","true","0","80_20_practice",""
"","bandit","34","180939","0.0-18.0-16.0","68571403","wem/bandit_party_2","AKQWJ8Y1TMHX0","either","8","536","","","","","","","1","0","0","0.8","","0.5","0.5","","","","","","","0.8","0.2","","","","","","","","","","","","74","J","0","img/none_selected_demo.jpg","true","0","80_20_practice",""
"","bandit","35","182850","0.0-18.0-17.0","68571403","wem/bandit_party_2","AKQWJ8Y1TMHX0","either","8","389","","","","","","","0","1","0","","0.8","0.5","0.5","","","0.8","0.2","","","","","","","","","","","","","","","","74","J","0","img/none_selected_demo.jpg","true","0","80_20_practice",""
"","bandit","36","184761","0.0-18.0-18.0","68571403","wem/bandit_party_2","AKQWJ8Y1TMHX0","either","8","382","","","","","","","1","0","0","0.8","","0.5","0.5","","","","","","","0.8","0.2","","","","","","","","","","","","74","J","0","img/none_selected_demo.jpg","true","0","80_20_practice",""
"","bandit","37","186804","0.0-18.0-19.0","68571403","wem/bandit_party_2","AKQWJ8Y1TMHX0","either","8","527","","","","","","","1","0","0","0.8","","0.5","0.5","","","","","","","0.8","0.2","","","","","","","","","","","","74","J","0","img/none_selected_demo.jpg","true","0","80_20_practice",""
"","text-replacement","38","191097","0.0-19.0","68571403","wem/bandit_party_2","AKQWJ8Y1TMHX0","either","8","4291","","","32","","","","","","","","","","","","","","","","","","","","","","","","","","","","","","","","","","","","",""
"","bandit","39","194514","0.0-20.0-0.0","68571403","wem/bandit_party_2","AKQWJ8Y1TMHX0","either","8","1891","","","","","","","1","0","0","1","0","","","","","0","1","","","1","0","","","","","","","","","","","","74","J","0","img/none_selected_demo.jpg","true","0","",""
"","text-replacement","40","202883","0.0-21.0","68571403","wem/bandit_party_2","AKQWJ8Y1TMHX0","either","8","8367","","","32","","","","","","","","","","","","","","","","","","","","","","","","","","","","","","","","","","","","",""
"","text-replacement","41","207428","0.0-22.0","68571403","wem/bandit_party_2","AKQWJ8Y1TMHX0","either","8","4543","","","32","","","","","","","","","","","","","","","","","","","","","","","","","","","","","","","","","","","","",""
"","text-replacement","42","210815","0.0-23.0","68571403","wem/bandit_party_2","AKQWJ8Y1TMHX0","either","8","3386","","","32","","","","","","","","","","","","","","","","","","","","","","","","","","","","","","","","","","","","",""
"","text-replacement","43","215019","0.0-24.0","68571403","wem/bandit_party_2","AKQWJ8Y1TMHX0","either","8","4201","","","32","","","","","","","","","","","","","","","","","","","","","","","","","","","","","","","","","","","","",""
"","text-replacement","44","221465","0.0-25.0","68571403","wem/bandit_party_2","AKQWJ8Y1TMHX0","either","8","6445","","","32","","","","","","","","","","","","","","","","","","","","","","","","","","","","","","","","","","","","",""
"","text-replacement","45","225657","0.0-26.0","68571403","wem/bandit_party_2","AKQWJ8Y1TMHX0","either","8","4189","","","32","","","","","","","","","","","","","","","","","","","","","","","","","","","","","","","","","","","","",""
"","text-replacement","46","229339","0.0-27.0","68571403","wem/bandit_party_2","AKQWJ8Y1TMHX0","either","8","3681","","","32","","","","","","","","","","","","","","","","","","","","","","","","","","","","","","","","","","","","",""
"","text-replacement","47","233984","0.0-28.0","68571403","wem/bandit_party_2","AKQWJ8Y1TMHX0","either","8","4643","","","32","","","","","","","","","","","","","","","","","","","","","","","","","","","","","","","","","","","","",""
"","text-replacement","48","238143","0.0-29.0","68571403","wem/bandit_party_2","AKQWJ8Y1TMHX0","either","8","4157","","","32","","","","","","","","","","","","","","","","","","","","","","","","","","","","","","","","","","","","",""
"","text-replacement","49","240249","0.0-30.0","68571403","wem/bandit_party_2","AKQWJ8Y1TMHX0","either","8","2102","","","32","","","","","","","","","","","","","","","","","","","","","","","","","","","","","","","","","","","","",""
"","text-replacement","50","248962","0.0-31.0","68571403","wem/bandit_party_2","AKQWJ8Y1TMHX0","either","8","8710","","","32","","","","","","","","","","","","","","","","","","","","","","","","","","","","","","","","","","","","",""
"","bandit","51","252094","0.0-32.0-0.0","68571403","wem/bandit_party_2","AKQWJ8Y1TMHX0","either","8","1600","","","","","","","0","0","1","0.8","","0.5","0.5","0.5","0.5","","","","","0.8","0.2","0.6","0.2","","","","","","","","","","72","H","0","img/none_selected.jpg","true","0","full_practice",""
"","bandit","52","254074","0.0-32.0-1.0","68571403","wem/bandit_party_2","AKQWJ8Y1TMHX0","either","8","455","","","","","","","0","0","1","","0.2","0.5","0.5","0.5","0.5","0.8","0.2","0.6","0.2","","","","","","","","","","","","","","74","J","1","","true","0","full_practice",""
"","bandit","53","256104","0.0-32.0-2.0","68571403","wem/bandit_party_2","AKQWJ8Y1TMHX0","either","8","509","","","","","","","1","0","0","0.6","","0.5","0.5","0.5","0.5","","","","","0.8","0.2","0.6","0.2","","","","","","","","","","75","K","2","","true","0","full_practice",""
"","bandit","54","258107","0.0-32.0-3.0","68571403","wem/bandit_party_2","AKQWJ8Y1TMHX0","either","8","492","","","","","","","0","0","1","","0.2","0.5","0.5","0.5","0.5","0.8","0.2","0.6","0.2","","","","","","","","","","","","","","76","L","3","","true","0","full_practice",""
"","bandit","55","260075","0.0-32.0-4.0","68571403","wem/bandit_party_2","AKQWJ8Y1TMHX0","either","8","444","","","","","","","0","1","0","","0.6","0.5","0.5","0.5","0.5","0.8","0.2","0.6","0.2","","","","","","","","","","","","","","75","K","2","","true","0","full_practice",""
"","bandit","56","262050","0.0-32.0-5.0","68571403","wem/bandit_party_2","AKQWJ8Y1TMHX0","either","8","463","","","","","","","0","1","0","","0.6","0.5","0.5","0.5","0.5","0.8","0.2","0.6","0.2","","","","","","","","","","","","","","75","K","2","","true","0","full_practice",""
"","bandit","57","263917","0.0-32.0-6.0","68571403","wem/bandit_party_2","AKQWJ8Y1TMHX0","either","8","354","","","","","","","0","1","0","","0.6","0.5","0.5","0.5","0.5","0.8","0.2","0.6","0.2","","","","","","","","","","","","","","75","K","2","","true","0","full_practice",""
"","bandit","58","265804","0.0-32.0-7.0","68571403","wem/bandit_party_2","AKQWJ8Y1TMHX0","either","8","359","","","","","","","1","0","0","0.6","","0.5","0.5","0.5","0.5","","","","","0.8","0.2","0.6","0.2","","","","","","","","","","75","K","2","","true","0","full_practice",""
"","bandit","59","267696","0.0-32.0-8.0","68571403","wem/bandit_party_2","AKQWJ8Y1TMHX0","either","8","364","","","","","","","0","0","1","","0.6","0.5","0.5","0.5","0.5","0.8","0.2","0.6","0.2","","","","","","","","","","","","","","75","K","2","","true","0","full_practice",""
"","bandit","60","269577","0.0-32.0-9.0","68571403","wem/bandit_party_2","AKQWJ8Y1TMHX0","either","8","348","","","","","","","0","0","1","0.6","","0.5","0.5","0.5","0.5","","","","","0.8","0.2","0.6","0.2","","","","","","","","","","75","K","2","","true","0","full_practice",""
"","bandit","61","271461","0.0-32.0-10.0","68571403","wem/bandit_party_2","AKQWJ8Y1TMHX0","either","8","354","","","","","","","0","0","1","","0.2","0.5","0.5","0.5","0.5","0.8","0.2","0.6","0.2","","","","","","","","","","","","","","76","L","3","","true","0","full_practice",""
"","bandit","62","273345","0.0-32.0-11.0","68571403","wem/bandit_party_2","AKQWJ8Y1TMHX0","either","8","365","","","","","","","0","0","1","","0.2","0.5","0.5","0.5","0.5","0.8","0.2","0.6","0.2","","","","","","","","","","","","","","76","L","3","","true","0","full_practice",""
"","bandit","63","274970","0.0-32.0-12.0","68571403","wem/bandit_party_2","AKQWJ8Y1TMHX0","either","8","108","","","","","","","0","0","1","","0.2","0.5","0.5","0.5","0.5","0.8","0.2","0.6","0.2","","","","","","","","","","","","","","74","J","1","","true","0","full_practice",""
"","bandit","64","276820","0.0-32.0-13.0","68571403","wem/bandit_party_2","AKQWJ8Y1TMHX0","either","8","316","","","","","","","0","0","1","","0.2","0.5","0.5","0.5","0.5","0.8","0.2","0.6","0.2","","","","","","","","","","","","","","74","J","1","","true","0","full_practice",""
"","bandit","65","278646","0.0-32.0-14.0","68571403","wem/bandit_party_2","AKQWJ8Y1TMHX0","either","8","294","","","","","","","0","1","0","","0.8","0.5","0.5","0.5","0.5","0.8","0.2","0.6","0.2","","","","","","","","","","","","","","72","H","0","img/none_selected.jpg","true","0","full_practice",""
"","bandit","66","280489","0.0-32.0-15.0","68571403","wem/bandit_party_2","AKQWJ8Y1TMHX0","either","8","311","","","","","","","0","0","1","0.8","","0.5","0.5","0.5","0.5","","","","","0.8","0.2","0.6","0.2","","","","","","","","","","72","H","0","img/none_selected.jpg","true","0","full_practice",""
"","bandit","67","282289","0.0-32.0-16.0","68571403","wem/bandit_party_2","AKQWJ8Y1TMHX0","either","8","285","","","","","","","0","1","0","","0.8","0.5","0.5","0.5","0.5","0.8","0.2","0.6","0.2","","","","","","","","","","","","","","72","H","0","img/none_selected.jpg","true","0","full_practice",""
"","bandit","68","284116","0.0-32.0-17.0","68571403","wem/bandit_party_2","AKQWJ8Y1TMHX0","either","8","299","","","","","","","0","1","0","","0.8","0.5","0.5","0.5","0.5","0.8","0.2","0.6","0.2","","","","","","","","","","","","","","72","H","0","img/none_selected.jpg","true","0","full_practice",""
"","bandit","69","285911","0.0-32.0-18.0","68571403","wem/bandit_party_2","AKQWJ8Y1TMHX0","either","8","273","","","","","","","1","0","0","0.8","","0.5","0.5","0.5","0.5","","","","","0.8","0.2","0.6","0.2","","","","","","","","","","72","H","0","img/none_selected.jpg","true","0","full_practice",""
"","bandit","70","287672","0.0-32.0-19.0","68571403","wem/bandit_party_2","AKQWJ8Y1TMHX0","either","8","245","","","","","","","1","0","0","0.8","","0.5","0.5","0.5","0.5","","","","","0.8","0.2","0.6","0.2","","","","","","","","","","72","H","0","img/none_selected.jpg","true","0","full_practice",""
"","text","71","291813","0.0-33.0","68571403","wem/bandit_party_2","AKQWJ8Y1TMHX0","either","8","4132","","","32","","","","","","","","","","","","","","","","","","","","","","","","","","","","","","","","","","","","",""
"","text-replacement","72","305555","0.0-34.0","68571403","wem/bandit_party_2","AKQWJ8Y1TMHX0","either","8","12734","","","32","","","","","","","","","","","","","","","","","","","","","","","","","","","","","","","","","","","","",""
"","text-replacement","73","319489","0.0-35.0","68571403","wem/bandit_party_2","AKQWJ8Y1TMHX0","either","8","13930","","","32","","","","","","","","","","","","","","","","","","","","","","","","","","","","","","","","","","","","",""
"","text-replacement","74","328178","0.0-36.0","68571403","wem/bandit_party_2","AKQWJ8Y1TMHX0","either","8","8687","","","32","","","","","","","","","","","","","","","","","","","","","","","","","","","","","","","","","","","","",""
"","text-replacement","75","335157","0.0-37.0","68571403","wem/bandit_party_2","AKQWJ8Y1TMHX0","either","8","6975","","","32","","","","","","","","","","","","","","","","","","","","","","","","","","","","","","","","","","","","",""
"","text-replacement","76","340734","0.0-38.0","68571403","wem/bandit_party_2","AKQWJ8Y1TMHX0","either","8","5575","","","32","","","","","","","","","","","","","","","","","","","","","","","","","","","","","","","","","","","","",""
"","survey-multi-choice-replacement","77","346936","0.0-39.0-0.0","68571403","wem/bandit_party_2","AKQWJ8Y1TMHX0","either","8","6187","","","","","","","","","","","","","","","","","","","","","","","","Money will be added to the pool for <span style='color:blue;'>DEMOCRATS</span>","","","","","","","attn_check","","","","","","","","","0"
"","survey-multi-choice-replacement","78","353084","0.0-40.0-0.0","68571403","wem/bandit_party_2","AKQWJ8Y1TMHX0","either","8","5120","","","","","","","","","","","","","","","","","","","","","","","","Equal amounts of money will be added to the pool for <span style='color:blue;'>DEMOCRATS</span> and subtracted from the pool for <span style='color:red;'>REPUBLICANS</span>","","","","","","","attn_check","","","","","","","","","2"
"","survey-multi-choice-replacement","79","356503","0.0-41.0-0.0","68571403","wem/bandit_party_2","AKQWJ8Y1TMHX0","either","8","2402","","","","","","","","","","","","","","","","","","","","","","","","No money will be added to either pool","","","","","","","attn_check","","","","","","","","","3"
"","bandit","80","362601","0.0-42.0-0.0","68571403","wem/bandit_party_2","AKQWJ8Y1TMHX0","either","8","3573","","","","","","","0","0","1","","0.2428949588","0.8","0.2","0.4","0.6","0.4468950172","0.2428949588","0.6337563202","0.3040937467","","","","","","","","","","","","","","74","J","1","","","1","main_expt",""
"","bandit","81","364786","0.0-43.0-0.0","68571403","wem/bandit_party_2","AKQWJ8Y1TMHX0","either","8","635","","","","","","","0","1","0","","0.7380673114","0.8","0.2","0.4","0.6","0.3846124694","0.248961424","0.7380673114","0.2687625136","","","","","","","","","","","","","","75","K","2","","","2","main_expt",""
"","bandit","82","366623","0.0-44.0-0.0","68571403","wem/bandit_party_2","AKQWJ8Y1TMHX0","either","8","306","","","","","","","1","0","0","0.7715549737","","0.8","0.2","0.4","0.6","","","","","0.3885967974","0.1878604038","0.7715549737","0.3017919557","","","","","","","","","","75","K","2","","","3","main_expt",""
"","bandit","83","368407","0.0-45.0-0.0","68571403","wem/bandit_party_2","AKQWJ8Y1TMHX0","either","8","264","","","","","","","0","0","1","","0.8257013646","0.8","0.2","0.4","0.6","0.2891644394","0.1194049449","0.8257013646","0.3388517529","","","","","","","","","","","","","","75","K","2","","","4","main_expt",""
"","bandit","84","370185","0.0-46.0-0.0","68571403","wem/bandit_party_2","AKQWJ8Y1TMHX0","either","8","256","","","","","","","1","0","0","0.8617886559","","0.8","0.2","0.4","0.6","","","","","0.2654579937","0.197046458","0.8617886559","0.389096829","","","","","","","","","","75","K","2","","","5","main_expt",""
"","bandit","85","371963","0.0-47.0-0.0","68571403","wem/bandit_party_2","AKQWJ8Y1TMHX0","either","8","256","","","","","","","0","1","0","","0.8452125903","0.8","0.2","0.4","0.6","0.355160999","0.2312720201","0.8452125903","0.4799636182","","","","","","","","","","","","","","75","K","2","","","6","main_expt",""
"","bandit","86","373778","0.0-48.0-0.0","68571403","wem/bandit_party_2","AKQWJ8Y1TMHX0","either","8","275","","","","","","","0","0","1","","0.8765288384","0.8","0.2","0.4","0.6","0.4733904832","0.3255591742","0.8765288384","0.5316557606","","","","","","","","","","","","","","75","K","2","","","7","main_expt",""
"","bandit","87","375627","0.0-49.0-0.0","68571403","wem/bandit_party_2","AKQWJ8Y1TMHX0","either","8","318","","","","","","","1","0","0","0.8625068071","","0.8","0.2","0.4","0.6","","","","","0.4900136729","0.163151729","0.8625068071","0.4935712437","","","","","","","","","","75","K","2","","","8","main_expt",""
"","bandit","88","377456","0.0-50.0-0.0","68571403","wem/bandit_party_2","AKQWJ8Y1TMHX0","either","8","312","","","","","","","0","0","1","0.8385781597","","0.8","0.2","0.4","0.6","","","","","0.4543552171","0.1671639775","0.8385781597","0.5400450001","","","","","","","","","","75","K","2","","","9","main_expt",""
"","bandit","89","379870","0.0-51.0-0.0","68571403","wem/bandit_party_2","AKQWJ8Y1TMHX0","either","8","880","","","","","","","0","0","1","0.4523920981","","0.8","0.2","0.4","0.6","","","","","0.4523920981","0.1315225434","0.833356221","0.6510952772","","","","","","","","","","72","H","0","img/none_selected.jpg","","10","main_expt",""
"","bandit","90","381710","0.0-52.0-0.0","68571403","wem/bandit_party_2","AKQWJ8Y1TMHX0","either","8","309","","","","","","","0","0","1","","0.4053083118","0.8","0.2","0.4","0.6","0.4053083118","0.1287002637","0.9030756702","0.6117649901","","","","","","","","","","","","","","72","H","0","img/none_selected.jpg","","11","main_expt",""
"","bandit","91","383534","0.0-53.0-0.0","68571403","wem/bandit_party_2","AKQWJ8Y1TMHX0","either","8","303","","","","","","","0","0","1","","0.1026596936","0.8","0.2","0.4","0.6","0.4059907931","0.1026596936","0.9129290363","0.6360746298","","","","","","","","","","","","","","74","J","1","","","12","main_expt",""
"","bandit","92","385445","0.0-54.0-0.0","68571403","wem/bandit_party_2","AKQWJ8Y1TMHX0","either","8","382","","","","","","","0","0","1","0.1287514256","","0.8","0.2","0.4","0.6","","","","","0.2934167972","0.1287514256","0.8638417716","0.5673960652","","","","","","","","","","74","J","1","","","13","main_expt",""
"","bandit","93","387312","0.0-55.0-0.0","68571403","wem/bandit_party_2","AKQWJ8Y1TMHX0","either","8","347","","","","","","","1","0","0","0.6747725803","","0.8","0.2","0.4","0.6","","","","","0.3260927596","0.1786171179","0.787806988","0.6747725803","","","","","","","","","","76","L","3","","","14","main_expt",""
"","bandit","94","389154","0.0-56.0-0.0","68571403","wem/bandit_party_2","AKQWJ8Y1TMHX0","either","8","309","","","","","","","1","0","0","0.6277188345","","0.8","0.2","0.4","0.6","","","","","0.3355382734","0.1459410532","0.7254212376","0.6277188345","","","","","","","","","","76","L","3","","","15","main_expt",""
"","bandit","95","391016","0.0-57.0-0.0","68571403","wem/bandit_party_2","AKQWJ8Y1TMHX0","either","8","330","","","","","","","1","0","0","0.5435568235","","0.8","0.2","0.4","0.6","","","","","0.3040928121","0.2255600906","0.7238415528","0.5435568235","","","","","","","","","","76","L","3","","","16","main_expt",""
"","bandit","96","392975","0.0-58.0-0.0","68571403","wem/bandit_party_2","AKQWJ8Y1TMHX0","either","8","434","","","","","","","0","0","1","","0.4180161478","0.8","0.2","0.4","0.6","0.2730366263","0.2052013943","0.7796243455","0.4180161478","","","","","","","","","","","","","","76","L","3","","","17","main_expt",""
"","bandit","97","394877","0.0-59.0-0.0","68571403","wem/bandit_party_2","AKQWJ8Y1TMHX0","either","8","380","","","","","","","0","1","0","","0.4961111773","0.8","0.2","0.4","0.6","0.4105298721","0.1780354615","0.6928902724","0.4961111773","","","","","","","","","","","","","","76","L","3","","","18","main_expt",""
"","bandit","98","396656","0.0-60.0-0.0","68571403","wem/bandit_party_2","AKQWJ8Y1TMHX0","either","8","265","","","","","","","0","0","1","","0.445530788","0.8","0.2","0.4","0.6","0.3586923344","0.1576496117","0.7658630901","0.445530788","","","","","","","","","","","","","","76","L","3","","","19","main_expt",""
"","bandit","99","398498","0.0-61.0-0.0","68571403","wem/bandit_party_2","AKQWJ8Y1TMHX0","either","8","309","","","","","","","0","1","0","","0.3443163705","0.8","0.2","0.4","0.6","0.3220075653","0.1618752313","0.7584200513","0.3443163705","","","","","","","","","","","","","","76","L","3","","","20","main_expt",""
"","bandit","100","400356","0.0-62.0-0.0","68571403","wem/bandit_party_2","AKQWJ8Y1TMHX0","either","8","326","","","","","","","1","0","0","0.3012808647","","0.8","0.2","0.4","0.6","","","","","0.2729660799","0.2152187387","0.7727038765","0.3012808647","","","","","","","","","","76","L","3","","","21","main_expt",""
"","bandit","101","402191","0.0-63.0-0.0","68571403","wem/bandit_party_2","AKQWJ8Y1TMHX0","either","8","304","","","","","","","0","1","0","","0.2882062485","0.8","0.2","0.4","0.6","0.2712352107","0.3547982299","0.8152565923","0.2882062485","","","","","","","","","","","","","","76","L","3","","","22","main_expt",""
"","bandit","102","404632","0.0-64.0-0.0","68571403","wem/bandit_party_2","AKQWJ8Y1TMHX0","either","8","904","","","","","","","0","0","1","0.2113421372","","0.8","0.2","0.4","0.6","","","","","0.3390855774","0.323805638","0.7537075358","0.2113421372","","","","","","","","","","76","L","3","","","23","main_expt",""
"","bandit","103","407295","0.0-65.0-0.0","68571403","wem/bandit_party_2","AKQWJ8Y1TMHX0","either","8","1140","","","","","","","0","1","0","","0.2201805416","0.8","0.2","0.4","0.6","0.3483259141","0.3588909826","0.7108822858","0.2201805416","","","","","","","","","","","","","","76","L","3","","","24","main_expt",""
"","bandit","104","409715","0.0-66.0-0.0","68571403","wem/bandit_party_2","AKQWJ8Y1TMHX0","either","8","888","","","","","","","0","0","1","","0.2580956466","0.8","0.2","0.4","0.6","0.3416976173","0.3885553436","0.6930515954","0.2580956466","","","","","","","","","","","","","","76","L","3","","","25","main_expt",""
"","bandit","105","411734","0.0-67.0-0.0","68571403","wem/bandit_party_2","AKQWJ8Y1TMHX0","either","8","491","","","","","","","0","0","1","0.2153432854","","0.8","0.2","0.4","0.6","","","","","0.4243476322","0.4871556374","0.6905393417","0.2153432854","","","","","","","","","","76","L","3","","","26","main_expt",""
"","bandit","106","414600","0.0-68.0-0.0","68571403","wem/bandit_party_2","AKQWJ8Y1TMHX0","either","8","1354","","","","","","","0","1","0","","0.4934119911","0.8","0.2","0.4","0.6","0.5257754898","0.4934119911","0.7531652131","0.1727955236","","","","","","","","","","","","","","74","J","1","","","27","main_expt",""
"","bandit","107","416855","0.0-69.0-0.0","68571403","wem/bandit_party_2","AKQWJ8Y1TMHX0","either","8","731","","","","","","","0","1","0","","0.4322092846","0.8","0.2","0.4","0.6","0.5246232361","0.4322092846","0.8001777041","0.1894296703","","","","","","","","","","","","","","74","J","1","","","28","main_expt",""
"","bandit","108","419202","0.0-70.0-0.0","68571403","wem/bandit_party_2","AKQWJ8Y1TMHX0","either","8","811","","","","","","","0","0","1","","0.3459113699","0.8","0.2","0.4","0.6","0.375994784","0.3459113699","0.8118404327","0.2128919211","","","","","","","","","","","","","","74","J","1","","","29","main_expt",""
"","bandit","109","421075","0.0-71.0-0.0","68571403","wem/bandit_party_2","AKQWJ8Y1TMHX0","either","8","343","","","","","","","0","0","1","","0.280789843","0.8","0.2","0.4","0.6","0.2936890161","0.280789843","0.7839534503","0.206056468","","","","","","","","","","","","","","74","J","1","","","30","main_expt",""
"","bandit","110","422932","0.0-72.0-0.0","68571403","wem/bandit_party_2","AKQWJ8Y1TMHX0","either","8","330","","","","","","","0","0","1","","0.2613810438","0.8","0.2","0.4","0.6","0.2878812258","0.2613810438","0.8066372971","0.1725623241","","","","","","","","","","","","","","74","J","1","","","31","main_expt",""
"","bandit","111","425034","0.0-73.0-0.0","68571403","wem/bandit_party_2","AKQWJ8Y1TMHX0","either","8","578","","","","","","","0","1","0","","0.2451492808","0.8","0.2","0.4","0.6","0.2451492808","0.3821585683","0.8049259064","0.1629883914","","","","","","","","","","","","","","72","H","0","img/none_selected.jpg","","32","main_expt",""
"","bandit","112","427266","0.0-74.0-0.0","68571403","wem/bandit_party_2","AKQWJ8Y1TMHX0","either","8","695","","","","","","","1","0","0","0.2802113289","","0.8","0.2","0.4","0.6","","","","","0.2802113289","0.2714925976","0.7891664673","0.2107911223","","","","","","","","","","72","H","0","img/none_selected.jpg","","33","main_expt",""
"","bandit","113","429193","0.0-75.0-0.0","68571403","wem/bandit_party_2","AKQWJ8Y1TMHX0","either","8","388","","","","","","","0","0","1","0.2892342718","","0.8","0.2","0.4","0.6","","","","","0.2892342718","0.2755575364","0.7854278051","0.1025901997","","","","","","","","","","72","H","0","img/none_selected.jpg","","34","main_expt",""
"","bandit","114","431923","0.0-76.0-0.0","68571403","wem/bandit_party_2","AKQWJ8Y1TMHX0","either","8","1194","","","","","","","1","0","0","0.2486893666","","0.8","0.2","0.4","0.6","","","","","0.2486893666","0.2697856654","0.7260182018","0.1289879153","","","","","","","","","","72","H","0","img/none_selected.jpg","","35","main_expt",""
"","bandit","115","434831","0.0-77.0-0.0","68571403","wem/bandit_party_2","AKQWJ8Y1TMHX0","either","8","1385","","","","","","","0","0","1","0.3536408983","","0.8","0.2","0.4","0.6","","","","","0.3536408983","0.2483646443","0.7910957192","0.1645491317","","","","","","","","","","72","H","0","img/none_selected.jpg","","36","main_expt",""
"","bandit","116","437255","0.0-78.0-0.0","68571403","wem/bandit_party_2","AKQWJ8Y1TMHX0","either","8","898","","","","","","","0","0","1","","0.1698046746","0.8","0.2","0.4","0.6","0.2493566902","0.2103950957","0.7996551039","0.1698046746","","","","","","","","","","","","","","76","L","3","","","37","main_expt",""
"","bandit","117","439524","0.0-79.0-0.0","68571403","wem/bandit_party_2","AKQWJ8Y1TMHX0","either","8","747","","","","","","","0","0","1","0.2281502886","","0.8","0.2","0.4","0.6","","","","","0.2948354516","0.2128944509","0.6717479894","0.2281502886","","","","","","","","","","76","L","3","","","38","main_expt",""
"","bandit","118","441700","0.0-80.0-0.0","68571403","wem/bandit_party_2","AKQWJ8Y1TMHX0","either","8","640","","","","","","","0","1","0","","0.7121128808","0.8","0.2","0.4","0.6","0.3373274679","0.2965153327","0.7121128808","0.1561271762","","","","","","","","","","","","","","75","K","2","","","39","main_expt",""
"","bandit","119","444219","0.0-81.0-0.0","68571403","wem/bandit_party_2","AKQWJ8Y1TMHX0","either","8","1001","","","","","","","0","1","0","","0.7157410044","0.8","0.2","0.4","0.6","0.4138768052","0.4447532253","0.7157410044","0.1543620621","","","","","","","","","","","","","","75","K","2","","","40","main_expt",""
"","bandit","120","446355","0.0-82.0-0.0","68571403","wem/bandit_party_2","AKQWJ8Y1TMHX0","either","8","617","","","","","","","1","0","0","0.681196038","","0.8","0.2","0.4","0.6","","","","","0.438096834","0.5330008696","0.681196038","0.2271499981","","","","","","","","","","75","K","2","","","41","main_expt",""
"","bandit","121","448602","0.0-83.0-0.0","68571403","wem/bandit_party_2","AKQWJ8Y1TMHX0","either","8","723","","","","","","","1","0","0","0.6504320647","","0.8","0.2","0.4","0.6","","","","","0.4185173612","0.573861049","0.6504320647","0.2882452936","","","","","","","","","","75","K","2","","","42","main_expt",""
"","bandit","122","450594","0.0-84.0-0.0","68571403","wem/bandit_party_2","AKQWJ8Y1TMHX0","either","8","465","","","","","","","1","0","0","0.7369830744","","0.8","0.2","0.4","0.6","","","","","0.3796335567","0.6654349765","0.7369830744","0.298522686","","","","","","","","","","75","K","2","","","43","main_expt",""
"","bandit","123","452860","0.0-85.0-0.0","68571403","wem/bandit_party_2","AKQWJ8Y1TMHX0","either","8","734","","","","","","","0","1","0","","0.6797935378","0.8","0.2","0.4","0.6","0.31766129","0.691198465","0.6797935378","0.3188886026","","","","","","","","","","","","","","75","K","2","","","44","main_expt",""
"","bandit","124","454925","0.0-86.0-0.0","68571403","wem/bandit_party_2","AKQWJ8Y1TMHX0","either","8","550","","","","","","","1","0","0","0.6507473666","","0.8","0.2","0.4","0.6","","","","","0.4047397141","0.7652674903","0.6507473666","0.2705760174","","","","","","","","","","75","K","2","","","45","main_expt",""
"","bandit","125","456794","0.0-87.0-0.0","68571403","wem/bandit_party_2","AKQWJ8Y1TMHX0","either","8","330","","","","","","","0","1","0","","0.6334510787","0.8","0.2","0.4","0.6","0.4961613307","0.8065230058","0.6334510787","0.2506880939","","","","","","","","","","","","","","75","K","2","","","46","main_expt",""
"","bandit","126","459079","0.0-88.0-0.0","68571403","wem/bandit_party_2","AKQWJ8Y1TMHX0","either","8","766","","","","","","","0","0","1","","0.6143175143","0.8","0.2","0.4","0.6","0.4624468315","0.7774474893","0.6143175143","0.2491585872","","","","","","","","","","","","","","75","K","2","","","47","main_expt",""
"","bandit","127","460979","0.0-89.0-0.0","68571403","wem/bandit_party_2","AKQWJ8Y1TMHX0","either","8","374","","","","","","","0","0","1","","0.6404512611","0.8","0.2","0.4","0.6","0.4886537242","0.7693176975","0.6404512611","0.1997021219","","","","","","","","","","","","","","75","K","2","","","48","main_expt",""
"","bandit","128","462826","0.0-90.0-0.0","68571403","wem/bandit_party_2","AKQWJ8Y1TMHX0","either","8","309","","","","","","","0","0","1","","0.6758621215","0.8","0.2","0.4","0.6","0.4270302022","0.807419373","0.6758621215","0.2119577724","","","","","","","","","","","","","","75","K","2","","","49","main_expt",""
"","bandit","129","464767","0.0-91.0-0.0","68571403","wem/bandit_party_2","AKQWJ8Y1TMHX0","either","8","414","","","","","","","0","1","0","","0.8562769227","0.8","0.2","0.4","0.6","0.5151345658","0.8562769227","0.6873234502","0.2615271711","","","","","","","","","","","","","","74","J","1","","","50","main_expt",""
"","bandit","130","467098","0.0-92.0-0.0","68571403","wem/bandit_party_2","AKQWJ8Y1TMHX0","either","8","793","","","","","","","0","1","0","","0.8705114925","0.8","0.2","0.4","0.6","0.5134524181","0.8705114925","0.7776044395","0.2764427577","","","","","","","","","","","","","","74","J","1","","","51","main_expt",""
"","bandit","131","469355","0.0-93.0-0.0","68571403","wem/bandit_party_2","AKQWJ8Y1TMHX0","either","8","726","","","","","","","0","1","0","","0.9310361031","0.8","0.2","0.4","0.6","0.4842684999","0.9310361031","0.8403410939","0.3833776697","","","","","","","","","","","","","","74","J","1","","","52","main_expt",""
"","bandit","132","471856","0.0-94.0-0.0","68571403","wem/bandit_party_2","AKQWJ8Y1TMHX0","either","8","985","","","","","","","1","0","0","0.905794742","","0.8","0.2","0.4","0.6","","","","","0.4412850773","0.905794742","0.8151983534","0.4356502318","","","","","","","","","","74","J","1","","","53","main_expt",""
"","bandit","133","474035","0.0-95.0-0.0","68571403","wem/bandit_party_2","AKQWJ8Y1TMHX0","either","8","655","","","","","","","0","1","0","","0.9391541593","0.8","0.2","0.4","0.6","0.4397693946","0.9391541593","0.8081222638","0.4120588364","","","","","","","","","","","","","","74","J","1","","","54","main_expt",""
"","bandit","134","476535","0.0-96.0-0.0","68571403","wem/bandit_party_2","AKQWJ8Y1TMHX0","either","8","975","","","","","","","1","0","0","0.9596285882","","0.8","0.2","0.4","0.6","","","","","0.3928202278","0.9596285882","0.742009976","0.2714296105","","","","","","","","","","74","J","1","","","55","main_expt",""
"","bandit","135","478704","0.0-97.0-0.0","68571403","wem/bandit_party_2","AKQWJ8Y1TMHX0","either","8","644","","","","","","","0","1","0","","0.9565658233","0.8","0.2","0.4","0.6","0.4593665993","0.9565658233","0.7065076074","0.2122311877","","","","","","","","","","","","","","74","J","1","","","56","main_expt",""
"","bandit","136","481070","0.0-98.0-0.0","68571403","wem/bandit_party_2","AKQWJ8Y1TMHX0","either","8","832","","","","","","","0","0","1","","0.9681540372","0.8","0.2","0.4","0.6","0.4006145211","0.9681540372","0.6860695476","0.2282278588","","","","","","","","","","","","","","74","J","1","","","57","main_expt",""
"","bandit","137","483322","0.0-99.0-0.0","68571403","wem/bandit_party_2","AKQWJ8Y1TMHX0","either","8","721","","","","","","","0","1","0","","0.9207083952","0.8","0.2","0.4","0.6","0.4597890412","0.9207083952","0.742301155","0.1392076118","","","","","","","","","","","","","","74","J","1","","","58","main_expt",""
"","bandit","138","485266","0.0-100.0-0.0","68571403","wem/bandit_party_2","AKQWJ8Y1TMHX0","either","8","406","","","","","","","0","0","1","","0.9178227258","0.8","0.2","0.4","0.6","0.4232266093","0.9178227258","0.5291004622","0.1706239206","","","","","","","","","","","","","","74","J","1","","","59","main_expt",""
"","bandit","139","487136","0.0-101.0-0.0","68571403","wem/bandit_party_2","AKQWJ8Y1TMHX0","either","8","351","","","","","","","0","0","1","0.8951285427","","0.8","0.2","0.4","0.6","","","","","0.3565880291","0.8951285427","0.6348838793","0.1674269281","","","","","","","","","","74","J","1","","","60","main_expt",""
"","bandit","140","489025","0.0-102.0-0.0","68571403","wem/bandit_party_2","AKQWJ8Y1TMHX0","either","8","364","","","","","","","1","0","0","0.2182313474","","0.8","0.2","0.4","0.6","","","","","0.3663276413","0.8506814954","0.6796423313","0.2182313474","","","","","","","","","","76","L","3","","","61","main_expt",""
"","bandit","141","491155","0.0-103.0-0.0","68571403","wem/bandit_party_2","AKQWJ8Y1TMHX0","either","8","612","","","","","","","0","0","1","","0.2949218256","0.8","0.2","0.4","0.6","0.3193005293","0.8513854559","0.6928172916","0.2949218256","","","","","","","","","","","","","","76","L","3","","","62","main_expt",""
"","bandit","142","493544","0.0-104.0-0.0","68571403","wem/bandit_party_2","AKQWJ8Y1TMHX0","either","8","864","","","","","","","1","0","0","0.3170222383","","0.8","0.2","0.4","0.6","","","","","0.1562068481","0.8927579502","0.6996506825","0.3170222383","","","","","","","","","","76","L","3","","","63","main_expt",""
"","bandit","143","495498","0.0-105.0-0.0","68571403","wem/bandit_party_2","AKQWJ8Y1TMHX0","either","8","424","","","","","","","0","0","1","0.3033511374","","0.8","0.2","0.4","0.6","","","","","0.2300477965","0.9217936765","0.7294442249","0.3033511374","","","","","","","","","","76","L","3","","","64","main_expt",""
"","bandit","144","497630","0.0-106.0-0.0","68571403","wem/bandit_party_2","AKQWJ8Y1TMHX0","either","8","604","","","","","","","0","0","1","0.2869838185","","0.8","0.2","0.4","0.6","","","","","0.2869838185","0.9357047413","0.6605354899","0.3973690147","","","","","","","","","","72","H","0","img/none_selected.jpg","","65","main_expt",""
"","bandit","145","499726","0.0-107.0-0.0","68571403","wem/bandit_party_2","AKQWJ8Y1TMHX0","either","8","569","","","","","","","0","0","1","0.3287476356","","0.8","0.2","0.4","0.6","","","","","0.3287476356","0.910343843","0.6959621059","0.4320294497","","","","","","","","","","72","H","0","img/none_selected.jpg","","66","main_expt",""
"","bandit","146","502002","0.0-108.0-0.0","68571403","wem/bandit_party_2","AKQWJ8Y1TMHX0","either","8","758","","","","","","","0","1","0","","0.653899752","0.8","0.2","0.4","0.6","0.3018365728","0.9022080512","0.653899752","0.3208465419","","","","","","","","","","","","","","75","K","2","","","67","main_expt",""
"","bandit","147","504290","0.0-109.0-0.0","68571403","wem/bandit_party_2","AKQWJ8Y1TMHX0","either","8","778","","","","","","","1","0","0","0.6517851336","","0.8","0.2","0.4","0.6","","","","","0.3208616414","0.8492414063","0.6517851336","0.3570730799","","","","","","","","","","75","K","2","","","68","main_expt",""
"","bandit","148","506415","0.0-110.0-0.0","68571403","wem/bandit_party_2","AKQWJ8Y1TMHX0","either","8","586","","","","","","","0","0","1","0.7011615004","","0.8","0.2","0.4","0.6","","","","","0.386863802","0.768219052","0.7011615004","0.3451514791","","","","","","","","","","75","K","2","","","69","main_expt",""
"","bandit","149","508414","0.0-111.0-0.0","68571403","wem/bandit_party_2","AKQWJ8Y1TMHX0","either","8","466","","","","","","","0","1","0","","0.6278947594","0.8","0.2","0.4","0.6","0.3628244161","0.7996218848","0.6278947594","0.3127714871","","","","","","","","","","","","","","75","K","2","","","70","main_expt",""
"","bandit","150","510765","0.0-112.0-0.0","68571403","wem/bandit_party_2","AKQWJ8Y1TMHX0","either","8","823","","","","","","","0","0","1","0.688517509","","0.8","0.2","0.4","0.6","","","","","0.2969295023","0.9130189757","0.688517509","0.3855297895","","","","","","","","","","75","K","2","","","71","main_expt",""
"","bandit","151","513170","0.0-113.0-0.0","68571403","wem/bandit_party_2","AKQWJ8Y1TMHX0","either","8","884","","","","","","","1","0","0","0.6125440106","","0.8","0.2","0.4","0.6","","","","","0.3512325323","0.9016843832","0.6125440106","0.3555010044","","","","","","","","","","75","K","2","","","72","main_expt",""
"","bandit","152","515604","0.0-114.0-0.0","68571403","wem/bandit_party_2","AKQWJ8Y1TMHX0","either","8","902","","","","","","","0","0","1","","0.4884410468","0.8","0.2","0.4","0.6","0.3845321254","0.9166584401","0.4884410468","0.3278360739","","","","","","","","","","","","","","75","K","2","","","73","main_expt",""
"","bandit","153","517643","0.0-115.0-0.0","68571403","wem/bandit_party_2","AKQWJ8Y1TMHX0","either","8","504","","","","","","","0","1","0","","0.8699410266","0.8","0.2","0.4","0.6","0.3760614253","0.8699410266","0.5800760741","0.3275161349","","","","","","","","","","","","","","74","J","1","","","74","main_expt",""
"","bandit","154","519680","0.0-116.0-0.0","68571403","wem/bandit_party_2","AKQWJ8Y1TMHX0","either","8","513","","","","","","","0","1","0","","0.8192171788","0.8","0.2","0.4","0.6","0.370831352","0.8192171788","0.6614390465","0.3454333807","","","","","","","","","","","","","","74","J","1","","","75","main_expt",""
"","bandit","155","521843","0.0-117.0-0.0","68571403","wem/bandit_party_2","AKQWJ8Y1TMHX0","either","8","648","","","","","","","0","1","0","","0.8990587115","0.8","0.2","0.4","0.6","0.4008199491","0.8990587115","0.6861570843","0.4213924804","","","","","","","","","","","","","","74","J","1","","","76","main_expt",""
"","bandit","156","524084","0.0-118.0-0.0","68571403","wem/bandit_party_2","AKQWJ8Y1TMHX0","either","8","717","","","","","","","0","0","1","","0.9062137116","0.8","0.2","0.4","0.6","0.3928984844","0.9062137116","0.5980737028","0.439510692","","","","","","","","","","","","","","74","J","1","","","77","main_expt",""
"","bandit","157","525977","0.0-119.0-0.0","68571403","wem/bandit_party_2","AKQWJ8Y1TMHX0","either","8","356","","","","","","","0","0","1","","0.9215914722","0.8","0.2","0.4","0.6","0.4709058574","0.9215914722","0.6754083514","0.4419424199","","","","","","","","","","","","","","74","J","1","","","78","main_expt",""
"","bandit","158","528225","0.0-120.0-0.0","68571403","wem/bandit_party_2","AKQWJ8Y1TMHX0","either","8","713","","","","","","","0","1","0","","0.895443078","0.8","0.2","0.4","0.6","0.4971614577","0.895443078","0.7012934339","0.5056762283","","","","","","","","","","","","","","74","J","1","","","79","main_expt",""
"","bandit","159","530392","0.0-121.0-0.0","68571403","wem/bandit_party_2","AKQWJ8Y1TMHX0","either","8","653","","","","","","","0","1","0","","0.7789772955","0.8","0.2","0.4","0.6","0.4828267768","0.7789772955","0.7067798052","0.4558190996","","","","","","","","","","","","","","74","J","1","","","80","main_expt",""
"","bandit","160","533260","0.0-122.0-0.0","68571403","wem/bandit_party_2","AKQWJ8Y1TMHX0","either","8","1355","","","","","","","0","1","0","","0.755426824","0.8","0.2","0.4","0.6","0.4280570329","0.755426824","0.7259433061","0.4774921548","","","","","","","","","","","","","","74","J","1","","","81","main_expt",""
"","bandit","161","535792","0.0-123.0-0.0","68571403","wem/bandit_party_2","AKQWJ8Y1TMHX0","either","8","1013","","","","","","","1","0","0","0.8356426425","","0.8","0.2","0.4","0.6","","","","","0.486136241","0.8356426425","0.7022130872","0.3611036613","","","","","","","","","","74","J","1","","","82","main_expt",""
"","bandit","162","538191","0.0-124.0-0.0","68571403","wem/bandit_party_2","AKQWJ8Y1TMHX0","either","8","873","","","","","","","0","1","0","","0.8783145762","0.8","0.2","0.4","0.6","0.3539143083","0.8783145762","0.75927227","0.3341354767","","","","","","","","","","","","","","74","J","1","","","83","main_expt",""
"","bandit","163","540889","0.0-125.0-0.0","68571403","wem/bandit_party_2","AKQWJ8Y1TMHX0","either","8","1167","","","","","","","0","1","0","","0.9087743635","0.8","0.2","0.4","0.6","0.374811954","0.9087743635","0.8556046088","0.288479151","","","","","","","","","","","","","","74","J","1","","","84","main_expt",""
"","bandit","164","543261","0.0-126.0-0.0","68571403","wem/bandit_party_2","AKQWJ8Y1TMHX0","either","8","853","","","","","","","0","0","1","","0.8632011641","0.8","0.2","0.4","0.6","0.4518264681","0.8632011641","0.7835234447","0.3061923995","","","","","","","","","","","","","","74","J","1","","","85","main_expt",""
"","bandit","165","545843","0.0-127.0-0.0","68571403","wem/bandit_party_2","AKQWJ8Y1TMHX0","either","8","1069","","","","","","","1","0","0","0.8341253046","","0.8","0.2","0.4","0.6","","","","","0.461936863","0.8341253046","0.7037548709","0.3370204437","","","","","","","","","","74","J","1","","","86","main_expt",""
"","bandit","166","548349","0.0-128.0-0.0","68571403","wem/bandit_party_2","AKQWJ8Y1TMHX0","either","8","969","","","","","","","0","0","1","","0.8728746981","0.8","0.2","0.4","0.6","0.3681660755","0.8728746981","0.6903674631","0.3900809043","","","","","","","","","","","","","","74","J","1","","","87","main_expt",""
"","bandit","167","550816","0.0-129.0-0.0","68571403","wem/bandit_party_2","AKQWJ8Y1TMHX0","either","8","939","","","","","","","0","0","1","","0.8408980459","0.8","0.2","0.4","0.6","0.3788462328","0.8408980459","0.5883284312","0.4296615172","","","","","","","","","","","","","","74","J","1","","","88","main_expt",""
"","bandit","168","553059","0.0-130.0-0.0","68571403","wem/bandit_party_2","AKQWJ8Y1TMHX0","either","8","728","","","","","","","0","0","1","0.4636560077","","0.8","0.2","0.4","0.6","","","","","0.3316952272","0.8585781628","0.5258490985","0.4636560077","","","","","","","","","","76","L","3","","","89","main_expt",""
"","bandit","169","556634","0.0-131.0-0.0","68571403","wem/bandit_party_2","AKQWJ8Y1TMHX0","either","8","2045","","","","","","","0","1","0","","0.438068917","0.8","0.2","0.4","0.6","0.438068917","0.925840658","0.6395041767","0.4463585346","","","","","","","","","","","","","","72","H","0","img/none_selected.jpg","","90","main_expt",""
"","bandit","170","559394","0.0-132.0-0.0","68571403","wem/bandit_party_2","AKQWJ8Y1TMHX0","either","8","1230","","","","","","","0","0","1","","0.5158843935","0.8","0.2","0.4","0.6","0.5158843935","0.9201841885","0.6931091445","0.4734463503","","","","","","","","","","","","","","72","H","0","img/none_selected.jpg","","91","main_expt",""
"","bandit","171","561674","0.0-133.0-0.0","68571403","wem/bandit_party_2","AKQWJ8Y1TMHX0","either","8","765","","","","","","","0","0","1","0.5182757575","","0.8","0.2","0.4","0.6","","","","","0.5182757575","0.8508076908","0.6725373887","0.5248255385","","","","","","","","","","72","H","0","img/none_selected.jpg","","92","main_expt",""
"","bandit","172","564070","0.0-134.0-0.0","68571403","wem/bandit_party_2","AKQWJ8Y1TMHX0","either","8","865","","","","","","","0","1","0","","0.5498130742","0.8","0.2","0.4","0.6","0.5498130742","0.8106711147","0.7388835399","0.3386726181","","","","","","","","","","","","","","72","H","0","img/none_selected.jpg","","93","main_expt",""
"","bandit","173","566375","0.0-135.0-0.0","68571403","wem/bandit_party_2","AKQWJ8Y1TMHX0","either","8","777","","","","","","","0","0","1","0.6049407638","","0.8","0.2","0.4","0.6","","","","","0.6049407638","0.8543263914","0.697373586","0.3718894848","","","","","","","","","","72","H","0","img/none_selected.jpg","","94","main_expt",""
"","bandit","174","568607","0.0-136.0-0.0","68571403","wem/bandit_party_2","AKQWJ8Y1TMHX0","either","8","700","","","","","","","0","1","0","","0.7550322224","0.8","0.2","0.4","0.6","0.6604115927","0.8387782901","0.7550322224","0.4005278521","","","","","","","","","","","","","","75","K","2","","","95","main_expt",""
"","bandit","175","570849","0.0-137.0-0.0","68571403","wem/bandit_party_2","AKQWJ8Y1TMHX0","either","8","701","","","","","","","0","1","0","","0.6576962358","0.8","0.2","0.4","0.6","0.7003847986","0.8208071174","0.6576962358","0.3694595514","","","","","","","","","","","","","","75","K","2","","","96","main_expt",""
"","bandit","176","573640","0.0-138.0-0.0","68571403","wem/bandit_party_2","AKQWJ8Y1TMHX0","either","8","1253","","","","","","","0","1","0","","0.6802484638","0.8","0.2","0.4","0.6","0.6793148949","0.765358829","0.6802484638","0.3186037095","","","","","","","","","","","","","","75","K","2","","","97","main_expt",""
"","bandit","177","576610","0.0-139.0-0.0","68571403","wem/bandit_party_2","AKQWJ8Y1TMHX0","either","8","1448","","","","","","","0","0","1","","0.7042077447","0.8","0.2","0.4","0.6","0.6204607354","0.7823463211","0.7042077447","0.2786717818","","","","","","","","","","","","","","75","K","2","","","98","main_expt",""
"","bandit","178","579144","0.0-140.0-0.0","68571403","wem/bandit_party_2","AKQWJ8Y1TMHX0","either","8","1004","","","","","","","1","0","0","0.7355617892","","0.8","0.2","0.4","0.6","","","","","0.6166262367","0.7523003034","0.7355617892","0.32929866","","","","","","","","","","75","K","2","","","99","main_expt",""
"","bandit","179","581814","0.0-141.0-0.0","68571403","wem/bandit_party_2","AKQWJ8Y1TMHX0","either","8","1144","","","","","","","0","0","1","","0.7117411671","0.8","0.2","0.4","0.6","0.5347115766","0.7174790615","0.7117411671","0.3115323478","","","","","","","","","","","","","","75","K","2","","","100","main_expt",""
"","bandit","180","584229","0.0-142.0-0.0","68571403","wem/bandit_party_2","AKQWJ8Y1TMHX0","either","8","880","","","","","","","0","0","1","0.4221749579","","0.8","0.2","0.4","0.6","","","","","0.3418016043","0.7660578318","0.7263903312","0.4221749579","","","","","","","","","","76","L","3","","","101","main_expt",""
"","bandit","181","586401","0.0-143.0-0.0","68571403","wem/bandit_party_2","AKQWJ8Y1TMHX0","either","8","640","","","","","","","0","1","0","","0.7201180075","0.8","0.2","0.4","0.6","0.2550922237","0.7201180075","0.7357346189","0.2718078598","","","","","","","","","","","","","","74","J","1","","","102","main_expt",""
"","bandit","182","588829","0.0-144.0-0.0","68571403","wem/bandit_party_2","AKQWJ8Y1TMHX0","either","8","893","","","","","","","0","1","0","","0.8452780714","0.8","0.2","0.4","0.6","0.3181696353","0.8452780714","0.7026134783","0.3011307106","","","","","","","","","","","","","","74","J","1","","","103","main_expt",""
"","bandit","183","590901","0.0-145.0-0.0","68571403","wem/bandit_party_2","AKQWJ8Y1TMHX0","either","8","550","","","","","","","0","1","0","","0.7236924273","0.8","0.2","0.4","0.6","0.3383579412","0.7236924273","0.8073666152","0.3659291838","","","","","","","","","","","","","","74","J","1","","","104","main_expt",""
"","bandit","184","592879","0.0-146.0-0.0","68571403","wem/bandit_party_2","AKQWJ8Y1TMHX0","either","8","434","","","","","","","1","0","0","0.743719778","","0.8","0.2","0.4","0.6","","","","","0.2354673658","0.743719778","0.824483439","0.3499435223","","","","","","","","","","74","J","1","","","105","main_expt",""
"","bandit","185","595025","0.0-147.0-0.0","68571403","wem/bandit_party_2","AKQWJ8Y1TMHX0","either","8","606","","","","","","","0","1","0","","0.7985687284","0.8","0.2","0.4","0.6","0.159398249","0.7985687284","0.9208810438","0.3602262465","","","","","","","","","","","","","","74","J","1","","","106","main_expt",""
"","bandit","186","597379","0.0-148.0-0.0","68571403","wem/bandit_party_2","AKQWJ8Y1TMHX0","either","8","822","","","","","","","0","1","0","","0.799345197","0.8","0.2","0.4","0.6","0.1295169146","0.799345197","0.8911910097","0.3252215163","","","","","","","","","","","","","","74","J","1","","","107","main_expt",""
"","bandit","187","600053","0.0-149.0-0.0","68571403","wem/bandit_party_2","AKQWJ8Y1TMHX0","either","8","1154","","","","","","","0","1","0","","0.8681690713","0.8","0.2","0.4","0.6","0.07754053308","0.8681690713","0.8450149587","0.2812406992","","","","","","","","","","","","","","74","J","1","","","108","main_expt",""
"","bandit","188","602430","0.0-150.0-0.0","68571403","wem/bandit_party_2","AKQWJ8Y1TMHX0","either","8","858","","","","","","","1","0","0","0.8556732204","","0.8","0.2","0.4","0.6","","","","","0.06591215473","0.8556732204","0.868327257","0.2559497519","","","","","","","","","","74","J","1","","","109","main_expt",""
"","bandit","189","605337","0.0-151.0-0.0","68571403","wem/bandit_party_2","AKQWJ8Y1TMHX0","either","8","1380","","","","","","","0","1","0","","0.8669893864","0.8","0.2","0.4","0.6","0.1189546392","0.8669893864","0.8868335222","0.2817400418","","","","","","","","","","","","","","74","J","1","","","110","main_expt",""
"","bandit","190","608003","0.0-152.0-0.0","68571403","wem/bandit_party_2","AKQWJ8Y1TMHX0","either","8","1132","","","","","","","0","1","0","","0.799383849","0.8","0.2","0.4","0.6","0.09523351692","0.799383849","0.8770728171","0.2773620367","","","","","","","","","","","","","","74","J","1","","","111","main_expt",""
"","bandit","191","610681","0.0-153.0-0.0","68571403","wem/bandit_party_2","AKQWJ8Y1TMHX0","either","8","1150","","","","","","","0","1","0","","0.859799476","0.8","0.2","0.4","0.6","0.107489667","0.859799476","0.8481710002","0.2833316415","","","","","","","","","","","","","","74","J","1","","","112","main_expt",""
"","bandit","192","613350","0.0-154.0-0.0","68571403","wem/bandit_party_2","AKQWJ8Y1TMHX0","either","8","1148","","","","","","","0","0","1","","0.7932436089","0.8","0.2","0.4","0.6","0.1026187258","0.7932436089","0.8573528835","0.3433702059","","","","","","","","","","","","","","74","J","1","","","113","main_expt",""
"","bandit","193","616064","0.0-155.0-0.0","68571403","wem/bandit_party_2","AKQWJ8Y1TMHX0","either","8","1187","","","","","","","0","1","0","","0.849407262","0.8","0.2","0.4","0.6","0.1044839951","0.849407262","0.8291807482","0.4828882278","","","","","","","","","","","","","","74","J","1","","","114","main_expt",""
"","bandit","194","618435","0.0-156.0-0.0","68571403","wem/bandit_party_2","AKQWJ8Y1TMHX0","either","8","848","","","","","","","0","1","0","","0.8882716547","0.8","0.2","0.4","0.6","0.1213931844","0.8882716547","0.761972944","0.54932579","","","","","","","","","","","","","","74","J","1","","","115","main_expt",""
"","bandit","195","620725","0.0-157.0-0.0","68571403","wem/bandit_party_2","AKQWJ8Y1TMHX0","either","8","774","","","","","","","0","0","1","","0.8741354715","0.8","0.2","0.4","0.6","0.1184144227","0.8741354715","0.786197192","0.6971345968","","","","","","","","","","","","","","74","J","1","","","116","main_expt",""
"","bandit","196","622720","0.0-158.0-0.0","68571403","wem/bandit_party_2","AKQWJ8Y1TMHX0","either","8","456","","","","","","","0","1","0","","0.8083823922","0.8","0.2","0.4","0.6","0.1983931569","0.8083823922","0.7834453561","0.5396272374","","","","","","","","","","","","","","74","J","1","","","117","main_expt",""
"","bandit","197","624980","0.0-159.0-0.0","68571403","wem/bandit_party_2","AKQWJ8Y1TMHX0","either","8","727","","","","","","","0","1","0","","0.868525306","0.8","0.2","0.4","0.6","0.2840039584","0.868525306","0.6742380839","0.5544567993","","","","","","","","","","","","","","74","J","1","","","118","main_expt",""
"","bandit","198","627215","0.0-160.0-0.0","68571403","wem/bandit_party_2","AKQWJ8Y1TMHX0","either","8","693","","","","","","","0","1","0","","0.8386471998","0.8","0.2","0.4","0.6","0.3563325119","0.8386471998","0.7350700153","0.5504896642","","","","","","","","","","","","","","74","J","1","","","119","main_expt",""
"","bandit","199","629414","0.0-161.0-0.0","68571403","wem/bandit_party_2","AKQWJ8Y1TMHX0","either","8","667","","","","","","","1","0","0","0.8103559508","","0.8","0.2","0.4","0.6","","","","","0.5682387565","0.8103559508","0.70601835","0.5812137135","","","","","","","","","","74","J","1","","","120","main_expt",""
"","bandit","200","631669","0.0-162.0-0.0","68571403","wem/bandit_party_2","AKQWJ8Y1TMHX0","either","8","731","","","","","","","0","1","0","","0.8193015173","0.8","0.2","0.4","0.6","0.5189107771","0.8193015173","0.7347719752","0.6033058466","","","","","","","","","","","","","","74","J","1","","","121","main_expt",""
"","bandit","201","636105","0.0-163.0-0.0","68571403","wem/bandit_party_2","AKQWJ8Y1TMHX0","either","8","2917","","","","","","","0","0","1","","0.8025146027","0.8","0.2","0.4","0.6","0.4428493372","0.8025146027","0.8270923978","0.6102220397","","","","","","","","","","","","","","74","J","1","","","122","main_expt",""
"","bandit","202","637991","0.0-164.0-0.0","68571403","wem/bandit_party_2","AKQWJ8Y1TMHX0","either","8","369","","","","","","","0","0","1","","0.8121847492","0.8","0.2","0.4","0.6","0.472724465","0.8121847492","0.7980631313","0.6108151959","","","","","","","","","","","","","","74","J","1","","","123","main_expt",""
"","bandit","203","640110","0.0-165.0-0.0","68571403","wem/bandit_party_2","AKQWJ8Y1TMHX0","either","8","584","","","","","","","0","0","1","0.7369852887","","0.8","0.2","0.4","0.6","","","","","0.4799585558","0.8299418439","0.7369852887","0.7117385939","","","","","","","","","","75","K","2","","","124","main_expt",""
"","bandit","204","642022","0.0-166.0-0.0","68571403","wem/bandit_party_2","AKQWJ8Y1TMHX0","either","8","377","","","","","","","1","0","0","0.5080184993","","0.8","0.2","0.4","0.6","","","","","0.5080184993","0.825688343","0.7465944313","0.7554186078","","","","","","","","","","72","H","0","img/none_selected.jpg","","125","main_expt",""
"","bandit","205","643972","0.0-167.0-0.0","68571403","wem/bandit_party_2","AKQWJ8Y1TMHX0","either","8","412","","","","","","","0","0","1","0.4555098289","","0.8","0.2","0.4","0.6","","","","","0.4555098289","0.8372054396","0.7596834852","0.8855751833","","","","","","","","","","72","H","0","img/none_selected.jpg","","126","main_expt",""
"","bandit","206","645937","0.0-168.0-0.0","68571403","wem/bandit_party_2","AKQWJ8Y1TMHX0","either","8","430","","","","","","","0","1","0","","0.7906689898","0.8","0.2","0.4","0.6","0.5475411796","0.7906689898","0.7398299979","0.8003015049","","","","","","","","","","","","","","74","J","1","","","127","main_expt",""
"","bandit","207","647915","0.0-169.0-0.0","68571403","wem/bandit_party_2","AKQWJ8Y1TMHX0","either","8","448","","","","","","","0","1","0","","0.8008571507","0.8","0.2","0.4","0.6","0.612647382","0.8008571507","0.7764866849","0.8403113951","","","","","","","","","","","","","","74","J","1","","","128","main_expt",""
"","bandit","208","650257","0.0-170.0-0.0","68571403","wem/bandit_party_2","AKQWJ8Y1TMHX0","either","8","809","","","","","","","0","1","0","","0.7829297973","0.8","0.2","0.4","0.6","0.7128970287","0.7829297973","0.6435675963","0.8826872071","","","","","","","","","","","","","","74","J","1","","","129","main_expt",""
"","bandit","209","653237","0.0-171.0-0.0","68571403","wem/bandit_party_2","AKQWJ8Y1TMHX0","either","8","1449","","","","","","","0","1","0","","0.6898445721","0.8","0.2","0.4","0.6","0.7309911721","0.6898445721","0.7030252038","0.8641000085","","","","","","","","","","","","","","74","J","1","","","130","main_expt",""
"","bandit","210","663636","0.0-172.0-0.0","68571403","wem/bandit_party_2","AKQWJ8Y1TMHX0","either","8","8869","","","","","","","0","1","0","","0.5864867529","0.8","0.2","0.4","0.6","0.73180147","0.5864867529","0.6829232191","0.8752037592","","","","","","","","","","","","","","74","J","1","","","131","main_expt",""
"","bandit","211","680787","0.0-173.0-0.0","68571403","wem/bandit_party_2","AKQWJ8Y1TMHX0","either","8","15617","","","","","","","0","1","0","","0.560122833","0.8","0.2","0.4","0.6","0.8467134838","0.560122833","0.7406452387","0.8279556795","","","","","","","","","","","","","","74","J","1","","","132","main_expt",""
"","bandit","212","684033","0.0-174.0-0.0","68571403","wem/bandit_party_2","AKQWJ8Y1TMHX0","either","8","1713","","","","","","","0","1","0","","0.48439517","0.8","0.2","0.4","0.6","0.8481264083","0.48439517","0.6666234363","0.8194722428","","","","","","","","","","","","","","74","J","1","","","133","main_expt",""
"","bandit","213","686727","0.0-175.0-0.0","68571403","wem/bandit_party_2","AKQWJ8Y1TMHX0","either","8","1158","","","","","","","0","0","1","","0.3919863126","0.8","0.2","0.4","0.6","0.8771050955","0.3919863126","0.680542061","0.8037084922","","","","","","","","","","","","","","74","J","1","","","134","main_expt",""
"","bandit","214","691062","0.0-176.0-0.0","68571403","wem/bandit_party_2","AKQWJ8Y1TMHX0","either","8","2817","","","","","","","0","0","1","","0.5174750093","0.8","0.2","0.4","0.6","0.9103241533","0.5174750093","0.7006187635","0.8155916457","","","","","","","","","","","","","","74","J","1","","","135","main_expt",""
"","bandit","215","693405","0.0-177.0-0.0","68571403","wem/bandit_party_2","AKQWJ8Y1TMHX0","either","8","825","","","","","","","1","0","0","0.6936815578","","0.8","0.2","0.4","0.6","","","","","0.9126032517","0.4264762493","0.6936815578","0.8281957705","","","","","","","","","","75","K","2","","","136","main_expt",""
"","bandit","216","695290","0.0-178.0-0.0","68571403","wem/bandit_party_2","AKQWJ8Y1TMHX0","either","8","357","","","","","","","1","0","0","0.6531428085","","0.8","0.2","0.4","0.6","","","","","0.8983360858","0.5351999402","0.6531428085","0.7055403129","","","","","","","","","","75","K","2","","","137","main_expt",""
"","bandit","217","697131","0.0-179.0-0.0","68571403","wem/bandit_party_2","AKQWJ8Y1TMHX0","either","8","315","","","","","","","1","0","0","0.6769758131","","0.8","0.2","0.4","0.6","","","","","0.8851370462","0.4758748922","0.6769758131","0.6884351598","","","","","","","","","","75","K","2","","","138","main_expt",""
"","bandit","218","699223","0.0-180.0-0.0","68571403","wem/bandit_party_2","AKQWJ8Y1TMHX0","either","8","560","","","","","","","1","0","0","0.7649589049","","0.8","0.2","0.4","0.6","","","","","0.8662270416","0.4039793023","0.7649589049","0.6090423031","","","","","","","","","","75","K","2","","","139","main_expt",""
"","bandit","219","701368","0.0-181.0-0.0","68571403","wem/bandit_party_2","AKQWJ8Y1TMHX0","either","8","620","","","","","","","0","1","0","","0.7674202191","0.8","0.2","0.4","0.6","0.8345767194","0.384774136","0.7674202191","0.7000077187","","","","","","","","","","","","","","75","K","2","","","140","main_expt",""
"","bandit","220","703573","0.0-182.0-0.0","68571403","wem/bandit_party_2","AKQWJ8Y1TMHX0","either","8","677","","","","","","","0","1","0","","0.8575114448","0.8","0.2","0.4","0.6","0.8783670964","0.327254859","0.8575114448","0.6643185619","","","","","","","","","","","","","","75","K","2","","","141","main_expt",""
"","bandit","221","706110","0.0-183.0-0.0","68571403","wem/bandit_party_2","AKQWJ8Y1TMHX0","either","8","1014","","","","","","","0","1","0","","0.8134430427","0.8","0.2","0.4","0.6","0.8895828315","0.4536641492","0.8134430427","0.7079845674","","","","","","","","","","","","","","75","K","2","","","142","main_expt",""
"","bandit","222","708174","0.0-184.0-0.0","68571403","wem/bandit_party_2","AKQWJ8Y1TMHX0","either","8","539","","","","","","","1","0","0","0.8345505038","","0.8","0.2","0.4","0.6","","","","","0.9053928798","0.4348486293","0.8345505038","0.6624187643","","","","","","","","","","75","K","2","","","143","main_expt",""
"","bandit","223","710693","0.0-185.0-0.0","68571403","wem/bandit_party_2","AKQWJ8Y1TMHX0","either","8","983","","","","","","","0","1","0","","0.7482817554","0.8","0.2","0.4","0.6","0.9033088386","0.4086594597","0.7482817554","0.6779247185","","","","","","","","","","","","","","75","K","2","","","144","main_expt",""
"","bandit","224","713785","0.0-186.0-0.0","68571403","wem/bandit_party_2","AKQWJ8Y1TMHX0","either","8","1562","","","","","","","0","0","1","","0.7400387939","0.8","0.2","0.4","0.6","0.8572864227","0.4420772456","0.7400387939","0.7216102374","","","","","","","","","","","","","","75","K","2","","","145","main_expt",""
"","bandit","225","715760","0.0-187.0-0.0","68571403","wem/bandit_party_2","AKQWJ8Y1TMHX0","either","8","450","","","","","","","0","1","0","","0.795971973","0.8","0.2","0.4","0.6","0.8687508917","0.508741462","0.795971973","0.7837267619","","","","","","","","","","","","","","75","K","2","","","146","main_expt",""
"","bandit","226","719497","0.0-188.0-0.0","68571403","wem/bandit_party_2","AKQWJ8Y1TMHX0","either","8","2200","","","","","","","1","0","0","0.7503502301","","0.8","0.2","0.4","0.6","","","","","0.8657621525","0.4624398998","0.7503502301","0.7652264833","","","","","","","","","","75","K","2","","","147","main_expt",""
"","bandit","227","723044","0.0-189.0-0.0","68571403","wem/bandit_party_2","AKQWJ8Y1TMHX0","either","8","2008","","","","","","","1","0","0","0.8200474043","","0.8","0.2","0.4","0.6","","","","","0.8362891365","0.4062589849","0.8200474043","0.7358716413","","","","","","","","","","75","K","2","","","148","main_expt",""
"","bandit","228","725289","0.0-190.0-0.0","68571403","wem/bandit_party_2","AKQWJ8Y1TMHX0","either","8","718","","","","","","","1","0","0","0.8509010271","","0.8","0.2","0.4","0.6","","","","","0.8144386017","0.4895331913","0.8509010271","0.7129200786","","","","","","","","","","75","K","2","","","149","main_expt",""
"","bandit","229","727953","0.0-191.0-0.0","68571403","wem/bandit_party_2","AKQWJ8Y1TMHX0","either","8","1139","","","","","","","1","0","0","0.8298908313","","0.8","0.2","0.4","0.6","","","","","0.6948055455","0.4704746919","0.8298908313","0.705531668","","","","","","","","","","75","K","2","","","150","main_expt",""
"","bandit","230","730466","0.0-192.0-0.0","68571403","wem/bandit_party_2","AKQWJ8Y1TMHX0","either","8","977","","","","","","","0","0","1","0.7362749002","","0.8","0.2","0.4","0.6","","","","","0.6231991314","0.4725745774","0.7362749002","0.5744604188","","","","","","","","","","75","K","2","","","151","main_expt",""
"","bandit","231","732375","0.0-193.0-0.0","68571403","wem/bandit_party_2","AKQWJ8Y1TMHX0","either","8","387","","","","","","","0","0","1","0.7601791643","","0.8","0.2","0.4","0.6","","","","","0.7045057733","0.4943906398","0.7601791643","0.5372669321","","","","","","","","","","75","K","2","","","152","main_expt",""
"","bandit","232","734368","0.0-194.0-0.0","68571403","wem/bandit_party_2","AKQWJ8Y1TMHX0","either","8","462","","","","","","","0","0","1","0.5447545218","","0.8","0.2","0.4","0.6","","","","","0.5331338622","0.4639524782","0.7590648118","0.5447545218","","","","","","","","","","76","L","3","","","153","main_expt",""
"","bandit","233","736295","0.0-195.0-0.0","68571403","wem/bandit_party_2","AKQWJ8Y1TMHX0","either","8","400","","","","","","","0","1","0","","0.5096720896","0.8","0.2","0.4","0.6","0.5096720896","0.3935792086","0.7805387907","0.4191749193","","","","","","","","","","","","","","72","H","0","img/none_selected.jpg","","154","main_expt",""
"","bandit","234","738394","0.0-196.0-0.0","68571403","wem/bandit_party_2","AKQWJ8Y1TMHX0","either","8","579","","","","","","","0","0","1","0.4719011365","","0.8","0.2","0.4","0.6","","","","","0.4719011365","0.4127348605","0.8450805748","0.4269770229","","","","","","","","","","72","H","0","img/none_selected.jpg","","155","main_expt",""
"","bandit","235","740299","0.0-197.0-0.0","68571403","wem/bandit_party_2","AKQWJ8Y1TMHX0","either","8","377","","","","","","","1","0","0","0.5818713095","","0.8","0.2","0.4","0.6","","","","","0.5818713095","0.3697675558","0.8513110265","0.4589862704","","","","","","","","","","72","H","0","img/none_selected.jpg","","156","main_expt",""
"","bandit","236","742396","0.0-198.0-0.0","68571403","wem/bandit_party_2","AKQWJ8Y1TMHX0","either","8","576","","","","","","","1","0","0","0.5804022203","","0.8","0.2","0.4","0.6","","","","","0.5804022203","0.3604398023","0.8226236001","0.5370818316","","","","","","","","","","72","H","0","img/none_selected.jpg","","157","main_expt",""
"","bandit","237","744198","0.0-199.0-0.0","68571403","wem/bandit_party_2","AKQWJ8Y1TMHX0","either","8","270","","","","","","","0","0","1","0.4773166223","","0.8","0.2","0.4","0.6","","","","","0.4773166223","0.4061750625","0.8843141367","0.4757376888","","","","","","","","","","72","H","0","img/none_selected.jpg","","158","main_expt",""
"","bandit","238","746715","0.0-200.0-0.0","68571403","wem/bandit_party_2","AKQWJ8Y1TMHX0","either","8","984","","","","","","","0","1","0","","0.4696417586","0.8","0.2","0.4","0.6","0.419048585","0.4696417586","0.8078798749","0.4887287223","","","","","","","","","","","","","","74","J","1","","","159","main_expt",""
"","bandit","239","748688","0.0-201.0-0.0","68571403","wem/bandit_party_2","AKQWJ8Y1TMHX0","either","8","439","","","","","","","0","1","0","","0.4659569923","0.8","0.2","0.4","0.6","0.4672574386","0.4659569923","0.7689164465","0.4588489809","","","","","","","","","","","","","","74","J","1","","","160","main_expt",""
"","bandit","240","750726","0.0-202.0-0.0","68571403","wem/bandit_party_2","AKQWJ8Y1TMHX0","either","8","509","","","","","","","0","0","1","","0.3947207546","0.8","0.2","0.4","0.6","0.5612985374","0.3947207546","0.7863156869","0.4920004413","","","","","","","","","","","","","","74","J","1","","","161","main_expt",""
"","bandit","241","752552","0.0-203.0-0.0","68571403","wem/bandit_party_2","AKQWJ8Y1TMHX0","either","8","295","","","","","","","0","0","1","","0.2460097942","0.8","0.2","0.4","0.6","0.5288680036","0.2460097942","0.8098475403","0.5389881207","","","","","","","","","","","","","","74","J","1","","","162","main_expt",""
"","bandit","242","754803","0.0-204.0-0.0","68571403","wem/bandit_party_2","AKQWJ8Y1TMHX0","either","8","724","","","","","","","0","0","1","","0.3603606056","0.8","0.2","0.4","0.6","0.6096883849","0.3603606056","0.8222712862","0.6040136001","","","","","","","","","","","","","","74","J","1","","","163","main_expt",""
"","bandit","243","756847","0.0-205.0-0.0","68571403","wem/bandit_party_2","AKQWJ8Y1TMHX0","either","8","514","","","","","","","0","0","1","","0.7876031225","0.8","0.2","0.4","0.6","0.4868922288","0.2507209727","0.7876031225","0.623756827","","","","","","","","","","","","","","75","K","2","","","164","main_expt",""
"","bandit","244","759020","0.0-206.0-0.0","68571403","wem/bandit_party_2","AKQWJ8Y1TMHX0","either","8","639","","","","","","","0","1","0","","0.7435052823","0.8","0.2","0.4","0.6","0.4055552053","0.2162043423","0.7435052823","0.6164515281","","","","","","","","","","","","","","75","K","2","","","165","main_expt",""
"","bandit","245","760840","0.0-207.0-0.0","68571403","wem/bandit_party_2","AKQWJ8Y1TMHX0","either","8","299","","","","","","","0","0","1","","0.6545739251","0.8","0.2","0.4","0.6","0.4748236382","0.2573409732","0.6545739251","0.4660222187","","","","","","","","","","","","","","75","K","2","","","166","main_expt",""
"","bandit","246","762975","0.0-208.0-0.0","68571403","wem/bandit_party_2","AKQWJ8Y1TMHX0","either","8","600","","","","","","","0","1","0","","0.6645907447","0.8","0.2","0.4","0.6","0.4725242185","0.4016088623","0.6645907447","0.3336058786","","","","","","","","","","","","","","75","K","2","","","167","main_expt",""
"","bandit","247","765230","0.0-209.0-0.0","68571403","wem/bandit_party_2","AKQWJ8Y1TMHX0","either","8","726","","","","","","","1","0","0","0.7243751722","","0.8","0.2","0.4","0.6","","","","","0.4775208721","0.5522858252","0.7243751722","0.2887723434","","","","","","","","","","75","K","2","","","168","main_expt",""
"","bandit","248","767402","0.0-210.0-0.0","68571403","wem/bandit_party_2","AKQWJ8Y1TMHX0","either","8","640","","","","","","","1","0","0","0.6453105543","","0.8","0.2","0.4","0.6","","","","","0.4682732781","0.5461138513","0.6453105543","0.3357056981","","","","","","","","","","75","K","2","","","169","main_expt",""
"","bandit","249","769346","0.0-211.0-0.0","68571403","wem/bandit_party_2","AKQWJ8Y1TMHX0","either","8","415","","","","","","","1","0","0","0.5334010147","","0.8","0.2","0.4","0.6","","","","","0.4246621539","0.4402798015","0.5334010147","0.4179693295","","","","","","","","","","75","K","2","","","170","main_expt",""
"","bandit","250","771189","0.0-212.0-0.0","68571403","wem/bandit_party_2","AKQWJ8Y1TMHX0","either","8","322","","","","","","","0","1","0","","0.498122785","0.8","0.2","0.4","0.6","0.2843380906","0.450294849","0.498122785","0.3050406521","","","","","","","","","","","","","","75","K","2","","","171","main_expt",""
"","bandit","251","773603","0.0-213.0-0.0","68571403","wem/bandit_party_2","AKQWJ8Y1TMHX0","either","8","874","","","","","","","0","0","1","","0.4356988635","0.8","0.2","0.4","0.6","0.2668952485","0.6475755847","0.4356988635","0.3364500029","","","","","","","","","","","","","","75","K","2","","","172","main_expt",""
"","bandit","252","775896","0.0-214.0-0.0","68571403","wem/bandit_party_2","AKQWJ8Y1TMHX0","either","8","752","","","","","","","0","0","1","","0.3964199688","0.8","0.2","0.4","0.6","0.3802819164","0.6095255177","0.3964199688","0.421339117","","","","","","","","","","","","","","75","K","2","","","173","main_expt",""
"","bandit","253","777838","0.0-215.0-0.0","68571403","wem/bandit_party_2","AKQWJ8Y1TMHX0","either","8","399","","","","","","","0","0","1","","0.5003628493","0.8","0.2","0.4","0.6","0.4042455133","0.5003628493","0.3194345802","0.4913704717","","","","","","","","","","","","","","74","J","1","","","174","main_expt",""
"","bandit","254","779943","0.0-216.0-0.0","68571403","wem/bandit_party_2","AKQWJ8Y1TMHX0","either","8","584","","","","","","","0","0","1","0.4393989914","","0.8","0.2","0.4","0.6","","","","","0.4393989914","0.5576212716","0.2865230234","0.5882611891","","","","","","","","","","72","H","0","img/none_selected.jpg","","175","main_expt",""
"","bandit","255","782189","0.0-217.0-0.0","68571403","wem/bandit_party_2","AKQWJ8Y1TMHX0","either","8","717","","","","","","","0","0","1","","0.6313830356","0.8","0.2","0.4","0.6","0.4705173801","0.6230679906","0.3352692614","0.6313830356","","","","","","","","","","","","","","76","L","3","","","176","main_expt",""
"","bandit","256","784098","0.0-218.0-0.0","68571403","wem/bandit_party_2","AKQWJ8Y1TMHX0","either","8","390","","","","","","","0","1","0","","0.3389264817","0.8","0.2","0.4","0.6","0.4698597734","0.6501784685","0.3389264817","0.5531265137","","","","","","","","","","","","","","75","K","2","","","177","main_expt",""
"","bandit","257","787588","0.0-219.0-0.0","68571403","wem/bandit_party_2","AKQWJ8Y1TMHX0","either","8","1966","","","","","","","0","0","1","0.3709673039","","0.8","0.2","0.4","0.6","","","","","0.3570804947","0.6334155083","0.3709673039","0.4621004187","","","","","","","","","","75","K","2","","","178","main_expt",""
"","bandit","258","789738","0.0-220.0-0.0","68571403","wem/bandit_party_2","AKQWJ8Y1TMHX0","either","8","626","","","","","","","0","0","1","0.2940579202","","0.8","0.2","0.4","0.6","","","","","0.3441184995","0.7548338289","0.2940579202","0.512884041","","","","","","","","","","75","K","2","","","179","main_expt",""
"","bandit","259","791692","0.0-221.0-0.0","68571403","wem/bandit_party_2","AKQWJ8Y1TMHX0","either","8","423","","","","","","","0","1","0","","0.8074073351","0.8","0.2","0.4","0.6","0.3646136501","0.8074073351","0.3218724025","0.506744284","","","","","","","","","","","","","","74","J","1","","","180","main_expt",""
"","bandit","260","793830","0.0-222.0-0.0","68571403","wem/bandit_party_2","AKQWJ8Y1TMHX0","either","8","607","","","","","","","0","1","0","","0.780721516","0.8","0.2","0.4","0.6","0.3777688814","0.780721516","0.3633286182","0.4556494723","","","","","","","","","","","","","","74","J","1","","","181","main_expt",""
"","bandit","261","796035","0.0-223.0-0.0","68571403","wem/bandit_party_2","AKQWJ8Y1TMHX0","either","8","670","","","","","","","1","0","0","0.7647415088","","0.8","0.2","0.4","0.6","","","","","0.4578236703","0.7647415088","0.3324048704","0.4494525508","","","","","","","","","","74","J","1","","","182","main_expt",""
"","bandit","262","798387","0.0-224.0-0.0","68571403","wem/bandit_party_2","AKQWJ8Y1TMHX0","either","8","821","","","","","","","0","0","1","0.7349307529","","0.8","0.2","0.4","0.6","","","","","0.4244895098","0.7349307529","0.3092830871","0.5189143621","","","","","","","","","","74","J","1","","","183","main_expt",""
"","bandit","263","800282","0.0-225.0-0.0","68571403","wem/bandit_party_2","AKQWJ8Y1TMHX0","either","8","363","","","","","","","1","0","0","0.8298088288","","0.8","0.2","0.4","0.6","","","","","0.3566779322","0.8298088288","0.3905692936","0.5167606333","","","","","","","","","","74","J","1","","","184","main_expt",""
"","bandit","264","802838","0.0-226.0-0.0","68571403","wem/bandit_party_2","AKQWJ8Y1TMHX0","either","8","1020","","","","","","","1","0","0","0.7894193193","","0.8","0.2","0.4","0.6","","","","","0.3737416658","0.7894193193","0.4626192444","0.5270237034","","","","","","","","","","74","J","1","","","185","main_expt",""
"","bandit","265","805204","0.0-227.0-0.0","68571403","wem/bandit_party_2","AKQWJ8Y1TMHX0","either","8","838","","","","","","","0","1","0","","0.7665022487","0.8","0.2","0.4","0.6","0.3120176694","0.7665022487","0.6061762586","0.5556036571","","","","","","","","","","","","","","74","J","1","","","186","main_expt",""
"","bandit","266","807615","0.0-228.0-0.0","68571403","wem/bandit_party_2","AKQWJ8Y1TMHX0","either","8","870","","","","","","","0","0","1","","0.7394266891","0.8","0.2","0.4","0.6","0.4134691065","0.7394266891","0.530958695","0.5865134094","","","","","","","","","","","","","","74","J","1","","","187","main_expt",""
"","bandit","267","810054","0.0-229.0-0.0","68571403","wem/bandit_party_2","AKQWJ8Y1TMHX0","either","8","917","","","","","","","0","1","0","","0.6567361442","0.8","0.2","0.4","0.6","0.4637770407","0.6567361442","0.380024655","0.5034866795","","","","","","","","","","","","","","74","J","1","","","188","main_expt",""
"","bandit","268","812199","0.0-230.0-0.0","68571403","wem/bandit_party_2","AKQWJ8Y1TMHX0","either","8","607","","","","","","","0","1","0","","0.6572443956","0.8","0.2","0.4","0.6","0.5739034088","0.6572443956","0.4563575644","0.5761715841","","","","","","","","","","","","","","74","J","1","","","189","main_expt",""
"","bandit","269","814926","0.0-231.0-0.0","68571403","wem/bandit_party_2","AKQWJ8Y1TMHX0","either","8","1187","","","","","","","0","1","0","","0.6735764162","0.8","0.2","0.4","0.6","0.5859504021","0.6735764162","0.4540853102","0.5325489933","","","","","","","","","","","","","","74","J","1","","","190","main_expt",""
"","bandit","270","817589","0.0-232.0-0.0","68571403","wem/bandit_party_2","AKQWJ8Y1TMHX0","either","8","1132","","","","","","","0","0","1","","0.5997518312","0.8","0.2","0.4","0.6","0.5325822721","0.5997518312","0.4328006462","0.5614919892","","","","","","","","","","","","","","74","J","1","","","191","main_expt",""
"","bandit","271","820044","0.0-233.0-0.0","68571403","wem/bandit_party_2","AKQWJ8Y1TMHX0","either","8","921","","","","","","","0","0","1","","0.6582178794","0.8","0.2","0.4","0.6","0.4622441745","0.6582178794","0.4979354652","0.5972832049","","","","","","","","","","","","","","74","J","1","","","192","main_expt",""
"","bandit","272","822628","0.0-234.0-0.0","68571403","wem/bandit_party_2","AKQWJ8Y1TMHX0","either","8","1059","","","","","","","0","1","0","","0.7246172867","0.8","0.2","0.4","0.6","0.4765036663","0.7246172867","0.4887187701","0.6997951875","","","","","","","","","","","","","","74","J","1","","","193","main_expt",""
"","bandit","273","825028","0.0-235.0-0.0","68571403","wem/bandit_party_2","AKQWJ8Y1TMHX0","either","8","865","","","","","","","0","0","1","0.7721250451","","0.8","0.2","0.4","0.6","","","","","0.4504155567","0.7721250451","0.4993882896","0.7511051992","","","","","","","","","","74","J","1","","","194","main_expt",""
"","bandit","274","826971","0.0-236.0-0.0","68571403","wem/bandit_party_2","AKQWJ8Y1TMHX0","either","8","407","","","","","","","0","1","0","","0.8366496483","0.8","0.2","0.4","0.6","0.4354252764","0.8366496483","0.5011331455","0.8281457055","","","","","","","","","","","","","","74","J","1","","","195","main_expt",""
"","bandit","275","829149","0.0-237.0-0.0","68571403","wem/bandit_party_2","AKQWJ8Y1TMHX0","either","8","648","","","","","","","0","1","0","","0.8484646997","0.8","0.2","0.4","0.6","0.4170899215","0.8484646997","0.4487960683","0.8248544968","","","","","","","","","","","","","","74","J","1","","","196","main_expt",""
"","bandit","276","831650","0.0-238.0-0.0","68571403","wem/bandit_party_2","AKQWJ8Y1TMHX0","either","8","961","","","","","","","0","1","0","","0.8734060335","0.8","0.2","0.4","0.6","0.4149059055","0.8734060335","0.3975590019","0.8532714289","","","","","","","","","","","","","","74","J","1","","","197","main_expt",""
"","bandit","277","833825","0.0-239.0-0.0","68571403","wem/bandit_party_2","AKQWJ8Y1TMHX0","either","8","636","","","","","","","0","1","0","","0.8515360685","0.8","0.2","0.4","0.6","0.4737306044","0.8515360685","0.4161601929","0.7587337752","","","","","","","","","","","","","","74","J","1","","","198","main_expt",""
"","bandit","278","836053","0.0-240.0-0.0","68571403","wem/bandit_party_2","AKQWJ8Y1TMHX0","either","8","700","","","","","","","0","0","1","","0.8805923715","0.8","0.2","0.4","0.6","0.4541760911","0.8805923715","0.4483979408","0.8124408481","","","","","","","","","","","","","","74","J","1","","","199","main_expt",""
"","bandit","279","838392","0.0-241.0-0.0","68571403","wem/bandit_party_2","AKQWJ8Y1TMHX0","either","8","822","","","","","","","0","1","0","","0.9645818821","0.8","0.2","0.4","0.6","0.3964714959","0.9645818821","0.5303380975","0.7935778268","","","","","","","","","","","","","","74","J","1","","","200","main_expt",""
"","bandit","280","840860","0.0-242.0-0.0","68571403","wem/bandit_party_2","AKQWJ8Y1TMHX0","either","8","938","","","","","","","0","1","0","","0.9689478708","0.8","0.2","0.4","0.6","0.3815447649","0.9689478708","0.4014045657","0.736942723","","","","","","","","","","","","","","74","J","1","","","201","main_expt",""
"","bandit","281","843352","0.0-243.0-0.0","68571403","wem/bandit_party_2","AKQWJ8Y1TMHX0","either","8","955","","","","","","","0","1","0","","0.9678291885","0.8","0.2","0.4","0.6","0.3726367513","0.9678291885","0.5115169607","0.7001951276","","","","","","","","","","","","","","74","J","1","","","202","main_expt",""
"","bandit","282","845684","0.0-244.0-0.0","68571403","wem/bandit_party_2","AKQWJ8Y1TMHX0","either","8","800","","","","","","","0","1","0","","0.9633244117","0.8","0.2","0.4","0.6","0.3062653216","0.9633244117","0.5026191452","0.7209300446","","","","","","","","","","","","","","74","J","1","","","203","main_expt",""
"","bandit","283","847939","0.0-245.0-0.0","68571403","wem/bandit_party_2","AKQWJ8Y1TMHX0","either","8","730","","","","","","","0","0","1","0.9730812582","","0.8","0.2","0.4","0.6","","","","","0.2848501254","0.9730812582","0.4736298566","0.8574132932","","","","","","","","","","74","J","1","","","204","main_expt",""
"","bandit","284","850284","0.0-246.0-0.0","68571403","wem/bandit_party_2","AKQWJ8Y1TMHX0","either","8","814","","","","","","","0","1","0","","0.9521206422","0.8","0.2","0.4","0.6","0.3457586416","0.9521206422","0.6121858428","0.9038760074","","","","","","","","","","","","","","74","J","1","","","205","main_expt",""
"","bandit","285","852394","0.0-247.0-0.0","68571403","wem/bandit_party_2","AKQWJ8Y1TMHX0","either","8","581","","","","","","","0","1","0","","0.9614764056","0.8","0.2","0.4","0.6","0.4609097875","0.9614764056","0.6377028942","0.9273356803","","","","","","","","","","","","","","74","J","1","","","206","main_expt",""
"","bandit","286","854700","0.0-248.0-0.0","68571403","wem/bandit_party_2","AKQWJ8Y1TMHX0","either","8","772","","","","","","","0","1","0","","0.9625830716","0.8","0.2","0.4","0.6","0.4980316736","0.9625830716","0.5700483165","0.9502037039","","","","","","","","","","","","","","74","J","1","","","207","main_expt",""
"","bandit","287","857254","0.0-249.0-0.0","68571403","wem/bandit_party_2","AKQWJ8Y1TMHX0","either","8","1024","","","","","","","0","1","0","","0.9359306517","0.8","0.2","0.4","0.6","0.4537691537","0.9359306517","0.624428721","0.944094639","","","","","","","","","","","","","","74","J","1","","","208","main_expt",""
"","bandit","288","859908","0.0-250.0-0.0","68571403","wem/bandit_party_2","AKQWJ8Y1TMHX0","either","8","1120","","","","","","","1","0","0","0.9632917203","","0.8","0.2","0.4","0.6","","","","","0.4475842875","0.9632917203","0.4861871301","0.9070839441","","","","","","","","","","74","J","1","","","209","main_expt",""
"","bandit","289","862480","0.0-251.0-0.0","68571403","wem/bandit_party_2","AKQWJ8Y1TMHX0","either","8","1042","","","","","","","0","1","0","","0.9633226214","0.8","0.2","0.4","0.6","0.4803454055","0.9633226214","0.3956361612","0.8960653589","","","","","","","","","","","","","","74","J","1","","","210","main_expt",""
"","bandit","290","864978","0.0-252.0-0.0","68571403","wem/bandit_party_2","AKQWJ8Y1TMHX0","either","8","957","","","","","","","1","0","0","0.9719781217","","0.8","0.2","0.4","0.6","","","","","0.4126443349","0.9719781217","0.3599204452","0.9155455821","","","","","","","","","","74","J","1","","","211","main_expt",""
"","bandit","291","867291","0.0-253.0-0.0","68571403","wem/bandit_party_2","AKQWJ8Y1TMHX0","either","8","780","","","","","","","1","0","0","0.9700781686","","0.8","0.2","0.4","0.6","","","","","0.3384802849","0.9700781686","0.3349000901","0.9087954588","","","","","","","","","","74","J","1","","","212","main_expt",""
"","bandit","292","870553","0.0-254.0-0.0","68571403","wem/bandit_party_2","AKQWJ8Y1TMHX0","either","8","1722","","","","","","","0","1","0","","0.971165811","0.8","0.2","0.4","0.6","0.3039242722","0.971165811","0.3183344176","0.8528540962","","","","","","","","","","","","","","74","J","1","","","213","main_expt",""
"","bandit","293","890890","0.0-255.0-0.0","68571403","wem/bandit_party_2","AKQWJ8Y1TMHX0","either","8","18811","","","","","","","0","1","0","","0.9627117","0.8","0.2","0.4","0.6","0.4541530846","0.9627117","0.2390758011","0.8506041988","","","","","","","","","","","","","","74","J","1","","","214","main_expt",""
"","bandit","294","895012","0.0-256.0-0.0","68571403","wem/bandit_party_2","AKQWJ8Y1TMHX0","either","8","2606","","","","","","","0","1","0","","0.9552130497","0.8","0.2","0.4","0.6","0.5101749692","0.9552130497","0.1997060473","0.8001829978","","","","","","","","","","","","","","74","J","1","","","215","main_expt",""
"","bandit","295","897126","0.0-257.0-0.0","68571403","wem/bandit_party_2","AKQWJ8Y1TMHX0","either","8","586","","","","","","","0","0","1","","0.9220350188","0.8","0.2","0.4","0.6","0.5580520347","0.9220350188","0.2326539104","0.733614842","","","","","","","","","","","","","","74","J","1","","","216","main_expt",""
"","bandit","296","899344","0.0-258.0-0.0","68571403","wem/bandit_party_2","AKQWJ8Y1TMHX0","either","8","693","","","","","","","0","1","0","","0.8736667029","0.8","0.2","0.4","0.6","0.4368451062","0.8736667029","0.2319826337","0.7479737912","","","","","","","","","","","","","","74","J","1","","","217","main_expt",""
"","bandit","297","901611","0.0-259.0-0.0","68571403","wem/bandit_party_2","AKQWJ8Y1TMHX0","either","8","738","","","","","","","0","1","0","","0.7602784417","0.8","0.2","0.4","0.6","0.3963441813","0.7602784417","0.3143382807","0.7713398237","","","","","","","","","","","","","","74","J","1","","","218","main_expt",""
"","bandit","298","903681","0.0-260.0-0.0","68571403","wem/bandit_party_2","AKQWJ8Y1TMHX0","either","8","548","","","","","","","1","0","0","0.7643050859","","0.8","0.2","0.4","0.6","","","","","0.4809426617","0.7643050859","0.3304972923","0.8077055691","","","","","","","","","","74","J","1","","","219","main_expt",""
"","bandit","299","906225","0.0-261.0-0.0","68571403","wem/bandit_party_2","AKQWJ8Y1TMHX0","either","8","1021","","","","","","","0","1","0","","0.7793587236","0.8","0.2","0.4","0.6","0.397759556","0.7793587236","0.2866104843","0.7778114837","","","","","","","","","","","","","","74","J","1","","","220","main_expt",""
"","bandit","300","908785","0.0-262.0-0.0","68571403","wem/bandit_party_2","AKQWJ8Y1TMHX0","either","8","1033","","","","","","","0","1","0","","0.82086311","0.8","0.2","0.4","0.6","0.4087677593","0.82086311","0.3602561646","0.7214198583","","","","","","","","","","","","","","74","J","1","","","221","main_expt",""
"","bandit","301","911016","0.0-263.0-0.0","68571403","wem/bandit_party_2","AKQWJ8Y1TMHX0","either","8","692","","","","","","","0","1","0","","0.8543662658","0.8","0.2","0.4","0.6","0.4561280915","0.8543662658","0.3228749062","0.8091526303","","","","","","","","","","","","","","74","J","1","","","222","main_expt",""
"","bandit","302","917944","0.0-264.0-0.0","68571403","wem/bandit_party_2","AKQWJ8Y1TMHX0","either","8","5403","","","","","","","0","1","0","","0.8599459829","0.8","0.2","0.4","0.6","0.4419858618","0.8599459829","0.2549485676","0.8240838469","","","","","","","","","","","","","","74","J","1","","","223","main_expt",""
"","bandit","303","919974","0.0-265.0-0.0","68571403","wem/bandit_party_2","AKQWJ8Y1TMHX0","either","8","489","","","","","","","0","1","0","","0.8747991669","0.8","0.2","0.4","0.6","0.494409337","0.8747991669","0.2389333491","0.7670685714","","","","","","","","","","","","","","74","J","1","","","224","main_expt",""
"","bandit","304","922309","0.0-266.0-0.0","68571403","wem/bandit_party_2","AKQWJ8Y1TMHX0","either","8","805","","","","","","","0","1","0","","0.7910409491","0.8","0.2","0.4","0.6","0.3713348049","0.7910409491","0.1517307125","0.8775689376","","","","","","","","","","","","","","74","J","1","","","225","main_expt",""
"","bandit","305","924165","0.0-267.0-0.0","68571403","wem/bandit_party_2","AKQWJ8Y1TMHX0","either","8","319","","","","","","","0","1","0","","0.7212928749","0.8","0.2","0.4","0.6","0.4013452417","0.7212928749","0.1002450003","0.8846504348","","","","","","","","","","","","","","74","J","1","","","226","main_expt",""
"","bandit","306","926105","0.0-268.0-0.0","68571403","wem/bandit_party_2","AKQWJ8Y1TMHX0","either","8","409","","","","","","","0","1","0","","0.7090989562","0.8","0.2","0.4","0.6","0.393451628","0.7090989562","0.1049945928","0.851087938","","","","","","","","","","","","","","74","J","1","","","227","main_expt",""
"","bandit","307","928419","0.0-269.0-0.0","68571403","wem/bandit_party_2","AKQWJ8Y1TMHX0","either","8","791","","","","","","","0","0","1","0.6606736223","","0.8","0.2","0.4","0.6","","","","","0.4175844788","0.6606736223","0.03915988122","0.9074720337","","","","","","","","","","74","J","1","","","228","main_expt",""
"","bandit","308","930974","0.0-270.0-0.0","68571403","wem/bandit_party_2","AKQWJ8Y1TMHX0","either","8","1023","","","","","","","0","1","0","","0.6893924153","0.8","0.2","0.4","0.6","0.408368909","0.6893924153","0.03767516843","0.872332114","","","","","","","","","","","","","","74","J","1","","","229","main_expt",""
"","bandit","309","933453","0.0-271.0-0.0","68571403","wem/bandit_party_2","AKQWJ8Y1TMHX0","either","8","960","","","","","","","0","1","0","","0.6067604319","0.8","0.2","0.4","0.6","0.4777699032","0.6067604319","0.05804790214","0.7967167456","","","","","","","","","","","","","","74","J","1","","","230","main_expt",""
"","bandit","310","936009","0.0-272.0-0.0","68571403","wem/bandit_party_2","AKQWJ8Y1TMHX0","either","8","1036","","","","","","","0","1","0","","0.5037419277","0.8","0.2","0.4","0.6","0.4935442242","0.5037419277","0.04963095007","0.7760618079","","","","","","","","","","","","","","74","J","1","","","231","main_expt",""
"","bandit","311","938932","0.0-273.0-0.0","68571403","wem/bandit_party_2","AKQWJ8Y1TMHX0","either","8","1388","","","","","","","0","0","1","0.4339479185","","0.8","0.2","0.4","0.6","","","","","0.4889590317","0.4339479185","0.03759782928","0.7765467853","","","","","","","","","","74","J","1","","","232","main_expt",""
"","bandit","312","941815","0.0-274.0-0.0","68571403","wem/bandit_party_2","AKQWJ8Y1TMHX0","either","8","1342","","","","","","","1","0","0","0.4525546635","","0.8","0.2","0.4","0.6","","","","","0.5212294662","0.4525546635","0.03147013274","0.7895219362","","","","","","","","","","74","J","1","","","233","main_expt",""
"","bandit","313","944231","0.0-275.0-0.0","68571403","wem/bandit_party_2","AKQWJ8Y1TMHX0","either","8","886","","","","","","","0","0","1","","0.3680080929","0.8","0.2","0.4","0.6","0.4420617392","0.3680080929","0.03547440544","0.7491899586","","","","","","","","","","","","","","74","J","1","","","234","main_expt",""
"","bandit","314","946629","0.0-276.0-0.0","68571403","wem/bandit_party_2","AKQWJ8Y1TMHX0","either","8","876","","","","","","","0","1","0","","0.3416373547","0.8","0.2","0.4","0.6","0.4816955248","0.3416373547","0.04486782706","0.7397351474","","","","","","","","","","","","","","74","J","1","","","235","main_expt",""
"","bandit","315","948975","0.0-277.0-0.0","68571403","wem/bandit_party_2","AKQWJ8Y1TMHX0","either","8","811","","","","","","","0","0","1","","0.3722877153","0.8","0.2","0.4","0.6","0.3028121716","0.3722877153","0.03122339122","0.6587673302","","","","","","","","","","","","","","74","J","1","","","236","main_expt",""
"","bandit","316","953189","0.0-278.0-0.0","68571403","wem/bandit_party_2","AKQWJ8Y1TMHX0","either","8","2684","","","","","","","0","0","1","","0.04191117605","0.8","0.2","0.4","0.6","0.3802502189","0.3081002542","0.04191117605","0.7534934878","","","","","","","","","","","","","","75","K","2","","","237","main_expt",""
"","bandit","317","955074","0.0-279.0-0.0","68571403","wem/bandit_party_2","AKQWJ8Y1TMHX0","either","8","362","","","","","","","0","0","1","","0.06367740527","0.8","0.2","0.4","0.6","0.4160754302","0.2546656634","0.06367740527","0.8023031038","","","","","","","","","","","","","","75","K","2","","","238","main_expt",""
"","bandit","318","957029","0.0-280.0-0.0","68571403","wem/bandit_party_2","AKQWJ8Y1TMHX0","either","8","418","","","","","","","0","0","1","0.3510440385","","0.8","0.2","0.4","0.6","","","","","0.3510440385","0.3038323055","0.06315957527","0.8333986962","","","","","","","","","","72","H","0","img/none_selected.jpg","","239","main_expt",""
"","bandit","319","959239","0.0-281.0-0.0","68571403","wem/bandit_party_2","AKQWJ8Y1TMHX0","either","8","677","","","","","","","0","0","1","0.291884511","","0.8","0.2","0.4","0.6","","","","","0.4182550587","0.291884511","0.05324295338","0.840768508","","","","","","","","","","74","J","1","","","240","main_expt",""
