"consent","trial_type","trial_index","time_elapsed","internal_node_id","subjID","study","MID","cond","drift","rt","responses","button_pressed","key_press","like","value","connected","gems","bombs","no_reward","GemPrChosen","BombPrChosen","GainOverPainPr_0","GainOverPainPr_1","GainOverPainPr_2","GainOverPainPr_3","LosePr_0","LosePr_1","LosePr_2","LosePr_3","WinPr_0","WinPr_1","WinPr_2","WinPr_3","Q0","Q1","Q2","gender","age","ethnicity","label","expt_phase","target","respCharCode","respKey","respChoiceNum","respChoice","practice","trial_counter","trial_label","Q0_index"
"GDM/GDM_behavioral_consent_30min_online.html","consent","0","15704","0.0-0.0","69669820","wem/bandit_party_2","A3IU1VEGMR0HBC","either","6","","","","","","","","","","","","","","","","","","","","","","","","","","","","","","","","","","","","","","","","",""
"","survey-text","1","21047","0.0-1.0","69669820","wem/bandit_party_2","A3IU1VEGMR0HBC","either","6","4265","{""Q0"":""A3IU1VEGMR0HBC""}","","","","","","","","","","","","","","","","","","","","","","","","","","","","","","","","","","","","","","",""
"","button-response","2","23236","0.0-2.0","69669820","wem/bandit_party_2","A3IU1VEGMR0HBC","either","6","1162","","0","","","","","","","","","","","","","","","","","","","","","","","","","","","","","","","","","","","","","",""
"","text-replacement","3","97457","0.0-3.0","69669820","wem/bandit_party_2","A3IU1VEGMR0HBC","either","6","73199","","","32","","","","","","","","","","","","","","","","","","","","","","","","","","","","","","","","","","","","",""
"","text-replacement","4","102350","0.0-4.0","69669820","wem/bandit_party_2","A3IU1VEGMR0HBC","either","6","4876","","","32","","","","","","","","","","","","","","","","","","","","","","","","","","","","","","","","","","","","",""
"","identification","5","107913","0.0-6.0-0.0","69669820","wem/bandit_party_2","A3IU1VEGMR0HBC","either","6","5436","","","","0","0","0","","","","","","","","","","","","","","","","","","","","","","","","pre","identification_pre","the Democratic Party","","","","","","","",""
"","identification","6","113501","0.0-6.0-1.0","69669820","wem/bandit_party_2","A3IU1VEGMR0HBC","either","6","4480","","","","5","5","5","","","","","","","","","","","","","","","","","","","","","","","","pre","identification_pre","the Republican Party","","","","","","","",""
"","text-replacement","7","118054","0.0-7.0","69669820","wem/bandit_party_2","A3IU1VEGMR0HBC","either","6","3525","","","32","","","","","","","","","","","","","","","","","","","","","","","","","","","","","","","","","","","","",""
"","text-replacement","8","122087","0.0-8.0","69669820","wem/bandit_party_2","A3IU1VEGMR0HBC","either","6","4021","","","32","","","","","","","","","","","","","","","","","","","","","","","","","","","","","","","","","","","","",""
"","text-replacement","9","131879","0.0-9.0","69669820","wem/bandit_party_2","A3IU1VEGMR0HBC","either","6","9779","","","32","","","","","","","","","","","","","","","","","","","","","","","","","","","","","","","","","","","","",""
"","text-replacement","10","134495","0.0-10.0","69669820","wem/bandit_party_2","A3IU1VEGMR0HBC","either","6","2602","","","32","","","","","","","","","","","","","","","","","","","","","","","","","","","","","","","","","","","","",""
"","text-replacement","11","137152","0.0-11.0","69669820","wem/bandit_party_2","A3IU1VEGMR0HBC","either","6","2645","","","32","","","","","","","","","","","","","","","","","","","","","","","","","","","","","","","","","","","","",""
"","bandit","12","142906","0.0-12.0-0.0","69669820","wem/bandit_party_2","A3IU1VEGMR0HBC","either","6","4196","","","","","","","0","0","1","0","0","","","","","0","","","","0","","","","","","","","","","","","","74","J","0","img/none_selected_demo.jpg","true","0","",""
"","bandit","13","146133","0.0-13.0-0.0","69669820","wem/bandit_party_2","A3IU1VEGMR0HBC","either","6","1684","","","","","","","0","0","1","0","0","","","","","0","","","","0","","","","","","","","","","","","","75","K","0","img/none_selected_demo.jpg","true","0","",""
"","text-replacement","14","155662","0.0-14.0","69669820","wem/bandit_party_2","A3IU1VEGMR0HBC","either","6","9517","","","32","","","","","","","","","","","","","","","","","","","","","","","","","","","","","","","","","","","","",""
"","text-replacement","15","161126","0.0-15.0","69669820","wem/bandit_party_2","A3IU1VEGMR0HBC","either","6","5452","","","32","","","","","","","","","","","","","","","","","","","","","","","","","","","","","","","","","","","","",""
"","text-replacement","16","168354","0.0-16.0","69669820","wem/bandit_party_2","A3IU1VEGMR0HBC","either","6","7218","","","32","","","","","","","","","","","","","","","","","","","","","","","","","","","","","","","","","","","","",""
"","text-replacement","17","170662","0.0-17.0","69669820","wem/bandit_party_2","A3IU1VEGMR0HBC","either","6","2298","","","32","","","","","","","","","","","","","","","","","","","","","","","","","","","","","","","","","","","","",""
"","bandit","18","173775","0.0-18.0-0.0","69669820","wem/bandit_party_2","A3IU1VEGMR0HBC","either","6","1556","","","","","","","1","0","0","0.8","","0.5","0.5","","","","","","","0.8","0.2","","","","","","","","","","","","74","J","0","img/none_selected_demo.jpg","true","0","80_20_practice",""
"","bandit","19","176130","0.0-18.0-1.0","69669820","wem/bandit_party_2","A3IU1VEGMR0HBC","either","6","781","","","","","","","0","1","0","","0.8","0.5","0.5","","","0.8","0.2","","","","","","","","","","","","","","","","74","J","0","img/none_selected_demo.jpg","true","0","80_20_practice",""
"","bandit","20","178401","0.0-18.0-2.0","69669820","wem/bandit_party_2","A3IU1VEGMR0HBC","either","6","722","","","","","","","1","0","0","0.8","","0.5","0.5","","","","","","","0.8","0.2","","","","","","","","","","","","74","J","0","img/none_selected_demo.jpg","true","0","80_20_practice",""
"","bandit","21","180477","0.0-18.0-3.0","69669820","wem/bandit_party_2","A3IU1VEGMR0HBC","either","6","523","","","","","","","1","0","0","0.8","","0.5","0.5","","","","","","","0.8","0.2","","","","","","","","","","","","74","J","0","img/none_selected_demo.jpg","true","0","80_20_practice",""
"","bandit","22","182524","0.0-18.0-4.0","69669820","wem/bandit_party_2","A3IU1VEGMR0HBC","either","6","507","","","","","","","0","1","0","","0.8","0.5","0.5","","","0.8","0.2","","","","","","","","","","","","","","","","74","J","0","img/none_selected_demo.jpg","true","0","80_20_practice",""
"","bandit","23","184666","0.0-18.0-5.0","69669820","wem/bandit_party_2","A3IU1VEGMR0HBC","either","6","593","","","","","","","0","1","0","","0.8","0.5","0.5","","","0.8","0.2","","","","","","","","","","","","","","","","74","J","0","img/none_selected_demo.jpg","true","0","80_20_practice",""
"","bandit","24","186871","0.0-18.0-6.0","69669820","wem/bandit_party_2","A3IU1VEGMR0HBC","either","6","651","","","","","","","0","1","0","","0.8","0.5","0.5","","","0.8","0.2","","","","","","","","","","","","","","","","74","J","0","img/none_selected_demo.jpg","true","0","80_20_practice",""
"","bandit","25","189277","0.0-18.0-7.0","69669820","wem/bandit_party_2","A3IU1VEGMR0HBC","either","6","846","","","","","","","0","1","0","","0.8","0.5","0.5","","","0.8","0.2","","","","","","","","","","","","","","","","74","J","0","img/none_selected_demo.jpg","true","0","80_20_practice",""
"","bandit","26","191551","0.0-18.0-8.0","69669820","wem/bandit_party_2","A3IU1VEGMR0HBC","either","6","741","","","","","","","1","0","0","0.8","","0.5","0.5","","","","","","","0.8","0.2","","","","","","","","","","","","74","J","0","img/none_selected_demo.jpg","true","0","80_20_practice",""
"","bandit","27","193639","0.0-18.0-9.0","69669820","wem/bandit_party_2","A3IU1VEGMR0HBC","either","6","525","","","","","","","0","1","0","","0.8","0.5","0.5","","","0.8","0.2","","","","","","","","","","","","","","","","74","J","0","img/none_selected_demo.jpg","true","0","80_20_practice",""
"","bandit","28","195676","0.0-18.0-10.0","69669820","wem/bandit_party_2","A3IU1VEGMR0HBC","either","6","476","","","","","","","0","1","0","","0.8","0.5","0.5","","","0.8","0.2","","","","","","","","","","","","","","","","74","J","0","img/none_selected_demo.jpg","true","0","80_20_practice",""
"","bandit","29","198326","0.0-18.0-11.0","69669820","wem/bandit_party_2","A3IU1VEGMR0HBC","either","6","1086","","","","","","","0","0","1","","0.8","0.5","0.5","","","0.8","0.2","","","","","","","","","","","","","","","","74","J","0","img/none_selected_demo.jpg","true","0","80_20_practice",""
"","bandit","30","200487","0.0-18.0-12.0","69669820","wem/bandit_party_2","A3IU1VEGMR0HBC","either","6","617","","","","","","","0","1","0","","0.8","0.5","0.5","","","0.8","0.2","","","","","","","","","","","","","","","","74","J","0","img/none_selected_demo.jpg","true","0","80_20_practice",""
"","bandit","31","202478","0.0-18.0-13.0","69669820","wem/bandit_party_2","A3IU1VEGMR0HBC","either","6","442","","","","","","","0","0","1","","0.2","0.5","0.5","","","0.8","0.2","","","","","","","","","","","","","","","","75","K","1","","true","0","80_20_practice",""
"","bandit","32","204381","0.0-18.0-14.0","69669820","wem/bandit_party_2","A3IU1VEGMR0HBC","either","6","336","","","","","","","0","0","1","0.2","","0.5","0.5","","","","","","","0.8","0.2","","","","","","","","","","","","75","K","1","","true","0","80_20_practice",""
"","bandit","33","206385","0.0-18.0-15.0","69669820","wem/bandit_party_2","A3IU1VEGMR0HBC","either","6","450","","","","","","","0","0","1","","0.2","0.5","0.5","","","0.8","0.2","","","","","","","","","","","","","","","","75","K","1","","true","0","80_20_practice",""
"","bandit","34","208249","0.0-18.0-16.0","69669820","wem/bandit_party_2","A3IU1VEGMR0HBC","either","6","331","","","","","","","1","0","0","0.8","","0.5","0.5","","","","","","","0.8","0.2","","","","","","","","","","","","74","J","0","img/none_selected_demo.jpg","true","0","80_20_practice",""
"","bandit","35","210092","0.0-18.0-17.0","69669820","wem/bandit_party_2","A3IU1VEGMR0HBC","either","6","297","","","","","","","0","1","0","","0.8","0.5","0.5","","","0.8","0.2","","","","","","","","","","","","","","","","74","J","0","img/none_selected_demo.jpg","true","0","80_20_practice",""
"","bandit","36","211966","0.0-18.0-18.0","69669820","wem/bandit_party_2","A3IU1VEGMR0HBC","either","6","323","","","","","","","0","1","0","","0.8","0.5","0.5","","","0.8","0.2","","","","","","","","","","","","","","","","74","J","0","img/none_selected_demo.jpg","true","0","80_20_practice",""
"","bandit","37","213769","0.0-18.0-19.0","69669820","wem/bandit_party_2","A3IU1VEGMR0HBC","either","6","266","","","","","","","0","0","1","0.8","","0.5","0.5","","","","","","","0.8","0.2","","","","","","","","","","","","74","J","0","img/none_selected_demo.jpg","true","0","80_20_practice",""
"","text-replacement","38","220245","0.0-19.0","69669820","wem/bandit_party_2","A3IU1VEGMR0HBC","either","6","6455","","","32","","","","","","","","","","","","","","","","","","","","","","","","","","","","","","","","","","","","",""
"","bandit","39","222378","0.0-20.0-0.0","69669820","wem/bandit_party_2","A3IU1VEGMR0HBC","either","6","578","","","","","","","1","0","0","1","0","","","","","0","1","","","1","0","","","","","","","","","","","","74","J","0","img/none_selected_demo.jpg","true","0","",""
"","text-replacement","40","226573","0.0-21.0","69669820","wem/bandit_party_2","A3IU1VEGMR0HBC","either","6","4179","","","32","","","","","","","","","","","","","","","","","","","","","","","","","","","","","","","","","","","","",""
"","text-replacement","41","229090","0.0-22.0","69669820","wem/bandit_party_2","A3IU1VEGMR0HBC","either","6","2505","","","32","","","","","","","","","","","","","","","","","","","","","","","","","","","","","","","","","","","","",""
"","text-replacement","42","232005","0.0-23.0","69669820","wem/bandit_party_2","A3IU1VEGMR0HBC","either","6","2906","","","32","","","","","","","","","","","","","","","","","","","","","","","","","","","","","","","","","","","","",""
"","text-replacement","43","237866","0.0-24.0","69669820","wem/bandit_party_2","A3IU1VEGMR0HBC","either","6","5850","","","32","","","","","","","","","","","","","","","","","","","","","","","","","","","","","","","","","","","","",""
"","text-replacement","44","240206","0.0-25.0","69669820","wem/bandit_party_2","A3IU1VEGMR0HBC","either","6","2330","","","32","","","","","","","","","","","","","","","","","","","","","","","","","","","","","","","","","","","","",""
"","text-replacement","45","241661","0.0-26.0","69669820","wem/bandit_party_2","A3IU1VEGMR0HBC","either","6","1441","","","32","","","","","","","","","","","","","","","","","","","","","","","","","","","","","","","","","","","","",""
"","text-replacement","46","244788","0.0-27.0","69669820","wem/bandit_party_2","A3IU1VEGMR0HBC","either","6","3116","","","32","","","","","","","","","","","","","","","","","","","","","","","","","","","","","","","","","","","","",""
"","text-replacement","47","246799","0.0-28.0","69669820","wem/bandit_party_2","A3IU1VEGMR0HBC","either","6","2001","","","32","","","","","","","","","","","","","","","","","","","","","","","","","","","","","","","","","","","","",""
"","text-replacement","48","249684","0.0-29.0","69669820","wem/bandit_party_2","A3IU1VEGMR0HBC","either","6","2871","","","32","","","","","","","","","","","","","","","","","","","","","","","","","","","","","","","","","","","","",""
"","text-replacement","49","251183","0.0-30.0","69669820","wem/bandit_party_2","A3IU1VEGMR0HBC","either","6","1489","","","32","","","","","","","","","","","","","","","","","","","","","","","","","","","","","","","","","","","","",""
"","text-replacement","50","255805","0.0-31.0","69669820","wem/bandit_party_2","A3IU1VEGMR0HBC","either","6","4609","","","32","","","","","","","","","","","","","","","","","","","","","","","","","","","","","","","","","","","","",""
"","bandit","51","257983","0.0-32.0-0.0","69669820","wem/bandit_party_2","A3IU1VEGMR0HBC","either","6","624","","","","","","","0","0","1","","0.2","0.5","0.5","0.5","0.5","0.8","0.2","0.6","0.2","","","","","","","","","","","","","","76","L","3","","true","0","full_practice",""
"","bandit","52","260063","0.0-32.0-1.0","69669820","wem/bandit_party_2","A3IU1VEGMR0HBC","either","6","509","","","","","","","0","1","0","","0.6","0.5","0.5","0.5","0.5","0.8","0.2","0.6","0.2","","","","","","","","","","","","","","75","K","2","","true","0","full_practice",""
"","bandit","53","261899","0.0-32.0-2.0","69669820","wem/bandit_party_2","A3IU1VEGMR0HBC","either","6","280","","","","","","","0","1","0","","0.6","0.5","0.5","0.5","0.5","0.8","0.2","0.6","0.2","","","","","","","","","","","","","","75","K","2","","true","0","full_practice",""
"","bandit","54","263886","0.0-32.0-3.0","69669820","wem/bandit_party_2","A3IU1VEGMR0HBC","either","6","435","","","","","","","0","1","0","","0.6","0.5","0.5","0.5","0.5","0.8","0.2","0.6","0.2","","","","","","","","","","","","","","75","K","2","","true","0","full_practice",""
"","bandit","55","265739","0.0-32.0-4.0","69669820","wem/bandit_party_2","A3IU1VEGMR0HBC","either","6","291","","","","","","","0","0","1","","0.6","0.5","0.5","0.5","0.5","0.8","0.2","0.6","0.2","","","","","","","","","","","","","","75","K","2","","true","0","full_practice",""
"","bandit","56","268288","0.0-32.0-5.0","69669820","wem/bandit_party_2","A3IU1VEGMR0HBC","either","6","998","","","","","","","1","0","0","0.2","","0.5","0.5","0.5","0.5","","","","","0.8","0.2","0.6","0.2","","","","","","","","","","74","J","1","","true","0","full_practice",""
"","bandit","57","271137","0.0-32.0-6.0","69669820","wem/bandit_party_2","A3IU1VEGMR0HBC","either","6","1270","","","","","","","1","0","0","0.2","","0.5","0.5","0.5","0.5","","","","","0.8","0.2","0.6","0.2","","","","","","","","","","74","J","1","","true","0","full_practice",""
"","bandit","58","273169","0.0-32.0-7.0","69669820","wem/bandit_party_2","A3IU1VEGMR0HBC","either","6","476","","","","","","","0","0","1","0.2","","0.5","0.5","0.5","0.5","","","","","0.8","0.2","0.6","0.2","","","","","","","","","","74","J","1","","true","0","full_practice",""
"","bandit","59","275459","0.0-32.0-8.0","69669820","wem/bandit_party_2","A3IU1VEGMR0HBC","either","6","740","","","","","","","0","0","1","0.8","","0.5","0.5","0.5","0.5","","","","","0.8","0.2","0.6","0.2","","","","","","","","","","72","H","0","img/none_selected.jpg","true","0","full_practice",""
"","bandit","60","277568","0.0-32.0-9.0","69669820","wem/bandit_party_2","A3IU1VEGMR0HBC","either","6","570","","","","","","","1","0","0","0.8","","0.5","0.5","0.5","0.5","","","","","0.8","0.2","0.6","0.2","","","","","","","","","","72","H","0","img/none_selected.jpg","true","0","full_practice",""
"","bandit","61","279502","0.0-32.0-10.0","69669820","wem/bandit_party_2","A3IU1VEGMR0HBC","either","6","395","","","","","","","1","0","0","0.8","","0.5","0.5","0.5","0.5","","","","","0.8","0.2","0.6","0.2","","","","","","","","","","72","H","0","img/none_selected.jpg","true","0","full_practice",""
"","bandit","62","281676","0.0-32.0-11.0","69669820","wem/bandit_party_2","A3IU1VEGMR0HBC","either","6","624","","","","","","","0","1","0","","0.8","0.5","0.5","0.5","0.5","0.8","0.2","0.6","0.2","","","","","","","","","","","","","","72","H","0","img/none_selected.jpg","true","0","full_practice",""
"","bandit","63","283832","0.0-32.0-12.0","69669820","wem/bandit_party_2","A3IU1VEGMR0HBC","either","6","593","","","","","","","0","0","1","","0.8","0.5","0.5","0.5","0.5","0.8","0.2","0.6","0.2","","","","","","","","","","","","","","72","H","0","img/none_selected.jpg","true","0","full_practice",""
"","bandit","64","285521","0.0-32.0-13.0","69669820","wem/bandit_party_2","A3IU1VEGMR0HBC","either","6","132","","","","","","","1","0","0","0.8","","0.5","0.5","0.5","0.5","","","","","0.8","0.2","0.6","0.2","","","","","","","","","","72","H","0","img/none_selected.jpg","true","0","full_practice",""
"","bandit","65","288380","0.0-32.0-14.0","69669820","wem/bandit_party_2","A3IU1VEGMR0HBC","either","6","1318","","","","","","","1","0","0","0.8","","0.5","0.5","0.5","0.5","","","","","0.8","0.2","0.6","0.2","","","","","","","","","","72","H","0","img/none_selected.jpg","true","0","full_practice",""
"","bandit","66","291783","0.0-32.0-15.0","69669820","wem/bandit_party_2","A3IU1VEGMR0HBC","either","6","1854","","","","","","","0","1","0","","0.8","0.5","0.5","0.5","0.5","0.8","0.2","0.6","0.2","","","","","","","","","","","","","","72","H","0","img/none_selected.jpg","true","0","full_practice",""
"","bandit","67","293987","0.0-32.0-16.0","69669820","wem/bandit_party_2","A3IU1VEGMR0HBC","either","6","642","","","","","","","0","1","0","","0.8","0.5","0.5","0.5","0.5","0.8","0.2","0.6","0.2","","","","","","","","","","","","","","72","H","0","img/none_selected.jpg","true","0","full_practice",""
"","bandit","68","296247","0.0-32.0-17.0","69669820","wem/bandit_party_2","A3IU1VEGMR0HBC","either","6","692","","","","","","","1","0","0","0.8","","0.5","0.5","0.5","0.5","","","","","0.8","0.2","0.6","0.2","","","","","","","","","","72","H","0","img/none_selected.jpg","true","0","full_practice",""
"","bandit","69","298509","0.0-32.0-18.0","69669820","wem/bandit_party_2","A3IU1VEGMR0HBC","either","6","707","","","","","","","1","0","0","0.8","","0.5","0.5","0.5","0.5","","","","","0.8","0.2","0.6","0.2","","","","","","","","","","72","H","0","img/none_selected.jpg","true","0","full_practice",""
"","bandit","70","300416","0.0-32.0-19.0","69669820","wem/bandit_party_2","A3IU1VEGMR0HBC","either","6","353","","","","","","","0","0","1","0.8","","0.5","0.5","0.5","0.5","","","","","0.8","0.2","0.6","0.2","","","","","","","","","","72","H","0","img/none_selected.jpg","true","0","full_practice",""
"","text","71","303314","0.0-33.0","69669820","wem/bandit_party_2","A3IU1VEGMR0HBC","either","6","2880","","","32","","","","","","","","","","","","","","","","","","","","","","","","","","","","","","","","","","","","",""
"","text-replacement","72","313250","0.0-34.0","69669820","wem/bandit_party_2","A3IU1VEGMR0HBC","either","6","8903","","","32","","","","","","","","","","","","","","","","","","","","","","","","","","","","","","","","","","","","",""
"","text-replacement","73","315221","0.0-35.0","69669820","wem/bandit_party_2","A3IU1VEGMR0HBC","either","6","1960","","","32","","","","","","","","","","","","","","","","","","","","","","","","","","","","","","","","","","","","",""
"","text-replacement","74","318395","0.0-36.0","69669820","wem/bandit_party_2","A3IU1VEGMR0HBC","either","6","3159","","","32","","","","","","","","","","","","","","","","","","","","","","","","","","","","","","","","","","","","",""
"","text-replacement","75","321102","0.0-37.0","69669820","wem/bandit_party_2","A3IU1VEGMR0HBC","either","6","2695","","","32","","","","","","","","","","","","","","","","","","","","","","","","","","","","","","","","","","","","",""
"","text-replacement","76","322746","0.0-38.0","69669820","wem/bandit_party_2","A3IU1VEGMR0HBC","either","6","1631","","","32","","","","","","","","","","","","","","","","","","","","","","","","","","","","","","","","","","","","",""
"","survey-multi-choice-replacement","77","333050","0.0-39.0-0.0","69669820","wem/bandit_party_2","A3IU1VEGMR0HBC","either","6","10252","","","","","","","","","","","","","","","","","","","","","","","","Money will be added to the pool for <span style='color:red;'>REPUBLICANS</span>","","","","","","","attn_check","","","","","","","","","0"
"","survey-multi-choice-replacement","78","338985","0.0-40.0-0.0","69669820","wem/bandit_party_2","A3IU1VEGMR0HBC","either","6","4878","","","","","","","","","","","","","","","","","","","","","","","","Equal amounts of money will be added to the pool for <span style='color:red;'>REPUBLICANS</span> and subtracted from the pool for <span style='color:blue;'>DEMOCRATS</span>","","","","","","","attn_check","","","","","","","","","2"
"","survey-multi-choice-replacement","79","342802","0.0-41.0-0.0","69669820","wem/bandit_party_2","A3IU1VEGMR0HBC","either","6","2740","","","","","","","","","","","","","","","","","","","","","","","","No money will be added to either pool","","","","","","","attn_check","","","","","","","","","3"
"","bandit","80","348175","0.0-42.0-0.0","69669820","wem/bandit_party_2","A3IU1VEGMR0HBC","either","6","2770","","","","","","","0","1","0","","0.2309914537","0.8","0.4","0.2","0.6","0.3049938501","0.2309914537","0.1947351938","0.7197236342","","","","","","","","","","","","","","74","J","1","","","1","main_expt",""
"","bandit","81","350222","0.0-43.0-0.0","69669820","wem/bandit_party_2","A3IU1VEGMR0HBC","either","6","493","","","","","","","0","0","1","0.2351366282","","0.8","0.4","0.2","0.6","","","","","0.3105507028","0.2351366282","0.1865171684","0.7453792406","","","","","","","","","","74","J","1","","","2","main_expt",""
"","bandit","82","351959","0.0-44.0-0.0","69669820","wem/bandit_party_2","A3IU1VEGMR0HBC","either","6","180","","","","","","","0","1","0","","0.3338792953","0.8","0.4","0.2","0.6","0.347932066","0.3338792953","0.1578482069","0.7422746785","","","","","","","","","","","","","","74","J","1","","","3","main_expt",""
"","bandit","83","353944","0.0-45.0-0.0","69669820","wem/bandit_party_2","A3IU1VEGMR0HBC","either","6","436","","","","","","","0","0","1","0.2578124611","","0.8","0.4","0.2","0.6","","","","","0.294099503","0.2578124611","0.1733557992","0.8152876082","","","","","","","","","","74","J","1","","","4","main_expt",""
"","bandit","84","371223","0.0-46.0-0.0","69669820","wem/bandit_party_2","A3IU1VEGMR0HBC","either","6","15719","","","","","","","0","1","0","","0.152782507","0.8","0.4","0.2","0.6","0.256228135","0.152782507","0.1275681293","0.8494846052","","","","","","","","","","","","","","74","J","1","","","5","main_expt",""
"","bandit","85","374125","0.0-47.0-0.0","69669820","wem/bandit_party_2","A3IU1VEGMR0HBC","either","6","1338","","","","","","","0","0","1","","0.1776351543","0.8","0.4","0.2","0.6","0.3142053347","0.200224935","0.1776351543","0.8036792828","","","","","","","","","","","","","","75","K","2","","","6","main_expt",""
"","bandit","86","376188","0.0-48.0-0.0","69669820","wem/bandit_party_2","A3IU1VEGMR0HBC","either","6","495","","","","","","","1","0","0","0.8659664865","","0.8","0.4","0.2","0.6","","","","","0.2382568898","0.2200442108","0.1412615145","0.8659664865","","","","","","","","","","76","L","3","","","7","main_expt",""
"","bandit","87","378220","0.0-49.0-0.0","69669820","wem/bandit_party_2","A3IU1VEGMR0HBC","either","6","465","","","","","","","1","0","0","0.8475436228","","0.8","0.4","0.2","0.6","","","","","0.220471749","0.1516915951","0.1508054742","0.8475436228","","","","","","","","","","76","L","3","","","8","main_expt",""
"","bandit","88","380243","0.0-50.0-0.0","69669820","wem/bandit_party_2","A3IU1VEGMR0HBC","either","6","459","","","","","","","1","0","0","0.8034999265","","0.8","0.4","0.2","0.6","","","","","0.2842820234","0.1468829212","0.1882404854","0.8034999265","","","","","","","","","","76","L","3","","","9","main_expt",""
"","bandit","89","381965","0.0-51.0-0.0","69669820","wem/bandit_party_2","A3IU1VEGMR0HBC","either","6","160","","","","","","","0","0","1","0.7148412232","","0.8","0.4","0.2","0.6","","","","","0.3392415315","0.1507643719","0.1731305678","0.7148412232","","","","","","","","","","76","L","3","","","10","main_expt",""
"","bandit","90","385809","0.0-52.0-0.0","69669820","wem/bandit_party_2","A3IU1VEGMR0HBC","either","6","2277","","","","","","","1","0","0","0.7213030285","","0.8","0.4","0.2","0.6","","","","","0.4470346709","0.18301","0.2475279461","0.7213030285","","","","","","","","","","76","L","3","","","11","main_expt",""
"","bandit","91","401779","0.0-53.0-0.0","69669820","wem/bandit_party_2","A3IU1VEGMR0HBC","either","6","14393","","","","","","","1","0","0","0.7396148754","","0.8","0.4","0.2","0.6","","","","","0.5143820195","0.209562337","0.2068792089","0.7396148754","","","","","","","","","","76","L","3","","","12","main_expt",""
"","bandit","92","403945","0.0-54.0-0.0","69669820","wem/bandit_party_2","A3IU1VEGMR0HBC","either","6","624","","","","","","","0","1","0","","0.6870781676","0.8","0.4","0.2","0.6","0.4934308908","0.2133897639","0.1594062408","0.6870781676","","","","","","","","","","","","","","76","L","3","","","13","main_expt",""
"","bandit","93","405550","0.0-55.0-0.0","69669820","wem/bandit_party_2","A3IU1VEGMR0HBC","either","6","41","","","","","","","1","0","0","0.6561171826","","0.8","0.4","0.2","0.6","","","","","0.5884397519","0.1865122749","0.1808320347","0.6561171826","","","","","","","","","","76","L","3","","","14","main_expt",""
"","bandit","94","408756","0.0-56.0-0.0","69669820","wem/bandit_party_2","A3IU1VEGMR0HBC","either","6","1650","","","","","","","0","1","0","","0.6255101569","0.8","0.4","0.2","0.6","0.425765204","0.3169691733","0.2401125286","0.6255101569","","","","","","","","","","","","","","76","L","3","","","15","main_expt",""
"","bandit","95","411064","0.0-57.0-0.0","69669820","wem/bandit_party_2","A3IU1VEGMR0HBC","either","6","767","","","","","","","0","1","0","","0.6101220295","0.8","0.4","0.2","0.6","0.4458974369","0.3927767979","0.1823220599","0.6101220295","","","","","","","","","","","","","","76","L","3","","","16","main_expt",""
"","bandit","96","412766","0.0-58.0-0.0","69669820","wem/bandit_party_2","A3IU1VEGMR0HBC","either","6","139","","","","","","","1","0","0","0.6233337625","","0.8","0.4","0.2","0.6","","","","","0.4907358526","0.2882183284","0.2076179308","0.6233337625","","","","","","","","","","76","L","3","","","17","main_expt",""
"","bandit","97","431880","0.0-59.0-0.0","69669820","wem/bandit_party_2","A3IU1VEGMR0HBC","either","6","17536","","","","","","","0","0","1","","0.598865074","0.8","0.4","0.2","0.6","0.4895096529","0.3212622409","0.2310064443","0.598865074","","","","","","","","","","","","","","76","L","3","","","18","main_expt",""
"","bandit","98","433551","0.0-60.0-0.0","69669820","wem/bandit_party_2","A3IU1VEGMR0HBC","either","6","117","","","","","","","0","0","1","","0.1919199612","0.8","0.4","0.2","0.6","0.5437378015","0.3678238944","0.1919199612","0.6318918302","","","","","","","","","","","","","","75","K","2","","","19","main_expt",""
"","bandit","99","435856","0.0-61.0-0.0","69669820","wem/bandit_party_2","A3IU1VEGMR0HBC","either","6","758","","","","","","","0","0","1","0.4357360734","","0.8","0.4","0.2","0.6","","","","","0.543071052","0.4357360734","0.2150176637","0.5667690756","","","","","","","","","","74","J","1","","","20","main_expt",""
"","bandit","100","439212","0.0-62.0-0.0","69669820","wem/bandit_party_2","A3IU1VEGMR0HBC","either","6","1813","","","","","","","0","0","1","0.5457928974","","0.8","0.4","0.2","0.6","","","","","0.5457928974","0.4486518506","0.2980309021","0.6364396753","","","","","","","","","","72","H","0","img/none_selected.jpg","","21","main_expt",""
"","bandit","101","441549","0.0-63.0-0.0","69669820","wem/bandit_party_2","A3IU1VEGMR0HBC","either","6","787","","","","","","","0","1","0","","0.4531799458","0.8","0.4","0.2","0.6","0.4531799458","0.5145372488","0.3238742104","0.5563436533","","","","","","","","","","","","","","72","H","0","img/none_selected.jpg","","22","main_expt",""
"","bandit","102","472846","0.0-64.0-0.0","69669820","wem/bandit_party_2","A3IU1VEGMR0HBC","either","6","29754","","","","","","","1","0","0","0.4321579995","","0.8","0.4","0.2","0.6","","","","","0.4321579995","0.6324996067","0.4158928209","0.4555064456","","","","","","","","","","72","H","0","img/none_selected.jpg","","23","main_expt",""
"","bandit","103","475470","0.0-65.0-0.0","69669820","wem/bandit_party_2","A3IU1VEGMR0HBC","either","6","1066","","","","","","","1","0","0","0.3892872195","","0.8","0.4","0.2","0.6","","","","","0.3892872195","0.6665025749","0.2798670784","0.4398961724","","","","","","","","","","72","H","0","img/none_selected.jpg","","24","main_expt",""
"","bandit","104","477642","0.0-66.0-0.0","69669820","wem/bandit_party_2","A3IU1VEGMR0HBC","either","6","601","","","","","","","0","0","1","0.4322880781","","0.8","0.4","0.2","0.6","","","","","0.4322880781","0.5316582614","0.3932164435","0.3810464824","","","","","","","","","","72","H","0","img/none_selected.jpg","","25","main_expt",""
"","bandit","105","479894","0.0-67.0-0.0","69669820","wem/bandit_party_2","A3IU1VEGMR0HBC","either","6","696","","","","","","","0","0","1","0.4560392573","","0.8","0.4","0.2","0.6","","","","","0.4560392573","0.4282094451","0.3243459504","0.451695138","","","","","","","","","","72","H","0","img/none_selected.jpg","","26","main_expt",""
"","bandit","106","482143","0.0-68.0-0.0","69669820","wem/bandit_party_2","A3IU1VEGMR0HBC","either","6","694","","","","","","","0","1","0","","0.4711380508","0.8","0.4","0.2","0.6","0.5372901799","0.4711380508","0.4266302179","0.4423729324","","","","","","","","","","","","","","74","J","1","","","27","main_expt",""
"","bandit","107","484074","0.0-69.0-0.0","69669820","wem/bandit_party_2","A3IU1VEGMR0HBC","either","6","381","","","","","","","0","0","1","","0.4539290932","0.8","0.4","0.2","0.6","0.6619872032","0.4539290932","0.4206607535","0.4221124674","","","","","","","","","","","","","","74","J","1","","","28","main_expt",""
"","bandit","108","497391","0.0-70.0-0.0","69669820","wem/bandit_party_2","A3IU1VEGMR0HBC","either","6","11774","","","","","","","0","0","1","","0.440099583","0.8","0.4","0.2","0.6","0.5939885142","0.4378511583","0.440099583","0.489207998","","","","","","","","","","","","","","75","K","2","","","29","main_expt",""
"","bandit","109","499310","0.0-71.0-0.0","69669820","wem/bandit_party_2","A3IU1VEGMR0HBC","either","6","362","","","","","","","0","0","1","0.4406356357","","0.8","0.4","0.2","0.6","","","","","0.5602145404","0.3425428874","0.3982168329","0.4406356357","","","","","","","","","","76","L","3","","","30","main_expt",""
"","bandit","110","502544","0.0-72.0-0.0","69669820","wem/bandit_party_2","A3IU1VEGMR0HBC","either","6","1689","","","","","","","1","0","0","0.484130952","","0.8","0.4","0.2","0.6","","","","","0.5376870091","0.2354865125","0.3573437221","0.484130952","","","","","","","","","","76","L","3","","","31","main_expt",""
"","bandit","111","504138","0.0-73.0-0.0","69669820","wem/bandit_party_2","A3IU1VEGMR0HBC","either","6","42","","","","","","","1","0","0","0.432294219","","0.8","0.4","0.2","0.6","","","","","0.6346195819","0.2552437171","0.3712986889","0.432294219","","","","","","","","","","76","L","3","","","32","main_expt",""
"","bandit","112","506044","0.0-74.0-0.0","69669820","wem/bandit_party_2","A3IU1VEGMR0HBC","either","6","317","","","","","","","0","1","0","","0.4821309474","0.8","0.4","0.2","0.6","0.7540961955","0.2470382599","0.45096985","0.4821309474","","","","","","","","","","","","","","76","L","3","","","33","main_expt",""
"","bandit","113","508394","0.0-75.0-0.0","69669820","wem/bandit_party_2","A3IU1VEGMR0HBC","either","6","783","","","","","","","0","0","1","0.4702474349","","0.8","0.4","0.2","0.6","","","","","0.699797925","0.2951894024","0.5559331637","0.4702474349","","","","","","","","","","76","L","3","","","34","main_expt",""
"","bandit","114","510702","0.0-76.0-0.0","69669820","wem/bandit_party_2","A3IU1VEGMR0HBC","either","6","750","","","","","","","0","1","0","","0.5363697359","0.8","0.4","0.2","0.6","0.7410295452","0.2596626779","0.7354386419","0.5363697359","","","","","","","","","","","","","","76","L","3","","","35","main_expt",""
"","bandit","115","515454","0.0-77.0-0.0","69669820","wem/bandit_party_2","A3IU1VEGMR0HBC","either","6","3190","","","","","","","1","0","0","0.602250539","","0.8","0.4","0.2","0.6","","","","","0.7332281969","0.3164764808","0.6934166837","0.602250539","","","","","","","","","","76","L","3","","","36","main_expt",""
"","bandit","116","517015","0.0-78.0-0.0","69669820","wem/bandit_party_2","A3IU1VEGMR0HBC","either","6","5","","","","","","","0","0","1","0.5337433964","","0.8","0.4","0.2","0.6","","","","","0.736713329","0.3672962009","0.6311869688","0.5337433964","","","","","","","","","","76","L","3","","","37","main_expt",""
"","bandit","117","518905","0.0-79.0-0.0","69669820","wem/bandit_party_2","A3IU1VEGMR0HBC","either","6","344","","","","","","","0","0","1","0.5970413872","","0.8","0.4","0.2","0.6","","","","","0.6860808007","0.4056598401","0.6583504975","0.5970413872","","","","","","","","","","76","L","3","","","38","main_expt",""
"","bandit","118","520762","0.0-80.0-0.0","69669820","wem/bandit_party_2","A3IU1VEGMR0HBC","either","6","275","","","","","","","0","1","0","","0.5861321806","0.8","0.4","0.2","0.6","0.7498761973","0.4236995386","0.5861321806","0.6529448079","","","","","","","","","","","","","","75","K","2","","","39","main_expt",""
"","bandit","119","624885","0.0-81.0-0.0","69669820","wem/bandit_party_2","A3IU1VEGMR0HBC","either","6","102534","","","","","","","1","0","0","0.4365163158","","0.8","0.4","0.2","0.6","","","","","0.7043283504","0.4365163158","0.4892836735","0.6612991154","","","","","","","","","","74","J","1","","","40","main_expt",""
"","bandit","120","678833","0.0-82.0-0.0","69669820","wem/bandit_party_2","A3IU1VEGMR0HBC","either","6","52392","","","","","","","0","0","1","0.7390431107","","0.8","0.4","0.2","0.6","","","","","0.6469690382","0.4854269132","0.3479900608","0.7390431107","","","","","","","","","","76","L","3","","","41","main_expt",""
"","bandit","121","689539","0.0-83.0-0.0","69669820","wem/bandit_party_2","A3IU1VEGMR0HBC","either","6","9162","","","","","","","0","0","1","","0.376709287","0.8","0.4","0.2","0.6","0.6388905256","0.4753587859","0.376709287","0.7609423287","","","","","","","","","","","","","","75","K","2","","","42","main_expt",""
"","bandit","122","691612","0.0-84.0-0.0","69669820","wem/bandit_party_2","A3IU1VEGMR0HBC","either","6","517","","","","","","","0","1","0","","0.4319300722","0.8","0.4","0.2","0.6","0.6383372244","0.452202747","0.4319300722","0.8039673949","","","","","","","","","","","","","","75","K","2","","","43","main_expt",""
"","bandit","123","693696","0.0-85.0-0.0","69669820","wem/bandit_party_2","A3IU1VEGMR0HBC","either","6","541","","","","","","","0","0","1","0.4458636389","","0.8","0.4","0.2","0.6","","","","","0.6247854939","0.5522191005","0.4458636389","0.8216753652","","","","","","","","","","75","K","2","","","44","main_expt",""
"","bandit","124","695704","0.0-86.0-0.0","69669820","wem/bandit_party_2","A3IU1VEGMR0HBC","either","6","464","","","","","","","0","1","0","","0.4323480181","0.8","0.4","0.2","0.6","0.6341880498","0.4878962787","0.4323480181","0.7636866317","","","","","","","","","","","","","","75","K","2","","","45","main_expt",""
"","bandit","125","697789","0.0-87.0-0.0","69669820","wem/bandit_party_2","A3IU1VEGMR0HBC","either","6","518","","","","","","","0","0","1","","0.4348202433","0.8","0.4","0.2","0.6","0.5081310512","0.487595293","0.4348202433","0.8203755575","","","","","","","","","","","","","","75","K","2","","","46","main_expt",""
"","bandit","126","699381","0.0-88.0-0.0","69669820","wem/bandit_party_2","A3IU1VEGMR0HBC","either","6","42","","","","","","","0","0","1","0.3430847618","","0.8","0.4","0.2","0.6","","","","","0.4202927251","0.444754188","0.3430847618","0.8706375764","","","","","","","","","","75","K","2","","","47","main_expt",""
"","bandit","127","743079","0.0-89.0-0.0","69669820","wem/bandit_party_2","A3IU1VEGMR0HBC","either","6","42121","","","","","","","0","1","0","","0.8019506245","0.8","0.4","0.2","0.6","0.4767868938","0.5044276746","0.2601977795","0.8019506245","","","","","","","","","","","","","","76","L","3","","","48","main_expt",""
"","bandit","128","749712","0.0-90.0-0.0","69669820","wem/bandit_party_2","A3IU1VEGMR0HBC","either","6","5069","","","","","","","0","1","0","","0.7331224435","0.8","0.4","0.2","0.6","0.3749468019","0.3766714482","0.2368144698","0.7331224435","","","","","","","","","","","","","","76","L","3","","","49","main_expt",""
"","bandit","129","751879","0.0-91.0-0.0","69669820","wem/bandit_party_2","A3IU1VEGMR0HBC","either","6","612","","","","","","","0","1","0","","0.2484527115","0.8","0.4","0.2","0.6","0.3532902347","0.406992786","0.2484527115","0.7908344101","","","","","","","","","","","","","","75","K","2","","","50","main_expt",""
"","bandit","130","755108","0.0-92.0-0.0","69669820","wem/bandit_party_2","A3IU1VEGMR0HBC","either","6","1686","","","","","","","1","0","0","0.7922828235","","0.8","0.4","0.2","0.6","","","","","0.2413466802","0.3854505747","0.230268934","0.7922828235","","","","","","","","","","76","L","3","","","51","main_expt",""
"","bandit","131","758733","0.0-93.0-0.0","69669820","wem/bandit_party_2","A3IU1VEGMR0HBC","either","6","2053","","","","","","","0","0","1","","0.3956915145","0.8","0.4","0.2","0.6","0.2673723166","0.3956915145","0.3429002399","0.7485378942","","","","","","","","","","","","","","74","J","1","","","52","main_expt",""
"","bandit","132","760961","0.0-94.0-0.0","69669820","wem/bandit_party_2","A3IU1VEGMR0HBC","either","6","645","","","","","","","1","0","0","0.2806035608","","0.8","0.4","0.2","0.6","","","","","0.2806035608","0.3062348001","0.2871029552","0.6603794952","","","","","","","","","","72","H","0","img/none_selected.jpg","","53","main_expt",""
"","bandit","133","764984","0.0-95.0-0.0","69669820","wem/bandit_party_2","A3IU1VEGMR0HBC","either","6","2442","","","","","","","0","0","1","0.2544312064","","0.8","0.4","0.2","0.6","","","","","0.2544312064","0.2996500993","0.2594444468","0.6931449795","","","","","","","","","","72","H","0","img/none_selected.jpg","","54","main_expt",""
"","bandit","134","767367","0.0-96.0-0.0","69669820","wem/bandit_party_2","A3IU1VEGMR0HBC","either","6","814","","","","","","","0","1","0","","0.3362815808","0.8","0.4","0.2","0.6","0.3362815808","0.2518247787","0.3333749245","0.7553272845","","","","","","","","","","","","","","72","H","0","img/none_selected.jpg","","55","main_expt",""
"","bandit","135","769613","0.0-97.0-0.0","69669820","wem/bandit_party_2","A3IU1VEGMR0HBC","either","6","692","","","","","","","1","0","0","0.3798256012","","0.8","0.4","0.2","0.6","","","","","0.3798256012","0.3014763065","0.3049104067","0.7231548626","","","","","","","","","","72","H","0","img/none_selected.jpg","","56","main_expt",""
"","bandit","136","772339","0.0-98.0-0.0","69669820","wem/bandit_party_2","A3IU1VEGMR0HBC","either","6","1156","","","","","","","0","0","1","0.3989549393","","0.8","0.4","0.2","0.6","","","","","0.3989549393","0.2730843718","0.3623273811","0.7485901337","","","","","","","","","","72","H","0","img/none_selected.jpg","","57","main_expt",""
"","bandit","137","774222","0.0-99.0-0.0","69669820","wem/bandit_party_2","A3IU1VEGMR0HBC","either","6","302","","","","","","","0","1","0","","0.3373398956","0.8","0.4","0.2","0.6","0.3373398956","0.367239041","0.3621169042","0.797082508","","","","","","","","","","","","","","72","H","0","img/none_selected.jpg","","58","main_expt",""
"","bandit","138","777074","0.0-100.0-0.0","69669820","wem/bandit_party_2","A3IU1VEGMR0HBC","either","6","1297","","","","","","","0","1","0","","0.3381045731","0.8","0.4","0.2","0.6","0.3381045731","0.4005220403","0.3672848169","0.7466963627","","","","","","","","","","","","","","72","H","0","img/none_selected.jpg","","59","main_expt",""
"","bandit","139","780336","0.0-101.0-0.0","69669820","wem/bandit_party_2","A3IU1VEGMR0HBC","either","6","1693","","","","","","","1","0","0","0.4838111383","","0.8","0.4","0.2","0.6","","","","","0.4838111383","0.4863912708","0.5123874715","0.6359615323","","","","","","","","","","72","H","0","img/none_selected.jpg","","60","main_expt",""
"","bandit","140","783057","0.0-102.0-0.0","69669820","wem/bandit_party_2","A3IU1VEGMR0HBC","either","6","1145","","","","","","","0","0","1","","0.4290776342","0.8","0.4","0.2","0.6","0.4290776342","0.5220595343","0.5218319631","0.7125939799","","","","","","","","","","","","","","72","H","0","img/none_selected.jpg","","61","main_expt",""
"","bandit","141","784895","0.0-103.0-0.0","69669820","wem/bandit_party_2","A3IU1VEGMR0HBC","either","6","280","","","","","","","0","0","1","0.4387439774","","0.8","0.4","0.2","0.6","","","","","0.4387439774","0.5447889898","0.6482151027","0.5978650666","","","","","","","","","","72","H","0","img/none_selected.jpg","","62","main_expt",""
"","bandit","142","786499","0.0-104.0-0.0","69669820","wem/bandit_party_2","A3IU1VEGMR0HBC","either","6","45","","","","","","","0","0","1","0.3670418014","","0.8","0.4","0.2","0.6","","","","","0.3670418014","0.5517390004","0.6966290852","0.5166338879","","","","","","","","","","72","H","0","img/none_selected.jpg","","63","main_expt",""
"","bandit","143","790577","0.0-105.0-0.0","69669820","wem/bandit_party_2","A3IU1VEGMR0HBC","either","6","2519","","","","","","","0","0","1","0.3470393933","","0.8","0.4","0.2","0.6","","","","","0.3470393933","0.6576188384","0.6497033777","0.4901650138","","","","","","","","","","72","H","0","img/none_selected.jpg","","64","main_expt",""
"","bandit","144","797006","0.0-106.0-0.0","69669820","wem/bandit_party_2","A3IU1VEGMR0HBC","either","6","4870","","","","","","","1","0","0","0.3361574661","","0.8","0.4","0.2","0.6","","","","","0.3361574661","0.5156176703","0.6925184903","0.459365688","","","","","","","","","","72","H","0","img/none_selected.jpg","","65","main_expt",""
"","bandit","145","802462","0.0-107.0-0.0","69669820","wem/bandit_party_2","A3IU1VEGMR0HBC","either","6","3899","","","","","","","0","0","1","0.34308242","","0.8","0.4","0.2","0.6","","","","","0.34308242","0.3851410914","0.8298767513","0.4666104807","","","","","","","","","","72","H","0","img/none_selected.jpg","","66","main_expt",""
"","bandit","146","815550","0.0-108.0-0.0","69669820","wem/bandit_party_2","A3IU1VEGMR0HBC","either","6","11533","","","","","","","1","0","0","0.3730603492","","0.8","0.4","0.2","0.6","","","","","0.3730603492","0.3925250542","0.8506596021","0.5547259005","","","","","","","","","","72","H","0","img/none_selected.jpg","","67","main_expt",""
"","bandit","147","818929","0.0-109.0-0.0","69669820","wem/bandit_party_2","A3IU1VEGMR0HBC","either","6","1830","","","","","","","0","0","1","0.4089949532","","0.8","0.4","0.2","0.6","","","","","0.4089949532","0.3884113518","0.8536910832","0.6038719492","","","","","","","","","","72","H","0","img/none_selected.jpg","","68","main_expt",""
"","bandit","148","820895","0.0-110.0-0.0","69669820","wem/bandit_party_2","A3IU1VEGMR0HBC","either","6","395","","","","","","","0","0","1","0.3749002533","","0.8","0.4","0.2","0.6","","","","","0.3749002533","0.3434478979","0.8642538991","0.6148283845","","","","","","","","","","72","H","0","img/none_selected.jpg","","69","main_expt",""
"","bandit","149","824157","0.0-111.0-0.0","69669820","wem/bandit_party_2","A3IU1VEGMR0HBC","either","6","1701","","","","","","","0","0","1","0.4426642051","","0.8","0.4","0.2","0.6","","","","","0.4133869845","0.4426642051","0.8073802352","0.6683283761","","","","","","","","","","74","J","1","","","70","main_expt",""
"","bandit","150","827363","0.0-112.0-0.0","69669820","wem/bandit_party_2","A3IU1VEGMR0HBC","either","6","1631","","","","","","","0","0","1","","0.4518046004","0.8","0.4","0.2","0.6","0.3302164541","0.4518046004","0.8059201048","0.738459761","","","","","","","","","","","","","","74","J","1","","","71","main_expt",""
"","bandit","151","829068","0.0-113.0-0.0","69669820","wem/bandit_party_2","A3IU1VEGMR0HBC","either","6","149","","","","","","","0","0","1","","0.4903223245","0.8","0.4","0.2","0.6","0.2570952275","0.4903223245","0.8262275011","0.6525166508","","","","","","","","","","","","","","74","J","1","","","72","main_expt",""
"","bandit","152","832106","0.0-114.0-0.0","69669820","wem/bandit_party_2","A3IU1VEGMR0HBC","either","6","1482","","","","","","","0","1","0","","0.5296083002","0.8","0.4","0.2","0.6","0.2042885023","0.5296083002","0.7334390718","0.5715134512","","","","","","","","","","","","","","74","J","1","","","73","main_expt",""
"","bandit","153","834681","0.0-115.0-0.0","69669820","wem/bandit_party_2","A3IU1VEGMR0HBC","either","6","1009","","","","","","","0","0","1","","0.4883026933","0.8","0.4","0.2","0.6","0.2152837516","0.4883026933","0.7490977197","0.6228045854","","","","","","","","","","","","","","74","J","1","","","74","main_expt",""
"","bandit","154","837317","0.0-116.0-0.0","69669820","wem/bandit_party_2","A3IU1VEGMR0HBC","either","6","1070","","","","","","","0","1","0","","0.7554087461","0.8","0.4","0.2","0.6","0.2044775694","0.4914171484","0.7554087461","0.613630376","","","","","","","","","","","","","","75","K","2","","","75","main_expt",""
"","bandit","155","839477","0.0-117.0-0.0","69669820","wem/bandit_party_2","A3IU1VEGMR0HBC","either","6","582","","","","","","","0","1","0","","0.804443878","0.8","0.4","0.2","0.6","0.2247613499","0.6059218973","0.804443878","0.7047266053","","","","","","","","","","","","","","75","K","2","","","76","main_expt",""
"","bandit","156","841355","0.0-118.0-0.0","69669820","wem/bandit_party_2","A3IU1VEGMR0HBC","either","6","298","","","","","","","0","0","1","","0.6656620098","0.8","0.4","0.2","0.6","0.2266335256","0.553792366","0.6656620098","0.6910360943","","","","","","","","","","","","","","75","K","2","","","77","main_expt",""
"","bandit","157","843971","0.0-119.0-0.0","69669820","wem/bandit_party_2","A3IU1VEGMR0HBC","either","6","1062","","","","","","","0","1","0","","0.5898140708","0.8","0.4","0.2","0.6","0.1659731505","0.6884193839","0.5898140708","0.5515992215","","","","","","","","","","","","","","75","K","2","","","78","main_expt",""
"","bandit","158","846222","0.0-120.0-0.0","69669820","wem/bandit_party_2","A3IU1VEGMR0HBC","either","6","696","","","","","","","0","1","0","","0.6448399581","0.8","0.4","0.2","0.6","0.2343921172","0.7214277645","0.613215191","0.6448399581","","","","","","","","","","","","","","76","L","3","","","79","main_expt",""
"","bandit","159","847803","0.0-121.0-0.0","69669820","wem/bandit_party_2","A3IU1VEGMR0HBC","either","6","27","","","","","","","1","0","0","0.739479497","","0.8","0.4","0.2","0.6","","","","","0.2164054515","0.7328142644","0.4605925783","0.739479497","","","","","","","","","","76","L","3","","","80","main_expt",""
"","bandit","160","850957","0.0-122.0-0.0","69669820","wem/bandit_party_2","A3IU1VEGMR0HBC","either","6","1582","","","","","","","0","0","1","0.6956071838","","0.8","0.4","0.2","0.6","","","","","0.1361232007","0.7101675561","0.5390789087","0.6956071838","","","","","","","","","","76","L","3","","","81","main_expt",""
"","bandit","161","854150","0.0-123.0-0.0","69669820","wem/bandit_party_2","A3IU1VEGMR0HBC","either","6","1644","","","","","","","0","0","1","","0.5886517937","0.8","0.4","0.2","0.6","0.2275447725","0.6984384541","0.621290364","0.5886517937","","","","","","","","","","","","","","76","L","3","","","82","main_expt",""
"","bandit","162","856756","0.0-124.0-0.0","69669820","wem/bandit_party_2","A3IU1VEGMR0HBC","either","6","1049","","","","","","","0","1","0","","0.6359424421","0.8","0.4","0.2","0.6","0.1900607051","0.7447883659","0.6359424421","0.4764182235","","","","","","","","","","","","","","75","K","2","","","83","main_expt",""
"","bandit","163","859247","0.0-125.0-0.0","69669820","wem/bandit_party_2","A3IU1VEGMR0HBC","either","6","926","","","","","","","0","0","1","0.6133664729","","0.8","0.4","0.2","0.6","","","","","0.1306868958","0.6900592863","0.6133664729","0.5149027494","","","","","","","","","","75","K","2","","","84","main_expt",""
"","bandit","164","861362","0.0-126.0-0.0","69669820","wem/bandit_party_2","A3IU1VEGMR0HBC","either","6","551","","","","","","","0","1","0","","0.7815463305","0.8","0.4","0.2","0.6","0.1683201849","0.7010597455","0.7815463305","0.4908067213","","","","","","","","","","","","","","75","K","2","","","85","main_expt",""
"","bandit","165","863373","0.0-127.0-0.0","69669820","wem/bandit_party_2","A3IU1VEGMR0HBC","either","6","447","","","","","","","1","0","0","0.7355789231","","0.8","0.4","0.2","0.6","","","","","0.1290314955","0.6171062652","0.7355789231","0.4139472458","","","","","","","","","","75","K","2","","","86","main_expt",""
"","bandit","166","865495","0.0-128.0-0.0","69669820","wem/bandit_party_2","A3IU1VEGMR0HBC","either","6","537","","","","","","","0","1","0","","0.7267399876","0.8","0.4","0.2","0.6","0.2297537383","0.5629375242","0.7267399876","0.4253818619","","","","","","","","","","","","","","75","K","2","","","87","main_expt",""
"","bandit","167","867667","0.0-129.0-0.0","69669820","wem/bandit_party_2","A3IU1VEGMR0HBC","either","6","625","","","","","","","1","0","0","0.7703195612","","0.8","0.4","0.2","0.6","","","","","0.1878263516","0.6434443074","0.7703195612","0.4448862761","","","","","","","","","","75","K","2","","","88","main_expt",""
"","bandit","168","869875","0.0-130.0-0.0","69669820","wem/bandit_party_2","A3IU1VEGMR0HBC","either","6","627","","","","","","","0","1","0","","0.81872988","0.8","0.4","0.2","0.6","0.1896964823","0.7296698787","0.81872988","0.4295642349","","","","","","","","","","","","","","75","K","2","","","89","main_expt",""
"","bandit","169","872099","0.0-131.0-0.0","69669820","wem/bandit_party_2","A3IU1VEGMR0HBC","either","6","650","","","","","","","1","0","0","0.8032570632","","0.8","0.4","0.2","0.6","","","","","0.1614970172","0.7042864347","0.8032570632","0.3655203192","","","","","","","","","","75","K","2","","","90","main_expt",""
"","bandit","170","874083","0.0-132.0-0.0","69669820","wem/bandit_party_2","A3IU1VEGMR0HBC","either","6","434","","","","","","","0","1","0","","0.8257352781","0.8","0.4","0.2","0.6","0.2107705911","0.7606559624","0.8257352781","0.402428746","","","","","","","","","","","","","","75","K","2","","","91","main_expt",""
"","bandit","171","876063","0.0-133.0-0.0","69669820","wem/bandit_party_2","A3IU1VEGMR0HBC","either","6","426","","","","","","","0","0","1","","0.7762210657","0.8","0.4","0.2","0.6","0.1317951273","0.8466818248","0.7762210657","0.452733603","","","","","","","","","","","","","","75","K","2","","","92","main_expt",""
"","bandit","172","878510","0.0-134.0-0.0","69669820","wem/bandit_party_2","A3IU1VEGMR0HBC","either","6","892","","","","","","","1","0","0","0.8293629201","","0.8","0.4","0.2","0.6","","","","","0.09268613222","0.8181600593","0.8293629201","0.5416456901","","","","","","","","","","75","K","2","","","93","main_expt",""
"","bandit","173","880531","0.0-135.0-0.0","69669820","wem/bandit_party_2","A3IU1VEGMR0HBC","either","6","445","","","","","","","0","1","0","","0.7849393417","0.8","0.4","0.2","0.6","0.06418168538","0.7259749053","0.7849393417","0.5246039132","","","","","","","","","","","","","","75","K","2","","","94","main_expt",""
"","bandit","174","882418","0.0-136.0-0.0","69669820","wem/bandit_party_2","A3IU1VEGMR0HBC","either","6","326","","","","","","","0","1","0","","0.7850226125","0.8","0.4","0.2","0.6","0.100072779","0.6538641892","0.7850226125","0.606801291","","","","","","","","","","","","","","75","K","2","","","95","main_expt",""
"","bandit","175","884277","0.0-137.0-0.0","69669820","wem/bandit_party_2","A3IU1VEGMR0HBC","either","6","298","","","","","","","0","1","0","","0.8013150942","0.8","0.4","0.2","0.6","0.09628221604","0.6384360591","0.8013150942","0.7175242067","","","","","","","","","","","","","","75","K","2","","","96","main_expt",""
"","bandit","176","886138","0.0-138.0-0.0","69669820","wem/bandit_party_2","A3IU1VEGMR0HBC","either","6","293","","","","","","","0","1","0","","0.70340399","0.8","0.4","0.2","0.6","0.1335622201","0.6836118029","0.70340399","0.7706560561","","","","","","","","","","","","","","75","K","2","","","97","main_expt",""
"","bandit","177","888000","0.0-139.0-0.0","69669820","wem/bandit_party_2","A3IU1VEGMR0HBC","either","6","299","","","","","","","1","0","0","0.7562517051","","0.8","0.4","0.2","0.6","","","","","0.167202632","0.659457158","0.7562517051","0.7234704616","","","","","","","","","","75","K","2","","","98","main_expt",""
"","bandit","178","889652","0.0-140.0-0.0","69669820","wem/bandit_party_2","A3IU1VEGMR0HBC","either","6","91","","","","","","","0","1","0","","0.6514659141","0.8","0.4","0.2","0.6","0.1216125457","0.7726162223","0.6514659141","0.6582042781","","","","","","","","","","","","","","75","K","2","","","99","main_expt",""
"","bandit","179","891625","0.0-141.0-0.0","69669820","wem/bandit_party_2","A3IU1VEGMR0HBC","either","6","398","","","","","","","1","0","0","0.7112237606","","0.8","0.4","0.2","0.6","","","","","0.1163239148","0.8446518706","0.7112237606","0.6530973887","","","","","","","","","","75","K","2","","","100","main_expt",""
"","bandit","180","894216","0.0-142.0-0.0","69669820","wem/bandit_party_2","A3IU1VEGMR0HBC","either","6","998","","","","","","","0","1","0","","0.6865981462","0.8","0.4","0.2","0.6","0.1037928869","0.8784151442","0.6865981462","0.6690961394","","","","","","","","","","","","","","75","K","2","","","101","main_expt",""
"","bandit","181","895865","0.0-143.0-0.0","69669820","wem/bandit_party_2","A3IU1VEGMR0HBC","either","6","99","","","","","","","0","1","0","","0.6663704066","0.8","0.4","0.2","0.6","0.0991068806","0.8781202538","0.6663704066","0.6268844929","","","","","","","","","","","","","","75","K","2","","","102","main_expt",""
"","bandit","182","898072","0.0-144.0-0.0","69669820","wem/bandit_party_2","A3IU1VEGMR0HBC","either","6","652","","","","","","","0","0","1","","0.6006744832","0.8","0.4","0.2","0.6","0.1226752409","0.8123732176","0.6006744832","0.6657789595","","","","","","","","","","","","","","75","K","2","","","103","main_expt",""
"","bandit","183","900115","0.0-145.0-0.0","69669820","wem/bandit_party_2","A3IU1VEGMR0HBC","either","6","474","","","","","","","0","1","0","","0.8461937008","0.8","0.4","0.2","0.6","0.1552466415","0.8461937008","0.518723913","0.6951589836","","","","","","","","","","","","","","74","J","1","","","104","main_expt",""
"","bandit","184","901699","0.0-146.0-0.0","69669820","wem/bandit_party_2","A3IU1VEGMR0HBC","either","6","5","","","","","","","0","1","0","","0.8664825842","0.8","0.4","0.2","0.6","0.1702138509","0.8664825842","0.5343999165","0.6382729445","","","","","","","","","","","","","","74","J","1","","","105","main_expt",""
"","bandit","185","903924","0.0-147.0-0.0","69669820","wem/bandit_party_2","A3IU1VEGMR0HBC","either","6","669","","","","","","","0","1","0","","0.8703997655","0.8","0.4","0.2","0.6","0.2021425125","0.8703997655","0.4959998489","0.7139624249","","","","","","","","","","","","","","74","J","1","","","106","main_expt",""
"","bandit","186","909095","0.0-148.0-0.0","69669820","wem/bandit_party_2","A3IU1VEGMR0HBC","either","6","3609","","","","","","","1","0","0","0.8964314806","","0.8","0.4","0.2","0.6","","","","","0.2196373816","0.8964314806","0.5052663648","0.7718136471","","","","","","","","","","74","J","1","","","107","main_expt",""
"","bandit","187","911317","0.0-149.0-0.0","69669820","wem/bandit_party_2","A3IU1VEGMR0HBC","either","6","662","","","","","","","0","1","0","","0.9080126319","0.8","0.4","0.2","0.6","0.2393661099","0.9080126319","0.4859582203","0.8818715302","","","","","","","","","","","","","","74","J","1","","","108","main_expt",""
"","bandit","188","923696","0.0-150.0-0.0","69669820","wem/bandit_party_2","A3IU1VEGMR0HBC","either","6","10824","","","","","","","0","0","1","","0.2516352594","0.8","0.4","0.2","0.6","0.2516352594","0.8880845243","0.523617738","0.8757741924","","","","","","","","","","","","","","72","H","0","img/none_selected.jpg","","109","main_expt",""
"","bandit","189","926262","0.0-151.0-0.0","69669820","wem/bandit_party_2","A3IU1VEGMR0HBC","either","6","1013","","","","","","","1","0","0","0.899251136","","0.8","0.4","0.2","0.6","","","","","0.2424291788","0.899251136","0.5492010791","0.8657151097","","","","","","","","","","74","J","1","","","110","main_expt",""
"","bandit","190","927913","0.0-152.0-0.0","69669820","wem/bandit_party_2","A3IU1VEGMR0HBC","either","6","95","","","","","","","0","1","0","","0.9019514556","0.8","0.4","0.2","0.6","0.2033086481","0.9019514556","0.5467154696","0.8457624762","","","","","","","","","","","","","","74","J","1","","","111","main_expt",""
"","bandit","191","930236","0.0-153.0-0.0","69669820","wem/bandit_party_2","A3IU1VEGMR0HBC","either","6","748","","","","","","","1","0","0","0.9315537639","","0.8","0.4","0.2","0.6","","","","","0.208613213","0.9315537639","0.5396215981","0.8756116827","","","","","","","","","","74","J","1","","","112","main_expt",""
"","bandit","192","932477","0.0-154.0-0.0","69669820","wem/bandit_party_2","A3IU1VEGMR0HBC","either","6","673","","","","","","","0","1","0","","0.9254394702","0.8","0.4","0.2","0.6","0.2743958833","0.9254394702","0.5542875214","0.8773181328","","","","","","","","","","","","","","74","J","1","","","113","main_expt",""
"","bandit","193","934445","0.0-155.0-0.0","69669820","wem/bandit_party_2","A3IU1VEGMR0HBC","either","6","408","","","","","","","1","0","0","0.9394904604","","0.8","0.4","0.2","0.6","","","","","0.2657329006","0.9394904604","0.6411428718","0.8842236373","","","","","","","","","","74","J","1","","","114","main_expt",""
"","bandit","194","936332","0.0-156.0-0.0","69669820","wem/bandit_party_2","A3IU1VEGMR0HBC","either","6","326","","","","","","","0","1","0","","0.9533355239","0.8","0.4","0.2","0.6","0.3234316928","0.9533355239","0.7261400339","0.8499121835","","","","","","","","","","","","","","74","J","1","","","115","main_expt",""
"","bandit","195","938076","0.0-157.0-0.0","69669820","wem/bandit_party_2","A3IU1VEGMR0HBC","either","6","179","","","","","","","1","0","0","0.960842596","","0.8","0.4","0.2","0.6","","","","","0.3625587123","0.960842596","0.7395407697","0.7890056153","","","","","","","","","","74","J","1","","","116","main_expt",""
"","bandit","196","940159","0.0-158.0-0.0","69669820","wem/bandit_party_2","A3IU1VEGMR0HBC","either","6","494","","","","","","","0","1","0","","0.937733065","0.8","0.4","0.2","0.6","0.4946904956","0.937733065","0.8231731708","0.7709890197","","","","","","","","","","","","","","74","J","1","","","117","main_expt",""
"","bandit","197","942084","0.0-159.0-0.0","69669820","wem/bandit_party_2","A3IU1VEGMR0HBC","either","6","346","","","","","","","0","1","0","","0.9561499645","0.8","0.4","0.2","0.6","0.6246330079","0.9561499645","0.8278750807","0.7459937787","","","","","","","","","","","","","","74","J","1","","","118","main_expt",""
"","bandit","198","943808","0.0-160.0-0.0","69669820","wem/bandit_party_2","A3IU1VEGMR0HBC","either","6","152","","","","","","","0","1","0","","0.9595118281","0.8","0.4","0.2","0.6","0.5818097722","0.9595118281","0.8715827524","0.716881491","","","","","","","","","","","","","","74","J","1","","","119","main_expt",""
"","bandit","199","945872","0.0-161.0-0.0","69669820","wem/bandit_party_2","A3IU1VEGMR0HBC","either","6","498","","","","","","","0","1","0","","0.9548463758","0.8","0.4","0.2","0.6","0.5990025551","0.9548463758","0.8522670476","0.6595649419","","","","","","","","","","","","","","74","J","1","","","120","main_expt",""
"","bandit","200","948016","0.0-162.0-0.0","69669820","wem/bandit_party_2","A3IU1VEGMR0HBC","either","6","566","","","","","","","1","0","0","0.958085665","","0.8","0.4","0.2","0.6","","","","","0.6534424477","0.958085665","0.8266542562","0.6576447048","","","","","","","","","","74","J","1","","","121","main_expt",""
"","bandit","201","949936","0.0-163.0-0.0","69669820","wem/bandit_party_2","A3IU1VEGMR0HBC","either","6","348","","","","","","","1","0","0","0.9630601427","","0.8","0.4","0.2","0.6","","","","","0.5952731017","0.9630601427","0.81688531","0.6391957719","","","","","","","","","","74","J","1","","","122","main_expt",""
"","bandit","202","952056","0.0-164.0-0.0","69669820","wem/bandit_party_2","A3IU1VEGMR0HBC","either","6","543","","","","","","","0","1","0","","0.9790283764","0.8","0.4","0.2","0.6","0.6469086187","0.9790283764","0.8307363081","0.5873908865","","","","","","","","","","","","","","74","J","1","","","123","main_expt",""
"","bandit","203","954114","0.0-165.0-0.0","69669820","wem/bandit_party_2","A3IU1VEGMR0HBC","either","6","499","","","","","","","1","0","0","0.9718765302","","0.8","0.4","0.2","0.6","","","","","0.6911454426","0.9718765302","0.6943824695","0.6592760984","","","","","","","","","","74","J","1","","","124","main_expt",""
"","bandit","204","955996","0.0-166.0-0.0","69669820","wem/bandit_party_2","A3IU1VEGMR0HBC","either","6","321","","","","","","","1","0","0","0.9845173964","","0.8","0.4","0.2","0.6","","","","","0.750572215","0.9845173964","0.7137568944","0.6012083746","","","","","","","","","","74","J","1","","","125","main_expt",""
"","bandit","205","958025","0.0-167.0-0.0","69669820","wem/bandit_party_2","A3IU1VEGMR0HBC","either","6","477","","","","","","","1","0","0","0.9804670004","","0.8","0.4","0.2","0.6","","","","","0.8108432581","0.9804670004","0.6878742658","0.6043440275","","","","","","","","","","74","J","1","","","126","main_expt",""
"","bandit","206","959907","0.0-168.0-0.0","69669820","wem/bandit_party_2","A3IU1VEGMR0HBC","either","6","301","","","","","","","0","1","0","","0.9792667249","0.8","0.4","0.2","0.6","0.8338196277","0.9792667249","0.6175454059","0.5043142332","","","","","","","","","","","","","","74","J","1","","","127","main_expt",""
"","bandit","207","961730","0.0-169.0-0.0","69669820","wem/bandit_party_2","A3IU1VEGMR0HBC","either","6","245","","","","","","","0","1","0","","0.9853815399","0.8","0.4","0.2","0.6","0.8624128669","0.9853815399","0.5556505876","0.5778209799","","","","","","","","","","","","","","74","J","1","","","128","main_expt",""
"","bandit","208","963599","0.0-170.0-0.0","69669820","wem/bandit_party_2","A3IU1VEGMR0HBC","either","6","298","","","","","","","1","0","0","0.9838319732","","0.8","0.4","0.2","0.6","","","","","0.9026068167","0.9838319732","0.5948532478","0.5806273004","","","","","","","","","","74","J","1","","","129","main_expt",""
"","bandit","209","965683","0.0-171.0-0.0","69669820","wem/bandit_party_2","A3IU1VEGMR0HBC","either","6","525","","","","","","","1","0","0","0.9798768453","","0.8","0.4","0.2","0.6","","","","","0.8983636673","0.9798768453","0.6646968067","0.4152233618","","","","","","","","","","74","J","1","","","130","main_expt",""
"","bandit","210","967595","0.0-172.0-0.0","69669820","wem/bandit_party_2","A3IU1VEGMR0HBC","either","6","353","","","","","","","1","0","0","0.9628017066","","0.8","0.4","0.2","0.6","","","","","0.888478962","0.9628017066","0.6676177377","0.4527057242","","","","","","","","","","74","J","1","","","131","main_expt",""
"","bandit","211","969480","0.0-173.0-0.0","69669820","wem/bandit_party_2","A3IU1VEGMR0HBC","either","6","329","","","","","","","1","0","0","0.9723970119","","0.8","0.4","0.2","0.6","","","","","0.8470567254","0.9723970119","0.7638630926","0.5185753891","","","","","","","","","","74","J","1","","","132","main_expt",""
"","bandit","212","971342","0.0-174.0-0.0","69669820","wem/bandit_party_2","A3IU1VEGMR0HBC","either","6","305","","","","","","","1","0","0","0.9754432393","","0.8","0.4","0.2","0.6","","","","","0.8852081265","0.9754432393","0.726350598","0.4567386081","","","","","","","","","","74","J","1","","","133","main_expt",""
"","bandit","213","973206","0.0-175.0-0.0","69669820","wem/bandit_party_2","A3IU1VEGMR0HBC","either","6","295","","","","","","","0","1","0","","0.9635376407","0.8","0.4","0.2","0.6","0.8317422298","0.9635376407","0.7638059904","0.4494056808","","","","","","","","","","","","","","74","J","1","","","134","main_expt",""
"","bandit","214","975078","0.0-176.0-0.0","69669820","wem/bandit_party_2","A3IU1VEGMR0HBC","either","6","300","","","","","","","1","0","0","0.9304273523","","0.8","0.4","0.2","0.6","","","","","0.8121858422","0.9304273523","0.7337835984","0.4608562393","","","","","","","","","","74","J","1","","","135","main_expt",""
"","bandit","215","976927","0.0-177.0-0.0","69669820","wem/bandit_party_2","A3IU1VEGMR0HBC","either","6","284","","","","","","","0","1","0","","0.9295592062","0.8","0.4","0.2","0.6","0.8473276522","0.9295592062","0.7869055623","0.6684020244","","","","","","","","","","","","","","74","J","1","","","136","main_expt",""
"","bandit","216","979004","0.0-178.0-0.0","69669820","wem/bandit_party_2","A3IU1VEGMR0HBC","either","6","493","","","","","","","0","1","0","","0.9343332129","0.8","0.4","0.2","0.6","0.8251243182","0.9343332129","0.8033651193","0.614137061","","","","","","","","","","","","","","74","J","1","","","137","main_expt",""
"","bandit","217","980953","0.0-179.0-0.0","69669820","wem/bandit_party_2","A3IU1VEGMR0HBC","either","6","374","","","","","","","0","0","1","0.9325781127","","0.8","0.4","0.2","0.6","","","","","0.7892590299","0.9325781127","0.7620089345","0.711021659","","","","","","","","","","74","J","1","","","138","main_expt",""
"","bandit","218","982958","0.0-180.0-0.0","69669820","wem/bandit_party_2","A3IU1VEGMR0HBC","either","6","434","","","","","","","0","1","0","","0.8098853196","0.8","0.4","0.2","0.6","0.753698647","0.9687763229","0.8098853196","0.5731932267","","","","","","","","","","","","","","75","K","2","","","139","main_expt",""
"","bandit","219","984916","0.0-181.0-0.0","69669820","wem/bandit_party_2","A3IU1VEGMR0HBC","either","6","378","","","","","","","0","0","1","","0.8737133651","0.8","0.4","0.2","0.6","0.7281837229","0.9520204639","0.8737133651","0.6553783698","","","","","","","","","","","","","","75","K","2","","","140","main_expt",""
"","bandit","220","986850","0.0-182.0-0.0","69669820","wem/bandit_party_2","A3IU1VEGMR0HBC","either","6","358","","","","","","","0","1","0","","0.8464817719","0.8","0.4","0.2","0.6","0.7913145473","0.9615613541","0.8464817719","0.5665224918","","","","","","","","","","","","","","75","K","2","","","141","main_expt",""
"","bandit","221","988857","0.0-183.0-0.0","69669820","wem/bandit_party_2","A3IU1VEGMR0HBC","either","6","449","","","","","","","0","1","0","","0.8457688645","0.8","0.4","0.2","0.6","0.7498898283","0.9438722422","0.8457688645","0.5230460729","","","","","","","","","","","","","","75","K","2","","","142","main_expt",""
"","bandit","222","990794","0.0-184.0-0.0","69669820","wem/bandit_party_2","A3IU1VEGMR0HBC","either","6","370","","","","","","","1","0","0","0.8801682128","","0.8","0.4","0.2","0.6","","","","","0.723110339","0.9419241064","0.8801682128","0.5401897842","","","","","","","","","","75","K","2","","","143","main_expt",""
"","bandit","223","992749","0.0-185.0-0.0","69669820","wem/bandit_party_2","A3IU1VEGMR0HBC","either","6","406","","","","","","","0","0","1","","0.7806105972","0.8","0.4","0.2","0.6","0.7697142539","0.9383966058","0.7806105972","0.5495292383","","","","","","","","","","","","","","75","K","2","","","144","main_expt",""
"","bandit","224","996317","0.0-186.0-0.0","69669820","wem/bandit_party_2","A3IU1VEGMR0HBC","either","6","2006","","","","","","","0","1","0","","0.8279494337","0.8","0.4","0.2","0.6","0.8279494337","0.9442204223","0.7384744451","0.4718854897","","","","","","","","","","","","","","72","H","0","img/none_selected.jpg","","145","main_expt",""
"","bandit","225","998279","0.0-187.0-0.0","69669820","wem/bandit_party_2","A3IU1VEGMR0HBC","either","6","407","","","","","","","1","0","0","0.747104877","","0.8","0.4","0.2","0.6","","","","","0.747104877","0.9461270134","0.7078417075","0.3790577705","","","","","","","","","","72","H","0","img/none_selected.jpg","","146","main_expt",""
"","bandit","226","1000470","0.0-188.0-0.0","69669820","wem/bandit_party_2","A3IU1VEGMR0HBC","either","6","621","","","","","","","1","0","0","0.7635883185","","0.8","0.4","0.2","0.6","","","","","0.7635883185","0.9677113618","0.7671729372","0.3671333747","","","","","","","","","","72","H","0","img/none_selected.jpg","","147","main_expt",""
"","bandit","227","1002406","0.0-189.0-0.0","69669820","wem/bandit_party_2","A3IU1VEGMR0HBC","either","6","360","","","","","","","0","0","1","0.6650729927","","0.8","0.4","0.2","0.6","","","","","0.6650729927","0.9603287673","0.7515071201","0.4462771912","","","","","","","","","","72","H","0","img/none_selected.jpg","","148","main_expt",""
"","bandit","228","1004537","0.0-190.0-0.0","69669820","wem/bandit_party_2","A3IU1VEGMR0HBC","either","6","560","","","","","","","1","0","0","0.594527628","","0.8","0.4","0.2","0.6","","","","","0.594527628","0.9256305183","0.7582160768","0.3929125452","","","","","","","","","","72","H","0","img/none_selected.jpg","","149","main_expt",""
"","bandit","229","1006500","0.0-191.0-0.0","69669820","wem/bandit_party_2","A3IU1VEGMR0HBC","either","6","400","","","","","","","0","0","1","0.5101412162","","0.8","0.4","0.2","0.6","","","","","0.5101412162","0.9222609783","0.6843302658","0.3825194633","","","","","","","","","","72","H","0","img/none_selected.jpg","","150","main_expt",""
"","bandit","230","1008244","0.0-192.0-0.0","69669820","wem/bandit_party_2","A3IU1VEGMR0HBC","either","6","177","","","","","","","0","0","1","0.5755011036","","0.8","0.4","0.2","0.6","","","","","0.5755011036","0.9522131909","0.4980827124","0.3889652011","","","","","","","","","","72","H","0","img/none_selected.jpg","","151","main_expt",""
"","bandit","231","1010297","0.0-193.0-0.0","69669820","wem/bandit_party_2","A3IU1VEGMR0HBC","either","6","461","","","","","","","0","0","1","","0.5415628766","0.8","0.4","0.2","0.6","0.5415628766","0.9351777179","0.5418861514","0.372169082","","","","","","","","","","","","","","72","H","0","img/none_selected.jpg","","152","main_expt",""
"","bandit","232","1011897","0.0-194.0-0.0","69669820","wem/bandit_party_2","A3IU1VEGMR0HBC","either","6","37","","","","","","","0","1","0","","0.9526549669","0.8","0.4","0.2","0.6","0.6392888902","0.9526549669","0.6424708626","0.4275919172","","","","","","","","","","","","","","74","J","1","","","153","main_expt",""
"","bandit","233","1013671","0.0-195.0-0.0","69669820","wem/bandit_party_2","A3IU1VEGMR0HBC","either","6","201","","","","","","","1","0","0","0.944677936","","0.8","0.4","0.2","0.6","","","","","0.6798835142","0.944677936","0.6200403258","0.3978897223","","","","","","","","","","74","J","1","","","154","main_expt",""
"","bandit","234","1016274","0.0-196.0-0.0","69669820","wem/bandit_party_2","A3IU1VEGMR0HBC","either","6","1034","","","","","","","1","0","0","0.9443948233","","0.8","0.4","0.2","0.6","","","","","0.7376683638","0.9443948233","0.5087788092","0.4922143253","","","","","","","","","","74","J","1","","","155","main_expt",""
"","bandit","235","1018131","0.0-197.0-0.0","69669820","wem/bandit_party_2","A3IU1VEGMR0HBC","either","6","290","","","","","","","0","1","0","","0.9312029685","0.8","0.4","0.2","0.6","0.7740838489","0.9312029685","0.4397360723","0.5060601407","","","","","","","","","","","","","","74","J","1","","","156","main_expt",""
"","bandit","236","1019954","0.0-198.0-0.0","69669820","wem/bandit_party_2","A3IU1VEGMR0HBC","either","6","258","","","","","","","0","0","1","","0.9009413449","0.8","0.4","0.2","0.6","0.7526352547","0.9009413449","0.4529934193","0.56460533","","","","","","","","","","","","","","74","J","1","","","157","main_expt",""
"","bandit","237","1021973","0.0-199.0-0.0","69669820","wem/bandit_party_2","A3IU1VEGMR0HBC","either","6","428","","","","","","","1","0","0","0.8799225656","","0.8","0.4","0.2","0.6","","","","","0.807066173","0.8799225656","0.522014142","0.5551408743","","","","","","","","","","74","J","1","","","158","main_expt",""
"","bandit","238","1023862","0.0-200.0-0.0","69669820","wem/bandit_party_2","A3IU1VEGMR0HBC","either","6","325","","","","","","","0","1","0","","0.9103166083","0.8","0.4","0.2","0.6","0.8348587906","0.9103166083","0.447178695","0.6362487126","","","","","","","","","","","","","","74","J","1","","","159","main_expt",""
"","bandit","239","1025697","0.0-201.0-0.0","69669820","wem/bandit_party_2","A3IU1VEGMR0HBC","either","6","267","","","","","","","0","1","0","","0.9575168601","0.8","0.4","0.2","0.6","0.8054329593","0.9575168601","0.4293784973","0.5818198138","","","","","","","","","","","","","","74","J","1","","","160","main_expt",""
"","bandit","240","1027402","0.0-202.0-0.0","69669820","wem/bandit_party_2","A3IU1VEGMR0HBC","either","6","136","","","","","","","1","0","0","0.9323430526","","0.8","0.4","0.2","0.6","","","","","0.8263011938","0.9323430526","0.4263694152","0.5079421761","","","","","","","","","","74","J","1","","","161","main_expt",""
"","bandit","241","1029328","0.0-203.0-0.0","69669820","wem/bandit_party_2","A3IU1VEGMR0HBC","either","6","347","","","","","","","0","1","0","","0.8731035433","0.8","0.4","0.2","0.6","0.8468561623","0.8731035433","0.4394756583","0.3944353318","","","","","","","","","","","","","","74","J","1","","","162","main_expt",""
"","bandit","242","1031270","0.0-204.0-0.0","69669820","wem/bandit_party_2","A3IU1VEGMR0HBC","either","6","370","","","","","","","0","1","0","","0.860239847","0.8","0.4","0.2","0.6","0.866861138","0.860239847","0.4632532181","0.4560534757","","","","","","","","","","","","","","74","J","1","","","163","main_expt",""
"","bandit","243","1033286","0.0-205.0-0.0","69669820","wem/bandit_party_2","A3IU1VEGMR0HBC","either","6","462","","","","","","","0","1","0","","0.8327160304","0.8","0.4","0.2","0.6","0.8621839131","0.8327160304","0.469091439","0.4338988853","","","","","","","","","","","","","","74","J","1","","","164","main_expt",""
"","bandit","244","1035259","0.0-206.0-0.0","69669820","wem/bandit_party_2","A3IU1VEGMR0HBC","either","6","399","","","","","","","1","0","0","0.8780399083","","0.8","0.4","0.2","0.6","","","","","0.8368369455","0.8780399083","0.4691854483","0.3640020004","","","","","","","","","","74","J","1","","","165","main_expt",""
"","bandit","245","1037047","0.0-207.0-0.0","69669820","wem/bandit_party_2","A3IU1VEGMR0HBC","either","6","198","","","","","","","0","1","0","","0.8659509199","0.8","0.4","0.2","0.6","0.8543831227","0.8659509199","0.424594696","0.4433911144","","","","","","","","","","","","","","74","J","1","","","166","main_expt",""
"","bandit","246","1038697","0.0-208.0-0.0","69669820","wem/bandit_party_2","A3IU1VEGMR0HBC","either","6","87","","","","","","","0","0","1","0.8458676595","","0.8","0.4","0.2","0.6","","","","","0.8444257961","0.8458676595","0.4691217736","0.4852122499","","","","","","","","","","74","J","1","","","167","main_expt",""
"","bandit","247","1040304","0.0-209.0-0.0","69669820","wem/bandit_party_2","A3IU1VEGMR0HBC","either","6","25","","","","","","","1","0","0","0.7368025647","","0.8","0.4","0.2","0.6","","","","","0.8895061166","0.7368025647","0.4605946041","0.4829488348","","","","","","","","","","74","J","1","","","168","main_expt",""
"","bandit","248","1041973","0.0-210.0-0.0","69669820","wem/bandit_party_2","A3IU1VEGMR0HBC","either","6","95","","","","","","","0","1","0","","0.6811301937","0.8","0.4","0.2","0.6","0.8980662015","0.6811301937","0.4302520818","0.467087579","","","","","","","","","","","","","","74","J","1","","","169","main_expt",""
"","bandit","249","1044767","0.0-211.0-0.0","69669820","wem/bandit_party_2","A3IU1VEGMR0HBC","either","6","1203","","","","","","","0","1","0","","0.6781719117","0.8","0.4","0.2","0.6","0.9399190154","0.6781719117","0.3846086554","0.3575164989","","","","","","","","","","","","","","74","J","1","","","170","main_expt",""
"","bandit","250","1047520","0.0-212.0-0.0","69669820","wem/bandit_party_2","A3IU1VEGMR0HBC","either","6","1187","","","","","","","1","0","0","0.5779776893","","0.8","0.4","0.2","0.6","","","","","0.9199626721","0.5779776893","0.4938912128","0.3433755155","","","","","","","","","","74","J","1","","","171","main_expt",""
"","bandit","251","1049222","0.0-213.0-0.0","69669820","wem/bandit_party_2","A3IU1VEGMR0HBC","either","6","135","","","","","","","1","0","0","0.5461867433","","0.8","0.4","0.2","0.6","","","","","0.8885959212","0.5461867433","0.5409242696","0.2921203137","","","","","","","","","","74","J","1","","","172","main_expt",""
"","bandit","252","1051141","0.0-214.0-0.0","69669820","wem/bandit_party_2","A3IU1VEGMR0HBC","either","6","367","","","","","","","0","1","0","","0.5898781272","0.8","0.4","0.2","0.6","0.8502068985","0.5898781272","0.4899310385","0.3237382503","","","","","","","","","","","","","","74","J","1","","","173","main_expt",""
"","bandit","253","1052815","0.0-215.0-0.0","69669820","wem/bandit_party_2","A3IU1VEGMR0HBC","either","6","113","","","","","","","1","0","0","0.5990225055","","0.8","0.4","0.2","0.6","","","","","0.9054067092","0.5990225055","0.4464532747","0.2935635685","","","","","","","","","","74","J","1","","","174","main_expt",""
"","bandit","254","1054668","0.0-216.0-0.0","69669820","wem/bandit_party_2","A3IU1VEGMR0HBC","either","6","288","","","","","","","1","0","0","0.6129624105","","0.8","0.4","0.2","0.6","","","","","0.9096893241","0.6129624105","0.4363040476","0.2797951809","","","","","","","","","","74","J","1","","","175","main_expt",""
"","bandit","255","1056577","0.0-217.0-0.0","69669820","wem/bandit_party_2","A3IU1VEGMR0HBC","either","6","344","","","","","","","0","1","0","","0.5434192492","0.8","0.4","0.2","0.6","0.9081003197","0.5434192492","0.4198776974","0.2067270565","","","","","","","","","","","","","","74","J","1","","","176","main_expt",""
"","bandit","256","1058429","0.0-218.0-0.0","69669820","wem/bandit_party_2","A3IU1VEGMR0HBC","either","6","267","","","","","","","0","0","1","","0.5893108522","0.8","0.4","0.2","0.6","0.8417535431","0.5893108522","0.4001478854","0.19266164","","","","","","","","","","","","","","74","J","1","","","177","main_expt",""
"","bandit","257","1060451","0.0-219.0-0.0","69669820","wem/bandit_party_2","A3IU1VEGMR0HBC","either","6","453","","","","","","","0","0","1","","0.4862463398","0.8","0.4","0.2","0.6","0.8045518304","0.4862463398","0.3015477047","0.1393448617","","","","","","","","","","","","","","74","J","1","","","178","main_expt",""
"","bandit","258","1062021","0.0-220.0-0.0","69669820","wem/bandit_party_2","A3IU1VEGMR0HBC","either","6","6","","","","","","","0","0","1","0.4227787996","","0.8","0.4","0.2","0.6","","","","","0.8250115846","0.4227787996","0.2700131006","0.1149816072","","","","","","","","","","74","J","1","","","179","main_expt",""
"","bandit","259","1063673","0.0-221.0-0.0","69669820","wem/bandit_party_2","A3IU1VEGMR0HBC","either","6","53","","","","","","","0","0","1","","0.3473069","0.8","0.4","0.2","0.6","0.7418096358","0.3583368423","0.3473069","0.1231561222","","","","","","","","","","","","","","75","K","2","","","180","main_expt",""
"","bandit","260","1065525","0.0-222.0-0.0","69669820","wem/bandit_party_2","A3IU1VEGMR0HBC","either","6","280","","","","","","","0","0","1","0.3478804011","","0.8","0.4","0.2","0.6","","","","","0.7180260456","0.3820052134","0.3478804011","0.1134989143","","","","","","","","","","75","K","2","","","181","main_expt",""
"","bandit","261","1067253","0.0-223.0-0.0","69669820","wem/bandit_party_2","A3IU1VEGMR0HBC","either","6","167","","","","","","","1","0","0","0.3304981007","","0.8","0.4","0.2","0.6","","","","","0.6777378447","0.437769555","0.3304981007","0.07317944644","","","","","","","","","","75","K","2","","","182","main_expt",""
"","bandit","262","1068971","0.0-224.0-0.0","69669820","wem/bandit_party_2","A3IU1VEGMR0HBC","either","6","128","","","","","","","0","0","1","","0.2578466268","0.8","0.4","0.2","0.6","0.6331465848","0.3951330089","0.2578466268","0.05085611098","","","","","","","","","","","","","","75","K","2","","","183","main_expt",""
"","bandit","263","1071318","0.0-225.0-0.0","69669820","wem/bandit_party_2","A3IU1VEGMR0HBC","either","6","771","","","","","","","0","1","0","","0.6578519513","0.8","0.4","0.2","0.6","0.6578519513","0.4062376343","0.3550464129","0.07152820202","","","","","","","","","","","","","","72","H","0","img/none_selected.jpg","","184","main_expt",""
"","bandit","264","1072909","0.0-226.0-0.0","69669820","wem/bandit_party_2","A3IU1VEGMR0HBC","either","6","31","","","","","","","0","0","1","0.7160298793","","0.8","0.4","0.2","0.6","","","","","0.7160298793","0.4035727276","0.2993299556","0.08814522307","","","","","","","","","","72","H","0","img/none_selected.jpg","","185","main_expt",""
"","bandit","265","1074599","0.0-227.0-0.0","69669820","wem/bandit_party_2","A3IU1VEGMR0HBC","either","6","99","","","","","","","0","0","1","0.7081703269","","0.8","0.4","0.2","0.6","","","","","0.7081703269","0.4595565904","0.3985972224","0.0931487442","","","","","","","","","","72","H","0","img/none_selected.jpg","","186","main_expt",""
"","bandit","266","1077490","0.0-228.0-0.0","69669820","wem/bandit_party_2","A3IU1VEGMR0HBC","either","6","1318","","","","","","","0","1","0","","0.7670757258","0.8","0.4","0.2","0.6","0.7670757258","0.4956959756","0.4563810555","0.05847154344","","","","","","","","","","","","","","72","H","0","img/none_selected.jpg","","187","main_expt",""
"","bandit","267","1079062","0.0-229.0-0.0","69669820","wem/bandit_party_2","A3IU1VEGMR0HBC","either","6","5","","","","","","","1","0","0","0.7986884496","","0.8","0.4","0.2","0.6","","","","","0.7986884496","0.4295585103","0.4621092719","0.05005107021","","","","","","","","","","72","H","0","img/none_selected.jpg","","188","main_expt",""
"","bandit","268","1080976","0.0-230.0-0.0","69669820","wem/bandit_party_2","A3IU1VEGMR0HBC","either","6","332","","","","","","","0","1","0","","0.8113194514","0.8","0.4","0.2","0.6","0.8113194514","0.4121259827","0.4214675273","0.05158958255","","","","","","","","","","","","","","72","H","0","img/none_selected.jpg","","189","main_expt",""
"","bandit","269","1082855","0.0-231.0-0.0","69669820","wem/bandit_party_2","A3IU1VEGMR0HBC","either","6","320","","","","","","","0","1","0","","0.8311477635","0.8","0.4","0.2","0.6","0.8311477635","0.40505342","0.4445162903","0.0530996007","","","","","","","","","","","","","","72","H","0","img/none_selected.jpg","","190","main_expt",""
"","bandit","270","1084689","0.0-232.0-0.0","69669820","wem/bandit_party_2","A3IU1VEGMR0HBC","either","6","267","","","","","","","1","0","0","0.7941336253","","0.8","0.4","0.2","0.6","","","","","0.7941336253","0.3671493273","0.4077799102","0.05342003941","","","","","","","","","","72","H","0","img/none_selected.jpg","","191","main_expt",""
"","bandit","271","1086560","0.0-233.0-0.0","69669820","wem/bandit_party_2","A3IU1VEGMR0HBC","either","6","272","","","","","","","1","0","0","0.841847859","","0.8","0.4","0.2","0.6","","","","","0.841847859","0.3367263454","0.413117206","0.05264216412","","","","","","","","","","72","H","0","img/none_selected.jpg","","192","main_expt",""
"","bandit","272","1088385","0.0-234.0-0.0","69669820","wem/bandit_party_2","A3IU1VEGMR0HBC","either","6","265","","","","","","","0","1","0","","0.865127625","0.8","0.4","0.2","0.6","0.865127625","0.2587514209","0.374663265","0.07418965368","","","","","","","","","","","","","","72","H","0","img/none_selected.jpg","","193","main_expt",""
"","bandit","273","1090237","0.0-235.0-0.0","69669820","wem/bandit_party_2","A3IU1VEGMR0HBC","either","6","277","","","","","","","0","0","1","0.8369883383","","0.8","0.4","0.2","0.6","","","","","0.8369883383","0.2123696513","0.2792309937","0.1148515542","","","","","","","","","","72","H","0","img/none_selected.jpg","","194","main_expt",""
"","bandit","274","1092740","0.0-236.0-0.0","69669820","wem/bandit_party_2","A3IU1VEGMR0HBC","either","6","934","","","","","","","0","0","1","0.1102075851","","0.8","0.4","0.2","0.6","","","","","0.8226177272","0.2551117677","0.3090424304","0.1102075851","","","","","","","","","","76","L","3","","","195","main_expt",""
"","bandit","275","1094328","0.0-237.0-0.0","69669820","wem/bandit_party_2","A3IU1VEGMR0HBC","either","6","22","","","","","","","0","0","1","0.09307195637","","0.8","0.4","0.2","0.6","","","","","0.8759919892","0.2948177706","0.2254203465","0.09307195637","","","","","","","","","","76","L","3","","","196","main_expt",""
"","bandit","276","1096048","0.0-238.0-0.0","69669820","wem/bandit_party_2","A3IU1VEGMR0HBC","either","6","156","","","","","","","0","0","1","0.08341332984","","0.8","0.4","0.2","0.6","","","","","0.9413038234","0.2864074111","0.2104085952","0.08341332984","","","","","","","","","","76","L","3","","","197","main_expt",""
"","bandit","277","1098253","0.0-239.0-0.0","69669820","wem/bandit_party_2","A3IU1VEGMR0HBC","either","6","617","","","","","","","0","1","0","","0.1686499416","0.8","0.4","0.2","0.6","0.9384937307","0.3044962429","0.1686499416","0.06206278739","","","","","","","","","","","","","","75","K","2","","","198","main_expt",""
"","bandit","278","1099911","0.0-240.0-0.0","69669820","wem/bandit_party_2","A3IU1VEGMR0HBC","either","6","82","","","","","","","0","0","1","","0.1696058054","0.8","0.4","0.2","0.6","0.927250614","0.2804127106","0.1696058054","0.1015706687","","","","","","","","","","","","","","75","K","2","","","199","main_expt",""
"","bandit","279","1102016","0.0-241.0-0.0","69669820","wem/bandit_party_2","A3IU1VEGMR0HBC","either","6","505","","","","","","","0","1","0","","0.1940139532","0.8","0.4","0.2","0.6","0.8840406778","0.3151112274","0.1940139532","0.07348353789","","","","","","","","","","","","","","75","K","2","","","200","main_expt",""
"","bandit","280","1104305","0.0-242.0-0.0","69669820","wem/bandit_party_2","A3IU1VEGMR0HBC","either","6","719","","","","","","","0","0","1","","0.2384341862","0.8","0.4","0.2","0.6","0.8866639954","0.3124471347","0.2384341862","0.09218994405","","","","","","","","","","","","","","75","K","2","","","201","main_expt",""
"","bandit","281","1106286","0.0-243.0-0.0","69669820","wem/bandit_party_2","A3IU1VEGMR0HBC","either","6","399","","","","","","","0","0","1","","0.2069173963","0.8","0.4","0.2","0.6","0.8188103646","0.3418115628","0.2069173963","0.1662378481","","","","","","","","","","","","","","75","K","2","","","202","main_expt",""
"","bandit","282","1108361","0.0-244.0-0.0","69669820","wem/bandit_party_2","A3IU1VEGMR0HBC","either","6","491","","","","","","","0","0","1","0.2676578736","","0.8","0.4","0.2","0.6","","","","","0.8026106274","0.2676578736","0.2502389624","0.1808123801","","","","","","","","","","74","J","1","","","203","main_expt",""
"","bandit","283","1110299","0.0-245.0-0.0","69669820","wem/bandit_party_2","A3IU1VEGMR0HBC","either","6","348","","","","","","","0","0","1","0.2513587973","","0.8","0.4","0.2","0.6","","","","","0.6613987003","0.2513587973","0.2226806","0.2011980288","","","","","","","","","","74","J","1","","","204","main_expt",""
"","bandit","284","1111922","0.0-246.0-0.0","69669820","wem/bandit_party_2","A3IU1VEGMR0HBC","either","6","50","","","","","","","0","0","1","","0.2733703365","0.8","0.4","0.2","0.6","0.7402115251","0.2733703365","0.2327973494","0.1877492959","","","","","","","","","","","","","","74","J","1","","","205","main_expt",""
"","bandit","285","1113603","0.0-247.0-0.0","69669820","wem/bandit_party_2","A3IU1VEGMR0HBC","either","6","90","","","","","","","0","0","1","","0.3212331514","0.8","0.4","0.2","0.6","0.6792505986","0.3212331514","0.3134624789","0.1891298069","","","","","","","","","","","","","","74","J","1","","","206","main_expt",""
"","bandit","286","1117156","0.0-248.0-0.0","69669820","wem/bandit_party_2","A3IU1VEGMR0HBC","either","6","1987","","","","","","","1","0","0","0.6510378203","","0.8","0.4","0.2","0.6","","","","","0.6510378203","0.3381772831","0.3808856429","0.2092890992","","","","","","","","","","72","H","0","img/none_selected.jpg","","207","main_expt",""
"","bandit","287","1118970","0.0-249.0-0.0","69669820","wem/bandit_party_2","A3IU1VEGMR0HBC","either","6","252","","","","","","","1","0","0","0.5971377862","","0.8","0.4","0.2","0.6","","","","","0.5971377862","0.2370260631","0.318509643","0.2563161799","","","","","","","","","","72","H","0","img/none_selected.jpg","","208","main_expt",""
"","bandit","288","1120936","0.0-250.0-0.0","69669820","wem/bandit_party_2","A3IU1VEGMR0HBC","either","6","394","","","","","","","0","0","1","0.6040603887","","0.8","0.4","0.2","0.6","","","","","0.6040603887","0.2157004535","0.2932847295","0.2643940457","","","","","","","","","","72","H","0","img/none_selected.jpg","","209","main_expt",""
"","bandit","289","1122692","0.0-251.0-0.0","69669820","wem/bandit_party_2","A3IU1VEGMR0HBC","either","6","209","","","","","","","0","0","1","0.7794442159","","0.8","0.4","0.2","0.6","","","","","0.7794442159","0.2655169153","0.2230023122","0.2710870001","","","","","","","","","","72","H","0","img/none_selected.jpg","","210","main_expt",""
"","bandit","290","1124282","0.0-252.0-0.0","69669820","wem/bandit_party_2","A3IU1VEGMR0HBC","either","6","7","","","","","","","1","0","0","0.8397026392","","0.8","0.4","0.2","0.6","","","","","0.8397026392","0.2359505063","0.1899351836","0.2056380183","","","","","","","","","","72","H","0","img/none_selected.jpg","","211","main_expt",""
"","bandit","291","1126159","0.0-253.0-0.0","69669820","wem/bandit_party_2","A3IU1VEGMR0HBC","either","6","315","","","","","","","1","0","0","0.7883870126","","0.8","0.4","0.2","0.6","","","","","0.7883870126","0.2431981852","0.2593929449","0.2487045614","","","","","","","","","","72","H","0","img/none_selected.jpg","","212","main_expt",""
"","bandit","292","1128074","0.0-254.0-0.0","69669820","wem/bandit_party_2","A3IU1VEGMR0HBC","either","6","344","","","","","","","0","0","1","0.7160446845","","0.8","0.4","0.2","0.6","","","","","0.7160446845","0.3385658967","0.2304425673","0.3520378668","","","","","","","","","","72","H","0","img/none_selected.jpg","","213","main_expt",""
"","bandit","293","1129640","0.0-255.0-0.0","69669820","wem/bandit_party_2","A3IU1VEGMR0HBC","either","6","6","","","","","","","1","0","0","0.7501162241","","0.8","0.4","0.2","0.6","","","","","0.7501162241","0.445002088","0.2849244028","0.3455661114","","","","","","","","","","72","H","0","img/none_selected.jpg","","214","main_expt",""
"","bandit","294","1131242","0.0-256.0-0.0","69669820","wem/bandit_party_2","A3IU1VEGMR0HBC","either","6","17","","","","","","","1","0","0","0.7574589115","","0.8","0.4","0.2","0.6","","","","","0.7574589115","0.4340580748","0.3184819088","0.3290646698","","","","","","","","","","72","H","0","img/none_selected.jpg","","215","main_expt",""
"","bandit","295","1132934","0.0-257.0-0.0","69669820","wem/bandit_party_2","A3IU1VEGMR0HBC","either","6","118","","","","","","","1","0","0","0.7376674805","","0.8","0.4","0.2","0.6","","","","","0.7376674805","0.3996931216","0.2989728513","0.2737258078","","","","","","","","","","72","H","0","img/none_selected.jpg","","216","main_expt",""
"","bandit","296","1135007","0.0-258.0-0.0","69669820","wem/bandit_party_2","A3IU1VEGMR0HBC","either","6","512","","","","","","","0","0","1","0.67262171","","0.8","0.4","0.2","0.6","","","","","0.67262171","0.453570069","0.5538830624","0.2401291484","","","","","","","","","","72","H","0","img/none_selected.jpg","","217","main_expt",""
"","bandit","297","1136794","0.0-259.0-0.0","69669820","wem/bandit_party_2","A3IU1VEGMR0HBC","either","6","215","","","","","","","0","0","1","","0.6309662891","0.8","0.4","0.2","0.6","0.6309662891","0.3566620654","0.5331458927","0.2395298113","","","","","","","","","","","","","","72","H","0","img/none_selected.jpg","","218","main_expt",""
"","bandit","298","1138700","0.0-260.0-0.0","69669820","wem/bandit_party_2","A3IU1VEGMR0HBC","either","6","315","","","","","","","1","0","0","0.610488243","","0.8","0.4","0.2","0.6","","","","","0.610488243","0.3114207129","0.409279481","0.2333127667","","","","","","","","","","72","H","0","img/none_selected.jpg","","219","main_expt",""
"","bandit","299","1140610","0.0-261.0-0.0","69669820","wem/bandit_party_2","A3IU1VEGMR0HBC","either","6","338","","","","","","","0","0","1","","0.6741838821","0.8","0.4","0.2","0.6","0.6741838821","0.348491043","0.3910907299","0.2097963002","","","","","","","","","","","","","","72","H","0","img/none_selected.jpg","","220","main_expt",""
"","bandit","300","1142523","0.0-262.0-0.0","69669820","wem/bandit_party_2","A3IU1VEGMR0HBC","either","6","340","","","","","","","1","0","0","0.6938787555","","0.8","0.4","0.2","0.6","","","","","0.6938787555","0.325682353","0.37386253","0.1761429423","","","","","","","","","","72","H","0","img/none_selected.jpg","","221","main_expt",""
"","bandit","301","1144259","0.0-263.0-0.0","69669820","wem/bandit_party_2","A3IU1VEGMR0HBC","either","6","161","","","","","","","1","0","0","0.622086605","","0.8","0.4","0.2","0.6","","","","","0.622086605","0.3582518194","0.5460784034","0.1770547834","","","","","","","","","","72","H","0","img/none_selected.jpg","","222","main_expt",""
"","bandit","302","1145995","0.0-264.0-0.0","69669820","wem/bandit_party_2","A3IU1VEGMR0HBC","either","6","170","","","","","","","0","0","1","0.6190419158","","0.8","0.4","0.2","0.6","","","","","0.6190419158","0.3596631187","0.5484594206","0.1494166006","","","","","","","","","","72","H","0","img/none_selected.jpg","","223","main_expt",""
"","bandit","303","1147704","0.0-265.0-0.0","69669820","wem/bandit_party_2","A3IU1VEGMR0HBC","either","6","132","","","","","","","1","0","0","0.6525227655","","0.8","0.4","0.2","0.6","","","","","0.6525227655","0.4757784632","0.5156266917","0.1444184755","","","","","","","","","","72","H","0","img/none_selected.jpg","","224","main_expt",""
"","bandit","304","1149490","0.0-266.0-0.0","69669820","wem/bandit_party_2","A3IU1VEGMR0HBC","either","6","203","","","","","","","0","0","1","0.5739960468","","0.8","0.4","0.2","0.6","","","","","0.5739960468","0.5384710229","0.5120039273","0.2381889698","","","","","","","","","","72","H","0","img/none_selected.jpg","","225","main_expt",""
"","bandit","305","1151167","0.0-267.0-0.0","69669820","wem/bandit_party_2","A3IU1VEGMR0HBC","either","6","93","","","","","","","1","0","0","0.5308581489","","0.8","0.4","0.2","0.6","","","","","0.6038380469","0.5308581489","0.5568413113","0.1429230379","","","","","","","","","","74","J","1","","","226","main_expt",""
"","bandit","306","1153067","0.0-268.0-0.0","69669820","wem/bandit_party_2","A3IU1VEGMR0HBC","either","6","338","","","","","","","0","1","0","","0.488482713","0.8","0.4","0.2","0.6","0.5203417309","0.488482713","0.5277183188","0.124100867","","","","","","","","","","","","","","74","J","1","","","227","main_expt",""
"","bandit","307","1154935","0.0-269.0-0.0","69669820","wem/bandit_party_2","A3IU1VEGMR0HBC","either","6","272","","","","","","","0","0","1","0.4406219513","","0.8","0.4","0.2","0.6","","","","","0.4263922038","0.4406219513","0.5041270258","0.1762219884","","","","","","","","","","74","J","1","","","228","main_expt",""
"","bandit","308","1156775","0.0-270.0-0.0","69669820","wem/bandit_party_2","A3IU1VEGMR0HBC","either","6","257","","","","","","","0","0","1","0.4892119921","","0.8","0.4","0.2","0.6","","","","","0.3475105047","0.4892119921","0.4541369304","0.1910325121","","","","","","","","","","74","J","1","","","229","main_expt",""
"","bandit","309","1158627","0.0-271.0-0.0","69669820","wem/bandit_party_2","A3IU1VEGMR0HBC","either","6","246","","","","","","","1","0","0","0.5129573662","","0.8","0.4","0.2","0.6","","","","","0.3353007417","0.5129573662","0.4504381994","0.2571549068","","","","","","","","","","74","J","1","","","230","main_expt",""
"","bandit","310","1160595","0.0-272.0-0.0","69669820","wem/bandit_party_2","A3IU1VEGMR0HBC","either","6","370","","","","","","","0","0","1","","0.4382888871","0.8","0.4","0.2","0.6","0.2870546929","0.4382888871","0.4698668598","0.1781345747","","","","","","","","","","","","","","74","J","1","","","231","main_expt",""
"","bandit","311","1162536","0.0-273.0-0.0","69669820","wem/bandit_party_2","A3IU1VEGMR0HBC","either","6","359","","","","","","","0","0","1","0.42174841","","0.8","0.4","0.2","0.6","","","","","0.3092655517","0.42174841","0.5460008395","0.1748933913","","","","","","","","","","74","J","1","","","232","main_expt",""
"","bandit","312","1164825","0.0-274.0-0.0","69669820","wem/bandit_party_2","A3IU1VEGMR0HBC","either","6","701","","","","","","","0","0","1","0.4297142637","","0.8","0.4","0.2","0.6","","","","","0.4231157335","0.4297142637","0.5345299581","0.2196371411","","","","","","","","","","74","J","1","","","233","main_expt",""
"","bandit","313","1166626","0.0-275.0-0.0","69669820","wem/bandit_party_2","A3IU1VEGMR0HBC","either","6","222","","","","","","","0","0","1","","0.3016140143","0.8","0.4","0.2","0.6","0.5525929145","0.3016140143","0.508060833","0.2052749597","","","","","","","","","","","","","","74","J","1","","","234","main_expt",""
"","bandit","314","1187249","0.0-276.0-0.0","69669820","wem/bandit_party_2","A3IU1VEGMR0HBC","either","6","19051","","","","","","","0","0","1","","0.4956589368","0.8","0.4","0.2","0.6","0.7239072418","0.2735586703","0.4956589368","0.3158924645","","","","","","","","","","","","","","75","K","2","","","235","main_expt",""
"","bandit","315","1188868","0.0-277.0-0.0","69669820","wem/bandit_party_2","A3IU1VEGMR0HBC","either","6","43","","","","","","","0","0","1","","0.5514737959","0.8","0.4","0.2","0.6","0.8076920848","0.2536827631","0.5514737959","0.3668106878","","","","","","","","","","","","","","75","K","2","","","236","main_expt",""
