"consent","trial_type","trial_index","time_elapsed","internal_node_id","subjID","study","MID","cond","drift","rt","responses","button_pressed","key_press","like","value","connected","gems","bombs","no_reward","GemPrChosen","BombPrChosen","GainOverPainPr_0","GainOverPainPr_1","GainOverPainPr_2","GainOverPainPr_3","LosePr_0","LosePr_1","LosePr_2","LosePr_3","WinPr_0","WinPr_1","WinPr_2","WinPr_3","Q0","Q1","Q2","gender","age","ethnicity","label","expt_phase","target","respCharCode","respKey","respChoiceNum","respChoice","practice","trial_counter","trial_label","Q0_index"
"GDM/GDM_behavioral_consent_30min_online.html","consent","0","11293","0.0-0.0","70507638","wem/bandit_party_2","A16335MOISDG1F","either","4","","","","","","","","","","","","","","","","","","","","","","","","","","","","","","","","","","","","","","","","",""
"","survey-text","1","22573","0.0-1.0","70507638","wem/bandit_party_2","A16335MOISDG1F","either","4","10275","{""Q0"":""A16335MOISDG1F""}","","","","","","","","","","","","","","","","","","","","","","","","","","","","","","","","","","","","","","",""
"","button-response","2","33934","0.0-2.0","70507638","wem/bandit_party_2","A16335MOISDG1F","either","4","10357","","2","","","","","","","","","","","","","","","","","","","","","","","","","","","","","","","","","","","","","",""
"","text-replacement","3","60308","0.0-3.0","70507638","wem/bandit_party_2","A16335MOISDG1F","either","4","25371","","","32","","","","","","","","","","","","","","","","","","","","","","","","","","","","","","","","","","","","",""
"","text-replacement","4","95870","0.0-4.0","70507638","wem/bandit_party_2","A16335MOISDG1F","either","4","35560","","","32","","","","","","","","","","","","","","","","","","","","","","","","","","","","","","","","","","","","",""
"","text-replacement","5","102647","0.0-5.0-0.0","70507638","wem/bandit_party_2","A16335MOISDG1F","either","4","6776","","","32","","","","","","","","","","","","","","","","","","","","","","","","","","","","","","","","","","","","",""
"","identification","6","113615","0.0-6.0-0.0","70507638","wem/bandit_party_2","A16335MOISDG1F","either","4","10952","","","","3","2","2","","","","","","","","","","","","","","","","","","","","","","","","pre","identification_pre","the Republican Party","","","","","","","",""
"","identification","7","120595","0.0-6.0-1.0","70507638","wem/bandit_party_2","A16335MOISDG1F","either","4","5973","","","","3","2","2","","","","","","","","","","","","","","","","","","","","","","","","pre","identification_pre","the Democratic Party","","","","","","","",""
"","text-replacement","8","138571","0.0-7.0","70507638","wem/bandit_party_2","A16335MOISDG1F","either","4","16974","","","32","","","","","","","","","","","","","","","","","","","","","","","","","","","","","","","","","","","","",""
"","text-replacement","9","146444","0.0-8.0","70507638","wem/bandit_party_2","A16335MOISDG1F","either","4","7872","","","32","","","","","","","","","","","","","","","","","","","","","","","","","","","","","","","","","","","","",""
"","text-replacement","10","171353","0.0-9.0","70507638","wem/bandit_party_2","A16335MOISDG1F","either","4","24908","","","32","","","","","","","","","","","","","","","","","","","","","","","","","","","","","","","","","","","","",""
"","text-replacement","11","174977","0.0-10.0","70507638","wem/bandit_party_2","A16335MOISDG1F","either","4","3623","","","32","","","","","","","","","","","","","","","","","","","","","","","","","","","","","","","","","","","","",""
"","text-replacement","12","180936","0.0-11.0","70507638","wem/bandit_party_2","A16335MOISDG1F","either","4","5958","","","32","","","","","","","","","","","","","","","","","","","","","","","","","","","","","","","","","","","","",""
"","bandit","13","187902","0.0-12.0-0.0","70507638","wem/bandit_party_2","A16335MOISDG1F","either","4","5461","","","","","","","0","0","1","0","0","","","","","0","","","","0","","","","","","","","","","","","","74","J","0","img/none_selected_demo.jpg","true","0","",""
"","bandit","14","190642","0.0-13.0-0.0","70507638","wem/bandit_party_2","A16335MOISDG1F","either","4","1238","","","","","","","0","0","1","0","0","","","","","0","","","","0","","","","","","","","","","","","","75","K","0","img/none_selected_demo.jpg","true","0","",""
"","text-replacement","15","211519","0.0-14.0","70507638","wem/bandit_party_2","A16335MOISDG1F","either","4","20876","","","32","","","","","","","","","","","","","","","","","","","","","","","","","","","","","","","","","","","","",""
"","text-replacement","16","220470","0.0-15.0","70507638","wem/bandit_party_2","A16335MOISDG1F","either","4","8950","","","32","","","","","","","","","","","","","","","","","","","","","","","","","","","","","","","","","","","","",""
"","text-replacement","17","234235","0.0-16.0","70507638","wem/bandit_party_2","A16335MOISDG1F","either","4","13764","","","32","","","","","","","","","","","","","","","","","","","","","","","","","","","","","","","","","","","","",""
"","text-replacement","18","241706","0.0-17.0","70507638","wem/bandit_party_2","A16335MOISDG1F","either","4","7469","","","32","","","","","","","","","","","","","","","","","","","","","","","","","","","","","","","","","","","","",""
"","bandit","19","244219","0.0-18.0-0.0","70507638","wem/bandit_party_2","A16335MOISDG1F","either","4","1009","","","","","","","0","1","0","","0.8","0.5","0.5","","","0.8","0.2","","","","","","","","","","","","","","","","74","J","0","img/none_selected_demo.jpg","true","0","80_20_practice",""
"","bandit","20","245874","0.0-18.0-1.0","70507638","wem/bandit_party_2","A16335MOISDG1F","either","4","151","","","","","","","1","0","0","0.8","","0.5","0.5","","","","","","","0.8","0.2","","","","","","","","","","","","74","J","0","img/none_selected_demo.jpg","true","0","80_20_practice",""
"","bandit","21","248534","0.0-18.0-2.0","70507638","wem/bandit_party_2","A16335MOISDG1F","either","4","1156","","","","","","","1","0","0","0.8","","0.5","0.5","","","","","","","0.8","0.2","","","","","","","","","","","","74","J","0","img/none_selected_demo.jpg","true","0","80_20_practice",""
"","bandit","22","250494","0.0-18.0-3.0","70507638","wem/bandit_party_2","A16335MOISDG1F","either","4","457","","","","","","","1","0","0","0.8","","0.5","0.5","","","","","","","0.8","0.2","","","","","","","","","","","","74","J","0","img/none_selected_demo.jpg","true","0","80_20_practice",""
"","bandit","23","252143","0.0-18.0-4.0","70507638","wem/bandit_party_2","A16335MOISDG1F","either","4","146","","","","","","","1","0","0","0.8","","0.5","0.5","","","","","","","0.8","0.2","","","","","","","","","","","","74","J","0","img/none_selected_demo.jpg","true","0","80_20_practice",""
"","bandit","24","254629","0.0-18.0-5.0","70507638","wem/bandit_party_2","A16335MOISDG1F","either","4","983","","","","","","","1","0","0","0.8","","0.5","0.5","","","","","","","0.8","0.2","","","","","","","","","","","","74","J","0","img/none_selected_demo.jpg","true","0","80_20_practice",""
"","bandit","25","256423","0.0-18.0-6.0","70507638","wem/bandit_party_2","A16335MOISDG1F","either","4","290","","","","","","","0","1","0","","0.8","0.5","0.5","","","0.8","0.2","","","","","","","","","","","","","","","","74","J","0","img/none_selected_demo.jpg","true","0","80_20_practice",""
"","bandit","26","258012","0.0-18.0-7.0","70507638","wem/bandit_party_2","A16335MOISDG1F","either","4","85","","","","","","","0","0","1","","0.8","0.5","0.5","","","0.8","0.2","","","","","","","","","","","","","","","","74","J","0","img/none_selected_demo.jpg","true","0","80_20_practice",""
"","bandit","27","259520","0.0-18.0-8.0","70507638","wem/bandit_party_2","A16335MOISDG1F","either","4","5","","","","","","","0","1","0","","0.8","0.5","0.5","","","0.8","0.2","","","","","","","","","","","","","","","","74","J","0","img/none_selected_demo.jpg","true","0","80_20_practice",""
"","bandit","28","261926","0.0-18.0-9.0","70507638","wem/bandit_party_2","A16335MOISDG1F","either","4","903","","","","","","","1","0","0","0.8","","0.5","0.5","","","","","","","0.8","0.2","","","","","","","","","","","","74","J","0","img/none_selected_demo.jpg","true","0","80_20_practice",""
"","bandit","29","263710","0.0-18.0-10.0","70507638","wem/bandit_party_2","A16335MOISDG1F","either","4","280","","","","","","","0","1","0","","0.8","0.5","0.5","","","0.8","0.2","","","","","","","","","","","","","","","","74","J","0","img/none_selected_demo.jpg","true","0","80_20_practice",""
"","bandit","30","265314","0.0-18.0-11.0","70507638","wem/bandit_party_2","A16335MOISDG1F","either","4","101","","","","","","","0","1","0","","0.8","0.5","0.5","","","0.8","0.2","","","","","","","","","","","","","","","","74","J","0","img/none_selected_demo.jpg","true","0","80_20_practice",""
"","bandit","31","267078","0.0-18.0-12.0","70507638","wem/bandit_party_2","A16335MOISDG1F","either","4","260","","","","","","","0","1","0","","0.8","0.5","0.5","","","0.8","0.2","","","","","","","","","","","","","","","","74","J","0","img/none_selected_demo.jpg","true","0","80_20_practice",""
"","bandit","32","268782","0.0-18.0-13.0","70507638","wem/bandit_party_2","A16335MOISDG1F","either","4","201","","","","","","","1","0","0","0.8","","0.5","0.5","","","","","","","0.8","0.2","","","","","","","","","","","","74","J","0","img/none_selected_demo.jpg","true","0","80_20_practice",""
"","bandit","33","272411","0.0-18.0-14.0","70507638","wem/bandit_party_2","A16335MOISDG1F","either","4","2126","","","","","","","1","0","0","0.8","","0.5","0.5","","","","","","","0.8","0.2","","","","","","","","","","","","74","J","0","img/none_selected_demo.jpg","true","0","80_20_practice",""
"","bandit","34","275518","0.0-18.0-15.0","70507638","wem/bandit_party_2","A16335MOISDG1F","either","4","1604","","","","","","","1","0","0","0.8","","0.5","0.5","","","","","","","0.8","0.2","","","","","","","","","","","","74","J","0","img/none_selected_demo.jpg","true","0","80_20_practice",""
"","bandit","35","277147","0.0-18.0-16.0","70507638","wem/bandit_party_2","A16335MOISDG1F","either","4","125","","","","","","","0","0","1","","0.8","0.5","0.5","","","0.8","0.2","","","","","","","","","","","","","","","","74","J","0","img/none_selected_demo.jpg","true","0","80_20_practice",""
"","bandit","36","278831","0.0-18.0-17.0","70507638","wem/bandit_party_2","A16335MOISDG1F","either","4","180","","","","","","","0","1","0","","0.8","0.5","0.5","","","0.8","0.2","","","","","","","","","","","","","","","","74","J","0","img/none_selected_demo.jpg","true","0","80_20_practice",""
"","bandit","37","280535","0.0-18.0-18.0","70507638","wem/bandit_party_2","A16335MOISDG1F","either","4","201","","","","","","","1","0","0","0.8","","0.5","0.5","","","","","","","0.8","0.2","","","","","","","","","","","","74","J","0","img/none_selected_demo.jpg","true","0","80_20_practice",""
"","bandit","38","282184","0.0-18.0-19.0","70507638","wem/bandit_party_2","A16335MOISDG1F","either","4","146","","","","","","","0","1","0","","0.8","0.5","0.5","","","0.8","0.2","","","","","","","","","","","","","","","","74","J","0","img/none_selected_demo.jpg","true","0","80_20_practice",""
"","text-replacement","39","288482","0.0-19.0","70507638","wem/bandit_party_2","A16335MOISDG1F","either","4","6296","","","32","","","","","","","","","","","","","","","","","","","","","","","","","","","","","","","","","","","","",""
"","bandit","40","290454","0.0-20.0-0.0","70507638","wem/bandit_party_2","A16335MOISDG1F","either","4","468","","","","","","","1","0","0","1","0","","","","","0","1","","","1","0","","","","","","","","","","","","74","J","0","img/none_selected_demo.jpg","true","0","",""
"","text-replacement","41","299228","0.0-21.0","70507638","wem/bandit_party_2","A16335MOISDG1F","either","4","8772","","","32","","","","","","","","","","","","","","","","","","","","","","","","","","","","","","","","","","","","",""
"","text-replacement","42","304420","0.0-22.0","70507638","wem/bandit_party_2","A16335MOISDG1F","either","4","5189","","","32","","","","","","","","","","","","","","","","","","","","","","","","","","","","","","","","","","","","",""
"","text-replacement","43","309216","0.0-23.0","70507638","wem/bandit_party_2","A16335MOISDG1F","either","4","4795","","","32","","","","","","","","","","","","","","","","","","","","","","","","","","","","","","","","","","","","",""
"","text-replacement","44","314649","0.0-24.0","70507638","wem/bandit_party_2","A16335MOISDG1F","either","4","5432","","","32","","","","","","","","","","","","","","","","","","","","","","","","","","","","","","","","","","","","",""
"","text-replacement","45","329294","0.0-25.0","70507638","wem/bandit_party_2","A16335MOISDG1F","either","4","14644","","","32","","","","","","","","","","","","","","","","","","","","","","","","","","","","","","","","","","","","",""
"","text-replacement","46","336676","0.0-26.0","70507638","wem/bandit_party_2","A16335MOISDG1F","either","4","7380","","","32","","","","","","","","","","","","","","","","","","","","","","","","","","","","","","","","","","","","",""
"","text-replacement","47","344638","0.0-27.0","70507638","wem/bandit_party_2","A16335MOISDG1F","either","4","7960","","","32","","","","","","","","","","","","","","","","","","","","","","","","","","","","","","","","","","","","",""
"","text-replacement","48","349657","0.0-28.0","70507638","wem/bandit_party_2","A16335MOISDG1F","either","4","5015","","","32","","","","","","","","","","","","","","","","","","","","","","","","","","","","","","","","","","","","",""
"","text-replacement","49","357079","0.0-29.0","70507638","wem/bandit_party_2","A16335MOISDG1F","either","4","7421","","","32","","","","","","","","","","","","","","","","","","","","","","","","","","","","","","","","","","","","",""
"","text-replacement","50","359460","0.0-30.0","70507638","wem/bandit_party_2","A16335MOISDG1F","either","4","2380","","","32","","","","","","","","","","","","","","","","","","","","","","","","","","","","","","","","","","","","",""
"","text-replacement","51","362558","0.0-31.0","70507638","wem/bandit_party_2","A16335MOISDG1F","either","4","3096","","","32","","","","","","","","","","","","","","","","","","","","","","","","","","","","","","","","","","","","",""
"","bandit","52","364825","0.0-32.0-0.0","70507638","wem/bandit_party_2","A16335MOISDG1F","either","4","764","","","","","","","0","0","1","","0.2","0.5","0.5","0.5","0.5","0.8","0.2","0.6","0.2","","","","","","","","","","","","","","74","J","1","","true","0","full_practice",""
"","bandit","53","366630","0.0-32.0-1.0","70507638","wem/bandit_party_2","A16335MOISDG1F","either","4","301","","","","","","","0","0","1","0.2","","0.5","0.5","0.5","0.5","","","","","0.8","0.2","0.6","0.2","","","","","","","","","","74","J","1","","true","0","full_practice",""
"","bandit","54","369276","0.0-32.0-2.0","70507638","wem/bandit_party_2","A16335MOISDG1F","either","4","1140","","","","","","","0","0","1","0.6","","0.5","0.5","0.5","0.5","","","","","0.8","0.2","0.6","0.2","","","","","","","","","","75","K","2","","true","0","full_practice",""
"","bandit","55","371056","0.0-32.0-3.0","70507638","wem/bandit_party_2","A16335MOISDG1F","either","4","277","","","","","","","0","0","1","","0.6","0.5","0.5","0.5","0.5","0.8","0.2","0.6","0.2","","","","","","","","","","","","","","75","K","2","","true","0","full_practice",""
"","bandit","56","372885","0.0-32.0-4.0","70507638","wem/bandit_party_2","A16335MOISDG1F","either","4","325","","","","","","","0","0","1","","0.6","0.5","0.5","0.5","0.5","0.8","0.2","0.6","0.2","","","","","","","","","","","","","","75","K","2","","true","0","full_practice",""
"","bandit","57","376097","0.0-32.0-5.0","70507638","wem/bandit_party_2","A16335MOISDG1F","either","4","1710","","","","","","","0","1","0","","0.8","0.5","0.5","0.5","0.5","0.8","0.2","0.6","0.2","","","","","","","","","","","","","","72","H","0","img/none_selected.jpg","true","0","full_practice",""
"","bandit","58","377846","0.0-32.0-6.0","70507638","wem/bandit_party_2","A16335MOISDG1F","either","4","246","","","","","","","0","1","0","","0.8","0.5","0.5","0.5","0.5","0.8","0.2","0.6","0.2","","","","","","","","","","","","","","72","H","0","img/none_selected.jpg","true","0","full_practice",""
"","bandit","59","379638","0.0-32.0-7.0","70507638","wem/bandit_party_2","A16335MOISDG1F","either","4","288","","","","","","","0","1","0","","0.8","0.5","0.5","0.5","0.5","0.8","0.2","0.6","0.2","","","","","","","","","","","","","","72","H","0","img/none_selected.jpg","true","0","full_practice",""
"","bandit","60","381415","0.0-32.0-8.0","70507638","wem/bandit_party_2","A16335MOISDG1F","either","4","274","","","","","","","0","0","1","0.8","","0.5","0.5","0.5","0.5","","","","","0.8","0.2","0.6","0.2","","","","","","","","","","72","H","0","img/none_selected.jpg","true","0","full_practice",""
"","bandit","61","383188","0.0-32.0-9.0","70507638","wem/bandit_party_2","A16335MOISDG1F","either","4","271","","","","","","","1","0","0","0.8","","0.5","0.5","0.5","0.5","","","","","0.8","0.2","0.6","0.2","","","","","","","","","","72","H","0","img/none_selected.jpg","true","0","full_practice",""
"","bandit","62","384828","0.0-32.0-10.0","70507638","wem/bandit_party_2","A16335MOISDG1F","either","4","136","","","","","","","0","1","0","","0.8","0.5","0.5","0.5","0.5","0.8","0.2","0.6","0.2","","","","","","","","","","","","","","72","H","0","img/none_selected.jpg","true","0","full_practice",""
"","bandit","63","386366","0.0-32.0-11.0","70507638","wem/bandit_party_2","A16335MOISDG1F","either","4","35","","","","","","","0","1","0","","0.8","0.5","0.5","0.5","0.5","0.8","0.2","0.6","0.2","","","","","","","","","","","","","","72","H","0","img/none_selected.jpg","true","0","full_practice",""
"","bandit","64","387916","0.0-32.0-12.0","70507638","wem/bandit_party_2","A16335MOISDG1F","either","4","46","","","","","","","0","1","0","","0.8","0.5","0.5","0.5","0.5","0.8","0.2","0.6","0.2","","","","","","","","","","","","","","72","H","0","img/none_selected.jpg","true","0","full_practice",""
"","bandit","65","389519","0.0-32.0-13.0","70507638","wem/bandit_party_2","A16335MOISDG1F","either","4","100","","","","","","","0","1","0","","0.8","0.5","0.5","0.5","0.5","0.8","0.2","0.6","0.2","","","","","","","","","","","","","","72","H","0","img/none_selected.jpg","true","0","full_practice",""
"","bandit","66","391082","0.0-32.0-14.0","70507638","wem/bandit_party_2","A16335MOISDG1F","either","4","58","","","","","","","0","0","1","","0.8","0.5","0.5","0.5","0.5","0.8","0.2","0.6","0.2","","","","","","","","","","","","","","72","H","0","img/none_selected.jpg","true","0","full_practice",""
"","bandit","67","392606","0.0-32.0-15.0","70507638","wem/bandit_party_2","A16335MOISDG1F","either","4","20","","","","","","","0","1","0","","0.8","0.5","0.5","0.5","0.5","0.8","0.2","0.6","0.2","","","","","","","","","","","","","","72","H","0","img/none_selected.jpg","true","0","full_practice",""
"","bandit","68","394139","0.0-32.0-16.0","70507638","wem/bandit_party_2","A16335MOISDG1F","either","4","30","","","","","","","1","0","0","0.8","","0.5","0.5","0.5","0.5","","","","","0.8","0.2","0.6","0.2","","","","","","","","","","72","H","0","img/none_selected.jpg","true","0","full_practice",""
"","bandit","69","396615","0.0-32.0-17.0","70507638","wem/bandit_party_2","A16335MOISDG1F","either","4","973","","","","","","","1","0","0","0.8","","0.5","0.5","0.5","0.5","","","","","0.8","0.2","0.6","0.2","","","","","","","","","","72","H","0","img/none_selected.jpg","true","0","full_practice",""
"","bandit","70","398852","0.0-32.0-18.0","70507638","wem/bandit_party_2","A16335MOISDG1F","either","4","733","","","","","","","0","0","1","","0.8","0.5","0.5","0.5","0.5","0.8","0.2","0.6","0.2","","","","","","","","","","","","","","72","H","0","img/none_selected.jpg","true","0","full_practice",""
"","bandit","71","400511","0.0-32.0-19.0","70507638","wem/bandit_party_2","A16335MOISDG1F","either","4","154","","","","","","","0","0","1","","0.8","0.5","0.5","0.5","0.5","0.8","0.2","0.6","0.2","","","","","","","","","","","","","","72","H","0","img/none_selected.jpg","true","0","full_practice",""
"","text","72","406342","0.0-33.0","70507638","wem/bandit_party_2","A16335MOISDG1F","either","4","5828","","","32","","","","","","","","","","","","","","","","","","","","","","","","","","","","","","","","","","","","",""
"","text-replacement","73","423868","0.0-34.0","70507638","wem/bandit_party_2","A16335MOISDG1F","either","4","16524","","","32","","","","","","","","","","","","","","","","","","","","","","","","","","","","","","","","","","","","",""
"","text-replacement","74","446772","0.0-35.0","70507638","wem/bandit_party_2","A16335MOISDG1F","either","4","22903","","","32","","","","","","","","","","","","","","","","","","","","","","","","","","","","","","","","","","","","",""
"","text-replacement","75","453744","0.0-36.0","70507638","wem/bandit_party_2","A16335MOISDG1F","either","4","6971","","","32","","","","","","","","","","","","","","","","","","","","","","","","","","","","","","","","","","","","",""
"","text-replacement","76","464043","0.0-37.0","70507638","wem/bandit_party_2","A16335MOISDG1F","either","4","10298","","","32","","","","","","","","","","","","","","","","","","","","","","","","","","","","","","","","","","","","",""
"","text-replacement","77","469917","0.0-38.0","70507638","wem/bandit_party_2","A16335MOISDG1F","either","4","5872","","","32","","","","","","","","","","","","","","","","","","","","","","","","","","","","","","","","","","","","",""
"","survey-multi-choice-replacement","78","475876","0.0-39.0-0.0","70507638","wem/bandit_party_2","A16335MOISDG1F","either","4","5955","","","","","","","","","","","","","","","","","","","","","","","","Money will be added to the pool for <span style='color:blue;'>DEMOCRATS</span>","","","","","","","attn_check","","","","","","","","","0"
"","survey-multi-choice-replacement","79","483252","0.0-40.0-0.0","70507638","wem/bandit_party_2","A16335MOISDG1F","either","4","6370","","","","","","","","","","","","","","","","","","","","","","","","Equal amounts of money will be added to the pool for <span style='color:blue;'>DEMOCRATS</span> and subtracted from the pool for <span style='color:red;'>REPUBLICANS</span>","","","","","","","attn_check","","","","","","","","","2"
"","survey-multi-choice-replacement","80","487659","0.0-41.0-0.0","70507638","wem/bandit_party_2","A16335MOISDG1F","either","4","3402","","","","","","","","","","","","","","","","","","","","","","","","No money will be added to either pool","","","","","","","attn_check","","","","","","","","","3"
"","bandit","81","494453","0.0-42.0-0.0","70507638","wem/bandit_party_2","A16335MOISDG1F","either","4","4289","","","","","","","0","1","0","","0.9858900825","0.2","0.8","0.4","0.6","0.9858900825","0.8209843215","0.2887693562","0.7267404998","","","","","","","","","","","","","","72","H","0","img/none_selected.jpg","","1","main_expt",""
"","bandit","82","496583","0.0-43.0-0.0","70507638","wem/bandit_party_2","A16335MOISDG1F","either","4","627","","","","","","","0","1","0","","0.9854924354","0.2","0.8","0.4","0.6","0.9854924354","0.8179122382","0.2986217167","0.7034907646","","","","","","","","","","","","","","72","H","0","img/none_selected.jpg","","2","main_expt",""
"","bandit","83","498432","0.0-44.0-0.0","70507638","wem/bandit_party_2","A16335MOISDG1F","either","4","345","","","","","","","0","1","0","","0.9789624529","0.2","0.8","0.4","0.6","0.9789624529","0.8301291561","0.261346942","0.6574847675","","","","","","","","","","","","","","72","H","0","img/none_selected.jpg","","3","main_expt",""
"","bandit","84","500217","0.0-45.0-0.0","70507638","wem/bandit_party_2","A16335MOISDG1F","either","4","282","","","","","","","0","1","0","","0.9565345184","0.2","0.8","0.4","0.6","0.9565345184","0.8219157537","0.2757740293","0.5092805277","","","","","","","","","","","","","","72","H","0","img/none_selected.jpg","","4","main_expt",""
"","bandit","85","501976","0.0-46.0-0.0","70507638","wem/bandit_party_2","A16335MOISDG1F","either","4","255","","","","","","","0","1","0","","0.941194936","0.2","0.8","0.4","0.6","0.941194936","0.7759220463","0.3329857669","0.5952926025","","","","","","","","","","","","","","72","H","0","img/none_selected.jpg","","5","main_expt",""
"","bandit","86","503700","0.0-47.0-0.0","70507638","wem/bandit_party_2","A16335MOISDG1F","either","4","220","","","","","","","0","0","1","","0.9305219143","0.2","0.8","0.4","0.6","0.9305219143","0.7495930044","0.331878758","0.6160758637","","","","","","","","","","","","","","72","H","0","img/none_selected.jpg","","6","main_expt",""
"","bandit","87","505570","0.0-48.0-0.0","70507638","wem/bandit_party_2","A16335MOISDG1F","either","4","365","","","","","","","0","1","0","","0.937738562","0.2","0.8","0.4","0.6","0.937738562","0.7078030286","0.3863389794","0.6381806331","","","","","","","","","","","","","","72","H","0","img/none_selected.jpg","","7","main_expt",""
"","bandit","88","507268","0.0-49.0-0.0","70507638","wem/bandit_party_2","A16335MOISDG1F","either","4","195","","","","","","","0","1","0","","0.8269671957","0.2","0.8","0.4","0.6","0.8269671957","0.689407674","0.4242016385","0.7047831713","","","","","","","","","","","","","","72","H","0","img/none_selected.jpg","","8","main_expt",""
"","bandit","89","508867","0.0-50.0-0.0","70507638","wem/bandit_party_2","A16335MOISDG1F","either","4","94","","","","","","","1","0","0","0.7696709776","","0.2","0.8","0.4","0.6","","","","","0.7696709776","0.7848236408","0.379169242","0.6222923336","","","","","","","","","","72","H","0","img/none_selected.jpg","","9","main_expt",""
"","bandit","90","510511","0.0-51.0-0.0","70507638","wem/bandit_party_2","A16335MOISDG1F","either","4","140","","","","","","","0","1","0","","0.7313552403","0.2","0.8","0.4","0.6","0.7313552403","0.791363481","0.40569916","0.5629201009","","","","","","","","","","","","","","72","H","0","img/none_selected.jpg","","10","main_expt",""
"","bandit","91","512943","0.0-52.0-0.0","70507638","wem/bandit_party_2","A16335MOISDG1F","either","4","927","","","","","","","0","1","0","","0.8129169819","0.2","0.8","0.4","0.6","0.8129169819","0.7800632456","0.4188021694","0.644159789","","","","","","","","","","","","","","72","H","0","img/none_selected.jpg","","11","main_expt",""
"","bandit","92","514667","0.0-53.0-0.0","70507638","wem/bandit_party_2","A16335MOISDG1F","either","4","215","","","","","","","0","1","0","","0.7611571711","0.2","0.8","0.4","0.6","0.7611571711","0.7559884596","0.3689559917","0.6840372722","","","","","","","","","","","","","","72","H","0","img/none_selected.jpg","","12","main_expt",""
"","bandit","93","516490","0.0-54.0-0.0","70507638","wem/bandit_party_2","A16335MOISDG1F","either","4","318","","","","","","","0","1","0","","0.7628417147","0.2","0.8","0.4","0.6","0.7628417147","0.7695577991","0.4584943612","0.6236151953","","","","","","","","","","","","","","72","H","0","img/none_selected.jpg","","13","main_expt",""
"","bandit","94","518214","0.0-55.0-0.0","70507638","wem/bandit_party_2","A16335MOISDG1F","either","4","219","","","","","","","0","1","0","","0.7436451733","0.2","0.8","0.4","0.6","0.7436451733","0.8509931145","0.455083938","0.5388331182","","","","","","","","","","","","","","72","H","0","img/none_selected.jpg","","14","main_expt",""
"","bandit","95","519953","0.0-56.0-0.0","70507638","wem/bandit_party_2","A16335MOISDG1F","either","4","235","","","","","","","0","0","1","0.8256008488","","0.2","0.8","0.4","0.6","","","","","0.8256008488","0.7745856811","0.5360112786","0.4802769188","","","","","","","","","","72","H","0","img/none_selected.jpg","","15","main_expt",""
"","bandit","96","521683","0.0-57.0-0.0","70507638","wem/bandit_party_2","A16335MOISDG1F","either","4","227","","","","","","","0","1","0","","0.7683027423","0.2","0.8","0.4","0.6","0.7683027423","0.7576521113","0.4791571541","0.4688000192","","","","","","","","","","","","","","72","H","0","img/none_selected.jpg","","16","main_expt",""
"","bandit","97","523433","0.0-58.0-0.0","70507638","wem/bandit_party_2","A16335MOISDG1F","either","4","246","","","","","","","0","0","1","","0.7857675768","0.2","0.8","0.4","0.6","0.7857675768","0.8099558365","0.5263630166","0.6000602573","","","","","","","","","","","","","","72","H","0","img/none_selected.jpg","","17","main_expt",""
"","bandit","98","525211","0.0-59.0-0.0","70507638","wem/bandit_party_2","A16335MOISDG1F","either","4","272","","","","","","","0","1","0","","0.7303419725","0.2","0.8","0.4","0.6","0.7303419725","0.7535280451","0.543945959","0.6046592687","","","","","","","","","","","","","","72","H","0","img/none_selected.jpg","","18","main_expt",""
"","bandit","99","526871","0.0-60.0-0.0","70507638","wem/bandit_party_2","A16335MOISDG1F","either","4","156","","","","","","","0","0","1","","0.7243255268","0.2","0.8","0.4","0.6","0.7243255268","0.7206444799","0.4579801682","0.6177236116","","","","","","","","","","","","","","72","H","0","img/none_selected.jpg","","19","main_expt",""
"","bandit","100","528494","0.0-61.0-0.0","70507638","wem/bandit_party_2","A16335MOISDG1F","either","4","119","","","","","","","1","0","0","0.6388551968","","0.2","0.8","0.4","0.6","","","","","0.7691283854","0.6388551968","0.5439896582","0.5484637992","","","","","","","","","","74","J","1","","","20","main_expt",""
"","bandit","101","530448","0.0-62.0-0.0","70507638","wem/bandit_party_2","A16335MOISDG1F","either","4","451","","","","","","","1","0","0","0.4956822649","","0.2","0.8","0.4","0.6","","","","","0.7068464658","0.4956822649","0.5796019833","0.6646151354","","","","","","","","","","74","J","1","","","21","main_expt",""
"","bandit","102","532179","0.0-63.0-0.0","70507638","wem/bandit_party_2","A16335MOISDG1F","either","4","226","","","","","","","1","0","0","0.4316307404","","0.2","0.8","0.4","0.6","","","","","0.7407239748","0.4316307404","0.5885929095","0.7223938077","","","","","","","","","","74","J","1","","","22","main_expt",""
"","bandit","103","533867","0.0-64.0-0.0","70507638","wem/bandit_party_2","A16335MOISDG1F","either","4","184","","","","","","","1","0","0","0.4158022912","","0.2","0.8","0.4","0.6","","","","","0.7300920021","0.4158022912","0.4899642796","0.7548690184","","","","","","","","","","74","J","1","","","23","main_expt",""
"","bandit","104","535601","0.0-65.0-0.0","70507638","wem/bandit_party_2","A16335MOISDG1F","either","4","228","","","","","","","1","0","0","0.4099928258","","0.2","0.8","0.4","0.6","","","","","0.7074307303","0.4099928258","0.4984159311","0.7794954679","","","","","","","","","","74","J","1","","","24","main_expt",""
"","bandit","105","537280","0.0-66.0-0.0","70507638","wem/bandit_party_2","A16335MOISDG1F","either","4","174","","","","","","","0","0","1","0.4303724308","","0.2","0.8","0.4","0.6","","","","","0.6228099684","0.4303724308","0.5885503773","0.8029664172","","","","","","","","","","74","J","1","","","25","main_expt",""
"","bandit","106","539024","0.0-67.0-0.0","70507638","wem/bandit_party_2","A16335MOISDG1F","either","4","240","","","","","","","0","0","1","0.3291624114","","0.2","0.8","0.4","0.6","","","","","0.5588879168","0.3291624114","0.6978100054","0.6980766755","","","","","","","","","","74","J","1","","","26","main_expt",""
"","bandit","107","540833","0.0-68.0-0.0","70507638","wem/bandit_party_2","A16335MOISDG1F","either","4","306","","","","","","","1","0","0","0.3795789415","","0.2","0.8","0.4","0.6","","","","","0.5033257713","0.3795789415","0.6442468271","0.7021498626","","","","","","","","","","74","J","1","","","27","main_expt",""
"","bandit","108","542607","0.0-69.0-0.0","70507638","wem/bandit_party_2","A16335MOISDG1F","either","4","269","","","","","","","0","0","1","0.3208573938","","0.2","0.8","0.4","0.6","","","","","0.4915102133","0.3208573938","0.7399213538","0.7802436781","","","","","","","","","","74","J","1","","","28","main_expt",""
"","bandit","109","544623","0.0-70.0-0.0","70507638","wem/bandit_party_2","A16335MOISDG1F","either","4","509","","","","","","","0","1","0","","0.7520253205","0.2","0.8","0.4","0.6","0.4291187576","0.3352919619","0.7520253205","0.6907923131","","","","","","","","","","","","","","75","K","2","","","29","main_expt",""
"","bandit","110","546296","0.0-71.0-0.0","70507638","wem/bandit_party_2","A16335MOISDG1F","either","4","168","","","","","","","0","1","0","","0.7528469829","0.2","0.8","0.4","0.6","0.5379907803","0.3452717309","0.7528469829","0.6771306444","","","","","","","","","","","","","","75","K","2","","","30","main_expt",""
"","bandit","111","547965","0.0-72.0-0.0","70507638","wem/bandit_party_2","A16335MOISDG1F","either","4","164","","","","","","","0","1","0","","0.7571908429","0.2","0.8","0.4","0.6","0.646046857","0.2967094522","0.7571908429","0.7130915948","","","","","","","","","","","","","","75","K","2","","","31","main_expt",""
"","bandit","112","549639","0.0-73.0-0.0","70507638","wem/bandit_party_2","A16335MOISDG1F","either","4","170","","","","","","","0","1","0","","0.7530934884","0.2","0.8","0.4","0.6","0.5608885347","0.255781972","0.7530934884","0.6849190202","","","","","","","","","","","","","","75","K","2","","","32","main_expt",""
"","bandit","113","551383","0.0-74.0-0.0","70507638","wem/bandit_party_2","A16335MOISDG1F","either","4","240","","","","","","","1","0","0","0.7163673585","","0.2","0.8","0.4","0.6","","","","","0.5952322697","0.2703771925","0.7163673585","0.7392612035","","","","","","","","","","75","K","2","","","33","main_expt",""
"","bandit","114","553079","0.0-75.0-0.0","70507638","wem/bandit_party_2","A16335MOISDG1F","either","4","191","","","","","","","0","1","0","","0.6817248107","0.2","0.8","0.4","0.6","0.6206609301","0.3572673824","0.6817248107","0.7026009082","","","","","","","","","","","","","","75","K","2","","","34","main_expt",""
"","bandit","115","554808","0.0-76.0-0.0","70507638","wem/bandit_party_2","A16335MOISDG1F","either","4","226","","","","","","","1","0","0","0.6903641832","","0.2","0.8","0.4","0.6","","","","","0.6223058769","0.3237575066","0.6903641832","0.632003728","","","","","","","","","","75","K","2","","","35","main_expt",""
"","bandit","116","556420","0.0-77.0-0.0","70507638","wem/bandit_party_2","A16335MOISDG1F","either","4","108","","","","","","","0","1","0","","0.6953747248","0.2","0.8","0.4","0.6","0.7304722347","0.3724209237","0.6953747248","0.7266912659","","","","","","","","","","","","","","75","K","2","","","36","main_expt",""
"","bandit","117","558094","0.0-78.0-0.0","70507638","wem/bandit_party_2","A16335MOISDG1F","either","4","170","","","","","","","1","0","0","0.7552078918","","0.2","0.8","0.4","0.6","","","","","0.6789706255","0.3848591071","0.7552078918","0.5512211225","","","","","","","","","","75","K","2","","","37","main_expt",""
"","bandit","118","559808","0.0-79.0-0.0","70507638","wem/bandit_party_2","A16335MOISDG1F","either","4","210","","","","","","","0","1","0","","0.7095976639","0.2","0.8","0.4","0.6","0.6758320082","0.4026628424","0.7095976639","0.5888446875","","","","","","","","","","","","","","75","K","2","","","38","main_expt",""
"","bandit","119","561512","0.0-80.0-0.0","70507638","wem/bandit_party_2","A16335MOISDG1F","either","4","200","","","","","","","0","1","0","","0.7813817897","0.2","0.8","0.4","0.6","0.753286291","0.460229008","0.7813817897","0.7349010221","","","","","","","","","","","","","","75","K","2","","","39","main_expt",""
"","bandit","120","563181","0.0-81.0-0.0","70507638","wem/bandit_party_2","A16335MOISDG1F","either","4","165","","","","","","","0","1","0","","0.7604460558","0.2","0.8","0.4","0.6","0.7527041006","0.3392787789","0.7604460558","0.6715391024","","","","","","","","","","","","","","75","K","2","","","40","main_expt",""
"","bandit","121","564785","0.0-82.0-0.0","70507638","wem/bandit_party_2","A16335MOISDG1F","either","4","100","","","","","","","0","1","0","","0.7588214983","0.2","0.8","0.4","0.6","0.7900808451","0.2983701942","0.7588214983","0.688235262","","","","","","","","","","","","","","75","K","2","","","41","main_expt",""
"","bandit","122","566429","0.0-83.0-0.0","70507638","wem/bandit_party_2","A16335MOISDG1F","either","4","140","","","","","","","0","1","0","","0.8204813903","0.2","0.8","0.4","0.6","0.7261157662","0.2390858253","0.8204813903","0.750516412","","","","","","","","","","","","","","75","K","2","","","42","main_expt",""
"","bandit","123","568088","0.0-84.0-0.0","70507638","wem/bandit_party_2","A16335MOISDG1F","either","4","155","","","","","","","0","1","0","","0.8310219988","0.2","0.8","0.4","0.6","0.772887471","0.1877526289","0.8310219988","0.775378891","","","","","","","","","","","","","","75","K","2","","","43","main_expt",""
"","bandit","124","569822","0.0-85.0-0.0","70507638","wem/bandit_party_2","A16335MOISDG1F","either","4","230","","","","","","","0","1","0","","0.8165903167","0.2","0.8","0.4","0.6","0.7359848823","0.2713877418","0.8165903167","0.5983035632","","","","","","","","","","","","","","75","K","2","","","44","main_expt",""
"","bandit","125","571548","0.0-86.0-0.0","70507638","wem/bandit_party_2","A16335MOISDG1F","either","4","222","","","","","","","0","0","1","","0.6765015189","0.2","0.8","0.4","0.6","0.6223954065","0.2600408605","0.6765015189","0.6453890447","","","","","","","","","","","","","","75","K","2","","","45","main_expt",""
"","bandit","126","573345","0.0-87.0-0.0","70507638","wem/bandit_party_2","A16335MOISDG1F","either","4","292","","","","","","","0","0","1","0.6613510417","","0.2","0.8","0.4","0.6","","","","","0.5963379238","0.2435580982","0.6613510417","0.4979639723","","","","","","","","","","75","K","2","","","46","main_expt",""
"","bandit","127","574924","0.0-88.0-0.0","70507638","wem/bandit_party_2","A16335MOISDG1F","either","4","75","","","","","","","1","0","0","0.4475739324","","0.2","0.8","0.4","0.6","","","","","0.6161308884","0.3258971046","0.7373034573","0.4475739324","","","","","","","","","","76","L","3","","","47","main_expt",""
"","bandit","128","576628","0.0-89.0-0.0","70507638","wem/bandit_party_2","A16335MOISDG1F","either","4","200","","","","","","","0","1","0","","0.570942939","0.2","0.8","0.4","0.6","0.6354722558","0.2934977076","0.6580913366","0.570942939","","","","","","","","","","","","","","76","L","3","","","48","main_expt",""
"","bandit","129","578322","0.0-90.0-0.0","70507638","wem/bandit_party_2","A16335MOISDG1F","either","4","190","","","","","","","1","0","0","0.5943858444","","0.2","0.8","0.4","0.6","","","","","0.5941747261","0.3381222087","0.6518545324","0.5943858444","","","","","","","","","","76","L","3","","","49","main_expt",""
"","bandit","130","579941","0.0-91.0-0.0","70507638","wem/bandit_party_2","A16335MOISDG1F","either","4","115","","","","","","","1","0","0","0.72156704","","0.2","0.8","0.4","0.6","","","","","0.5510631732","0.4149653651","0.6362385309","0.72156704","","","","","","","","","","76","L","3","","","50","main_expt",""
"","bandit","131","581660","0.0-92.0-0.0","70507638","wem/bandit_party_2","A16335MOISDG1F","either","4","215","","","","","","","0","1","0","","0.6453884322","0.2","0.8","0.4","0.6","0.5580995271","0.315936401","0.6673370403","0.6453884322","","","","","","","","","","","","","","76","L","3","","","51","main_expt",""
"","bandit","132","583279","0.0-93.0-0.0","70507638","wem/bandit_party_2","A16335MOISDG1F","either","4","115","","","","","","","1","0","0","0.635653338","","0.2","0.8","0.4","0.6","","","","","0.4492126091","0.34776451","0.6614759556","0.635653338","","","","","","","","","","76","L","3","","","52","main_expt",""
"","bandit","133","584928","0.0-94.0-0.0","70507638","wem/bandit_party_2","A16335MOISDG1F","either","4","145","","","","","","","0","0","1","0.5700640027","","0.2","0.8","0.4","0.6","","","","","0.4600129001","0.2946288454","0.5099009019","0.5700640027","","","","","","","","","","76","L","3","","","53","main_expt",""
"","bandit","134","588399","0.0-95.0-0.0","70507638","wem/bandit_party_2","A16335MOISDG1F","either","4","1966","","","","","","","0","0","1","","0.4535518587","0.2","0.8","0.4","0.6","0.4005354829","0.3757560715","0.5323874036","0.4535518587","","","","","","","","","","","","","","76","L","3","","","54","main_expt",""
"","bandit","135","590521","0.0-96.0-0.0","70507638","wem/bandit_party_2","A16335MOISDG1F","either","4","614","","","","","","","0","0","1","","0.4271895083","0.2","0.8","0.4","0.6","0.3305694417","0.3258455482","0.5410243768","0.4271895083","","","","","","","","","","","","","","76","L","3","","","55","main_expt",""
"","bandit","136","592045","0.0-97.0-0.0","70507638","wem/bandit_party_2","A16335MOISDG1F","either","4","19","","","","","","","1","0","0","0.4350401219","","0.2","0.8","0.4","0.6","","","","","0.3443449075","0.4350401219","0.5594159285","0.3506641683","","","","","","","","","","74","J","1","","","56","main_expt",""
"","bandit","137","593809","0.0-98.0-0.0","70507638","wem/bandit_party_2","A16335MOISDG1F","either","4","258","","","","","","","0","0","1","0.3707313189","","0.2","0.8","0.4","0.6","","","","","0.3719720486","0.3707313189","0.5057935102","0.3266461122","","","","","","","","","","74","J","1","","","57","main_expt",""
"","bandit","138","595532","0.0-99.0-0.0","70507638","wem/bandit_party_2","A16335MOISDG1F","either","4","220","","","","","","","0","0","1","","0.2230753252","0.2","0.8","0.4","0.6","0.2230753252","0.5588799977","0.4921421838","0.3024401834","","","","","","","","","","","","","","72","H","0","img/none_selected.jpg","","58","main_expt",""
"","bandit","139","597386","0.0-100.0-0.0","70507638","wem/bandit_party_2","A16335MOISDG1F","either","4","350","","","","","","","0","0","1","","0.6863198467","0.2","0.8","0.4","0.6","0.2255195526","0.6863198467","0.4740341295","0.4306619987","","","","","","","","","","","","","","74","J","1","","","59","main_expt",""
"","bandit","140","600089","0.0-101.0-0.0","70507638","wem/bandit_party_2","A16335MOISDG1F","either","4","1198","","","","","","","0","1","0","","0.4853159436","0.2","0.8","0.4","0.6","0.2150487889","0.6998437478","0.4853159436","0.4710521126","","","","","","","","","","","","","","75","K","2","","","60","main_expt",""
"","bandit","141","601773","0.0-102.0-0.0","70507638","wem/bandit_party_2","A16335MOISDG1F","either","4","178","","","","","","","0","0","1","0.4843563089","","0.2","0.8","0.4","0.6","","","","","0.2670703017","0.7027468204","0.4843563089","0.4797168847","","","","","","","","","","75","K","2","","","61","main_expt",""
"","bandit","142","603536","0.0-103.0-0.0","70507638","wem/bandit_party_2","A16335MOISDG1F","either","4","257","","","","","","","1","0","0","0.4970562682","","0.2","0.8","0.4","0.6","","","","","0.1622034337","0.7461433662","0.4970562682","0.441351191","","","","","","","","","","75","K","2","","","62","main_expt",""
"","bandit","143","605261","0.0-104.0-0.0","70507638","wem/bandit_party_2","A16335MOISDG1F","either","4","220","","","","","","","0","1","0","","0.4870743105","0.2","0.8","0.4","0.6","0.1872430185","0.7956877632","0.4870743105","0.6405696824","","","","","","","","","","","","","","75","K","2","","","63","main_expt",""
"","bandit","144","606935","0.0-105.0-0.0","70507638","wem/bandit_party_2","A16335MOISDG1F","either","4","170","","","","","","","0","1","0","","0.5297884171","0.2","0.8","0.4","0.6","0.1921602407","0.7533911137","0.5297884171","0.5093225209","","","","","","","","","","","","","","75","K","2","","","64","main_expt",""
"","bandit","145","608698","0.0-106.0-0.0","70507638","wem/bandit_party_2","A16335MOISDG1F","either","4","260","","","","","","","0","0","1","","0.5510281753","0.2","0.8","0.4","0.6","0.1747679693","0.8407665504","0.5510281753","0.5190422554","","","","","","","","","","","","","","75","K","2","","","65","main_expt",""
"","bandit","146","610543","0.0-107.0-0.0","70507638","wem/bandit_party_2","A16335MOISDG1F","either","4","341","","","","","","","0","1","0","","0.6548378986","0.2","0.8","0.4","0.6","0.149475979","0.8392190168","0.6548378986","0.4367989657","","","","","","","","","","","","","","75","K","2","","","66","main_expt",""
"","bandit","147","612298","0.0-108.0-0.0","70507638","wem/bandit_party_2","A16335MOISDG1F","either","4","251","","","","","","","0","1","0","","0.7873643744","0.2","0.8","0.4","0.6","0.1340316754","0.7998105719","0.7873643744","0.4515976155","","","","","","","","","","","","","","75","K","2","","","67","main_expt",""
"","bandit","148","614027","0.0-109.0-0.0","70507638","wem/bandit_party_2","A16335MOISDG1F","either","4","224","","","","","","","0","0","1","","0.8374830125","0.2","0.8","0.4","0.6","0.1635100664","0.8055175736","0.8374830125","0.4605235732","","","","","","","","","","","","","","75","K","2","","","68","main_expt",""
"","bandit","149","615801","0.0-110.0-0.0","70507638","wem/bandit_party_2","A16335MOISDG1F","either","4","270","","","","","","","0","0","1","0.3799115548","","0.2","0.8","0.4","0.6","","","","","0.1227365859","0.9157616325","0.7948054761","0.3799115548","","","","","","","","","","76","L","3","","","69","main_expt",""
"","bandit","150","617626","0.0-111.0-0.0","70507638","wem/bandit_party_2","A16335MOISDG1F","either","4","321","","","","","","","0","1","0","","0.8257183208","0.2","0.8","0.4","0.6","0.1248437045","0.9575411193","0.8257183208","0.4215965018","","","","","","","","","","","","","","75","K","2","","","70","main_expt",""
"","bandit","151","619330","0.0-112.0-0.0","70507638","wem/bandit_party_2","A16335MOISDG1F","either","4","200","","","","","","","1","0","0","0.7378076352","","0.2","0.8","0.4","0.6","","","","","0.1153860856","0.9604429572","0.7378076352","0.4069040491","","","","","","","","","","75","K","2","","","71","main_expt",""
"","bandit","152","621093","0.0-113.0-0.0","70507638","wem/bandit_party_2","A16335MOISDG1F","either","4","260","","","","","","","0","1","0","","0.7402058239","0.2","0.8","0.4","0.6","0.1355011504","0.9598545795","0.7402058239","0.4396577013","","","","","","","","","","","","","","75","K","2","","","72","main_expt",""
"","bandit","153","622812","0.0-114.0-0.0","70507638","wem/bandit_party_2","A16335MOISDG1F","either","4","215","","","","","","","0","0","1","","0.6976791507","0.2","0.8","0.4","0.6","0.05996807606","0.944667289","0.6976791507","0.6562772762","","","","","","","","","","","","","","75","K","2","","","73","main_expt",""
"","bandit","154","624542","0.0-115.0-0.0","70507638","wem/bandit_party_2","A16335MOISDG1F","either","4","226","","","","","","","0","1","0","","0.7918365236","0.2","0.8","0.4","0.6","0.05405538329","0.9226304804","0.7918365236","0.6973429816","","","","","","","","","","","","","","75","K","2","","","74","main_expt",""
"","bandit","155","626275","0.0-116.0-0.0","70507638","wem/bandit_party_2","A16335MOISDG1F","either","4","230","","","","","","","0","1","0","","0.7822783488","0.2","0.8","0.4","0.6","0.02989929625","0.9398646798","0.7822783488","0.7736122178","","","","","","","","","","","","","","75","K","2","","","75","main_expt",""
"","bandit","156","627989","0.0-117.0-0.0","70507638","wem/bandit_party_2","A16335MOISDG1F","either","4","210","","","","","","","0","1","0","","0.7290889389","0.2","0.8","0.4","0.6","0.0563551135","0.9344412274","0.7290889389","0.8130420724","","","","","","","","","","","","","","75","K","2","","","76","main_expt",""
"","bandit","157","629744","0.0-118.0-0.0","70507638","wem/bandit_party_2","A16335MOISDG1F","either","4","250","","","","","","","0","0","1","","0.7903383215","0.2","0.8","0.4","0.6","0.0510075381","0.9512527415","0.7903383215","0.8182773084","","","","","","","","","","","","","","75","K","2","","","77","main_expt",""
"","bandit","158","631563","0.0-119.0-0.0","70507638","wem/bandit_party_2","A16335MOISDG1F","either","4","316","","","","","","","1","0","0","0.8093770606","","0.2","0.8","0.4","0.6","","","","","0.07280641377","0.945324638","0.8093770606","0.910984946","","","","","","","","","","75","K","2","","","78","main_expt",""
"","bandit","159","633282","0.0-120.0-0.0","70507638","wem/bandit_party_2","A16335MOISDG1F","either","4","215","","","","","","","1","0","0","0.7310189459","","0.2","0.8","0.4","0.6","","","","","0.06591604593","0.9313693401","0.7310189459","0.9303795674","","","","","","","","","","75","K","2","","","79","main_expt",""
"","bandit","160","635068","0.0-121.0-0.0","70507638","wem/bandit_party_2","A16335MOISDG1F","either","4","281","","","","","","","1","0","0","0.7915113188","","0.2","0.8","0.4","0.6","","","","","0.02790121052","0.9272018461","0.7915113188","0.9581515868","","","","","","","","","","75","K","2","","","80","main_expt",""
"","bandit","161","636871","0.0-122.0-0.0","70507638","wem/bandit_party_2","A16335MOISDG1F","either","4","298","","","","","","","0","1","0","","0.8463201033","0.2","0.8","0.4","0.6","0.03997429631","0.9340165544","0.8463201033","0.9107397581","","","","","","","","","","","","","","75","K","2","","","81","main_expt",""
"","bandit","162","638642","0.0-123.0-0.0","70507638","wem/bandit_party_2","A16335MOISDG1F","either","4","268","","","","","","","0","0","1","0.9043915002","","0.2","0.8","0.4","0.6","","","","","0.03692483048","0.9778602254","0.9043915002","0.9531247327","","","","","","","","","","75","K","2","","","82","main_expt",""
"","bandit","163","640480","0.0-124.0-0.0","70507638","wem/bandit_party_2","A16335MOISDG1F","either","4","330","","","","","","","1","0","0","0.922294541","","0.2","0.8","0.4","0.6","","","","","0.04167024954","0.9593015187","0.922294541","0.91574064","","","","","","","","","","75","K","2","","","83","main_expt",""
"","bandit","164","642198","0.0-125.0-0.0","70507638","wem/bandit_party_2","A16335MOISDG1F","either","4","214","","","","","","","1","0","0","0.9079954767","","0.2","0.8","0.4","0.6","","","","","0.03449326924","0.9398758864","0.9079954767","0.9287460716","","","","","","","","","","75","K","2","","","84","main_expt",""
"","bandit","165","643888","0.0-126.0-0.0","70507638","wem/bandit_party_2","A16335MOISDG1F","either","4","187","","","","","","","0","1","0","","0.92293493","0.2","0.8","0.4","0.6","0.07382848834","0.9256746213","0.92293493","0.9817994773","","","","","","","","","","","","","","75","K","2","","","85","main_expt",""
"","bandit","166","645542","0.0-127.0-0.0","70507638","wem/bandit_party_2","A16335MOISDG1F","either","4","150","","","","","","","0","1","0","","0.8831043051","0.2","0.8","0.4","0.6","0.08839198485","0.8910640916","0.8831043051","0.9651028603","","","","","","","","","","","","","","75","K","2","","","86","main_expt",""
"","bandit","167","647275","0.0-128.0-0.0","70507638","wem/bandit_party_2","A16335MOISDG1F","either","4","226","","","","","","","0","0","1","0.876749115","","0.2","0.8","0.4","0.6","","","","","0.08767612821","0.8729480744","0.876749115","0.9364705545","","","","","","","","","","75","K","2","","","87","main_expt",""
"","bandit","168","649060","0.0-129.0-0.0","70507638","wem/bandit_party_2","A16335MOISDG1F","either","4","280","","","","","","","0","1","0","","0.9189432589","0.2","0.8","0.4","0.6","0.1606359608","0.8780151739","0.9189432589","0.9235767634","","","","","","","","","","","","","","75","K","2","","","88","main_expt",""
"","bandit","169","650783","0.0-130.0-0.0","70507638","wem/bandit_party_2","A16335MOISDG1F","either","4","219","","","","","","","1","0","0","0.8770582065","","0.2","0.8","0.4","0.6","","","","","0.2051996915","0.8856980863","0.8770582065","0.9375107972","","","","","","","","","","75","K","2","","","89","main_expt",""
"","bandit","170","652539","0.0-131.0-0.0","70507638","wem/bandit_party_2","A16335MOISDG1F","either","4","251","","","","","","","1","0","0","0.9303780437","","0.2","0.8","0.4","0.6","","","","","0.1757431166","0.8828292745","0.9303780437","0.9201099193","","","","","","","","","","75","K","2","","","90","main_expt",""
"","bandit","171","654242","0.0-132.0-0.0","70507638","wem/bandit_party_2","A16335MOISDG1F","either","4","200","","","","","","","1","0","0","0.8870296602","","0.2","0.8","0.4","0.6","","","","","0.3470073597","0.9016480115","0.8870296602","0.9416722714","","","","","","","","","","75","K","2","","","91","main_expt",""
"","bandit","172","655967","0.0-133.0-0.0","70507638","wem/bandit_party_2","A16335MOISDG1F","either","4","219","","","","","","","0","1","0","","0.8466670433","0.2","0.8","0.4","0.6","0.4969118024","0.9077272713","0.8466670433","0.943817784","","","","","","","","","","","","","","75","K","2","","","92","main_expt",""
"","bandit","173","657651","0.0-134.0-0.0","70507638","wem/bandit_party_2","A16335MOISDG1F","either","4","178","","","","","","","0","1","0","","0.850017275","0.2","0.8","0.4","0.6","0.5773598144","0.875936713","0.850017275","0.9078517942","","","","","","","","","","","","","","75","K","2","","","93","main_expt",""
"","bandit","174","659384","0.0-135.0-0.0","70507638","wem/bandit_party_2","A16335MOISDG1F","either","4","228","","","","","","","0","1","0","","0.6893652978","0.2","0.8","0.4","0.6","0.5513550223","0.8089346838","0.6893652978","0.8983200186","","","","","","","","","","","","","","75","K","2","","","94","main_expt",""
"","bandit","175","661063","0.0-136.0-0.0","70507638","wem/bandit_party_2","A16335MOISDG1F","either","4","176","","","","","","","0","0","1","","0.6025630118","0.2","0.8","0.4","0.6","0.5461825447","0.7472177953","0.6025630118","0.8744309931","","","","","","","","","","","","","","75","K","2","","","95","main_expt",""
"","bandit","176","662777","0.0-137.0-0.0","70507638","wem/bandit_party_2","A16335MOISDG1F","either","4","210","","","","","","","0","0","1","0.5565182624","","0.2","0.8","0.4","0.6","","","","","0.5564841108","0.631257407","0.5565182624","0.8894212924","","","","","","","","","","75","K","2","","","96","main_expt",""
"","bandit","177","664461","0.0-138.0-0.0","70507638","wem/bandit_party_2","A16335MOISDG1F","either","4","180","","","","","","","0","0","1","","0.4820287155","0.2","0.8","0.4","0.6","0.6513715187","0.7474787878","0.4820287155","0.891162681","","","","","","","","","","","","","","75","K","2","","","97","main_expt",""
"","bandit","178","666095","0.0-139.0-0.0","70507638","wem/bandit_party_2","A16335MOISDG1F","either","4","128","","","","","","","1","0","0","0.7753317291","","0.2","0.8","0.4","0.6","","","","","0.7004254565","0.7753317291","0.4599621431","0.8495400438","","","","","","","","","","74","J","1","","","98","main_expt",""
"","bandit","179","667840","0.0-140.0-0.0","70507638","wem/bandit_party_2","A16335MOISDG1F","either","4","240","","","","","","","1","0","0","0.7088399779","","0.2","0.8","0.4","0.6","","","","","0.6473310623","0.7088399779","0.4109144258","0.8671572546","","","","","","","","","","74","J","1","","","99","main_expt",""
"","bandit","180","669599","0.0-141.0-0.0","70507638","wem/bandit_party_2","A16335MOISDG1F","either","4","255","","","","","","","1","0","0","0.7328055719","","0.2","0.8","0.4","0.6","","","","","0.6160818326","0.7328055719","0.3466085394","0.8312294914","","","","","","","","","","74","J","1","","","100","main_expt",""
"","bandit","181","671367","0.0-142.0-0.0","70507638","wem/bandit_party_2","A16335MOISDG1F","either","4","263","","","","","","","1","0","0","0.8183789849","","0.2","0.8","0.4","0.6","","","","","0.6963675268","0.8183789849","0.3712289037","0.8135240708","","","","","","","","","","74","J","1","","","101","main_expt",""
"","bandit","182","673087","0.0-143.0-0.0","70507638","wem/bandit_party_2","A16335MOISDG1F","either","4","215","","","","","","","0","0","1","0.7854635714","","0.2","0.8","0.4","0.6","","","","","0.6339579424","0.7854635714","0.3626324234","0.8556055773","","","","","","","","","","74","J","1","","","102","main_expt",""
"","bandit","183","674832","0.0-144.0-0.0","70507638","wem/bandit_party_2","A16335MOISDG1F","either","4","239","","","","","","","0","0","1","0.8481411385","","0.2","0.8","0.4","0.6","","","","","0.6908430899","0.8481411385","0.2748825764","0.7632006143","","","","","","","","","","74","J","1","","","103","main_expt",""
"","bandit","184","676535","0.0-145.0-0.0","70507638","wem/bandit_party_2","A16335MOISDG1F","either","4","198","","","","","","","1","0","0","0.8273213265","","0.2","0.8","0.4","0.6","","","","","0.6866318891","0.8129446485","0.2381725209","0.8273213265","","","","","","","","","","76","L","3","","","104","main_expt",""
"","bandit","185","678249","0.0-146.0-0.0","70507638","wem/bandit_party_2","A16335MOISDG1F","either","4","209","","","","","","","0","1","0","","0.7930501456","0.2","0.8","0.4","0.6","0.6749941214","0.7898688037","0.1939551764","0.7930501456","","","","","","","","","","","","","","76","L","3","","","105","main_expt",""
"","bandit","186","679933","0.0-147.0-0.0","70507638","wem/bandit_party_2","A16335MOISDG1F","either","4","180","","","","","","","0","1","0","","0.7186603115","0.2","0.8","0.4","0.6","0.7300347885","0.7810744832","0.1884153881","0.7186603115","","","","","","","","","","","","","","76","L","3","","","106","main_expt",""
"","bandit","187","681673","0.0-148.0-0.0","70507638","wem/bandit_party_2","A16335MOISDG1F","either","4","235","","","","","","","1","0","0","0.7155595947","","0.2","0.8","0.4","0.6","","","","","0.8133516847","0.7837395221","0.1011451677","0.7155595947","","","","","","","","","","76","L","3","","","107","main_expt",""
"","bandit","188","683417","0.0-149.0-0.0","70507638","wem/bandit_party_2","A16335MOISDG1F","either","4","239","","","","","","","0","0","1","0.7654707556","","0.2","0.8","0.4","0.6","","","","","0.8009432675","0.787971135","0.1500242655","0.7654707556","","","","","","","","","","76","L","3","","","108","main_expt",""
"","bandit","189","685157","0.0-150.0-0.0","70507638","wem/bandit_party_2","A16335MOISDG1F","either","4","233","","","","","","","1","0","0","0.6288612937","","0.2","0.8","0.4","0.6","","","","","0.7379370491","0.6866525704","0.1285750889","0.6288612937","","","","","","","","","","76","L","3","","","109","main_expt",""
"","bandit","190","686869","0.0-151.0-0.0","70507638","wem/bandit_party_2","A16335MOISDG1F","either","4","205","","","","","","","1","0","0","0.6309058105","","0.2","0.8","0.4","0.6","","","","","0.7379992527","0.5824748378","0.06279291231","0.6309058105","","","","","","","","","","76","L","3","","","110","main_expt",""
"","bandit","191","688559","0.0-152.0-0.0","70507638","wem/bandit_party_2","A16335MOISDG1F","either","4","185","","","","","","","0","1","0","","0.6218965746","0.2","0.8","0.4","0.6","0.7464430213","0.659702805","0.07144278273","0.6218965746","","","","","","","","","","","","","","76","L","3","","","111","main_expt",""
"","bandit","192","690354","0.0-153.0-0.0","70507638","wem/bandit_party_2","A16335MOISDG1F","either","4","291","","","","","","","1","0","0","0.6741482942","","0.2","0.8","0.4","0.6","","","","","0.7736339118","0.5111205641","0.06013221683","0.6741482942","","","","","","","","","","76","L","3","","","112","main_expt",""
"","bandit","193","692072","0.0-154.0-0.0","70507638","wem/bandit_party_2","A16335MOISDG1F","either","4","215","","","","","","","1","0","0","0.7405202534","","0.2","0.8","0.4","0.6","","","","","0.8480767854","0.4852392648","0.1442356489","0.7405202534","","","","","","","","","","76","L","3","","","113","main_expt",""
"","bandit","194","693756","0.0-155.0-0.0","70507638","wem/bandit_party_2","A16335MOISDG1F","either","4","180","","","","","","","0","1","0","","0.743157628","0.2","0.8","0.4","0.6","0.8016933152","0.3531287621","0.1733870882","0.743157628","","","","","","","","","","","","","","76","L","3","","","114","main_expt",""
"","bandit","195","695440","0.0-156.0-0.0","70507638","wem/bandit_party_2","A16335MOISDG1F","either","4","180","","","","","","","0","1","0","","0.7732583829","0.2","0.8","0.4","0.6","0.8200260584","0.4090792957","0.2198725907","0.7732583829","","","","","","","","","","","","","","76","L","3","","","115","main_expt",""
"","bandit","196","697145","0.0-157.0-0.0","70507638","wem/bandit_party_2","A16335MOISDG1F","either","4","199","","","","","","","0","0","1","","0.6224016225","0.2","0.8","0.4","0.6","0.7761954976","0.4927933112","0.2116870815","0.6224016225","","","","","","","","","","","","","","76","L","3","","","116","main_expt",""
"","bandit","197","698983","0.0-158.0-0.0","70507638","wem/bandit_party_2","A16335MOISDG1F","either","4","334","","","","","","","1","0","0","0.6784399158","","0.2","0.8","0.4","0.6","","","","","0.7722233998","0.4255499736","0.1293815938","0.6784399158","","","","","","","","","","76","L","3","","","117","main_expt",""
"","bandit","198","700732","0.0-159.0-0.0","70507638","wem/bandit_party_2","A16335MOISDG1F","either","4","244","","","","","","","0","0","1","","0.7499631032","0.2","0.8","0.4","0.6","0.8049831996","0.4073726931","0.1442073762","0.7499631032","","","","","","","","","","","","","","76","L","3","","","118","main_expt",""
"","bandit","199","702471","0.0-160.0-0.0","70507638","wem/bandit_party_2","A16335MOISDG1F","either","4","235","","","","","","","1","0","0","0.6258432538","","0.2","0.8","0.4","0.6","","","","","0.8469405197","0.5447318884","0.2098334931","0.6258432538","","","","","","","","","","76","L","3","","","119","main_expt",""
"","bandit","200","704203","0.0-161.0-0.0","70507638","wem/bandit_party_2","A16335MOISDG1F","either","4","227","","","","","","","1","0","0","0.5602994123","","0.2","0.8","0.4","0.6","","","","","0.783925966","0.5336717705","0.243218138","0.5602994123","","","","","","","","","","76","L","3","","","120","main_expt",""
"","bandit","201","706055","0.0-162.0-0.0","70507638","wem/bandit_party_2","A16335MOISDG1F","either","4","348","","","","","","","1","0","0","0.5850644561","","0.2","0.8","0.4","0.6","","","","","0.8031476983","0.5621279662","0.1595445902","0.5850644561","","","","","","","","","","76","L","3","","","121","main_expt",""
"","bandit","202","707820","0.0-163.0-0.0","70507638","wem/bandit_party_2","A16335MOISDG1F","either","4","260","","","","","","","0","0","1","0.6205732407","","0.2","0.8","0.4","0.6","","","","","0.776878313","0.5664238538","0.1939767007","0.6205732407","","","","","","","","","","76","L","3","","","122","main_expt",""
"","bandit","203","709604","0.0-164.0-0.0","70507638","wem/bandit_party_2","A16335MOISDG1F","either","4","279","","","","","","","1","0","0","0.7954206102","","0.2","0.8","0.4","0.6","","","","","0.7695343448","0.6501842916","0.2265728871","0.7954206102","","","","","","","","","","76","L","3","","","123","main_expt",""
"","bandit","204","711267","0.0-165.0-0.0","70507638","wem/bandit_party_2","A16335MOISDG1F","either","4","159","","","","","","","1","0","0","0.881213352","","0.2","0.8","0.4","0.6","","","","","0.6154230174","0.5413703051","0.2027469411","0.881213352","","","","","","","","","","76","L","3","","","124","main_expt",""
"","bandit","205","713047","0.0-166.0-0.0","70507638","wem/bandit_party_2","A16335MOISDG1F","either","4","274","","","","","","","0","0","1","0.8598562332","","0.2","0.8","0.4","0.6","","","","","0.4710930195","0.5191338098","0.1506135949","0.8598562332","","","","","","","","","","76","L","3","","","125","main_expt",""
"","bandit","206","714818","0.0-167.0-0.0","70507638","wem/bandit_party_2","A16335MOISDG1F","either","4","266","","","","","","","0","1","0","","0.867144728","0.2","0.8","0.4","0.6","0.5258886302","0.6232591378","0.1875851228","0.867144728","","","","","","","","","","","","","","76","L","3","","","126","main_expt",""
"","bandit","207","716655","0.0-168.0-0.0","70507638","wem/bandit_party_2","A16335MOISDG1F","either","4","331","","","","","","","1","0","0","0.8677917819","","0.2","0.8","0.4","0.6","","","","","0.3996486754","0.601333273","0.2106184636","0.8677917819","","","","","","","","","","76","L","3","","","127","main_expt",""
"","bandit","208","718370","0.0-169.0-0.0","70507638","wem/bandit_party_2","A16335MOISDG1F","either","4","210","","","","","","","0","1","0","","0.8194058857","0.2","0.8","0.4","0.6","0.3557241191","0.6312294041","0.1276240755","0.8194058857","","","","","","","","","","","","","","76","L","3","","","128","main_expt",""
"","bandit","209","720073","0.0-170.0-0.0","70507638","wem/bandit_party_2","A16335MOISDG1F","either","4","199","","","","","","","0","0","1","","0.813940224","0.2","0.8","0.4","0.6","0.2432070908","0.6655034733","0.2163335705","0.813940224","","","","","","","","","","","","","","76","L","3","","","129","main_expt",""
"","bandit","210","721807","0.0-171.0-0.0","70507638","wem/bandit_party_2","A16335MOISDG1F","either","4","229","","","","","","","1","0","0","0.7296764962","","0.2","0.8","0.4","0.6","","","","","0.1722843937","0.6882303755","0.2448863899","0.7296764962","","","","","","","","","","76","L","3","","","130","main_expt",""
"","bandit","211","723516","0.0-172.0-0.0","70507638","wem/bandit_party_2","A16335MOISDG1F","either","4","205","","","","","","","0","1","0","","0.614258276","0.2","0.8","0.4","0.6","0.1336027919","0.6772884453","0.3447645787","0.614258276","","","","","","","","","","","","","","76","L","3","","","131","main_expt",""
"","bandit","212","725250","0.0-173.0-0.0","70507638","wem/bandit_party_2","A16335MOISDG1F","either","4","230","","","","","","","0","0","1","0.5349540706","","0.2","0.8","0.4","0.6","","","","","0.1351629047","0.6773684555","0.3622527956","0.5349540706","","","","","","","","","","76","L","3","","","132","main_expt",""
"","bandit","213","726919","0.0-174.0-0.0","70507638","wem/bandit_party_2","A16335MOISDG1F","either","4","165","","","","","","","1","0","0","0.5449090787","","0.2","0.8","0.4","0.6","","","","","0.2495029","0.7437755928","0.2961885878","0.5449090787","","","","","","","","","","76","L","3","","","133","main_expt",""
"","bandit","214","728588","0.0-175.0-0.0","70507638","wem/bandit_party_2","A16335MOISDG1F","either","4","164","","","","","","","1","0","0","0.5037108559","","0.2","0.8","0.4","0.6","","","","","0.2118512663","0.7423545867","0.2932126781","0.5037108559","","","","","","","","","","76","L","3","","","134","main_expt",""
"","bandit","215","730262","0.0-176.0-0.0","70507638","wem/bandit_party_2","A16335MOISDG1F","either","4","170","","","","","","","0","0","1","0.5131336393","","0.2","0.8","0.4","0.6","","","","","0.2474577379","0.7462440124","0.2836439675","0.5131336393","","","","","","","","","","76","L","3","","","135","main_expt",""
"","bandit","216","731956","0.0-177.0-0.0","70507638","wem/bandit_party_2","A16335MOISDG1F","either","4","190","","","","","","","1","0","0","0.5847952324","","0.2","0.8","0.4","0.6","","","","","0.1496333288","0.6372772774","0.1985775905","0.5847952324","","","","","","","","","","76","L","3","","","136","main_expt",""
"","bandit","217","733676","0.0-178.0-0.0","70507638","wem/bandit_party_2","A16335MOISDG1F","either","4","216","","","","","","","1","0","0","0.5191620222","","0.2","0.8","0.4","0.6","","","","","0.164835495","0.6587707878","0.2655975","0.5191620222","","","","","","","","","","76","L","3","","","137","main_expt",""
"","bandit","218","735395","0.0-179.0-0.0","70507638","wem/bandit_party_2","A16335MOISDG1F","either","4","214","","","","","","","1","0","0","0.3830682141","","0.2","0.8","0.4","0.6","","","","","0.1629561883","0.6545472314","0.4066298912","0.3830682141","","","","","","","","","","76","L","3","","","138","main_expt",""
"","bandit","219","737084","0.0-180.0-0.0","70507638","wem/bandit_party_2","A16335MOISDG1F","either","4","184","","","","","","","0","1","0","","0.3036015776","0.2","0.8","0.4","0.6","0.1162724323","0.5773899651","0.4537429859","0.3036015776","","","","","","","","","","","","","","76","L","3","","","139","main_expt",""
"","bandit","220","738811","0.0-181.0-0.0","70507638","wem/bandit_party_2","A16335MOISDG1F","either","4","221","","","","","","","0","0","1","","0.2541790234","0.2","0.8","0.4","0.6","0.1262651596","0.5786924042","0.410026376","0.2541790234","","","","","","","","","","","","","","76","L","3","","","140","main_expt",""
"","bandit","221","740567","0.0-182.0-0.0","70507638","wem/bandit_party_2","A16335MOISDG1F","either","4","246","","","","","","","0","0","1","0.1899663758","","0.2","0.8","0.4","0.6","","","","","0.1258799353","0.4589731036","0.3978668086","0.1899663758","","","","","","","","","","76","L","3","","","141","main_expt",""
"","bandit","222","742406","0.0-183.0-0.0","70507638","wem/bandit_party_2","A16335MOISDG1F","either","4","335","","","","","","","0","0","1","0.214868544","","0.2","0.8","0.4","0.6","","","","","0.1220135665","0.3667804619","0.4096738096","0.214868544","","","","","","","","","","76","L","3","","","142","main_expt",""
"","bandit","223","744191","0.0-184.0-0.0","70507638","wem/bandit_party_2","A16335MOISDG1F","either","4","281","","","","","","","0","0","1","","0.1600355681","0.2","0.8","0.4","0.6","0.1600355681","0.3563831379","0.5422751762","0.1549416237","","","","","","","","","","","","","","72","H","0","img/none_selected.jpg","","143","main_expt",""
"","bandit","224","745995","0.0-185.0-0.0","70507638","wem/bandit_party_2","A16335MOISDG1F","either","4","300","","","","","","","0","0","1","0.103653669","","0.2","0.8","0.4","0.6","","","","","0.103653669","0.3675361202","0.6045197677","0.2142728447","","","","","","","","","","72","H","0","img/none_selected.jpg","","144","main_expt",""
"","bandit","225","747729","0.0-186.0-0.0","70507638","wem/bandit_party_2","A16335MOISDG1F","either","4","230","","","","","","","0","0","1","","0.6140727406","0.2","0.8","0.4","0.6","0.1417267119","0.3266856562","0.6140727406","0.2166472609","","","","","","","","","","","","","","75","K","2","","","145","main_expt",""
"","bandit","226","749463","0.0-187.0-0.0","70507638","wem/bandit_party_2","A16335MOISDG1F","either","4","230","","","","","","","0","0","1","0.2815179259","","0.2","0.8","0.4","0.6","","","","","0.1508894681","0.2815179259","0.5553742365","0.2446047688","","","","","","","","","","74","J","1","","","146","main_expt",""
"","bandit","227","751232","0.0-188.0-0.0","70507638","wem/bandit_party_2","A16335MOISDG1F","either","4","265","","","","","","","0","0","1","","0.52787167","0.2","0.8","0.4","0.6","0.1207147728","0.3560244833","0.52787167","0.3011136322","","","","","","","","","","","","","","75","K","2","","","147","main_expt",""
"","bandit","228","752891","0.0-189.0-0.0","70507638","wem/bandit_party_2","A16335MOISDG1F","either","4","155","","","","","","","1","0","0","0.2519777133","","0.2","0.8","0.4","0.6","","","","","0.1362234148","0.3585854149","0.5053851794","0.2519777133","","","","","","","","","","76","L","3","","","148","main_expt",""
"","bandit","229","754661","0.0-190.0-0.0","70507638","wem/bandit_party_2","A16335MOISDG1F","either","4","265","","","","","","","1","0","0","0.2996109941","","0.2","0.8","0.4","0.6","","","","","0.1244444975","0.284478414","0.5431256022","0.2996109941","","","","","","","","","","76","L","3","","","149","main_expt",""
"","bandit","230","756410","0.0-191.0-0.0","70507638","wem/bandit_party_2","A16335MOISDG1F","either","4","237","","","","","","","0","1","0","","0.2963563975","0.2","0.8","0.4","0.6","0.1109305632","0.2617238314","0.422574086","0.2963563975","","","","","","","","","","","","","","76","L","3","","","150","main_expt",""
"","bandit","231","758139","0.0-192.0-0.0","70507638","wem/bandit_party_2","A16335MOISDG1F","either","4","224","","","","","","","0","0","1","","0.4327396174","0.2","0.8","0.4","0.6","0.11412436","0.2709462114","0.3907227364","0.4327396174","","","","","","","","","","","","","","76","L","3","","","151","main_expt",""
"","bandit","232","759884","0.0-193.0-0.0","70507638","wem/bandit_party_2","A16335MOISDG1F","either","4","240","","","","","","","0","1","0","","0.4303068123","0.2","0.8","0.4","0.6","0.1469045903","0.2993716907","0.5580814469","0.4303068123","","","","","","","","","","","","","","76","L","3","","","152","main_expt",""
"","bandit","233","761598","0.0-194.0-0.0","70507638","wem/bandit_party_2","A16335MOISDG1F","either","4","206","","","","","","","0","0","1","0.455197397","","0.2","0.8","0.4","0.6","","","","","0.1633028487","0.2733354782","0.51223936","0.455197397","","","","","","","","","","76","L","3","","","153","main_expt",""
"","bandit","234","763336","0.0-195.0-0.0","70507638","wem/bandit_party_2","A16335MOISDG1F","either","4","234","","","","","","","0","1","0","","0.6184454144","0.2","0.8","0.4","0.6","0.1340882311","0.3264007987","0.4811601507","0.6184454144","","","","","","","","","","","","","","76","L","3","","","154","main_expt",""
"","bandit","235","765065","0.0-196.0-0.0","70507638","wem/bandit_party_2","A16335MOISDG1F","either","4","224","","","","","","","0","0","1","","0.5833601464","0.2","0.8","0.4","0.6","0.1041462846","0.204433578","0.575425417","0.5833601464","","","","","","","","","","","","","","76","L","3","","","155","main_expt",""
"","bandit","236","766765","0.0-197.0-0.0","70507638","wem/bandit_party_2","A16335MOISDG1F","either","4","194","","","","","","","0","1","0","","0.646897734","0.2","0.8","0.4","0.6","0.08564190031","0.07451572188","0.6109018817","0.646897734","","","","","","","","","","","","","","76","L","3","","","156","main_expt",""
"","bandit","237","768503","0.0-198.0-0.0","70507638","wem/bandit_party_2","A16335MOISDG1F","either","4","225","","","","","","","1","0","0","0.6912470103","","0.2","0.8","0.4","0.6","","","","","0.06977116317","0.1251686374","0.6812883852","0.6912470103","","","","","","","","","","76","L","3","","","157","main_expt",""
"","bandit","238","770217","0.0-199.0-0.0","70507638","wem/bandit_party_2","A16335MOISDG1F","either","4","209","","","","","","","1","0","0","0.7865398282","","0.2","0.8","0.4","0.6","","","","","0.1504927074","0.1292052795","0.73777041","0.7865398282","","","","","","","","","","76","L","3","","","158","main_expt",""
"","bandit","239","771907","0.0-200.0-0.0","70507638","wem/bandit_party_2","A16335MOISDG1F","either","4","183","","","","","","","1","0","0","0.7220910122","","0.2","0.8","0.4","0.6","","","","","0.1429264201","0.1200050714","0.8388849062","0.7220910122","","","","","","","","","","76","L","3","","","159","main_expt",""
"","bandit","240","773620","0.0-201.0-0.0","70507638","wem/bandit_party_2","A16335MOISDG1F","either","4","208","","","","","","","0","0","1","0.710563805","","0.2","0.8","0.4","0.6","","","","","0.1832893837","0.1156014834","0.8006667519","0.710563805","","","","","","","","","","76","L","3","","","160","main_expt",""
"","bandit","241","775350","0.0-202.0-0.0","70507638","wem/bandit_party_2","A16335MOISDG1F","either","4","225","","","","","","","0","0","1","0.6205281072","","0.2","0.8","0.4","0.6","","","","","0.2337310763","0.1425751263","0.7406956812","0.6205281072","","","","","","","","","","76","L","3","","","161","main_expt",""
"","bandit","242","777189","0.0-203.0-0.0","70507638","wem/bandit_party_2","A16335MOISDG1F","either","4","335","","","","","","","0","1","0","","0.5246840185","0.2","0.8","0.4","0.6","0.2326198937","0.2108345254","0.775259894","0.5246840185","","","","","","","","","","","","","","76","L","3","","","162","main_expt",""
"","bandit","243","778893","0.0-204.0-0.0","70507638","wem/bandit_party_2","A16335MOISDG1F","either","4","199","","","","","","","1","0","0","0.569340372","","0.2","0.8","0.4","0.6","","","","","0.1584290897","0.1664621688","0.6539471222","0.569340372","","","","","","","","","","76","L","3","","","163","main_expt",""
"","bandit","244","780643","0.0-205.0-0.0","70507638","wem/bandit_party_2","A16335MOISDG1F","either","4","245","","","","","","","0","1","0","","0.5688323765","0.2","0.8","0.4","0.6","0.1417900361","0.1741279052","0.7914062868","0.5688323765","","","","","","","","","","","","","","76","L","3","","","164","main_expt",""
"","bandit","245","782301","0.0-206.0-0.0","70507638","wem/bandit_party_2","A16335MOISDG1F","either","4","153","","","","","","","0","0","1","0.5195648955","","0.2","0.8","0.4","0.6","","","","","0.08849486786","0.1891196979","0.8415061218","0.5195648955","","","","","","","","","","76","L","3","","","165","main_expt",""
"","bandit","246","783985","0.0-207.0-0.0","70507638","wem/bandit_party_2","A16335MOISDG1F","either","4","179","","","","","","","0","1","0","","0.536500984","0.2","0.8","0.4","0.6","0.1010416226","0.3016440744","0.9084068317","0.536500984","","","","","","","","","","","","","","76","L","3","","","166","main_expt",""
"","bandit","247","785689","0.0-208.0-0.0","70507638","wem/bandit_party_2","A16335MOISDG1F","either","4","198","","","","","","","0","0","1","","0.4243381616","0.2","0.8","0.4","0.6","0.1506776516","0.3427468607","0.8857506799","0.4243381616","","","","","","","","","","","","","","76","L","3","","","167","main_expt",""
"","bandit","248","787364","0.0-209.0-0.0","70507638","wem/bandit_party_2","A16335MOISDG1F","either","4","169","","","","","","","1","0","0","0.4877327119","","0.2","0.8","0.4","0.6","","","","","0.2532220847","0.3759001064","0.9247721234","0.4877327119","","","","","","","","","","76","L","3","","","168","main_expt",""
"","bandit","249","789102","0.0-210.0-0.0","70507638","wem/bandit_party_2","A16335MOISDG1F","either","4","229","","","","","","","0","0","1","0.5096331713","","0.2","0.8","0.4","0.6","","","","","0.2223654062","0.3824832387","0.8870410368","0.5096331713","","","","","","","","","","76","L","3","","","169","main_expt",""
"","bandit","250","790848","0.0-211.0-0.0","70507638","wem/bandit_party_2","A16335MOISDG1F","either","4","240","","","","","","","0","0","1","0.6111595203","","0.2","0.8","0.4","0.6","","","","","0.2161840498","0.3257043992","0.8782412079","0.6111595203","","","","","","","","","","76","L","3","","","170","main_expt",""
"","bandit","251","792591","0.0-212.0-0.0","70507638","wem/bandit_party_2","A16335MOISDG1F","either","4","238","","","","","","","0","0","1","0.5888321224","","0.2","0.8","0.4","0.6","","","","","0.1996440145","0.2943589708","0.7978982074","0.5888321224","","","","","","","","","","76","L","3","","","171","main_expt",""
"","bandit","252","794270","0.0-213.0-0.0","70507638","wem/bandit_party_2","A16335MOISDG1F","either","4","175","","","","","","","1","0","0","0.7896885826","","0.2","0.8","0.4","0.6","","","","","0.275753823","0.4298537702","0.7896885826","0.6295404033","","","","","","","","","","75","K","2","","","172","main_expt",""
"","bandit","253","795969","0.0-214.0-0.0","70507638","wem/bandit_party_2","A16335MOISDG1F","either","4","194","","","","","","","1","0","0","0.7771385218","","0.2","0.8","0.4","0.6","","","","","0.2850946521","0.4196262671","0.7771385218","0.5976712981","","","","","","","","","","75","K","2","","","173","main_expt",""
"","bandit","254","797728","0.0-215.0-0.0","70507638","wem/bandit_party_2","A16335MOISDG1F","either","4","252","","","","","","","1","0","0","0.8412209493","","0.2","0.8","0.4","0.6","","","","","0.2836726952","0.4056978145","0.8412209493","0.5936331925","","","","","","","","","","75","K","2","","","174","main_expt",""
"","bandit","255","799487","0.0-216.0-0.0","70507638","wem/bandit_party_2","A16335MOISDG1F","either","4","254","","","","","","","0","1","0","","0.8433491626","0.2","0.8","0.4","0.6","0.27413619","0.3323311207","0.8433491626","0.544145328","","","","","","","","","","","","","","75","K","2","","","175","main_expt",""
"","bandit","256","801261","0.0-217.0-0.0","70507638","wem/bandit_party_2","A16335MOISDG1F","either","4","268","","","","","","","0","1","0","","0.778586436","0.2","0.8","0.4","0.6","0.2369491767","0.3087900888","0.778586436","0.3584947592","","","","","","","","","","","","","","75","K","2","","","176","main_expt",""
"","bandit","257","802950","0.0-218.0-0.0","70507638","wem/bandit_party_2","A16335MOISDG1F","either","4","180","","","","","","","1","0","0","0.7488794252","","0.2","0.8","0.4","0.6","","","","","0.3440943848","0.3898613412","0.7488794252","0.436171931","","","","","","","","","","75","K","2","","","177","main_expt",""
"","bandit","258","804724","0.0-219.0-0.0","70507638","wem/bandit_party_2","A16335MOISDG1F","either","4","269","","","","","","","0","1","0","","0.7738581751","0.2","0.8","0.4","0.6","0.3529135521","0.5236321052","0.7738581751","0.5193680035","","","","","","","","","","","","","","75","K","2","","","178","main_expt",""
"","bandit","259","806448","0.0-220.0-0.0","70507638","wem/bandit_party_2","A16335MOISDG1F","either","4","217","","","","","","","0","0","1","","0.7527820287","0.2","0.8","0.4","0.6","0.3787243664","0.2955080601","0.7527820287","0.3957798075","","","","","","","","","","","","","","75","K","2","","","179","main_expt",""
"","bandit","260","808163","0.0-221.0-0.0","70507638","wem/bandit_party_2","A16335MOISDG1F","either","4","209","","","","","","","0","0","1","","0.8022950929","0.2","0.8","0.4","0.6","0.3092677326","0.3174151272","0.8022950929","0.4249873197","","","","","","","","","","","","","","75","K","2","","","180","main_expt",""
"","bandit","261","809902","0.0-222.0-0.0","70507638","wem/bandit_party_2","A16335MOISDG1F","either","4","233","","","","","","","0","1","0","","0.7505347306","0.2","0.8","0.4","0.6","0.3701559146","0.3560995969","0.7505347306","0.4260342439","","","","","","","","","","","","","","75","K","2","","","181","main_expt",""
"","bandit","262","811631","0.0-223.0-0.0","70507638","wem/bandit_party_2","A16335MOISDG1F","either","4","223","","","","","","","1","0","0","0.603349844","","0.2","0.8","0.4","0.6","","","","","0.2672844749","0.4649908644","0.603349844","0.4305619521","","","","","","","","","","75","K","2","","","182","main_expt",""
"","bandit","263","813410","0.0-224.0-0.0","70507638","wem/bandit_party_2","A16335MOISDG1F","either","4","274","","","","","","","0","0","1","","0.6464544124","0.2","0.8","0.4","0.6","0.3046315644","0.4588174784","0.6464544124","0.4638513582","","","","","","","","","","","","","","75","K","2","","","183","main_expt",""
"","bandit","264","815129","0.0-225.0-0.0","70507638","wem/bandit_party_2","A16335MOISDG1F","either","4","213","","","","","","","1","0","0","0.509799977","","0.2","0.8","0.4","0.6","","","","","0.3507685813","0.509799977","0.6606024443","0.5084330557","","","","","","","","","","74","J","1","","","184","main_expt",""
"","bandit","265","816914","0.0-226.0-0.0","70507638","wem/bandit_party_2","A16335MOISDG1F","either","4","279","","","","","","","0","0","1","","0.4557178443","0.2","0.8","0.4","0.6","0.3250269766","0.4557178443","0.7034535028","0.5853778332","","","","","","","","","","","","","","74","J","1","","","185","main_expt",""
"","bandit","266","818688","0.0-227.0-0.0","70507638","wem/bandit_party_2","A16335MOISDG1F","either","4","262","","","","","","","0","0","1","0.3250172706","","0.2","0.8","0.4","0.6","","","","","0.3636669497","0.3250172706","0.7672503758","0.5009207633","","","","","","","","","","74","J","1","","","186","main_expt",""
"","bandit","267","820497","0.0-228.0-0.0","70507638","wem/bandit_party_2","A16335MOISDG1F","either","4","302","","","","","","","0","0","1","","0.4095027401","0.2","0.8","0.4","0.6","0.4095027401","0.2982192525","0.7505037824","0.4376492532","","","","","","","","","","","","","","72","H","0","img/none_selected.jpg","","187","main_expt",""
"","bandit","268","822296","0.0-229.0-0.0","70507638","wem/bandit_party_2","A16335MOISDG1F","either","4","294","","","","","","","0","0","1","","0.7458261356","0.2","0.8","0.4","0.6","0.3356624093","0.2647713636","0.7458261356","0.317868257","","","","","","","","","","","","","","75","K","2","","","188","main_expt",""
"","bandit","269","824187","0.0-230.0-0.0","70507638","wem/bandit_party_2","A16335MOISDG1F","either","4","380","","","","","","","1","0","0","0.3700786551","","0.2","0.8","0.4","0.6","","","","","0.3717951419","0.2798663258","0.747965221","0.3700786551","","","","","","","","","","76","L","3","","","189","main_expt",""
"","bandit","270","825921","0.0-231.0-0.0","70507638","wem/bandit_party_2","A16335MOISDG1F","either","4","223","","","","","","","0","0","1","0.3423477616","","0.2","0.8","0.4","0.6","","","","","0.3266606931","0.2146362806","0.7459095382","0.3423477616","","","","","","","","","","76","L","3","","","190","main_expt",""
"","bandit","271","827675","0.0-232.0-0.0","70507638","wem/bandit_party_2","A16335MOISDG1F","either","4","247","","","","","","","0","0","1","0.2488230813","","0.2","0.8","0.4","0.6","","","","","0.4206899072","0.3132783624","0.6299055833","0.2488230813","","","","","","","","","","76","L","3","","","191","main_expt",""
"","bandit","272","829368","0.0-233.0-0.0","70507638","wem/bandit_party_2","A16335MOISDG1F","either","4","187","","","","","","","0","0","1","0.2193108308","","0.2","0.8","0.4","0.6","","","","","0.4982817076","0.2488083766","0.688533977","0.2193108308","","","","","","","","","","76","L","3","","","192","main_expt",""
"","bandit","273","831032","0.0-234.0-0.0","70507638","wem/bandit_party_2","A16335MOISDG1F","either","4","158","","","","","","","0","0","1","","0.7176496952","0.2","0.8","0.4","0.6","0.4820211017","0.225611763","0.7176496952","0.4057276106","","","","","","","","","","","","","","75","K","2","","","193","main_expt",""
"","bandit","274","832651","0.0-235.0-0.0","70507638","wem/bandit_party_2","A16335MOISDG1F","either","4","114","","","","","","","0","0","1","0.2159393038","","0.2","0.8","0.4","0.6","","","","","0.5373891537","0.2159393038","0.746212457","0.3826056333","","","","","","","","","","74","J","1","","","194","main_expt",""
"","bandit","275","834231","0.0-236.0-0.0","70507638","wem/bandit_party_2","A16335MOISDG1F","either","4","73","","","","","","","0","1","0","","0.3890275207","0.2","0.8","0.4","0.6","0.3890275207","0.3112228701","0.6800784202","0.4922935908","","","","","","","","","","","","","","72","H","0","img/none_selected.jpg","","195","main_expt",""
"","bandit","276","835944","0.0-237.0-0.0","70507638","wem/bandit_party_2","A16335MOISDG1F","either","4","198","","","","","","","1","0","0","0.4329462643","","0.2","0.8","0.4","0.6","","","","","0.4329462643","0.3249051539","0.5986295964","0.5475793877","","","","","","","","","","72","H","0","img/none_selected.jpg","","196","main_expt",""
"","bandit","277","837744","0.0-238.0-0.0","70507638","wem/bandit_party_2","A16335MOISDG1F","either","4","294","","","","","","","0","1","0","","0.416825946","0.2","0.8","0.4","0.6","0.416825946","0.2985018541","0.5323622673","0.6069385875","","","","","","","","","","","","","","72","H","0","img/none_selected.jpg","","197","main_expt",""
"","bandit","278","839485","0.0-239.0-0.0","70507638","wem/bandit_party_2","A16335MOISDG1F","either","4","227","","","","","","","0","0","1","","0.4063336836","0.2","0.8","0.4","0.6","0.4063336836","0.3109366799","0.5348043844","0.4946816555","","","","","","","","","","","","","","72","H","0","img/none_selected.jpg","","198","main_expt",""
"","bandit","279","841241","0.0-240.0-0.0","70507638","wem/bandit_party_2","A16335MOISDG1F","either","4","249","","","","","","","0","0","1","0.3143364341","","0.2","0.8","0.4","0.6","","","","","0.361264989","0.3143364341","0.4534403339","0.479635203","","","","","","","","","","74","J","1","","","199","main_expt",""
"","bandit","280","843030","0.0-241.0-0.0","70507638","wem/bandit_party_2","A16335MOISDG1F","either","4","285","","","","","","","0","0","1","","0.4700223374","0.2","0.8","0.4","0.6","0.4700223374","0.3176919365","0.4185876589","0.4969837249","","","","","","","","","","","","","","72","H","0","img/none_selected.jpg","","200","main_expt",""
"","bandit","281","844790","0.0-242.0-0.0","70507638","wem/bandit_party_2","A16335MOISDG1F","either","4","254","","","","","","","0","0","1","","0.4751543938","0.2","0.8","0.4","0.6","0.4751543938","0.2848283651","0.3812211227","0.4548125401","","","","","","","","","","","","","","72","H","0","img/none_selected.jpg","","201","main_expt",""
"","bandit","282","846564","0.0-243.0-0.0","70507638","wem/bandit_party_2","A16335MOISDG1F","either","4","268","","","","","","","0","1","0","","0.5767771981","0.2","0.8","0.4","0.6","0.4044794657","0.2439676923","0.4414728031","0.5767771981","","","","","","","","","","","","","","76","L","3","","","202","main_expt",""
"","bandit","283","848278","0.0-244.0-0.0","70507638","wem/bandit_party_2","A16335MOISDG1F","either","4","208","","","","","","","0","0","1","0.6118171827","","0.2","0.8","0.4","0.6","","","","","0.3321077444","0.2582922662","0.3698030662","0.6118171827","","","","","","","","","","76","L","3","","","203","main_expt",""
"","bandit","284","850007","0.0-245.0-0.0","70507638","wem/bandit_party_2","A16335MOISDG1F","either","4","223","","","","","","","0","0","1","","0.5373194108","0.2","0.8","0.4","0.6","0.3697340749","0.3799793739","0.4899087748","0.5373194108","","","","","","","","","","","","","","76","L","3","","","204","main_expt",""
"","bandit","285","851731","0.0-246.0-0.0","70507638","wem/bandit_party_2","A16335MOISDG1F","either","4","219","","","","","","","1","0","0","0.4310108402","","0.2","0.8","0.4","0.6","","","","","0.3998168993","0.4441528059","0.4310108402","0.5501461309","","","","","","","","","","75","K","2","","","205","main_expt",""
"","bandit","286","853495","0.0-247.0-0.0","70507638","wem/bandit_party_2","A16335MOISDG1F","either","4","259","","","","","","","0","1","0","","0.3912115078","0.2","0.8","0.4","0.6","0.4929909192","0.4468516792","0.3912115078","0.5094027242","","","","","","","","","","","","","","75","K","2","","","206","main_expt",""
"","bandit","287","855234","0.0-248.0-0.0","70507638","wem/bandit_party_2","A16335MOISDG1F","either","4","234","","","","","","","0","1","0","","0.3195818707","0.2","0.8","0.4","0.6","0.4960693894","0.399366085","0.3195818707","0.6449696869","","","","","","","","","","","","","","75","K","2","","","207","main_expt",""
"","bandit","288","857059","0.0-249.0-0.0","70507638","wem/bandit_party_2","A16335MOISDG1F","either","4","318","","","","","","","0","0","1","","0.2378171997","0.2","0.8","0.4","0.6","0.3912862986","0.4206610772","0.2378171997","0.549996868","","","","","","","","","","","","","","75","K","2","","","208","main_expt",""
"","bandit","289","858948","0.0-250.0-0.0","70507638","wem/bandit_party_2","A16335MOISDG1F","either","4","384","","","","","","","0","0","1","","0.5145499259","0.2","0.8","0.4","0.6","0.4218938049","0.5145499259","0.2339104391","0.5258833792","","","","","","","","","","","","","","74","J","1","","","209","main_expt",""
"","bandit","290","860717","0.0-251.0-0.0","70507638","wem/bandit_party_2","A16335MOISDG1F","either","4","262","","","","","","","0","0","1","","0.6003160005","0.2","0.8","0.4","0.6","0.6003160005","0.3497539355","0.2506558306","0.5453980868","","","","","","","","","","","","","","72","H","0","img/none_selected.jpg","","210","main_expt",""
"","bandit","291","862507","0.0-252.0-0.0","70507638","wem/bandit_party_2","A16335MOISDG1F","either","4","284","","","","","","","0","1","0","","0.3466578502","0.2","0.8","0.4","0.6","0.5481562991","0.3335821388","0.3466578502","0.5370950561","","","","","","","","","","","","","","75","K","2","","","211","main_expt",""
"","bandit","292","864316","0.0-253.0-0.0","70507638","wem/bandit_party_2","A16335MOISDG1F","either","4","304","","","","","","","0","1","0","","0.4162959965","0.2","0.8","0.4","0.6","0.6210595125","0.2778022227","0.4162959965","0.5774996514","","","","","","","","","","","","","","75","K","2","","","212","main_expt",""
"","bandit","293","866110","0.0-254.0-0.0","70507638","wem/bandit_party_2","A16335MOISDG1F","either","4","289","","","","","","","1","0","0","0.545788555","","0.2","0.8","0.4","0.6","","","","","0.7732161257","0.2949104287","0.545788555","0.4826056363","","","","","","","","","","75","K","2","","","213","main_expt",""
"","bandit","294","867880","0.0-255.0-0.0","70507638","wem/bandit_party_2","A16335MOISDG1F","either","4","265","","","","","","","0","0","1","0.6077749924","","0.2","0.8","0.4","0.6","","","","","0.7689771773","0.2443343027","0.6077749924","0.4913277851","","","","","","","","","","75","K","2","","","214","main_expt",""
"","bandit","295","869659","0.0-256.0-0.0","70507638","wem/bandit_party_2","A16335MOISDG1F","either","4","273","","","","","","","0","1","0","","0.5415006571","0.2","0.8","0.4","0.6","0.6841712945","0.2232989174","0.4883429648","0.5415006571","","","","","","","","","","","","","","76","L","3","","","215","main_expt",""
"","bandit","296","871413","0.0-257.0-0.0","70507638","wem/bandit_party_2","A16335MOISDG1F","either","4","248","","","","","","","0","1","0","","0.5198015267","0.2","0.8","0.4","0.6","0.7019934296","0.2918619336","0.3309854328","0.5198015267","","","","","","","","","","","","","","76","L","3","","","216","main_expt",""
"","bandit","297","873167","0.0-258.0-0.0","70507638","wem/bandit_party_2","A16335MOISDG1F","either","4","248","","","","","","","0","0","1","0.545097872","","0.2","0.8","0.4","0.6","","","","","0.7537099884","0.3571058798","0.3310528633","0.545097872","","","","","","","","","","76","L","3","","","217","main_expt",""
"","bandit","298","874931","0.0-259.0-0.0","70507638","wem/bandit_party_2","A16335MOISDG1F","either","4","256","","","","","","","0","1","0","","0.5776025334","0.2","0.8","0.4","0.6","0.8428980993","0.3738303097","0.4147218791","0.5776025334","","","","","","","","","","","","","","76","L","3","","","218","main_expt",""
"","bandit","299","876675","0.0-260.0-0.0","70507638","wem/bandit_party_2","A16335MOISDG1F","either","4","238","","","","","","","0","1","0","","0.5616346574","0.2","0.8","0.4","0.6","0.8007326434","0.4832874948","0.3402104323","0.5616346574","","","","","","","","","","","","","","76","L","3","","","219","main_expt",""
"","bandit","300","878450","0.0-261.0-0.0","70507638","wem/bandit_party_2","A16335MOISDG1F","either","4","267","","","","","","","0","1","0","","0.6261942659","0.2","0.8","0.4","0.6","0.8518850648","0.475455537","0.3448871422","0.6261942659","","","","","","","","","","","","","","76","L","3","","","220","main_expt",""
"","bandit","301","880239","0.0-262.0-0.0","70507638","wem/bandit_party_2","A16335MOISDG1F","either","4","284","","","","","","","0","1","0","","0.6533416475","0.2","0.8","0.4","0.6","0.8488451861","0.3849790123","0.4438284365","0.6533416475","","","","","","","","","","","","","","76","L","3","","","221","main_expt",""
"","bandit","302","881961","0.0-263.0-0.0","70507638","wem/bandit_party_2","A16335MOISDG1F","either","4","217","","","","","","","1","0","0","0.6780524799","","0.2","0.8","0.4","0.6","","","","","0.8202185963","0.2708628555","0.3768672835","0.6780524799","","","","","","","","","","76","L","3","","","222","main_expt",""
"","bandit","303","883692","0.0-264.0-0.0","70507638","wem/bandit_party_2","A16335MOISDG1F","either","4","224","","","","","","","1","0","0","0.638470603","","0.2","0.8","0.4","0.6","","","","","0.839196386","0.3886191555","0.4599748191","0.638470603","","","","","","","","","","76","L","3","","","223","main_expt",""
"","bandit","304","885531","0.0-265.0-0.0","70507638","wem/bandit_party_2","A16335MOISDG1F","either","4","333","","","","","","","0","0","1","0.560582988","","0.2","0.8","0.4","0.6","","","","","0.8340435664","0.3352763987","0.5868274652","0.560582988","","","","","","","","","","76","L","3","","","224","main_expt",""
"","bandit","305","887250","0.0-266.0-0.0","70507638","wem/bandit_party_2","A16335MOISDG1F","either","4","214","","","","","","","1","0","0","0.510759767","","0.2","0.8","0.4","0.6","","","","","0.8229669419","0.3948846532","0.510759767","0.5004803289","","","","","","","","","","75","K","2","","","225","main_expt",""
"","bandit","306","889005","0.0-267.0-0.0","70507638","wem/bandit_party_2","A16335MOISDG1F","either","4","249","","","","","","","0","0","1","0.6026028704","","0.2","0.8","0.4","0.6","","","","","0.8326575293","0.385279681","0.6026028704","0.5109709899","","","","","","","","","","75","K","2","","","226","main_expt",""
"","bandit","307","890769","0.0-268.0-0.0","70507638","wem/bandit_party_2","A16335MOISDG1F","either","4","259","","","","","","","0","0","1","","0.4271661703","0.2","0.8","0.4","0.6","0.8904476858","0.3296530349","0.588132951","0.4271661703","","","","","","","","","","","","","","76","L","3","","","227","main_expt",""
"","bandit","308","892503","0.0-269.0-0.0","70507638","wem/bandit_party_2","A16335MOISDG1F","either","4","228","","","","","","","0","0","1","","0.5754590721","0.2","0.8","0.4","0.6","0.8877596604","0.4227788413","0.5754590721","0.374673526","","","","","","","","","","","","","","75","K","2","","","228","main_expt",""
"","bandit","309","894871","0.0-270.0-0.0","70507638","wem/bandit_party_2","A16335MOISDG1F","either","4","864","","","","","","","0","1","0","","0.8647697669","0.2","0.8","0.4","0.6","0.8647697669","0.4470353227","0.6311951266","0.393435759","","","","","","","","","","","","","","72","H","0","img/none_selected.jpg","","229","main_expt",""
"","bandit","310","896643","0.0-271.0-0.0","70507638","wem/bandit_party_2","A16335MOISDG1F","either","4","266","","","","","","","0","1","0","","0.8704214291","0.2","0.8","0.4","0.6","0.8704214291","0.2986819632","0.6164228117","0.3299431778","","","","","","","","","","","","","","72","H","0","img/none_selected.jpg","","230","main_expt",""
"","bandit","311","898417","0.0-272.0-0.0","70507638","wem/bandit_party_2","A16335MOISDG1F","either","4","268","","","","","","","0","1","0","","0.8598686354","0.2","0.8","0.4","0.6","0.8598686354","0.4508866759","0.5943568022","0.3477061432","","","","","","","","","","","","","","72","H","0","img/none_selected.jpg","","231","main_expt",""
"","bandit","312","900151","0.0-273.0-0.0","70507638","wem/bandit_party_2","A16335MOISDG1F","either","4","228","","","","","","","0","1","0","","0.7939027672","0.2","0.8","0.4","0.6","0.7939027672","0.5125968159","0.6032910051","0.3430234075","","","","","","","","","","","","","","72","H","0","img/none_selected.jpg","","232","main_expt",""
"","bandit","313","901900","0.0-274.0-0.0","70507638","wem/bandit_party_2","A16335MOISDG1F","either","4","244","","","","","","","1","0","0","0.7930400566","","0.2","0.8","0.4","0.6","","","","","0.7930400566","0.6020802482","0.7225660168","0.2812772396","","","","","","","","","","72","H","0","img/none_selected.jpg","","233","main_expt",""
"","bandit","314","903680","0.0-275.0-0.0","70507638","wem/bandit_party_2","A16335MOISDG1F","either","4","274","","","","","","","0","0","1","","0.7549101179","0.2","0.8","0.4","0.6","0.7549101179","0.5927943616","0.6718439238","0.2049555934","","","","","","","","","","","","","","72","H","0","img/none_selected.jpg","","234","main_expt",""
"","bandit","315","905359","0.0-276.0-0.0","70507638","wem/bandit_party_2","A16335MOISDG1F","either","4","173","","","","","","","0","1","0","","0.144612338","0.2","0.8","0.4","0.6","0.7654291135","0.5814417759","0.6025803433","0.144612338","","","","","","","","","","","","","","76","L","3","","","235","main_expt",""
"","bandit","316","907128","0.0-277.0-0.0","70507638","wem/bandit_party_2","A16335MOISDG1F","either","4","261","","","","","","","0","1","0","","0.1509581517","0.2","0.8","0.4","0.6","0.6965918162","0.6530024001","0.6170166349","0.1509581517","","","","","","","","","","","","","","76","L","3","","","236","main_expt",""
"","bandit","317","908917","0.0-278.0-0.0","70507638","wem/bandit_party_2","A16335MOISDG1F","either","4","283","","","","","","","0","0","1","","0.2267465707","0.2","0.8","0.4","0.6","0.8151927982","0.5861490443","0.6426153702","0.2267465707","","","","","","","","","","","","","","76","L","3","","","237","main_expt",""
