"consent","trial_type","trial_index","time_elapsed","internal_node_id","subjID","study","MID","cond","drift","rt","responses","button_pressed","key_press","like","value","connected","gems","bombs","no_reward","GemPrChosen","BombPrChosen","GainOverPainPr_0","GainOverPainPr_1","GainOverPainPr_2","GainOverPainPr_3","LosePr_0","LosePr_1","LosePr_2","LosePr_3","WinPr_0","WinPr_1","WinPr_2","WinPr_3","Q0","Q1","Q2","gender","age","ethnicity","label","expt_phase","target","respCharCode","respKey","respChoiceNum","respChoice","practice","trial_counter","trial_label","Q0_index"
"GDM/GDM_behavioral_consent_30min_online.html","consent","0","23260","0.0-0.0","70978853","wem/bandit_party_2","A3CA54DDB6GYHM","either","7","","","","","","","","","","","","","","","","","","","","","","","","","","","","","","","","","","","","","","","","",""
"","survey-text","1","33511","0.0-1.0","70978853","wem/bandit_party_2","A3CA54DDB6GYHM","either","7","8005","{""Q0"":""A3CA54DDB6GYHM""}","","","","","","","","","","","","","","","","","","","","","","","","","","","","","","","","","","","","","","",""
"","button-response","2","36521","0.0-2.0","70978853","wem/bandit_party_2","A3CA54DDB6GYHM","either","7","1961","","1","","","","","","","","","","","","","","","","","","","","","","","","","","","","","","","","","","","","","",""
"","text-replacement","3","50170","0.0-3.0","70978853","wem/bandit_party_2","A3CA54DDB6GYHM","either","7","12360","","","32","","","","","","","","","","","","","","","","","","","","","","","","","","","","","","","","","","","","",""
"","text-replacement","4","60462","0.0-4.0","70978853","wem/bandit_party_2","A3CA54DDB6GYHM","either","7","10265","","","32","","","","","","","","","","","","","","","","","","","","","","","","","","","","","","","","","","","","",""
"","identification","5","70549","0.0-6.0-0.0","70978853","wem/bandit_party_2","A3CA54DDB6GYHM","either","7","9992","","","","5","5","5","","","","","","","","","","","","","","","","","","","","","","","","pre","identification_pre","the Democratic Party","","","","","","","",""
"","identification","6","79485","0.0-6.0-1.0","70978853","wem/bandit_party_2","A3CA54DDB6GYHM","either","7","7837","","","","0","0","0","","","","","","","","","","","","","","","","","","","","","","","","pre","identification_pre","the Republican Party","","","","","","","",""
"","text-replacement","7","88157","0.0-7.0","70978853","wem/bandit_party_2","A3CA54DDB6GYHM","either","7","7352","","","32","","","","","","","","","","","","","","","","","","","","","","","","","","","","","","","","","","","","",""
"","text-replacement","8","91829","0.0-8.0","70978853","wem/bandit_party_2","A3CA54DDB6GYHM","either","7","3663","","","32","","","","","","","","","","","","","","","","","","","","","","","","","","","","","","","","","","","","",""
"","text-replacement","9","102890","0.0-9.0","70978853","wem/bandit_party_2","A3CA54DDB6GYHM","either","7","11047","","","32","","","","","","","","","","","","","","","","","","","","","","","","","","","","","","","","","","","","",""
"","text-replacement","10","107778","0.0-10.0","70978853","wem/bandit_party_2","A3CA54DDB6GYHM","either","7","4878","","","32","","","","","","","","","","","","","","","","","","","","","","","","","","","","","","","","","","","","",""
"","text-replacement","11","114817","0.0-11.0","70978853","wem/bandit_party_2","A3CA54DDB6GYHM","either","7","7028","","","32","","","","","","","","","","","","","","","","","","","","","","","","","","","","","","","","","","","","",""
"","bandit","12","122573","0.0-12.0-0.0","70978853","wem/bandit_party_2","A3CA54DDB6GYHM","either","7","5040","","","","","","","0","0","1","0","0","","","","","0","","","","0","","","","","","","","","","","","","74","J","0","img/none_selected_demo.jpg","true","0","",""
"","bandit","13","126332","0.0-13.0-0.0","70978853","wem/bandit_party_2","A3CA54DDB6GYHM","either","7","950","","","","","","","0","0","1","0","0","","","","","0","","","","0","","","","","","","","","","","","","75","K","0","img/none_selected_demo.jpg","true","0","",""
"","text-replacement","14","138879","0.0-14.0","70978853","wem/bandit_party_2","A3CA54DDB6GYHM","either","7","12532","","","32","","","","","","","","","","","","","","","","","","","","","","","","","","","","","","","","","","","","",""
"","text-replacement","15","145902","0.0-15.0","70978853","wem/bandit_party_2","A3CA54DDB6GYHM","either","7","7013","","","32","","","","","","","","","","","","","","","","","","","","","","","","","","","","","","","","","","","","",""
"","text-replacement","16","154469","0.0-16.0","70978853","wem/bandit_party_2","A3CA54DDB6GYHM","either","7","8556","","","32","","","","","","","","","","","","","","","","","","","","","","","","","","","","","","","","","","","","",""
"","text-replacement","17","159051","0.0-17.0","70978853","wem/bandit_party_2","A3CA54DDB6GYHM","either","7","4572","","","32","","","","","","","","","","","","","","","","","","","","","","","","","","","","","","","","","","","","",""
"","bandit","18","162846","0.0-18.0-0.0","70978853","wem/bandit_party_2","A3CA54DDB6GYHM","either","7","965","","","","","","","1","0","0","0.8","","0.5","0.5","","","","","","","0.8","0.2","","","","","","","","","","","","74","J","0","img/none_selected_demo.jpg","true","0","80_20_practice",""
"","bandit","19","166196","0.0-18.0-1.0","70978853","wem/bandit_party_2","A3CA54DDB6GYHM","either","7","1378","","","","","","","0","1","0","","0.8","0.5","0.5","","","0.8","0.2","","","","","","","","","","","","","","","","74","J","0","img/none_selected_demo.jpg","true","0","80_20_practice",""
"","bandit","20","168410","0.0-18.0-2.0","70978853","wem/bandit_party_2","A3CA54DDB6GYHM","either","7","660","","","","","","","0","1","0","","0.8","0.5","0.5","","","0.8","0.2","","","","","","","","","","","","","","","","74","J","0","img/none_selected_demo.jpg","true","0","80_20_practice",""
"","bandit","21","171445","0.0-18.0-3.0","70978853","wem/bandit_party_2","A3CA54DDB6GYHM","either","7","1462","","","","","","","0","1","0","","0.8","0.5","0.5","","","0.8","0.2","","","","","","","","","","","","","","","","74","J","0","img/none_selected_demo.jpg","true","0","80_20_practice",""
"","bandit","22","174577","0.0-18.0-4.0","70978853","wem/bandit_party_2","A3CA54DDB6GYHM","either","7","518","","","","","","","0","1","0","","0.8","0.5","0.5","","","0.8","0.2","","","","","","","","","","","","","","","","74","J","0","img/none_selected_demo.jpg","true","0","80_20_practice",""
"","bandit","23","177258","0.0-18.0-5.0","70978853","wem/bandit_party_2","A3CA54DDB6GYHM","either","7","683","","","","","","","0","0","1","","0.8","0.5","0.5","","","0.8","0.2","","","","","","","","","","","","","","","","74","J","0","img/none_selected_demo.jpg","true","0","80_20_practice",""
"","bandit","24","179251","0.0-18.0-6.0","70978853","wem/bandit_party_2","A3CA54DDB6GYHM","either","7","453","","","","","","","0","0","1","0.2","","0.5","0.5","","","","","","","0.8","0.2","","","","","","","","","","","","75","K","1","","true","0","80_20_practice",""
"","bandit","25","182570","0.0-18.0-7.0","70978853","wem/bandit_party_2","A3CA54DDB6GYHM","either","7","544","","","","","","","1","0","0","0.2","","0.5","0.5","","","","","","","0.8","0.2","","","","","","","","","","","","75","K","1","","true","0","80_20_practice",""
"","bandit","26","184175","0.0-18.0-8.0","70978853","wem/bandit_party_2","A3CA54DDB6GYHM","either","7","48","","","","","","","0","0","1","","0.2","0.5","0.5","","","0.8","0.2","","","","","","","","","","","","","","","","75","K","1","","true","0","80_20_practice",""
"","bandit","27","186567","0.0-18.0-9.0","70978853","wem/bandit_party_2","A3CA54DDB6GYHM","either","7","135","","","","","","","0","0","1","0.2","","0.5","0.5","","","","","","","0.8","0.2","","","","","","","","","","","","75","K","1","","true","0","80_20_practice",""
"","bandit","28","188814","0.0-18.0-10.0","70978853","wem/bandit_party_2","A3CA54DDB6GYHM","either","7","666","","","","","","","0","0","1","0.2","","0.5","0.5","","","","","","","0.8","0.2","","","","","","","","","","","","75","K","1","","true","0","80_20_practice",""
"","bandit","29","192089","0.0-18.0-11.0","70978853","wem/bandit_party_2","A3CA54DDB6GYHM","either","7","1709","","","","","","","0","1","0","","0.2","0.5","0.5","","","0.8","0.2","","","","","","","","","","","","","","","","75","K","1","","true","0","80_20_practice",""
"","bandit","30","195112","0.0-18.0-12.0","70978853","wem/bandit_party_2","A3CA54DDB6GYHM","either","7","882","","","","","","","0","0","1","","0.2","0.5","0.5","","","0.8","0.2","","","","","","","","","","","","","","","","75","K","1","","true","0","80_20_practice",""
"","bandit","31","197236","0.0-18.0-13.0","70978853","wem/bandit_party_2","A3CA54DDB6GYHM","either","7","572","","","","","","","0","0","1","","0.2","0.5","0.5","","","0.8","0.2","","","","","","","","","","","","","","","","75","K","1","","true","0","80_20_practice",""
"","bandit","32","200287","0.0-18.0-14.0","70978853","wem/bandit_party_2","A3CA54DDB6GYHM","either","7","1506","","","","","","","1","0","0","0.2","","0.5","0.5","","","","","","","0.8","0.2","","","","","","","","","","","","75","K","1","","true","0","80_20_practice",""
"","bandit","33","203077","0.0-18.0-15.0","70978853","wem/bandit_party_2","A3CA54DDB6GYHM","either","7","286","","","","","","","0","1","0","","0.2","0.5","0.5","","","0.8","0.2","","","","","","","","","","","","","","","","75","K","1","","true","0","80_20_practice",""
"","bandit","34","205679","0.0-18.0-16.0","70978853","wem/bandit_party_2","A3CA54DDB6GYHM","either","7","1053","","","","","","","0","0","1","0.2","","0.5","0.5","","","","","","","0.8","0.2","","","","","","","","","","","","75","K","1","","true","0","80_20_practice",""
"","bandit","35","209516","0.0-18.0-17.0","70978853","wem/bandit_party_2","A3CA54DDB6GYHM","either","7","2271","","","","","","","0","1","0","","0.8","0.5","0.5","","","0.8","0.2","","","","","","","","","","","","","","","","74","J","0","img/none_selected_demo.jpg","true","0","80_20_practice",""
"","bandit","36","212898","0.0-18.0-18.0","70978853","wem/bandit_party_2","A3CA54DDB6GYHM","either","7","642","","","","","","","1","0","0","0.8","","0.5","0.5","","","","","","","0.8","0.2","","","","","","","","","","","","74","J","0","img/none_selected_demo.jpg","true","0","80_20_practice",""
"","bandit","37","215494","0.0-18.0-19.0","70978853","wem/bandit_party_2","A3CA54DDB6GYHM","either","7","1058","","","","","","","1","0","0","0.8","","0.5","0.5","","","","","","","0.8","0.2","","","","","","","","","","","","74","J","0","img/none_selected_demo.jpg","true","0","80_20_practice",""
"","text-replacement","38","219040","0.0-19.0","70978853","wem/bandit_party_2","A3CA54DDB6GYHM","either","7","3515","","","32","","","","","","","","","","","","","","","","","","","","","","","","","","","","","","","","","","","","",""
"","bandit","39","223941","0.0-20.0-0.0","70978853","wem/bandit_party_2","A3CA54DDB6GYHM","either","7","2271","","","","","","","1","0","0","1","0","","","","","0","1","","","1","0","","","","","","","","","","","","74","J","0","img/none_selected_demo.jpg","true","0","",""
"","text-replacement","40","227667","0.0-21.0","70978853","wem/bandit_party_2","A3CA54DDB6GYHM","either","7","3718","","","32","","","","","","","","","","","","","","","","","","","","","","","","","","","","","","","","","","","","",""
"","text-replacement","41","231310","0.0-22.0","70978853","wem/bandit_party_2","A3CA54DDB6GYHM","either","7","3639","","","32","","","","","","","","","","","","","","","","","","","","","","","","","","","","","","","","","","","","",""
"","text-replacement","42","235489","0.0-23.0","70978853","wem/bandit_party_2","A3CA54DDB6GYHM","either","7","4174","","","32","","","","","","","","","","","","","","","","","","","","","","","","","","","","","","","","","","","","",""
"","text-replacement","43","239927","0.0-24.0","70978853","wem/bandit_party_2","A3CA54DDB6GYHM","either","7","4422","","","32","","","","","","","","","","","","","","","","","","","","","","","","","","","","","","","","","","","","",""
"","text-replacement","44","247252","0.0-25.0","70978853","wem/bandit_party_2","A3CA54DDB6GYHM","either","7","7309","","","32","","","","","","","","","","","","","","","","","","","","","","","","","","","","","","","","","","","","",""
"","text-replacement","45","250865","0.0-26.0","70978853","wem/bandit_party_2","A3CA54DDB6GYHM","either","7","3604","","","32","","","","","","","","","","","","","","","","","","","","","","","","","","","","","","","","","","","","",""
"","text-replacement","46","254776","0.0-27.0","70978853","wem/bandit_party_2","A3CA54DDB6GYHM","either","7","3897","","","32","","","","","","","","","","","","","","","","","","","","","","","","","","","","","","","","","","","","",""
"","text-replacement","47","263378","0.0-28.0","70978853","wem/bandit_party_2","A3CA54DDB6GYHM","either","7","8570","","","32","","","","","","","","","","","","","","","","","","","","","","","","","","","","","","","","","","","","",""
"","text-replacement","48","268139","0.0-29.0","70978853","wem/bandit_party_2","A3CA54DDB6GYHM","either","7","4732","","","32","","","","","","","","","","","","","","","","","","","","","","","","","","","","","","","","","","","","",""
"","text-replacement","49","271310","0.0-30.0","70978853","wem/bandit_party_2","A3CA54DDB6GYHM","either","7","3137","","","32","","","","","","","","","","","","","","","","","","","","","","","","","","","","","","","","","","","","",""
"","text-replacement","50","274315","0.0-31.0","70978853","wem/bandit_party_2","A3CA54DDB6GYHM","either","7","2984","","","32","","","","","","","","","","","","","","","","","","","","","","","","","","","","","","","","","","","","",""
"","bandit","51","276803","0.0-32.0-0.0","70978853","wem/bandit_party_2","A3CA54DDB6GYHM","either","7","938","","","","","","","0","1","0","","0.8","0.5","0.5","0.5","0.5","0.8","0.2","0.6","0.2","","","","","","","","","","","","","","72","H","0","img/none_selected.jpg","true","0","full_practice",""
"","bandit","52","280144","0.0-32.0-1.0","70978853","wem/bandit_party_2","A3CA54DDB6GYHM","either","7","1765","","","","","","","1","0","0","0.8","","0.5","0.5","0.5","0.5","","","","","0.8","0.2","0.6","0.2","","","","","","","","","","72","H","0","img/none_selected.jpg","true","0","full_practice",""
"","bandit","53","285004","0.0-32.0-2.0","70978853","wem/bandit_party_2","A3CA54DDB6GYHM","either","7","3303","","","","","","","0","0","1","0.2","","0.5","0.5","0.5","0.5","","","","","0.8","0.2","0.6","0.2","","","","","","","","","","74","J","1","","true","0","full_practice",""
"","bandit","54","288241","0.0-32.0-3.0","70978853","wem/bandit_party_2","A3CA54DDB6GYHM","either","7","576","","","","","","","0","0","1","","0.2","0.5","0.5","0.5","0.5","0.8","0.2","0.6","0.2","","","","","","","","","","","","","","74","J","1","","true","0","full_practice",""
"","bandit","55","290406","0.0-32.0-4.0","70978853","wem/bandit_party_2","A3CA54DDB6GYHM","either","7","604","","","","","","","0","1","0","","0.6","0.5","0.5","0.5","0.5","0.8","0.2","0.6","0.2","","","","","","","","","","","","","","75","K","2","","true","0","full_practice",""
"","bandit","56","293687","0.0-32.0-5.0","70978853","wem/bandit_party_2","A3CA54DDB6GYHM","either","7","1702","","","","","","","1","0","0","0.6","","0.5","0.5","0.5","0.5","","","","","0.8","0.2","0.6","0.2","","","","","","","","","","75","K","2","","true","0","full_practice",""
"","bandit","57","296459","0.0-32.0-6.0","70978853","wem/bandit_party_2","A3CA54DDB6GYHM","either","7","718","","","","","","","0","0","1","","0.2","0.5","0.5","0.5","0.5","0.8","0.2","0.6","0.2","","","","","","","","","","","","","","76","L","3","","true","0","full_practice",""
"","bandit","58","298522","0.0-32.0-7.0","70978853","wem/bandit_party_2","A3CA54DDB6GYHM","either","7","517","","","","","","","1","0","0","0.2","","0.5","0.5","0.5","0.5","","","","","0.8","0.2","0.6","0.2","","","","","","","","","","76","L","3","","true","0","full_practice",""
"","bandit","59","301015","0.0-32.0-8.0","70978853","wem/bandit_party_2","A3CA54DDB6GYHM","either","7","923","","","","","","","0","1","0","","0.6","0.5","0.5","0.5","0.5","0.8","0.2","0.6","0.2","","","","","","","","","","","","","","75","K","2","","true","0","full_practice",""
"","bandit","60","304127","0.0-32.0-9.0","70978853","wem/bandit_party_2","A3CA54DDB6GYHM","either","7","1538","","","","","","","1","0","0","0.8","","0.5","0.5","0.5","0.5","","","","","0.8","0.2","0.6","0.2","","","","","","","","","","72","H","0","img/none_selected.jpg","true","0","full_practice",""
"","bandit","61","306780","0.0-32.0-10.0","70978853","wem/bandit_party_2","A3CA54DDB6GYHM","either","7","36","","","","","","","1","0","0","0.6","","0.5","0.5","0.5","0.5","","","","","0.8","0.2","0.6","0.2","","","","","","","","","","75","K","2","","true","0","full_practice",""
"","bandit","62","308667","0.0-32.0-11.0","70978853","wem/bandit_party_2","A3CA54DDB6GYHM","either","7","347","","","","","","","0","0","1","0.8","","0.5","0.5","0.5","0.5","","","","","0.8","0.2","0.6","0.2","","","","","","","","","","72","H","0","img/none_selected.jpg","true","0","full_practice",""
"","bandit","63","311846","0.0-32.0-12.0","70978853","wem/bandit_party_2","A3CA54DDB6GYHM","either","7","626","","","","","","","0","1","0","","0.6","0.5","0.5","0.5","0.5","0.8","0.2","0.6","0.2","","","","","","","","","","","","","","75","K","2","","true","0","full_practice",""
"","bandit","64","314845","0.0-32.0-13.0","70978853","wem/bandit_party_2","A3CA54DDB6GYHM","either","7","384","","","","","","","1","0","0","0.6","","0.5","0.5","0.5","0.5","","","","","0.8","0.2","0.6","0.2","","","","","","","","","","75","K","2","","true","0","full_practice",""
"","bandit","65","316755","0.0-32.0-14.0","70978853","wem/bandit_party_2","A3CA54DDB6GYHM","either","7","366","","","","","","","0","1","0","","0.6","0.5","0.5","0.5","0.5","0.8","0.2","0.6","0.2","","","","","","","","","","","","","","75","K","2","","true","0","full_practice",""
"","bandit","66","319538","0.0-32.0-15.0","70978853","wem/bandit_party_2","A3CA54DDB6GYHM","either","7","319","","","","","","","0","1","0","","0.6","0.5","0.5","0.5","0.5","0.8","0.2","0.6","0.2","","","","","","","","","","","","","","75","K","2","","true","0","full_practice",""
"","bandit","67","323877","0.0-32.0-16.0","70978853","wem/bandit_party_2","A3CA54DDB6GYHM","either","7","2682","","","","","","","0","1","0","","0.6","0.5","0.5","0.5","0.5","0.8","0.2","0.6","0.2","","","","","","","","","","","","","","75","K","2","","true","0","full_practice",""
"","bandit","68","328130","0.0-32.0-17.0","70978853","wem/bandit_party_2","A3CA54DDB6GYHM","either","7","2655","","","","","","","0","0","1","0.6","","0.5","0.5","0.5","0.5","","","","","0.8","0.2","0.6","0.2","","","","","","","","","","75","K","2","","true","0","full_practice",""
"","bandit","69","331838","0.0-32.0-18.0","70978853","wem/bandit_party_2","A3CA54DDB6GYHM","either","7","2102","","","","","","","1","0","0","0.8","","0.5","0.5","0.5","0.5","","","","","0.8","0.2","0.6","0.2","","","","","","","","","","72","H","0","img/none_selected.jpg","true","0","full_practice",""
"","bandit","70","335468","0.0-32.0-19.0","70978853","wem/bandit_party_2","A3CA54DDB6GYHM","either","7","867","","","","","","","0","0","1","0.2","","0.5","0.5","0.5","0.5","","","","","0.8","0.2","0.6","0.2","","","","","","","","","","74","J","1","","true","0","full_practice",""
"","text","71","339477","0.0-33.0","70978853","wem/bandit_party_2","A3CA54DDB6GYHM","either","7","3978","","","32","","","","","","","","","","","","","","","","","","","","","","","","","","","","","","","","","","","","",""
"","text-replacement","72","355570","0.0-34.0","70978853","wem/bandit_party_2","A3CA54DDB6GYHM","either","7","15072","","","32","","","","","","","","","","","","","","","","","","","","","","","","","","","","","","","","","","","","",""
"","text-replacement","73","373758","0.0-35.0","70978853","wem/bandit_party_2","A3CA54DDB6GYHM","either","7","18164","","","32","","","","","","","","","","","","","","","","","","","","","","","","","","","","","","","","","","","","",""
"","text-replacement","74","379044","0.0-36.0","70978853","wem/bandit_party_2","A3CA54DDB6GYHM","either","7","5276","","","32","","","","","","","","","","","","","","","","","","","","","","","","","","","","","","","","","","","","",""
"","text-replacement","75","387993","0.0-37.0","70978853","wem/bandit_party_2","A3CA54DDB6GYHM","either","7","8943","","","32","","","","","","","","","","","","","","","","","","","","","","","","","","","","","","","","","","","","",""
"","text-replacement","76","394370","0.0-38.0","70978853","wem/bandit_party_2","A3CA54DDB6GYHM","either","7","6358","","","32","","","","","","","","","","","","","","","","","","","","","","","","","","","","","","","","","","","","",""
"","survey-multi-choice-replacement","77","406116","0.0-39.0-0.0","70978853","wem/bandit_party_2","A3CA54DDB6GYHM","either","7","11664","","","","","","","","","","","","","","","","","","","","","","","","Money will be added to the pool for <span style='color:blue;'>DEMOCRATS</span>","","","","","","","attn_check","","","","","","","","","0"
"","survey-multi-choice-replacement","78","410917","0.0-40.0-0.0","70978853","wem/bandit_party_2","A3CA54DDB6GYHM","either","7","3724","","","","","","","","","","","","","","","","","","","","","","","","Equal amounts of money will be added to the pool for <span style='color:blue;'>DEMOCRATS</span> and subtracted from the pool for <span style='color:red;'>REPUBLICANS</span>","","","","","","","attn_check","","","","","","","","","2"
"","survey-multi-choice-replacement","79","417934","0.0-41.0-0.0","70978853","wem/bandit_party_2","A3CA54DDB6GYHM","either","7","5241","","","","","","","","","","","","","","","","","","","","","","","","No money will be added to either pool","","","","","","","attn_check","","","","","","","","","3"
"","bandit","80","426365","0.0-42.0-0.0","70978853","wem/bandit_party_2","A3CA54DDB6GYHM","either","7","5840","","","","","","","0","0","1","0.5514722813","","0.2","0.8","0.6","0.4","","","","","0.7088318221","0.5514722813","0.1731741302","0.2888626749","","","","","","","","","","74","J","1","","","1","main_expt",""
"","bandit","81","429115","0.0-43.0-0.0","70978853","wem/bandit_party_2","A3CA54DDB6GYHM","either","7","270","","","","","","","0","1","0","","0.6292935488","0.2","0.8","0.6","0.4","0.6292935488","0.5039303977","0.2874485847","0.3999538902","","","","","","","","","","","","","","72","H","0","img/none_selected.jpg","","2","main_expt",""
"","bandit","82","432024","0.0-44.0-0.0","70978853","wem/bandit_party_2","A3CA54DDB6GYHM","either","7","378","","","","","","","0","1","0","","0.5285482983","0.2","0.8","0.6","0.4","0.5285482983","0.5527877924","0.2683250969","0.4126831114","","","","","","","","","","","","","","72","H","0","img/none_selected.jpg","","3","main_expt",""
"","bandit","83","435898","0.0-45.0-0.0","70978853","wem/bandit_party_2","A3CA54DDB6GYHM","either","7","1128","","","","","","","0","0","1","","0.3988631097","0.2","0.8","0.6","0.4","0.6744491701","0.6336700584","0.3988631097","0.3923803367","","","","","","","","","","","","","","75","K","2","","","4","main_expt",""
"","bandit","84","439603","0.0-46.0-0.0","70978853","wem/bandit_party_2","A3CA54DDB6GYHM","either","7","999","","","","","","","0","0","1","","0.3803283439","0.2","0.8","0.6","0.4","0.7922285807","0.6340088104","0.3568799457","0.3803283439","","","","","","","","","","","","","","76","L","3","","","5","main_expt",""
"","bandit","85","444307","0.0-47.0-0.0","70978853","wem/bandit_party_2","A3CA54DDB6GYHM","either","7","2052","","","","","","","0","0","1","0.7459441126","","0.2","0.8","0.6","0.4","","","","","0.7459441126","0.5784181907","0.3188731731","0.4214296899","","","","","","","","","","72","H","0","img/none_selected.jpg","","6","main_expt",""
"","bandit","86","446951","0.0-48.0-0.0","70978853","wem/bandit_party_2","A3CA54DDB6GYHM","either","7","332","","","","","","","0","1","0","","0.6727083857","0.2","0.8","0.6","0.4","0.7681481668","0.6727083857","0.4574196012","0.4755968838","","","","","","","","","","","","","","74","J","1","","","7","main_expt",""
"","bandit","87","448998","0.0-49.0-0.0","70978853","wem/bandit_party_2","A3CA54DDB6GYHM","either","7","489","","","","","","","1","0","0","0.7574508858","","0.2","0.8","0.6","0.4","","","","","0.7251609313","0.7574508858","0.5037884951","0.5353568537","","","","","","","","","","74","J","1","","","8","main_expt",""
"","bandit","88","452190","0.0-50.0-0.0","70978853","wem/bandit_party_2","A3CA54DDB6GYHM","either","7","1594","","","","","","","1","0","0","0.8280759311","","0.2","0.8","0.6","0.4","","","","","0.7403055102","0.8280759311","0.5750013994","0.6246831942","","","","","","","","","","74","J","1","","","9","main_expt",""
"","bandit","89","454972","0.0-51.0-0.0","70978853","wem/bandit_party_2","A3CA54DDB6GYHM","either","7","655","","","","","","","0","1","0","","0.859726102","0.2","0.8","0.6","0.4","0.722944265","0.859726102","0.5399040382","0.4475954046","","","","","","","","","","","","","","74","J","1","","","10","main_expt",""
"","bandit","90","457058","0.0-52.0-0.0","70978853","wem/bandit_party_2","A3CA54DDB6GYHM","either","7","533","","","","","","","1","0","0","0.877956501","","0.2","0.8","0.6","0.4","","","","","0.6833847698","0.877956501","0.5181098662","0.4514702697","","","","","","","","","","74","J","1","","","11","main_expt",""
"","bandit","91","460341","0.0-53.0-0.0","70978853","wem/bandit_party_2","A3CA54DDB6GYHM","either","7","507","","","","","","","1","0","0","0.8883669707","","0.2","0.8","0.6","0.4","","","","","0.689227163","0.8883669707","0.5489165229","0.4873058782","","","","","","","","","","74","J","1","","","12","main_expt",""
"","bandit","92","464949","0.0-54.0-0.0","70978853","wem/bandit_party_2","A3CA54DDB6GYHM","either","7","3004","","","","","","","1","0","0","0.817149195","","0.2","0.8","0.6","0.4","","","","","0.5178623456","0.817149195","0.6186986429","0.4862469224","","","","","","","","","","74","J","1","","","13","main_expt",""
"","bandit","93","468112","0.0-55.0-0.0","70978853","wem/bandit_party_2","A3CA54DDB6GYHM","either","7","495","","","","","","","1","0","0","0.8589139609","","0.2","0.8","0.6","0.4","","","","","0.4768489018","0.8589139609","0.4944095791","0.360908092","","","","","","","","","","74","J","1","","","14","main_expt",""
"","bandit","94","470970","0.0-56.0-0.0","70978853","wem/bandit_party_2","A3CA54DDB6GYHM","either","7","347","","","","","","","1","0","0","0.7955781648","","0.2","0.8","0.6","0.4","","","","","0.5201849276","0.7955781648","0.4820951366","0.4126647893","","","","","","","","","","74","J","1","","","15","main_expt",""
"","bandit","95","472940","0.0-57.0-0.0","70978853","wem/bandit_party_2","A3CA54DDB6GYHM","either","7","408","","","","","","","1","0","0","0.8864445785","","0.2","0.8","0.6","0.4","","","","","0.6862231469","0.8864445785","0.4888848296","0.4930686601","","","","","","","","","","74","J","1","","","16","main_expt",""
"","bandit","96","475280","0.0-58.0-0.0","70978853","wem/bandit_party_2","A3CA54DDB6GYHM","either","7","461","","","","","","","0","0","1","0.8746062981","","0.2","0.8","0.6","0.4","","","","","0.7297328357","0.8746062981","0.381306026","0.5162343008","","","","","","","","","","74","J","1","","","17","main_expt",""
"","bandit","97","477585","0.0-59.0-0.0","70978853","wem/bandit_party_2","A3CA54DDB6GYHM","either","7","746","","","","","","","0","0","1","0.6686287009","","0.2","0.8","0.6","0.4","","","","","0.6686287009","0.8910236512","0.3537135189","0.5627456494","","","","","","","","","","72","H","0","img/none_selected.jpg","","18","main_expt",""
"","bandit","98","480547","0.0-60.0-0.0","70978853","wem/bandit_party_2","A3CA54DDB6GYHM","either","7","419","","","","","","","1","0","0","0.4891458502","","0.2","0.8","0.6","0.4","","","","","0.7885428456","0.8932054573","0.4891458502","0.4478227807","","","","","","","","","","75","K","2","","","19","main_expt",""
"","bandit","99","482573","0.0-61.0-0.0","70978853","wem/bandit_party_2","A3CA54DDB6GYHM","either","7","442","","","","","","","0","0","1","0.5440957398","","0.2","0.8","0.6","0.4","","","","","0.7442236049","0.8900063933","0.5440957398","0.5306796692","","","","","","","","","","75","K","2","","","20","main_expt",""
"","bandit","100","486926","0.0-62.0-0.0","70978853","wem/bandit_party_2","A3CA54DDB6GYHM","either","7","2776","","","","","","","1","0","0","0.5423611418","","0.2","0.8","0.6","0.4","","","","","0.7908218503","0.8748704397","0.5621313733","0.5423611418","","","","","","","","","","76","L","3","","","21","main_expt",""
"","bandit","101","489334","0.0-63.0-0.0","70978853","wem/bandit_party_2","A3CA54DDB6GYHM","either","7","385","","","","","","","0","0","1","","0.4190568807","0.2","0.8","0.6","0.4","0.7163236006","0.8498769136","0.5296345876","0.4190568807","","","","","","","","","","","","","","76","L","3","","","22","main_expt",""
"","bandit","102","491279","0.0-64.0-0.0","70978853","wem/bandit_party_2","A3CA54DDB6GYHM","either","7","395","","","","","","","1","0","0","0.8357449374","","0.2","0.8","0.6","0.4","","","","","0.7061190667","0.8357449374","0.5187107172","0.4329937009","","","","","","","","","","74","J","1","","","23","main_expt",""
"","bandit","103","494376","0.0-65.0-0.0","70978853","wem/bandit_party_2","A3CA54DDB6GYHM","either","7","1511","","","","","","","1","0","0","0.8431908073","","0.2","0.8","0.6","0.4","","","","","0.7470556917","0.8431908073","0.6000521927","0.4298879426","","","","","","","","","","74","J","1","","","24","main_expt",""
"","bandit","104","496730","0.0-66.0-0.0","70978853","wem/bandit_party_2","A3CA54DDB6GYHM","either","7","506","","","","","","","0","1","0","","0.8741885854","0.2","0.8","0.6","0.4","0.8154180688","0.8741885854","0.5443047256","0.2992323157","","","","","","","","","","","","","","74","J","1","","","25","main_expt",""
"","bandit","105","499155","0.0-67.0-0.0","70978853","wem/bandit_party_2","A3CA54DDB6GYHM","either","7","867","","","","","","","1","0","0","0.8940719671","","0.2","0.8","0.6","0.4","","","","","0.8395379789","0.8940719671","0.592493964","0.3857263224","","","","","","","","","","74","J","1","","","26","main_expt",""
"","bandit","106","502414","0.0-68.0-0.0","70978853","wem/bandit_party_2","A3CA54DDB6GYHM","either","7","1705","","","","","","","1","0","0","0.8733378856","","0.2","0.8","0.6","0.4","","","","","0.8023078409","0.8733378856","0.5779569403","0.3715251318","","","","","","","","","","74","J","1","","","27","main_expt",""
"","bandit","107","505602","0.0-69.0-0.0","70978853","wem/bandit_party_2","A3CA54DDB6GYHM","either","7","1644","","","","","","","1","0","0","0.8695586723","","0.2","0.8","0.6","0.4","","","","","0.8248968235","0.8695586723","0.7077223562","0.3387808014","","","","","","","","","","74","J","1","","","28","main_expt",""
"","bandit","108","508890","0.0-70.0-0.0","70978853","wem/bandit_party_2","A3CA54DDB6GYHM","either","7","532","","","","","","","0","1","0","","0.7908290088","0.2","0.8","0.6","0.4","0.8621011303","0.7908290088","0.7070353494","0.3737397218","","","","","","","","","","","","","","74","J","1","","","29","main_expt",""
"","bandit","109","511321","0.0-71.0-0.0","70978853","wem/bandit_party_2","A3CA54DDB6GYHM","either","7","849","","","","","","","1","0","0","0.8518997755","","0.2","0.8","0.6","0.4","","","","","0.8873668535","0.8518997755","0.6585428656","0.3232047389","","","","","","","","","","74","J","1","","","30","main_expt",""
"","bandit","110","514343","0.0-72.0-0.0","70978853","wem/bandit_party_2","A3CA54DDB6GYHM","either","7","1476","","","","","","","1","0","0","0.8509842625","","0.2","0.8","0.6","0.4","","","","","0.9318975106","0.8509842625","0.6724088618","0.4130267239","","","","","","","","","","74","J","1","","","31","main_expt",""
"","bandit","111","517408","0.0-73.0-0.0","70978853","wem/bandit_party_2","A3CA54DDB6GYHM","either","7","612","","","","","","","1","0","0","0.872996121","","0.2","0.8","0.6","0.4","","","","","0.9013609786","0.872996121","0.6416581209","0.4167758813","","","","","","","","","","74","J","1","","","32","main_expt",""
"","bandit","112","521079","0.0-74.0-0.0","70978853","wem/bandit_party_2","A3CA54DDB6GYHM","either","7","1272","","","","","","","1","0","0","0.8571046391","","0.2","0.8","0.6","0.4","","","","","0.9041531295","0.8571046391","0.7055802426","0.4546052232","","","","","","","","","","74","J","1","","","33","main_expt",""
"","bandit","113","523172","0.0-75.0-0.0","70978853","wem/bandit_party_2","A3CA54DDB6GYHM","either","7","437","","","","","","","0","0","1","0.9175819521","","0.2","0.8","0.6","0.4","","","","","0.9386104272","0.9175819521","0.7554114371","0.5231803088","","","","","","","","","","74","J","1","","","34","main_expt",""
"","bandit","114","525824","0.0-76.0-0.0","70978853","wem/bandit_party_2","A3CA54DDB6GYHM","either","7","114","","","","","","","0","1","0","","0.9180645683","0.2","0.8","0.6","0.4","0.9180645683","0.9503165686","0.8008095759","0.4661188593","","","","","","","","","","","","","","72","H","0","img/none_selected.jpg","","35","main_expt",""
"","bandit","115","527832","0.0-77.0-0.0","70978853","wem/bandit_party_2","A3CA54DDB6GYHM","either","7","423","","","","","","","0","1","0","","0.9095107155","0.2","0.8","0.6","0.4","0.9095107155","0.9327615424","0.6925109639","0.4106027186","","","","","","","","","","","","","","72","H","0","img/none_selected.jpg","","36","main_expt",""
"","bandit","116","530965","0.0-78.0-0.0","70978853","wem/bandit_party_2","A3CA54DDB6GYHM","either","7","477","","","","","","","0","1","0","","0.9405648028","0.2","0.8","0.6","0.4","0.9405648028","0.9196494001","0.7764255689","0.5021263718","","","","","","","","","","","","","","72","H","0","img/none_selected.jpg","","37","main_expt",""
"","bandit","117","533018","0.0-79.0-0.0","70978853","wem/bandit_party_2","A3CA54DDB6GYHM","either","7","470","","","","","","","0","1","0","","0.9058459248","0.2","0.8","0.6","0.4","0.9058459248","0.928530414","0.8392953971","0.5065313343","","","","","","","","","","","","","","72","H","0","img/none_selected.jpg","","38","main_expt",""
"","bandit","118","536364","0.0-80.0-0.0","70978853","wem/bandit_party_2","A3CA54DDB6GYHM","either","7","1760","","","","","","","1","0","0","0.8784462517","","0.2","0.8","0.6","0.4","","","","","0.8784462517","0.9001545702","0.7614495855","0.6098243774","","","","","","","","","","72","H","0","img/none_selected.jpg","","39","main_expt",""
"","bandit","119","539498","0.0-81.0-0.0","70978853","wem/bandit_party_2","A3CA54DDB6GYHM","either","7","390","","","","","","","0","1","0","","0.8408568766","0.2","0.8","0.6","0.4","0.8408568766","0.8432481254","0.8060705796","0.679699592","","","","","","","","","","","","","","72","H","0","img/none_selected.jpg","","40","main_expt",""
"","bandit","120","543728","0.0-82.0-0.0","70978853","wem/bandit_party_2","A3CA54DDB6GYHM","either","7","2653","","","","","","","0","0","1","0.811342849","","0.2","0.8","0.6","0.4","","","","","0.811342849","0.8326479564","0.7539991053","0.616488607","","","","","","","","","","72","H","0","img/none_selected.jpg","","41","main_expt",""
"","bandit","121","545897","0.0-83.0-0.0","70978853","wem/bandit_party_2","A3CA54DDB6GYHM","either","7","107","","","","","","","0","0","1","","0.8602810298","0.2","0.8","0.6","0.4","0.8058808774","0.8602810298","0.7717369324","0.6307104111","","","","","","","","","","","","","","74","J","1","","","42","main_expt",""
"","bandit","122","548091","0.0-84.0-0.0","70978853","wem/bandit_party_2","A3CA54DDB6GYHM","either","7","639","","","","","","","0","1","0","","0.7625968551","0.2","0.8","0.6","0.4","0.7899844578","0.894365654","0.7625968551","0.554567591","","","","","","","","","","","","","","75","K","2","","","43","main_expt",""
"","bandit","123","551172","0.0-85.0-0.0","70978853","wem/bandit_party_2","A3CA54DDB6GYHM","either","7","504","","","","","","","1","0","0","0.8488621298","","0.2","0.8","0.6","0.4","","","","","0.7654486741","0.9033664713","0.8488621298","0.5281861223","","","","","","","","","","75","K","2","","","44","main_expt",""
"","bandit","124","554859","0.0-86.0-0.0","70978853","wem/bandit_party_2","A3CA54DDB6GYHM","either","7","907","","","","","","","0","1","0","","0.8522077325","0.2","0.8","0.6","0.4","0.7674111825","0.8829964613","0.8522077325","0.5043334007","","","","","","","","","","","","","","75","K","2","","","45","main_expt",""
"","bandit","125","558771","0.0-87.0-0.0","70978853","wem/bandit_party_2","A3CA54DDB6GYHM","either","7","1306","","","","","","","0","1","0","","0.8618589195","0.2","0.8","0.6","0.4","0.6301273516","0.8674694879","0.8618589195","0.5426256613","","","","","","","","","","","","","","75","K","2","","","46","main_expt",""
"","bandit","126","562462","0.0-88.0-0.0","70978853","wem/bandit_party_2","A3CA54DDB6GYHM","either","7","919","","","","","","","0","1","0","","0.905897833","0.2","0.8","0.6","0.4","0.7885969413","0.8886720039","0.905897833","0.5024796093","","","","","","","","","","","","","","75","K","2","","","47","main_expt",""
"","bandit","127","564008","0.0-89.0-0.0","70978853","wem/bandit_party_2","A3CA54DDB6GYHM","either","7","3","","","","","","","0","1","0","","0.8929468812","0.2","0.8","0.6","0.4","0.7983786211","0.9229902905","0.8929468812","0.4689138593","","","","","","","","","","","","","","75","K","2","","","48","main_expt",""
"","bandit","128","568423","0.0-90.0-0.0","70978853","wem/bandit_party_2","A3CA54DDB6GYHM","either","7","1788","","","","","","","0","1","0","","0.854905512","0.2","0.8","0.6","0.4","0.8249867574","0.9141434128","0.854905512","0.4439560463","","","","","","","","","","","","","","75","K","2","","","49","main_expt",""
"","bandit","129","572282","0.0-91.0-0.0","70978853","wem/bandit_party_2","A3CA54DDB6GYHM","either","7","1329","","","","","","","1","0","0","0.8363103738","","0.2","0.8","0.6","0.4","","","","","0.7532301684","0.9181160336","0.8363103738","0.4079842927","","","","","","","","","","75","K","2","","","50","main_expt",""
"","bandit","130","574430","0.0-92.0-0.0","70978853","wem/bandit_party_2","A3CA54DDB6GYHM","either","7","607","","","","","","","0","0","1","0.7168506975","","0.2","0.8","0.6","0.4","","","","","0.6750909554","0.9266489825","0.7168506975","0.4675199832","","","","","","","","","","75","K","2","","","51","main_expt",""
"","bandit","131","577209","0.0-93.0-0.0","70978853","wem/bandit_party_2","A3CA54DDB6GYHM","either","7","276","","","","","","","0","0","1","0.4368052975","","0.2","0.8","0.6","0.4","","","","","0.6762079337","0.9285581488","0.6507986152","0.4368052975","","","","","","","","","","76","L","3","","","52","main_expt",""
"","bandit","132","579434","0.0-94.0-0.0","70978853","wem/bandit_party_2","A3CA54DDB6GYHM","either","7","679","","","","","","","0","1","0","","0.7882030045","0.2","0.8","0.6","0.4","0.7882030045","0.9171724481","0.6531867096","0.4967902672","","","","","","","","","","","","","","72","H","0","img/none_selected.jpg","","53","main_expt",""
"","bandit","133","582439","0.0-95.0-0.0","70978853","wem/bandit_party_2","A3CA54DDB6GYHM","either","7","1426","","","","","","","1","0","0","0.8759533557","","0.2","0.8","0.6","0.4","","","","","0.8759533557","0.8709862684","0.6178049746","0.5321533453","","","","","","","","","","72","H","0","img/none_selected.jpg","","54","main_expt",""
"","bandit","134","585584","0.0-96.0-0.0","70978853","wem/bandit_party_2","A3CA54DDB6GYHM","either","7","578","","","","","","","1","0","0","0.9307112091","","0.2","0.8","0.6","0.4","","","","","0.9307112091","0.9016108676","0.5501477499","0.593251847","","","","","","","","","","72","H","0","img/none_selected.jpg","","55","main_expt",""
"","bandit","135","588367","0.0-97.0-0.0","70978853","wem/bandit_party_2","A3CA54DDB6GYHM","either","7","451","","","","","","","0","1","0","","0.9486344027","0.2","0.8","0.6","0.4","0.9486344027","0.9123335035","0.5181914202","0.602347159","","","","","","","","","","","","","","72","H","0","img/none_selected.jpg","","56","main_expt",""
"","bandit","136","590423","0.0-98.0-0.0","70978853","wem/bandit_party_2","A3CA54DDB6GYHM","either","7","418","","","","","","","0","1","0","","0.9450559811","0.2","0.8","0.6","0.4","0.9450559811","0.9338523698","0.5052283364","0.736851976","","","","","","","","","","","","","","72","H","0","img/none_selected.jpg","","57","main_expt",""
"","bandit","137","593650","0.0-99.0-0.0","70978853","wem/bandit_party_2","A3CA54DDB6GYHM","either","7","1618","","","","","","","1","0","0","0.960587128","","0.2","0.8","0.6","0.4","","","","","0.960587128","0.9023069914","0.4494585665","0.7112026436","","","","","","","","","","72","H","0","img/none_selected.jpg","","58","main_expt",""
"","bandit","138","596314","0.0-100.0-0.0","70978853","wem/bandit_party_2","A3CA54DDB6GYHM","either","7","504","","","","","","","1","0","0","0.9272570312","","0.2","0.8","0.6","0.4","","","","","0.9272570312","0.903153386","0.4431029696","0.7605469626","","","","","","","","","","72","H","0","img/none_selected.jpg","","59","main_expt",""
"","bandit","139","601538","0.0-101.0-0.0","70978853","wem/bandit_party_2","A3CA54DDB6GYHM","either","7","3618","","","","","","","0","1","0","","0.9075075979","0.2","0.8","0.6","0.4","0.9075075979","0.8975643475","0.4213069188","0.6504737249","","","","","","","","","","","","","","72","H","0","img/none_selected.jpg","","60","main_expt",""
"","bandit","140","604610","0.0-102.0-0.0","70978853","wem/bandit_party_2","A3CA54DDB6GYHM","either","7","750","","","","","","","1","0","0","0.9011961695","","0.2","0.8","0.6","0.4","","","","","0.9011961695","0.8455107238","0.4735464544","0.7417300409","","","","","","","","","","72","H","0","img/none_selected.jpg","","61","main_expt",""
"","bandit","141","607313","0.0-103.0-0.0","70978853","wem/bandit_party_2","A3CA54DDB6GYHM","either","7","735","","","","","","","0","0","1","","0.9025442902","0.2","0.8","0.6","0.4","0.9025442902","0.8423106617","0.4260239588","0.6889655243","","","","","","","","","","","","","","72","H","0","img/none_selected.jpg","","62","main_expt",""
"","bandit","142","612187","0.0-104.0-0.0","70978853","wem/bandit_party_2","A3CA54DDB6GYHM","either","7","2471","","","","","","","1","0","0","0.6997676278","","0.2","0.8","0.6","0.4","","","","","0.900711875","0.6997676278","0.4048641732","0.7532165261","","","","","","","","","","74","J","1","","","63","main_expt",""
"","bandit","143","614908","0.0-105.0-0.0","70978853","wem/bandit_party_2","A3CA54DDB6GYHM","either","7","1","","","","","","","0","0","1","0.8033841581","","0.2","0.8","0.6","0.4","","","","","0.8445511995","0.8033841581","0.261135461","0.7614619666","","","","","","","","","","74","J","1","","","64","main_expt",""
"","bandit","144","620006","0.0-106.0-0.0","70978853","wem/bandit_party_2","A3CA54DDB6GYHM","either","7","2660","","","","","","","1","0","0","0.4398785507","","0.2","0.8","0.6","0.4","","","","","0.7838665633","0.8458775523","0.4398785507","0.7474824059","","","","","","","","","","75","K","2","","","65","main_expt",""
"","bandit","145","623142","0.0-107.0-0.0","70978853","wem/bandit_party_2","A3CA54DDB6GYHM","either","7","909","","","","","","","0","0","1","","0.4549930047","0.2","0.8","0.6","0.4","0.8399866527","0.8612648572","0.4549930047","0.7083026918","","","","","","","","","","","","","","75","K","2","","","66","main_expt",""
"","bandit","146","628529","0.0-108.0-0.0","70978853","wem/bandit_party_2","A3CA54DDB6GYHM","either","7","3826","","","","","","","0","1","0","","0.6535093674","0.2","0.8","0.6","0.4","0.9109535201","0.8686018104","0.5565794079","0.6535093674","","","","","","","","","","","","","","76","L","3","","","67","main_expt",""
"","bandit","147","632212","0.0-109.0-0.0","70978853","wem/bandit_party_2","A3CA54DDB6GYHM","either","7","2083","","","","","","","0","1","0","","0.4923739087","0.2","0.8","0.6","0.4","0.9064065477","0.8693437115","0.4211802827","0.4923739087","","","","","","","","","","","","","","76","L","3","","","68","main_expt",""
"","bandit","148","635773","0.0-110.0-0.0","70978853","wem/bandit_party_2","A3CA54DDB6GYHM","either","7","2022","","","","","","","0","0","1","","0.4898097669","0.2","0.8","0.6","0.4","0.9315833469","0.9168970181","0.3687693293","0.4898097669","","","","","","","","","","","","","","76","L","3","","","69","main_expt",""
"","bandit","149","638076","0.0-111.0-0.0","70978853","wem/bandit_party_2","A3CA54DDB6GYHM","either","7","416","","","","","","","0","1","0","","0.9393923483","0.2","0.8","0.6","0.4","0.9393923483","0.9293527272","0.3460903474","0.4369614599","","","","","","","","","","","","","","72","H","0","img/none_selected.jpg","","70","main_expt",""
"","bandit","150","640428","0.0-112.0-0.0","70978853","wem/bandit_party_2","A3CA54DDB6GYHM","either","7","807","","","","","","","0","1","0","","0.9568343035","0.2","0.8","0.6","0.4","0.9568343035","0.949087413","0.3278112836","0.5031037484","","","","","","","","","","","","","","72","H","0","img/none_selected.jpg","","71","main_expt",""
"","bandit","151","643313","0.0-113.0-0.0","70978853","wem/bandit_party_2","A3CA54DDB6GYHM","either","7","1333","","","","","","","0","1","0","","0.947758434","0.2","0.8","0.6","0.4","0.947758434","0.906373323","0.2720469766","0.5397903688","","","","","","","","","","","","","","72","H","0","img/none_selected.jpg","","72","main_expt",""
"","bandit","152","646646","0.0-114.0-0.0","70978853","wem/bandit_party_2","A3CA54DDB6GYHM","either","7","758","","","","","","","0","1","0","","0.9052010222","0.2","0.8","0.6","0.4","0.9052010222","0.93965919","0.2451019773","0.5540652028","","","","","","","","","","","","","","72","H","0","img/none_selected.jpg","","73","main_expt",""
"","bandit","153","649742","0.0-115.0-0.0","70978853","wem/bandit_party_2","A3CA54DDB6GYHM","either","7","605","","","","","","","0","1","0","","0.927704936","0.2","0.8","0.6","0.4","0.927704936","0.9416319858","0.2645862521","0.61733434","","","","","","","","","","","","","","72","H","0","img/none_selected.jpg","","74","main_expt",""
"","bandit","154","654041","0.0-116.0-0.0","70978853","wem/bandit_party_2","A3CA54DDB6GYHM","either","7","1594","","","","","","","0","1","0","","0.8769567517","0.2","0.8","0.6","0.4","0.8769567517","0.9535384208","0.2298582","0.6341908543","","","","","","","","","","","","","","72","H","0","img/none_selected.jpg","","75","main_expt",""
"","bandit","155","656402","0.0-117.0-0.0","70978853","wem/bandit_party_2","A3CA54DDB6GYHM","either","7","809","","","","","","","0","1","0","","0.8456064169","0.2","0.8","0.6","0.4","0.8456064169","0.9585479729","0.3460043445","0.6355577018","","","","","","","","","","","","","","72","H","0","img/none_selected.jpg","","76","main_expt",""
"","bandit","156","659365","0.0-118.0-0.0","70978853","wem/bandit_party_2","A3CA54DDB6GYHM","either","7","1387","","","","","","","0","0","1","","0.8325595713","0.2","0.8","0.6","0.4","0.8325595713","0.9610253773","0.2526488818","0.7055426269","","","","","","","","","","","","","","72","H","0","img/none_selected.jpg","","77","main_expt",""
"","bandit","157","662062","0.0-119.0-0.0","70978853","wem/bandit_party_2","A3CA54DDB6GYHM","either","7","133","","","","","","","1","0","0","0.9580320452","","0.2","0.8","0.6","0.4","","","","","0.9128982172","0.9580320452","0.2625396382","0.6137882531","","","","","","","","","","74","J","1","","","78","main_expt",""
"","bandit","158","664000","0.0-120.0-0.0","70978853","wem/bandit_party_2","A3CA54DDB6GYHM","either","7","394","","","","","","","0","1","0","","0.9403834825","0.2","0.8","0.6","0.4","0.9213349282","0.9403834825","0.2957535945","0.668392527","","","","","","","","","","","","","","74","J","1","","","79","main_expt",""
"","bandit","159","667371","0.0-121.0-0.0","70978853","wem/bandit_party_2","A3CA54DDB6GYHM","either","7","790","","","","","","","1","0","0","0.946171157","","0.2","0.8","0.6","0.4","","","","","0.8935563746","0.946171157","0.1831261498","0.7457361895","","","","","","","","","","74","J","1","","","80","main_expt",""
"","bandit","160","670029","0.0-122.0-0.0","70978853","wem/bandit_party_2","A3CA54DDB6GYHM","either","7","651","","","","","","","1","0","0","0.9800092583","","0.2","0.8","0.6","0.4","","","","","0.932831263","0.9800092583","0.1450659425","0.8028050151","","","","","","","","","","74","J","1","","","81","main_expt",""
"","bandit","161","672263","0.0-123.0-0.0","70978853","wem/bandit_party_2","A3CA54DDB6GYHM","either","7","680","","","","","","","1","0","0","0.9666397243","","0.2","0.8","0.6","0.4","","","","","0.9403650082","0.9666397243","0.1486641529","0.8727424511","","","","","","","","","","74","J","1","","","82","main_expt",""
"","bandit","162","676444","0.0-124.0-0.0","70978853","wem/bandit_party_2","A3CA54DDB6GYHM","either","7","2610","","","","","","","0","1","0","","0.9637330664","0.2","0.8","0.6","0.4","0.9066396881","0.9637330664","0.1567811066","0.8283068274","","","","","","","","","","","","","","74","J","1","","","83","main_expt",""
"","bandit","163","680161","0.0-125.0-0.0","70978853","wem/bandit_party_2","A3CA54DDB6GYHM","either","7","2122","","","","","","","1","0","0","0.9617949183","","0.2","0.8","0.6","0.4","","","","","0.8962006295","0.9617949183","0.196091916","0.8030064341","","","","","","","","","","74","J","1","","","84","main_expt",""
"","bandit","164","684344","0.0-126.0-0.0","70978853","wem/bandit_party_2","A3CA54DDB6GYHM","either","7","2631","","","","","","","1","0","0","0.9561985801","","0.2","0.8","0.6","0.4","","","","","0.9093999993","0.9561985801","0.1512390112","0.8622567251","","","","","","","","","","74","J","1","","","85","main_expt",""
"","bandit","165","690279","0.0-127.0-0.0","70978853","wem/bandit_party_2","A3CA54DDB6GYHM","either","7","3769","","","","","","","1","0","0","0.9422505668","","0.2","0.8","0.6","0.4","","","","","0.9326862648","0.9422505668","0.1486491559","0.896584634","","","","","","","","","","74","J","1","","","86","main_expt",""
"","bandit","166","693048","0.0-128.0-0.0","70978853","wem/bandit_party_2","A3CA54DDB6GYHM","either","7","1237","","","","","","","1","0","0","0.926711091","","0.2","0.8","0.6","0.4","","","","","0.9039434857","0.926711091","0.1047878604","0.9208758521","","","","","","","","","","74","J","1","","","87","main_expt",""
"","bandit","167","696319","0.0-129.0-0.0","70978853","wem/bandit_party_2","A3CA54DDB6GYHM","either","7","1729","","","","","","","1","0","0","0.9092576496","","0.2","0.8","0.6","0.4","","","","","0.9195127861","0.9092576496","0.07038149384","0.9266301883","","","","","","","","","","74","J","1","","","88","main_expt",""
"","bandit","168","700281","0.0-130.0-0.0","70978853","wem/bandit_party_2","A3CA54DDB6GYHM","either","7","2390","","","","","","","0","1","0","","0.8948591238","0.2","0.8","0.6","0.4","0.9225053559","0.8948591238","0.1311535074","0.9259215542","","","","","","","","","","","","","","74","J","1","","","89","main_expt",""
"","bandit","169","703561","0.0-131.0-0.0","70978853","wem/bandit_party_2","A3CA54DDB6GYHM","either","7","811","","","","","","","1","0","0","0.8716727139","","0.2","0.8","0.6","0.4","","","","","0.9014563988","0.8716727139","0.1241310956","0.9400480964","","","","","","","","","","74","J","1","","","90","main_expt",""
"","bandit","170","707890","0.0-132.0-0.0","70978853","wem/bandit_party_2","A3CA54DDB6GYHM","either","7","1976","","","","","","","1","0","0","0.8969144331","","0.2","0.8","0.6","0.4","","","","","0.9162570652","0.8969144331","0.09664170694","0.8961855863","","","","","","","","","","74","J","1","","","91","main_expt",""
"","bandit","171","710542","0.0-133.0-0.0","70978853","wem/bandit_party_2","A3CA54DDB6GYHM","either","7","541","","","","","","","1","0","0","0.9171199264","","0.2","0.8","0.6","0.4","","","","","0.9171553871","0.9171199264","0.09586364307","0.9211437923","","","","","","","","","","74","J","1","","","92","main_expt",""
"","bandit","172","713010","0.0-134.0-0.0","70978853","wem/bandit_party_2","A3CA54DDB6GYHM","either","7","916","","","","","","","1","0","0","0.9593171332","","0.2","0.8","0.6","0.4","","","","","0.9463284029","0.9593171332","0.08304118766","0.8947860396","","","","","","","","","","74","J","1","","","93","main_expt",""
"","bandit","173","716957","0.0-135.0-0.0","70978853","wem/bandit_party_2","A3CA54DDB6GYHM","either","7","2385","","","","","","","1","0","0","0.959226596","","0.2","0.8","0.6","0.4","","","","","0.9477079066","0.959226596","0.1222865453","0.822540961","","","","","","","","","","74","J","1","","","94","main_expt",""
"","bandit","174","722088","0.0-136.0-0.0","70978853","wem/bandit_party_2","A3CA54DDB6GYHM","either","7","3555","","","","","","","1","0","0","0.947105423","","0.2","0.8","0.6","0.4","","","","","0.9474919074","0.947105423","0.211460517","0.8288041746","","","","","","","","","","74","J","1","","","95","main_expt",""
"","bandit","175","725691","0.0-137.0-0.0","70978853","wem/bandit_party_2","A3CA54DDB6GYHM","either","7","1988","","","","","","","1","0","0","0.937205139","","0.2","0.8","0.6","0.4","","","","","0.9722490369","0.937205139","0.2757920232","0.8217366877","","","","","","","","","","74","J","1","","","96","main_expt",""
"","bandit","176","729408","0.0-138.0-0.0","70978853","wem/bandit_party_2","A3CA54DDB6GYHM","either","7","862","","","","","","","1","0","0","0.9472767204","","0.2","0.8","0.6","0.4","","","","","0.980822097","0.9472767204","0.2646876298","0.725285089","","","","","","","","","","74","J","1","","","97","main_expt",""
"","bandit","177","732655","0.0-139.0-0.0","70978853","wem/bandit_party_2","A3CA54DDB6GYHM","either","7","455","","","","","","","0","1","0","","0.962959595","0.2","0.8","0.6","0.4","0.9761591307","0.962959595","0.3278454636","0.7958966199","","","","","","","","","","","","","","74","J","1","","","98","main_expt",""
"","bandit","178","734917","0.0-140.0-0.0","70978853","wem/bandit_party_2","A3CA54DDB6GYHM","either","7","713","","","","","","","1","0","0","0.9720903607","","0.2","0.8","0.6","0.4","","","","","0.9597391097","0.9720903607","0.4641870332","0.7741840332","","","","","","","","","","74","J","1","","","99","main_expt",""
"","bandit","179","737968","0.0-141.0-0.0","70978853","wem/bandit_party_2","A3CA54DDB6GYHM","either","7","399","","","","","","","1","0","0","0.9737169538","","0.2","0.8","0.6","0.4","","","","","0.9557148533","0.9737169538","0.3972344865","0.7934767162","","","","","","","","","","74","J","1","","","100","main_expt",""
"","bandit","180","740633","0.0-142.0-0.0","70978853","wem/bandit_party_2","A3CA54DDB6GYHM","either","7","687","","","","","","","1","0","0","0.986468331","","0.2","0.8","0.6","0.4","","","","","0.9687934467","0.986468331","0.4395304924","0.8307638242","","","","","","","","","","74","J","1","","","101","main_expt",""
"","bandit","181","742937","0.0-143.0-0.0","70978853","wem/bandit_party_2","A3CA54DDB6GYHM","either","7","755","","","","","","","1","0","0","0.9859557102","","0.2","0.8","0.6","0.4","","","","","0.9713318577","0.9859557102","0.5248298482","0.7737236933","","","","","","","","","","74","J","1","","","102","main_expt",""
"","bandit","182","745835","0.0-144.0-0.0","70978853","wem/bandit_party_2","A3CA54DDB6GYHM","either","7","1322","","","","","","","1","0","0","0.9828698412","","0.2","0.8","0.6","0.4","","","","","0.9768128314","0.9828698412","0.6218364577","0.8168427084","","","","","","","","","","74","J","1","","","103","main_expt",""
"","bandit","183","749892","0.0-145.0-0.0","70978853","wem/bandit_party_2","A3CA54DDB6GYHM","either","7","2472","","","","","","","0","0","1","0.9655029871","","0.2","0.8","0.6","0.4","","","","","0.9566706727","0.9655029871","0.5528563194","0.7020104164","","","","","","","","","","74","J","1","","","104","main_expt",""
"","bandit","184","752760","0.0-146.0-0.0","70978853","wem/bandit_party_2","A3CA54DDB6GYHM","either","7","514","","","","","","","0","1","0","","0.9352711559","0.2","0.8","0.6","0.4","0.9352711559","0.9587067199","0.515821512","0.6750414237","","","","","","","","","","","","","","72","H","0","img/none_selected.jpg","","105","main_expt",""
"","bandit","185","756027","0.0-147.0-0.0","70978853","wem/bandit_party_2","A3CA54DDB6GYHM","either","7","836","","","","","","","0","1","0","","0.8980036198","0.2","0.8","0.6","0.4","0.8980036198","0.9358961366","0.5380341879","0.5886413089","","","","","","","","","","","","","","72","H","0","img/none_selected.jpg","","106","main_expt",""
"","bandit","186","758270","0.0-148.0-0.0","70978853","wem/bandit_party_2","A3CA54DDB6GYHM","either","7","701","","","","","","","0","1","0","","0.9175797088","0.2","0.8","0.6","0.4","0.9175797088","0.8829949032","0.3291998873","0.5507707533","","","","","","","","","","","","","","72","H","0","img/none_selected.jpg","","107","main_expt",""
"","bandit","187","761214","0.0-149.0-0.0","70978853","wem/bandit_party_2","A3CA54DDB6GYHM","either","7","1374","","","","","","","0","0","1","","0.8966825343","0.2","0.8","0.6","0.4","0.8966825343","0.7668100276","0.3608627265","0.4325904974","","","","","","","","","","","","","","72","H","0","img/none_selected.jpg","","108","main_expt",""
"","bandit","188","764409","0.0-150.0-0.0","70978853","wem/bandit_party_2","A3CA54DDB6GYHM","either","7","452","","","","","","","0","0","1","0.3837942066","","0.2","0.8","0.6","0.4","","","","","0.8883819791","0.7652463225","0.3837942066","0.3735159861","","","","","","","","","","75","K","2","","","109","main_expt",""
"","bandit","189","767070","0.0-151.0-0.0","70978853","wem/bandit_party_2","A3CA54DDB6GYHM","either","7","47","","","","","","","0","1","0","","0.3704440872","0.2","0.8","0.6","0.4","0.9087011364","0.7974745759","0.3019365294","0.3704440872","","","","","","","","","","","","","","76","L","3","","","110","main_expt",""
"","bandit","190","769193","0.0-152.0-0.0","70978853","wem/bandit_party_2","A3CA54DDB6GYHM","either","7","580","","","","","","","0","0","1","0.2749067499","","0.2","0.8","0.6","0.4","","","","","0.9337026812","0.812352323","0.3483008865","0.2749067499","","","","","","","","","","76","L","3","","","111","main_expt",""
"","bandit","191","772293","0.0-153.0-0.0","70978853","wem/bandit_party_2","A3CA54DDB6GYHM","either","7","1520","","","","","","","0","1","0","","0.9113388615","0.2","0.8","0.6","0.4","0.9113388615","0.7428975936","0.4342302697","0.2734667401","","","","","","","","","","","","","","72","H","0","img/none_selected.jpg","","112","main_expt",""
"","bandit","192","775468","0.0-154.0-0.0","70978853","wem/bandit_party_2","A3CA54DDB6GYHM","either","7","655","","","","","","","0","1","0","","0.8980528729","0.2","0.8","0.6","0.4","0.8980528729","0.7139653514","0.5187246657","0.2291946885","","","","","","","","","","","","","","72","H","0","img/none_selected.jpg","","113","main_expt",""
"","bandit","193","780343","0.0-155.0-0.0","70978853","wem/bandit_party_2","A3CA54DDB6GYHM","either","7","3288","","","","","","","0","0","1","0.8036326458","","0.2","0.8","0.6","0.4","","","","","0.8036326458","0.7945657698","0.5381742134","0.2413339081","","","","","","","","","","72","H","0","img/none_selected.jpg","","114","main_expt",""
"","bandit","194","783968","0.0-156.0-0.0","70978853","wem/bandit_party_2","A3CA54DDB6GYHM","either","7","2060","","","","","","","0","0","1","0.8405588069","","0.2","0.8","0.6","0.4","","","","","0.8700945717","0.8405588069","0.4785029821","0.3092826039","","","","","","","","","","74","J","1","","","115","main_expt",""
"","bandit","195","787129","0.0-157.0-0.0","70978853","wem/bandit_party_2","A3CA54DDB6GYHM","either","7","615","","","","","","","0","0","1","","0.4654757386","0.2","0.8","0.6","0.4","0.8895114993","0.8641798474","0.4654757386","0.2361366225","","","","","","","","","","","","","","75","K","2","","","116","main_expt",""
"","bandit","196","791443","0.0-158.0-0.0","70978853","wem/bandit_party_2","A3CA54DDB6GYHM","either","7","2710","","","","","","","0","0","1","","0.218402711","0.2","0.8","0.6","0.4","0.8936856952","0.8756768431","0.4578633225","0.218402711","","","","","","","","","","","","","","76","L","3","","","117","main_expt",""
"","bandit","197","794570","0.0-159.0-0.0","70978853","wem/bandit_party_2","A3CA54DDB6GYHM","either","7","288","","","","","","","0","1","0","","0.8077127093","0.2","0.8","0.6","0.4","0.8077127093","0.9015269718","0.4773941538","0.2003641109","","","","","","","","","","","","","","72","H","0","img/none_selected.jpg","","118","main_expt",""
"","bandit","198","797830","0.0-160.0-0.0","70978853","wem/bandit_party_2","A3CA54DDB6GYHM","either","7","619","","","","","","","0","0","1","","0.8901108642","0.2","0.8","0.6","0.4","0.8901108642","0.8709738884","0.508374463","0.1375137305","","","","","","","","","","","","","","72","H","0","img/none_selected.jpg","","119","main_expt",""
"","bandit","199","799934","0.0-161.0-0.0","70978853","wem/bandit_party_2","A3CA54DDB6GYHM","either","7","524","","","","","","","0","0","1","0.8268338002","","0.2","0.8","0.6","0.4","","","","","0.8731124259","0.8268338002","0.4294310012","0.08656631556","","","","","","","","","","74","J","1","","","120","main_expt",""
"","bandit","200","802491","0.0-162.0-0.0","70978853","wem/bandit_party_2","A3CA54DDB6GYHM","either","7","126","","","","","","","0","0","1","0.3933985885","","0.2","0.8","0.6","0.4","","","","","0.8509174952","0.8432616236","0.3933985885","0.07812634859","","","","","","","","","","75","K","2","","","121","main_expt",""
"","bandit","201","806225","0.0-163.0-0.0","70978853","wem/bandit_party_2","A3CA54DDB6GYHM","either","7","1006","","","","","","","0","0","1","","0.09046411854","0.2","0.8","0.6","0.4","0.8707856005","0.8128728295","0.2641409089","0.09046411854","","","","","","","","","","","","","","76","L","3","","","122","main_expt",""
"","bandit","202","810363","0.0-164.0-0.0","70978853","wem/bandit_party_2","A3CA54DDB6GYHM","either","7","2568","","","","","","","1","0","0","0.7592524618","","0.2","0.8","0.6","0.4","","","","","0.7592524618","0.752198112","0.2491349268","0.1132512529","","","","","","","","","","72","H","0","img/none_selected.jpg","","123","main_expt",""
"","bandit","203","813569","0.0-165.0-0.0","70978853","wem/bandit_party_2","A3CA54DDB6GYHM","either","7","869","","","","","","","1","0","0","0.7330206325","","0.2","0.8","0.6","0.4","","","","","0.7330206325","0.7117781612","0.2587226179","0.09419269712","","","","","","","","","","72","H","0","img/none_selected.jpg","","124","main_expt",""
"","bandit","204","816225","0.0-166.0-0.0","70978853","wem/bandit_party_2","A3CA54DDB6GYHM","either","7","562","","","","","","","1","0","0","0.6903693331","","0.2","0.8","0.6","0.4","","","","","0.6903693331","0.7177409252","0.2925679814","0.110513045","","","","","","","","","","72","H","0","img/none_selected.jpg","","125","main_expt",""
"","bandit","205","818420","0.0-167.0-0.0","70978853","wem/bandit_party_2","A3CA54DDB6GYHM","either","7","637","","","","","","","0","0","1","0.6370641568","","0.2","0.8","0.6","0.4","","","","","0.6370641568","0.7240917845","0.3997536411","0.07088043536","","","","","","","","","","72","H","0","img/none_selected.jpg","","126","main_expt",""
"","bandit","206","821499","0.0-168.0-0.0","70978853","wem/bandit_party_2","A3CA54DDB6GYHM","either","7","1492","","","","","","","0","0","1","0.6192694325","","0.2","0.8","0.6","0.4","","","","","0.6192694325","0.6788578752","0.4120812041","0.1041728595","","","","","","","","","","72","H","0","img/none_selected.jpg","","127","main_expt",""
"","bandit","207","824001","0.0-169.0-0.0","70978853","wem/bandit_party_2","A3CA54DDB6GYHM","either","7","517","","","","","","","0","0","1","0.6257789885","","0.2","0.8","0.6","0.4","","","","","0.559348281","0.6257789885","0.3731276689","0.1006708935","","","","","","","","","","74","J","1","","","128","main_expt",""
"","bandit","208","826059","0.0-170.0-0.0","70978853","wem/bandit_party_2","A3CA54DDB6GYHM","either","7","472","","","","","","","0","1","0","","0.3263017501","0.2","0.8","0.6","0.4","0.610360397","0.4761868647","0.3263017501","0.1336488566","","","","","","","","","","","","","","75","K","2","","","129","main_expt",""
"","bandit","209","828911","0.0-171.0-0.0","70978853","wem/bandit_party_2","A3CA54DDB6GYHM","either","7","395","","","","","","","0","0","1","0.3226142564","","0.2","0.8","0.6","0.4","","","","","0.5737783772","0.4745188583","0.3226142564","0.1271550391","","","","","","","","","","75","K","2","","","130","main_expt",""
"","bandit","210","830824","0.0-172.0-0.0","70978853","wem/bandit_party_2","A3CA54DDB6GYHM","either","7","315","","","","","","","0","0","1","","0.1594360192","0.2","0.8","0.6","0.4","0.6252154127","0.4674409752","0.3907136596","0.1594360192","","","","","","","","","","","","","","76","L","3","","","131","main_expt",""
"","bandit","211","834298","0.0-173.0-0.0","70978853","wem/bandit_party_2","A3CA54DDB6GYHM","either","7","1893","","","","","","","0","0","1","0.4983036492","","0.2","0.8","0.6","0.4","","","","","0.6473056352","0.368649462","0.4983036492","0.1027658661","","","","","","","","","","75","K","2","","","132","main_expt",""
"","bandit","212","838047","0.0-174.0-0.0","70978853","wem/bandit_party_2","A3CA54DDB6GYHM","either","7","2167","","","","","","","0","1","0","","0.4595123468","0.2","0.8","0.6","0.4","0.4595123468","0.4313577514","0.6347393695","0.1223548883","","","","","","","","","","","","","","72","H","0","img/none_selected.jpg","","133","main_expt",""
"","bandit","213","841192","0.0-175.0-0.0","70978853","wem/bandit_party_2","A3CA54DDB6GYHM","either","7","454","","","","","","","0","0","1","","0.3043385566","0.2","0.8","0.6","0.4","0.3043385566","0.3692150919","0.6037412299","0.1063029331","","","","","","","","","","","","","","72","H","0","img/none_selected.jpg","","134","main_expt",""
"","bandit","214","843932","0.0-176.0-0.0","70978853","wem/bandit_party_2","A3CA54DDB6GYHM","either","7","561","","","","","","","0","0","1","","0.340857567","0.2","0.8","0.6","0.4","0.340857567","0.3077662431","0.5511090861","0.080644856","","","","","","","","","","","","","","72","H","0","img/none_selected.jpg","","135","main_expt",""
"","bandit","215","845984","0.0-177.0-0.0","70978853","wem/bandit_party_2","A3CA54DDB6GYHM","either","7","511","","","","","","","0","0","1","0.2655810755","","0.2","0.8","0.6","0.4","","","","","0.2655810755","0.314969588","0.585911414","0.1359867045","","","","","","","","","","72","H","0","img/none_selected.jpg","","136","main_expt",""
"","bandit","216","848165","0.0-178.0-0.0","70978853","wem/bandit_party_2","A3CA54DDB6GYHM","either","7","1","","","","","","","0","0","1","0.3590847215","","0.2","0.8","0.6","0.4","","","","","0.3025530854","0.3590847215","0.5805905743","0.168344283","","","","","","","","","","74","J","1","","","137","main_expt",""
"","bandit","217","850058","0.0-179.0-0.0","70978853","wem/bandit_party_2","A3CA54DDB6GYHM","either","7","353","","","","","","","1","0","0","0.6357737786","","0.2","0.8","0.6","0.4","","","","","0.2888348812","0.3588584756","0.6357737786","0.1867455324","","","","","","","","","","75","K","2","","","138","main_expt",""
"","bandit","218","853517","0.0-180.0-0.0","70978853","wem/bandit_party_2","A3CA54DDB6GYHM","either","7","582","","","","","","","0","1","0","","0.66639317","0.2","0.8","0.6","0.4","0.2463208975","0.4289761638","0.66639317","0.2277874407","","","","","","","","","","","","","","75","K","2","","","139","main_expt",""
"","bandit","219","856182","0.0-181.0-0.0","70978853","wem/bandit_party_2","A3CA54DDB6GYHM","either","7","415","","","","","","","0","0","1","","0.6365789307","0.2","0.8","0.6","0.4","0.273109751","0.3801639999","0.6365789307","0.2577820179","","","","","","","","","","","","","","75","K","2","","","140","main_expt",""
"","bandit","220","858141","0.0-182.0-0.0","70978853","wem/bandit_party_2","A3CA54DDB6GYHM","either","7","373","","","","","","","1","0","0","0.6045632144","","0.2","0.8","0.6","0.4","","","","","0.3355442787","0.2445936549","0.6045632144","0.3674069736","","","","","","","","","","75","K","2","","","141","main_expt",""
"","bandit","221","861460","0.0-183.0-0.0","70978853","wem/bandit_party_2","A3CA54DDB6GYHM","either","7","1674","","","","","","","0","1","0","","0.5148607161","0.2","0.8","0.6","0.4","0.2781999234","0.3394066497","0.5148607161","0.4345417514","","","","","","","","","","","","","","75","K","2","","","142","main_expt",""
"","bandit","222","864578","0.0-184.0-0.0","70978853","wem/bandit_party_2","A3CA54DDB6GYHM","either","7","797","","","","","","","0","0","1","0.4754154836","","0.2","0.8","0.6","0.4","","","","","0.2599467226","0.2899754881","0.4754154836","0.3811672827","","","","","","","","","","75","K","2","","","143","main_expt",""
"","bandit","223","867862","0.0-185.0-0.0","70978853","wem/bandit_party_2","A3CA54DDB6GYHM","either","7","786","","","","","","","0","1","0","","0.2754059391","0.2","0.8","0.6","0.4","0.2353144144","0.3701332444","0.516029258","0.2754059391","","","","","","","","","","","","","","76","L","3","","","144","main_expt",""
"","bandit","224","870009","0.0-186.0-0.0","70978853","wem/bandit_party_2","A3CA54DDB6GYHM","either","7","569","","","","","","","0","1","0","","0.2773400324","0.2","0.8","0.6","0.4","0.2120114759","0.3322753171","0.6646605279","0.2773400324","","","","","","","","","","","","","","76","L","3","","","145","main_expt",""
"","bandit","225","873669","0.0-187.0-0.0","70978853","wem/bandit_party_2","A3CA54DDB6GYHM","either","7","2084","","","","","","","1","0","0","0.2780426824","","0.2","0.8","0.6","0.4","","","","","0.176067728","0.3203507811","0.6331546467","0.2780426824","","","","","","","","","","76","L","3","","","146","main_expt",""
"","bandit","226","877587","0.0-188.0-0.0","70978853","wem/bandit_party_2","A3CA54DDB6GYHM","either","7","2361","","","","","","","0","0","1","","0.3373608721","0.2","0.8","0.6","0.4","0.1329453439","0.304761248","0.6356747602","0.3373608721","","","","","","","","","","","","","","76","L","3","","","147","main_expt",""
"","bandit","227","881628","0.0-189.0-0.0","70978853","wem/bandit_party_2","A3CA54DDB6GYHM","either","7","2459","","","","","","","0","0","1","","0.3529594122","0.2","0.8","0.6","0.4","0.1465103875","0.3809280674","0.6301772709","0.3529594122","","","","","","","","","","","","","","76","L","3","","","148","main_expt",""
"","bandit","228","884343","0.0-190.0-0.0","70978853","wem/bandit_party_2","A3CA54DDB6GYHM","either","7","578","","","","","","","1","0","0","0.6640591829","","0.2","0.8","0.6","0.4","","","","","0.1190451538","0.3997986218","0.6640591829","0.3878328211","","","","","","","","","","75","K","2","","","149","main_expt",""
"","bandit","229","886333","0.0-191.0-0.0","70978853","wem/bandit_party_2","A3CA54DDB6GYHM","either","7","438","","","","","","","0","1","0","","0.6592717552","0.2","0.8","0.6","0.4","0.1195570164","0.3159341416","0.6592717552","0.42943501","","","","","","","","","","","","","","75","K","2","","","150","main_expt",""
"","bandit","230","890221","0.0-192.0-0.0","70978853","wem/bandit_party_2","A3CA54DDB6GYHM","either","7","1440","","","","","","","0","1","0","","0.5928743102","0.2","0.8","0.6","0.4","0.100492686","0.3052853957","0.5928743102","0.5142681232","","","","","","","","","","","","","","75","K","2","","","151","main_expt",""
"","bandit","231","896685","0.0-193.0-0.0","70978853","wem/bandit_party_2","A3CA54DDB6GYHM","either","7","3656","","","","","","","0","0","1","0.6822187145","","0.2","0.8","0.6","0.4","","","","","0.1030367897","0.1896018403","0.6822187145","0.6321073962","","","","","","","","","","75","K","2","","","152","main_expt",""
"","bandit","232","900405","0.0-194.0-0.0","70978853","wem/bandit_party_2","A3CA54DDB6GYHM","either","7","1755","","","","","","","0","0","1","","0.6832005509","0.2","0.8","0.6","0.4","0.2059045691","0.2439656658","0.6832005509","0.6965670792","","","","","","","","","","","","","","75","K","2","","","153","main_expt",""
"","bandit","233","905518","0.0-195.0-0.0","70978853","wem/bandit_party_2","A3CA54DDB6GYHM","either","7","3551","","","","","","","0","0","1","0.3068434149","","0.2","0.8","0.6","0.4","","","","","0.2921647579","0.3068434149","0.7109729062","0.6516005735","","","","","","","","","","74","J","1","","","154","main_expt",""
"","bandit","234","907106","0.0-196.0-0.0","70978853","wem/bandit_party_2","A3CA54DDB6GYHM","either","7","1","","","","","","","0","0","1","","0.1789694193","0.2","0.8","0.6","0.4","0.1789694193","0.2314644909","0.6975465092","0.7291318088","","","","","","","","","","","","","","72","H","0","img/none_selected.jpg","","155","main_expt",""
"","bandit","235","909544","0.0-197.0-0.0","70978853","wem/bandit_party_2","A3CA54DDB6GYHM","either","7","515","","","","","","","0","0","1","","0.2187195075","0.2","0.8","0.6","0.4","0.2187195075","0.2154001061","0.6580608271","0.6273572288","","","","","","","","","","","","","","72","H","0","img/none_selected.jpg","","156","main_expt",""
"","bandit","236","913429","0.0-198.0-0.0","70978853","wem/bandit_party_2","A3CA54DDB6GYHM","either","7","1440","","","","","","","0","0","1","","0.566197257","0.2","0.8","0.6","0.4","0.2669834713","0.1648135251","0.5695802138","0.566197257","","","","","","","","","","","","","","76","L","3","","","157","main_expt",""
"","bandit","237","915582","0.0-199.0-0.0","70978853","wem/bandit_party_2","A3CA54DDB6GYHM","either","7","592","","","","","","","0","0","1","0.4733954301","","0.2","0.8","0.6","0.4","","","","","0.4240307821","0.2215973425","0.4733954301","0.4523642269","","","","","","","","","","75","K","2","","","158","main_expt",""
"","bandit","238","918410","0.0-200.0-0.0","70978853","wem/bandit_party_2","A3CA54DDB6GYHM","either","7","644","","","","","","","0","0","1","","0.5619817243","0.2","0.8","0.6","0.4","0.3840951437","0.2243274726","0.5619817243","0.3991212054","","","","","","","","","","","","","","75","K","2","","","159","main_expt",""
"","bandit","239","922064","0.0-201.0-0.0","70978853","wem/bandit_party_2","A3CA54DDB6GYHM","either","7","1494","","","","","","","0","0","1","0.2061161075","","0.2","0.8","0.6","0.4","","","","","0.4098147986","0.2061161075","0.4701658979","0.3566558104","","","","","","","","","","74","J","1","","","160","main_expt",""
"","bandit","240","924742","0.0-202.0-0.0","70978853","wem/bandit_party_2","A3CA54DDB6GYHM","either","7","1082","","","","","","","0","0","1","0.4027252302","","0.2","0.8","0.6","0.4","","","","","0.4027252302","0.209200141","0.5673671472","0.4430908041","","","","","","","","","","72","H","0","img/none_selected.jpg","","161","main_expt",""
"","bandit","241","927739","0.0-203.0-0.0","70978853","wem/bandit_party_2","A3CA54DDB6GYHM","either","7","1408","","","","","","","0","0","1","","0.3824170733","0.2","0.8","0.6","0.4","0.3824170733","0.1477343718","0.4921809208","0.3966098285","","","","","","","","","","","","","","72","H","0","img/none_selected.jpg","","162","main_expt",""
"","bandit","242","930921","0.0-204.0-0.0","70978853","wem/bandit_party_2","A3CA54DDB6GYHM","either","7","407","","","","","","","0","0","1","","0.3455868331","0.2","0.8","0.6","0.4","0.3352280924","0.1525050104","0.4204505308","0.3455868331","","","","","","","","","","","","","","76","L","3","","","163","main_expt",""
"","bandit","243","933684","0.0-205.0-0.0","70978853","wem/bandit_party_2","A3CA54DDB6GYHM","either","7","556","","","","","","","0","0","1","","0.534748173","0.2","0.8","0.6","0.4","0.3379187571","0.08831047354","0.534748173","0.3368969945","","","","","","","","","","","","","","75","K","2","","","164","main_expt",""
"","bandit","244","935249","0.0-206.0-0.0","70978853","wem/bandit_party_2","A3CA54DDB6GYHM","either","7","1","","","","","","","0","1","0","","0.1035482763","0.2","0.8","0.6","0.4","0.3160546663","0.1035482763","0.4724966102","0.3767562303","","","","","","","","","","","","","","74","J","1","","","165","main_expt",""
"","bandit","245","939768","0.0-207.0-0.0","70978853","wem/bandit_party_2","A3CA54DDB6GYHM","either","7","2936","","","","","","","0","0","1","0.06888190676","","0.2","0.8","0.6","0.4","","","","","0.3058359067","0.06888190676","0.5280505203","0.4727650462","","","","","","","","","","74","J","1","","","166","main_expt",""
"","bandit","246","947622","0.0-208.0-0.0","70978853","wem/bandit_party_2","A3CA54DDB6GYHM","either","7","6295","","","","","","","0","0","1","0.06051452263","","0.2","0.8","0.6","0.4","","","","","0.2561334246","0.06051452263","0.589670135","0.6140635231","","","","","","","","","","74","J","1","","","167","main_expt",""
"","bandit","247","953226","0.0-209.0-0.0","70978853","wem/bandit_party_2","A3CA54DDB6GYHM","either","7","3498","","","","","","","0","0","1","0.07905307949","","0.2","0.8","0.6","0.4","","","","","0.2459084815","0.07905307949","0.5058201204","0.5629225295","","","","","","","","","","74","J","1","","","168","main_expt",""
"","bandit","248","955356","0.0-210.0-0.0","70978853","wem/bandit_party_2","A3CA54DDB6GYHM","either","7","563","","","","","","","0","0","1","0.4102709571","","0.2","0.8","0.6","0.4","","","","","0.2138460752","0.07051596905","0.4102709571","0.6456076899","","","","","","","","","","75","K","2","","","169","main_expt",""
"","bandit","249","959049","0.0-211.0-0.0","70978853","wem/bandit_party_2","A3CA54DDB6GYHM","either","7","2132","","","","","","","0","1","0","","0.719827795","0.2","0.8","0.6","0.4","0.1642406351","0.1056762318","0.5061826445","0.719827795","","","","","","","","","","","","","","76","L","3","","","170","main_expt",""
"","bandit","250","962719","0.0-212.0-0.0","70978853","wem/bandit_party_2","A3CA54DDB6GYHM","either","7","2078","","","","","","","0","0","1","0.6716280274","","0.2","0.8","0.6","0.4","","","","","0.2337150112","0.1513980822","0.6092158501","0.6716280274","","","","","","","","","","76","L","3","","","171","main_expt",""
"","bandit","251","965575","0.0-213.0-0.0","70978853","wem/bandit_party_2","A3CA54DDB6GYHM","either","7","452","","","","","","","0","1","0","","0.5683226388","0.2","0.8","0.6","0.4","0.3128682212","0.1552293495","0.691496366","0.5683226388","","","","","","","","","","","","","","76","L","3","","","172","main_expt",""
"","bandit","252","967602","0.0-214.0-0.0","70978853","wem/bandit_party_2","A3CA54DDB6GYHM","either","7","465","","","","","","","1","0","0","0.4581357746","","0.2","0.8","0.6","0.4","","","","","0.2775517843","0.1325975083","0.7402253768","0.4581357746","","","","","","","","","","76","L","3","","","173","main_expt",""
"","bandit","253","971014","0.0-215.0-0.0","70978853","wem/bandit_party_2","A3CA54DDB6GYHM","either","7","1813","","","","","","","0","0","1","","0.5903479164","0.2","0.8","0.6","0.4","0.4159305855","0.09024892351","0.6601004511","0.5903479164","","","","","","","","","","","","","","76","L","3","","","174","main_expt",""
"","bandit","254","974512","0.0-216.0-0.0","70978853","wem/bandit_party_2","A3CA54DDB6GYHM","either","7","1874","","","","","","","0","0","1","","0.5658285383","0.2","0.8","0.6","0.4","0.4471770837","0.06963745108","0.6781732273","0.5658285383","","","","","","","","","","","","","","76","L","3","","","175","main_expt",""
"","bandit","255","977226","0.0-217.0-0.0","70978853","wem/bandit_party_2","A3CA54DDB6GYHM","either","7","310","","","","","","","0","0","1","","0.5162211083","0.2","0.8","0.6","0.4","0.5162211083","0.07897043431","0.6932650799","0.5313506173","","","","","","","","","","","","","","72","H","0","img/none_selected.jpg","","176","main_expt",""
"","bandit","256","980437","0.0-218.0-0.0","70978853","wem/bandit_party_2","A3CA54DDB6GYHM","either","7","1657","","","","","","","0","0","1","","0.09469685393","0.2","0.8","0.6","0.4","0.6372676231","0.09469685393","0.6803850572","0.4231289234","","","","","","","","","","","","","","74","J","1","","","177","main_expt",""
"","bandit","257","983071","0.0-219.0-0.0","70978853","wem/bandit_party_2","A3CA54DDB6GYHM","either","7","191","","","","","","","0","1","0","","0.5407017663","0.2","0.8","0.6","0.4","0.6295749113","0.1486386852","0.5407017663","0.580807006","","","","","","","","","","","","","","75","K","2","","","178","main_expt",""
"","bandit","258","987371","0.0-220.0-0.0","70978853","wem/bandit_party_2","A3CA54DDB6GYHM","either","7","2699","","","","","","","0","1","0","","0.5931576708","0.2","0.8","0.6","0.4","0.4126066341","0.1965095934","0.5931576708","0.5499948007","","","","","","","","","","","","","","75","K","2","","","179","main_expt",""
"","bandit","259","990504","0.0-221.0-0.0","70978853","wem/bandit_party_2","A3CA54DDB6GYHM","either","7","572","","","","","","","0","0","1","","0.5390819372","0.2","0.8","0.6","0.4","0.516991344","0.1749048096","0.5390819372","0.4918200669","","","","","","","","","","","","","","75","K","2","","","180","main_expt",""
"","bandit","260","992824","0.0-222.0-0.0","70978853","wem/bandit_party_2","A3CA54DDB6GYHM","either","7","747","","","","","","","1","0","0","0.4929910299","","0.2","0.8","0.6","0.4","","","","","0.4239603033","0.232896561","0.4929910299","0.5428702931","","","","","","","","","","75","K","2","","","181","main_expt",""
"","bandit","261","995955","0.0-223.0-0.0","70978853","wem/bandit_party_2","A3CA54DDB6GYHM","either","7","1566","","","","","","","1","0","0","0.458433212","","0.2","0.8","0.6","0.4","","","","","0.3961891141","0.2561822725","0.458433212","0.5870547156","","","","","","","","","","75","K","2","","","182","main_expt",""
"","bandit","262","998340","0.0-224.0-0.0","70978853","wem/bandit_party_2","A3CA54DDB6GYHM","either","7","432","","","","","","","0","0","1","0.5725449786","","0.2","0.8","0.6","0.4","","","","","0.4364601233","0.2713883962","0.5725449786","0.5031908535","","","","","","","","","","75","K","2","","","183","main_expt",""
"","bandit","263","1000620","0.0-225.0-0.0","70978853","wem/bandit_party_2","A3CA54DDB6GYHM","either","7","715","","","","","","","0","0","1","0.4878383732","","0.2","0.8","0.6","0.4","","","","","0.4826964198","0.3543557679","0.4878383732","0.4239978994","","","","","","","","","","75","K","2","","","184","main_expt",""
"","bandit","264","1003962","0.0-226.0-0.0","70978853","wem/bandit_party_2","A3CA54DDB6GYHM","either","7","1731","","","","","","","0","1","0","","0.4448789548","0.2","0.8","0.6","0.4","0.4448789548","0.2974533566","0.5189350158","0.3425545299","","","","","","","","","","","","","","72","H","0","img/none_selected.jpg","","185","main_expt",""
"","bandit","265","1007106","0.0-227.0-0.0","70978853","wem/bandit_party_2","A3CA54DDB6GYHM","either","7","452","","","","","","","0","0","1","","0.4585835861","0.2","0.8","0.6","0.4","0.4585835861","0.3295130888","0.4310300585","0.2594221554","","","","","","","","","","","","","","72","H","0","img/none_selected.jpg","","186","main_expt",""
"","bandit","266","1009800","0.0-228.0-0.0","70978853","wem/bandit_party_2","A3CA54DDB6GYHM","either","7","429","","","","","","","0","1","0","","0.5470412386","0.2","0.8","0.6","0.4","0.5470412386","0.3440574025","0.4005994516","0.350747246","","","","","","","","","","","","","","72","H","0","img/none_selected.jpg","","187","main_expt",""
"","bandit","267","1012971","0.0-229.0-0.0","70978853","wem/bandit_party_2","A3CA54DDB6GYHM","either","7","1608","","","","","","","0","0","1","","0.5485419855","0.2","0.8","0.6","0.4","0.5485419855","0.3176863717","0.5684333967","0.3667816541","","","","","","","","","","","","","","72","H","0","img/none_selected.jpg","","188","main_expt",""
"","bandit","268","1015738","0.0-230.0-0.0","70978853","wem/bandit_party_2","A3CA54DDB6GYHM","either","7","323","","","","","","","0","0","1","","0.6161015427","0.2","0.8","0.6","0.4","0.6161015427","0.3194332301","0.5768443477","0.3129240978","","","","","","","","","","","","","","72","H","0","img/none_selected.jpg","","189","main_expt",""
"","bandit","269","1020006","0.0-231.0-0.0","70978853","wem/bandit_party_2","A3CA54DDB6GYHM","either","7","2681","","","","","","","1","0","0","0.3585260795","","0.2","0.8","0.6","0.4","","","","","0.5145576236","0.3585260795","0.6091254975","0.3681084497","","","","","","","","","","74","J","1","","","190","main_expt",""
"","bandit","270","1022309","0.0-232.0-0.0","70978853","wem/bandit_party_2","A3CA54DDB6GYHM","either","7","365","","","","","","","1","0","0","0.4438822556","","0.2","0.8","0.6","0.4","","","","","0.4447609651","0.4438822556","0.6355225437","0.3284994938","","","","","","","","","","74","J","1","","","191","main_expt",""
"","bandit","271","1024436","0.0-233.0-0.0","70978853","wem/bandit_party_2","A3CA54DDB6GYHM","either","7","589","","","","","","","0","0","1","0.6336907385","","0.2","0.8","0.6","0.4","","","","","0.4273979598","0.6336907385","0.7449996868","0.2913335268","","","","","","","","","","74","J","1","","","192","main_expt",""
"","bandit","272","1028165","0.0-234.0-0.0","70978853","wem/bandit_party_2","A3CA54DDB6GYHM","either","7","2136","","","","","","","0","0","1","0.5871300795","","0.2","0.8","0.6","0.4","","","","","0.4382354048","0.5871300795","0.7645281636","0.3614904019","","","","","","","","","","74","J","1","","","193","main_expt",""
"","bandit","273","1029774","0.0-235.0-0.0","70978853","wem/bandit_party_2","A3CA54DDB6GYHM","either","7","12","","","","","","","0","0","1","0.7417458559","","0.2","0.8","0.6","0.4","","","","","0.4367950698","0.5919999684","0.7417458559","0.4180963095","","","","","","","","","","75","K","2","","","194","main_expt",""
"","bandit","274","1032976","0.0-236.0-0.0","70978853","wem/bandit_party_2","A3CA54DDB6GYHM","either","7","522","","","","","","","0","0","1","","0.4129416526","0.2","0.8","0.6","0.4","0.4306922929","0.5599221581","0.7102393491","0.4129416526","","","","","","","","","","","","","","76","L","3","","","195","main_expt",""
"","bandit","275","1037303","0.0-237.0-0.0","70978853","wem/bandit_party_2","A3CA54DDB6GYHM","either","7","1659","","","","","","","0","1","0","","0.4436260943","0.2","0.8","0.6","0.4","0.4436260943","0.4552797342","0.6846894693","0.6027995291","","","","","","","","","","","","","","72","H","0","img/none_selected.jpg","","196","main_expt",""
"","bandit","276","1041687","0.0-238.0-0.0","70978853","wem/bandit_party_2","A3CA54DDB6GYHM","either","7","2824","","","","","","","0","0","1","","0.4547077395","0.2","0.8","0.6","0.4","0.4547077395","0.3045440077","0.6573901597","0.6174547511","","","","","","","","","","","","","","72","H","0","img/none_selected.jpg","","197","main_expt",""
"","bandit","277","1045172","0.0-239.0-0.0","70978853","wem/bandit_party_2","A3CA54DDB6GYHM","either","7","1118","","","","","","","0","1","0","","0.4061180554","0.2","0.8","0.6","0.4","0.545148617","0.4061180554","0.7020762336","0.5727893511","","","","","","","","","","","","","","74","J","1","","","198","main_expt",""
"","bandit","278","1049340","0.0-240.0-0.0","70978853","wem/bandit_party_2","A3CA54DDB6GYHM","either","7","2607","","","","","","","0","0","1","0.3406873398","","0.2","0.8","0.6","0.4","","","","","0.5838562778","0.3406873398","0.7749867965","0.5803616598","","","","","","","","","","74","J","1","","","199","main_expt",""
"","bandit","279","1052131","0.0-241.0-0.0","70978853","wem/bandit_party_2","A3CA54DDB6GYHM","either","7","3","","","","","","","0","0","1","0.2810551981","","0.2","0.8","0.6","0.4","","","","","0.6569131065","0.2810551981","0.7971262248","0.5109940584","","","","","","","","","","74","J","1","","","200","main_expt",""
"","bandit","280","1054202","0.0-242.0-0.0","70978853","wem/bandit_party_2","A3CA54DDB6GYHM","either","7","523","","","","","","","1","0","0","0.6431063495","","0.2","0.8","0.6","0.4","","","","","0.6559739125","0.2295892347","0.6431063495","0.444158281","","","","","","","","","","75","K","2","","","201","main_expt",""
"","bandit","281","1058046","0.0-243.0-0.0","70978853","wem/bandit_party_2","A3CA54DDB6GYHM","either","7","1165","","","","","","","0","1","0","","0.6153479028","0.2","0.8","0.6","0.4","0.5940698896","0.2134833186","0.6153479028","0.3774362348","","","","","","","","","","","","","","75","K","2","","","202","main_expt",""
"","bandit","282","1060724","0.0-244.0-0.0","70978853","wem/bandit_party_2","A3CA54DDB6GYHM","either","7","57","","","","","","","0","0","1","0.6107921693","","0.2","0.8","0.6","0.4","","","","","0.6288005559","0.1538434825","0.6107921693","0.2852638898","","","","","","","","","","75","K","2","","","203","main_expt",""
"","bandit","283","1063563","0.0-245.0-0.0","70978853","wem/bandit_party_2","A3CA54DDB6GYHM","either","7","1280","","","","","","","1","0","0","0.6364312764","","0.2","0.8","0.6","0.4","","","","","0.7483345684","0.08629221539","0.6364312764","0.3900316507","","","","","","","","","","75","K","2","","","204","main_expt",""
"","bandit","284","1067026","0.0-246.0-0.0","70978853","wem/bandit_party_2","A3CA54DDB6GYHM","either","7","1889","","","","","","","0","0","1","","0.7098325313","0.2","0.8","0.6","0.4","0.7823609999","0.1303029892","0.7098325313","0.3334674042","","","","","","","","","","","","","","75","K","2","","","205","main_expt",""
"","bandit","285","1069936","0.0-247.0-0.0","70978853","wem/bandit_party_2","A3CA54DDB6GYHM","either","7","459","","","","","","","1","0","0","0.3997779834","","0.2","0.8","0.6","0.4","","","","","0.7053347691","0.1290793888","0.6423198407","0.3997779834","","","","","","","","","","76","L","3","","","206","main_expt",""
"","bandit","286","1072117","0.0-248.0-0.0","70978853","wem/bandit_party_2","A3CA54DDB6GYHM","either","7","598","","","","","","","0","1","0","","0.2791746034","0.2","0.8","0.6","0.4","0.692958529","0.1471003053","0.7196337679","0.2791746034","","","","","","","","","","","","","","76","L","3","","","207","main_expt",""
"","bandit","287","1075113","0.0-249.0-0.0","70978853","wem/bandit_party_2","A3CA54DDB6GYHM","either","7","1432","","","","","","","1","0","0","0.3447420344","","0.2","0.8","0.6","0.4","","","","","0.5726600787","0.1204476287","0.7273253538","0.3447420344","","","","","","","","","","76","L","3","","","208","main_expt",""
"","bandit","288","1078846","0.0-250.0-0.0","70978853","wem/bandit_party_2","A3CA54DDB6GYHM","either","7","2155","","","","","","","0","0","1","0.2106944101","","0.2","0.8","0.6","0.4","","","","","0.7193759884","0.1752658923","0.7701678217","0.2106944101","","","","","","","","","","76","L","3","","","209","main_expt",""
"","bandit","289","1083212","0.0-251.0-0.0","70978853","wem/bandit_party_2","A3CA54DDB6GYHM","either","7","2798","","","","","","","0","0","1","0.2609791638","","0.2","0.8","0.6","0.4","","","","","0.5469619257","0.2071456167","0.7673062315","0.2609791638","","","","","","","","","","76","L","3","","","210","main_expt",""
"","bandit","290","1085918","0.0-252.0-0.0","70978853","wem/bandit_party_2","A3CA54DDB6GYHM","either","7","401","","","","","","","0","0","1","0.1982577311","","0.2","0.8","0.6","0.4","","","","","0.5432746348","0.1982577311","0.7733207599","0.3702243554","","","","","","","","","","74","J","1","","","211","main_expt",""
"","bandit","291","1087893","0.0-253.0-0.0","70978853","wem/bandit_party_2","A3CA54DDB6GYHM","either","7","420","","","","","","","0","1","0","","0.7176010575","0.2","0.8","0.6","0.4","0.4857525371","0.2837026457","0.7176010575","0.4070014152","","","","","","","","","","","","","","75","K","2","","","212","main_expt",""
"","bandit","292","1091815","0.0-254.0-0.0","70978853","wem/bandit_party_2","A3CA54DDB6GYHM","either","7","2340","","","","","","","1","0","0","0.7241732444","","0.2","0.8","0.6","0.4","","","","","0.4416723402","0.2192955177","0.7241732444","0.5001351259","","","","","","","","","","75","K","2","","","213","main_expt",""
"","bandit","293","1099961","0.0-255.0-0.0","70978853","wem/bandit_party_2","A3CA54DDB6GYHM","either","7","5717","","","","","","","0","1","0","","0.6696022014","0.2","0.8","0.6","0.4","0.4231083207","0.2885853396","0.6696022014","0.5667049056","","","","","","","","","","","","","","75","K","2","","","214","main_expt",""
"","bandit","294","1103656","0.0-256.0-0.0","70978853","wem/bandit_party_2","A3CA54DDB6GYHM","either","7","1275","","","","","","","0","0","1","0.6255990046","","0.2","0.8","0.6","0.4","","","","","0.329019478","0.2451296471","0.6255990046","0.5259574602","","","","","","","","","","75","K","2","","","215","main_expt",""
"","bandit","295","1107427","0.0-257.0-0.0","70978853","wem/bandit_party_2","A3CA54DDB6GYHM","either","7","1087","","","","","","","1","0","0","0.6771362935","","0.2","0.8","0.6","0.4","","","","","0.3469743373","0.1946790852","0.6771362935","0.5468860011","","","","","","","","","","75","K","2","","","216","main_expt",""
"","bandit","296","1110442","0.0-258.0-0.0","70978853","wem/bandit_party_2","A3CA54DDB6GYHM","either","7","1453","","","","","","","0","1","0","","0.6918953154","0.2","0.8","0.6","0.4","0.3618740044","0.2497229096","0.6918953154","0.6182745027","","","","","","","","","","","","","","75","K","2","","","217","main_expt",""
"","bandit","297","1113447","0.0-259.0-0.0","70978853","wem/bandit_party_2","A3CA54DDB6GYHM","either","7","1417","","","","","","","0","0","1","","0.5726390237","0.2","0.8","0.6","0.4","0.3574217595","0.3076421025","0.5726390237","0.5979125128","","","","","","","","","","","","","","75","K","2","","","218","main_expt",""
"","bandit","298","1121285","0.0-260.0-0.0","70978853","wem/bandit_party_2","A3CA54DDB6GYHM","either","7","6249","","","","","","","1","0","0","0.5179196303","","0.2","0.8","0.6","0.4","","","","","0.3862686792","0.3488941347","0.5179196303","0.5321687475","","","","","","","","","","75","K","2","","","219","main_expt",""
"","bandit","299","1125634","0.0-261.0-0.0","70978853","wem/bandit_party_2","A3CA54DDB6GYHM","either","7","1694","","","","","","","0","1","0","","0.5578222379","0.2","0.8","0.6","0.4","0.4432846828","0.306784001","0.5578222379","0.6053830099","","","","","","","","","","","","","","75","K","2","","","220","main_expt",""
"","bandit","300","1133040","0.0-262.0-0.0","70978853","wem/bandit_party_2","A3CA54DDB6GYHM","either","7","4683","","","","","","","0","1","0","","0.6640911266","0.2","0.8","0.6","0.4","0.432499938","0.3786925452","0.6640911266","0.69383498","","","","","","","","","","","","","","75","K","2","","","221","main_expt",""
"","bandit","301","1137225","0.0-263.0-0.0","70978853","wem/bandit_party_2","A3CA54DDB6GYHM","either","7","2604","","","","","","","0","0","1","","0.7340686256","0.2","0.8","0.6","0.4","0.4050903391","0.5014801557","0.7340686256","0.783375317","","","","","","","","","","","","","","75","K","2","","","222","main_expt",""
"","bandit","302","1141358","0.0-264.0-0.0","70978853","wem/bandit_party_2","A3CA54DDB6GYHM","either","7","2526","","","","","","","0","0","1","","0.852862777","0.2","0.8","0.6","0.4","0.3282593462","0.4081704387","0.852862777","0.8374489269","","","","","","","","","","","","","","75","K","2","","","223","main_expt",""
"","bandit","303","1143719","0.0-265.0-0.0","70978853","wem/bandit_party_2","A3CA54DDB6GYHM","either","7","487","","","","","","","0","1","0","","0.422296693","0.2","0.8","0.6","0.4","0.2465370002","0.422296693","0.7830506485","0.7801262993","","","","","","","","","","","","","","74","J","1","","","224","main_expt",""
"","bandit","304","1148375","0.0-266.0-0.0","70978853","wem/bandit_party_2","A3CA54DDB6GYHM","either","7","2009","","","","","","","1","0","0","0.3998144739","","0.2","0.8","0.6","0.4","","","","","0.2260872052","0.3998144739","0.7447555501","0.7438235551","","","","","","","","","","74","J","1","","","225","main_expt",""
"","bandit","305","1153205","0.0-267.0-0.0","70978853","wem/bandit_party_2","A3CA54DDB6GYHM","either","7","3213","","","","","","","0","0","1","0.2692780115","","0.2","0.8","0.6","0.4","","","","","0.2573895518","0.2692780115","0.7331719472","0.7561714458","","","","","","","","","","74","J","1","","","226","main_expt",""
"","bandit","306","1157620","0.0-268.0-0.0","70978853","wem/bandit_party_2","A3CA54DDB6GYHM","either","7","2723","","","","","","","1","0","0","0.268728261","","0.2","0.8","0.6","0.4","","","","","0.2134597582","0.268728261","0.6417259928","0.7527106072","","","","","","","","","","74","J","1","","","227","main_expt",""
"","bandit","307","1162220","0.0-269.0-0.0","70978853","wem/bandit_party_2","A3CA54DDB6GYHM","either","7","3024","","","","","","","0","0","1","","0.2211951924","0.2","0.8","0.6","0.4","0.348479141","0.2211951924","0.6050549784","0.6315627418","","","","","","","","","","","","","","74","J","1","","","228","main_expt",""
"","bandit","308","1165674","0.0-270.0-0.0","70978853","wem/bandit_party_2","A3CA54DDB6GYHM","either","7","950","","","","","","","0","0","1","0.219241791","","0.2","0.8","0.6","0.4","","","","","0.3250735223","0.219241791","0.5962230341","0.5564086662","","","","","","","","","","74","J","1","","","229","main_expt",""
"","bandit","309","1167691","0.0-271.0-0.0","70978853","wem/bandit_party_2","A3CA54DDB6GYHM","either","7","429","","","","","","","1","0","0","0.3395219718","","0.2","0.8","0.6","0.4","","","","","0.3395219718","0.291585141","0.5594933722","0.5895813861","","","","","","","","","","72","H","0","img/none_selected.jpg","","230","main_expt",""
"","bandit","310","1171011","0.0-272.0-0.0","70978853","wem/bandit_party_2","A3CA54DDB6GYHM","either","7","1756","","","","","","","0","0","1","","0.3315483329","0.2","0.8","0.6","0.4","0.3315483329","0.2754541949","0.6411036761","0.6148213975","","","","","","","","","","","","","","72","H","0","img/none_selected.jpg","","231","main_expt",""
"","bandit","311","1177797","0.0-273.0-0.0","70978853","wem/bandit_party_2","A3CA54DDB6GYHM","either","7","5211","","","","","","","1","0","0","0.6653930637","","0.2","0.8","0.6","0.4","","","","","0.3876030756","0.3055336503","0.6653930637","0.5176988489","","","","","","","","","","75","K","2","","","232","main_expt",""
"","bandit","312","1181173","0.0-274.0-0.0","70978853","wem/bandit_party_2","A3CA54DDB6GYHM","either","7","531","","","","","","","1","0","0","0.5426719569","","0.2","0.8","0.6","0.4","","","","","0.3696248546","0.3390100853","0.5426719569","0.4505666118","","","","","","","","","","75","K","2","","","233","main_expt",""
"","bandit","313","1183013","0.0-275.0-0.0","70978853","wem/bandit_party_2","A3CA54DDB6GYHM","either","7","284","","","","","","","0","0","1","","0.5581360181","0.2","0.8","0.6","0.4","0.3927474605","0.3165323161","0.5581360181","0.4393496879","","","","","","","","","","","","","","75","K","2","","","234","main_expt",""
"","bandit","314","1184894","0.0-276.0-0.0","70978853","wem/bandit_party_2","A3CA54DDB6GYHM","either","7","1","","","","","","","0","1","0","","0.3542725407","0.2","0.8","0.6","0.4","0.4734072524","0.2944333127","0.5299247183","0.3542725407","","","","","","","","","","","","","","76","L","3","","","235","main_expt",""
"","bandit","315","1187216","0.0-277.0-0.0","70978853","wem/bandit_party_2","A3CA54DDB6GYHM","either","7","765","","","","","","","0","0","1","","0.452511288","0.2","0.8","0.6","0.4","0.5857320117","0.4127469632","0.4709954077","0.452511288","","","","","","","","","","","","","","76","L","3","","","236","main_expt",""
"","bandit","316","1190127","0.0-278.0-0.0","70978853","wem/bandit_party_2","A3CA54DDB6GYHM","either","7","1342","","","","","","","0","1","0","","0.5208556897","0.2","0.8","0.6","0.4","0.5208556897","0.4353664578","0.4171051322","0.4743784035","","","","","","","","","","","","","","72","H","0","img/none_selected.jpg","","237","main_expt",""
